Acc X       , Acc Y       , Acc Z       , Gyro X      , Gyro Y      , Gyro Z      , Magn X      , Magn Y      , Magn Z      , Euler X     , Euler Y     , Euler Z     , Time        , Status      , LowRate X   , LowRate Y   , LowRate Z    
-0.0221740417, 0.04156642  , 9.809425    , 0.00107846851, 0.0024026297, -0.000231143262, -0.160577059, -0.4044762  , -0.352298766, -3.13715053 , -0.00119709189, -1.95093226 , 0           , 3           , 11          , 0.0346410163, 0.0346410163
0.00240052864, 0.0392810553, 9.834469    , 0.0005094442, 0.00297260913, 0.0007753511, -0.16024    , -0.4044762  , -0.351557225, -3.13714528 , -0.001226783, -1.95094025 , 0.01        , 3           , 12          , 0.0346410163, 0
0.006454056 , 0.0379124135, 9.832683    , -0.0022042857, 0.00199703337, 0.000744466437, -0.160711884, -0.4040043  , -0.351287574, -3.13716745 , -0.0012467202, -1.95094776 , 0.02        , 3           , 50          , 0           , 0
-0.00273414887, 0.0579894371, 9.818377    , -0.0037582512, 0.00259120367, 0.00017106178, -0.160577059, -0.4045436  , -0.350613445, -3.137205   , -0.00127262459, -1.95094955 , 0.03        , 3           , 11          , 0.0346410163, 0.0346410163
-0.001937965, 0.04624836  , 9.819151    , 0.000239866131, 0.00327743473, -0.0009391728, -0.160577059, -0.4045436  , -0.350613445, -3.1372025  , -0.00130543963, -1.95094037 , 0.04        , 3           , 12          , 0.0346410163, 0
-0.008292531, 0.0457797572, 9.825863    , 0.00149207318, 0.0006877786, -0.00125518837, -0.160442233, -0.4044762  , -0.352366179, -3.13718772 , -0.00131237262, -1.95092785 , 0.05        , 3           , 50          , 0           , 0
-0.0280884132, 0.05220686  , 9.831175    , 0.0004848389, 0.0002590654, -0.000265871582, -0.161048949, -0.4040043  , -0.3504112  , -3.137183   , -0.00131497474, -1.95092535 , 0.06        , 3           , 11          , 0.0346410163, 0.0346410163
-0.02964574 , 0.0574921854, 9.802314    , 0.00233631185, 0.000384852145, -0.000395729759, -0.160509646, -0.404880673, -0.351017922, -3.13715959 , -0.00131884054, -1.95092142 , 0.07        , 3           , 12          , 0.0346410163, 0
-0.018393591, 0.07296781  , 9.822019    , 0.00193495571, 0.00225707  , -0.0009434999, -0.160711884, -0.404071718, -0.351692051, -3.13714    , -0.001341453, -1.950912   , 0.08        , 3           , 50          , 0           , 0
-0.0170347076, 0.03087758  , 9.834644    , -0.0007560834, 0.003004809 , -0.00137858931, -0.160711884, -0.404071718, -0.351692051, -3.13714767 , -0.00137156248, -1.95089841 , 0.09        , 3           , 11          , 0.0346410163, 0.0346410163
-0.0051780995, 0.0207677335, 9.800759    , -0.00136292714, 0.000143075624, -0.00113759516, -0.160509646, -0.404273957, -0.350208968, -3.137347   , -0.00142429583, -1.95088673 , 0.1         , 3           , 12          , 0.0346410163, 0
-0.0168565735, 0.0320406854, 9.810267    , -0.0006878616, -0.002169579, 0.000264119939, -0.160442233, -0.4045436  , -0.352298766, -3.137354   , -0.00140258938, -1.95088923 , 0.11        , 3           , 50          , 0           , 0
-0.009971967, 0.0539939925, 9.818263    , -0.00128080486, -0.004171134, 0.000374560419, -0.160981536, -0.403802067, -0.350815684, -3.13736653 , -0.00136086275, -1.95089269 , 0.12        , 3           , 11          , 0.0346410163, 0.0346410163
-0.002355814, 0.0307222046, 9.795479    , -0.000677407952, -0.00159130222, -0.000299860985, -0.160442233, -0.404745847, -0.350815684, -3.13737345 , -0.00134496239, -1.95088971 , 0.13        , 3           , 12          , 0.0346410163, 0
-0.02485079 , 0.05275613  , 9.819468    , 0.0004509943, -0.001756388, 0.00084956194, -0.160711884, -0.404071718, -0.352029115, -3.137369   , -0.00132736273, -1.95089817 , 0.14        , 3           , 50          , 0           , 0
-0.0175995  , 0.0527659841, 9.812759    , 0.0004122137, -0.0046298583, 0.00166631863, -0.160711884, -0.404071718, -0.352029115, -3.13736463 , -0.00128099415, -1.95091462 , 0.15        , 3           , 11          , 0.0346410163, 0.0346410163
-0.016440317, 0.041777648 , 9.827097    , 0.000157340852, -0.0024712258, 0.0009804968, -0.16084671 , -0.404273957, -0.350074142, -3.1373632  , -0.00125624053, -1.9509244  , 0.16        , 3           , 12          , 0.0346410163, 0
-0.0303451121, 0.0482118577, 9.827044    , -0.0009373749, 0.000701661455, 1.797789E-05, -0.160711884, -0.40481326 , -0.351759464, -3.13737249 , -0.00126325642, -1.95092452 , 0.17        , 3           , 50          , 0           , 0
-0.008198206, 0.0548269153, 9.823258    , -0.004481867, 0.00103459891, -0.0011439221, -0.160644472, -0.403802067, -0.351152748, -3.13741732 , -0.00127365021, -1.95091319 , 0.18        , 3           , 11          , 0.0346410163, 0.0346410163
-0.0288850218, 0.04747732  , 9.810335    , -0.005514538, -0.00168546767, -0.000331075455, -0.160644472, -0.404611021, -0.3508831  , -3.13747239 , -0.00125680934, -1.95090985 , 0.19        , 3           , 12          , 0.0346410163, 0
-0.008784157, 0.0270246714, 9.808929    , 4.69155566E-05, -0.0008674686, 0.000144033911, -0.160644472, -0.404611021, -0.3508831  , -3.13724971 , -0.00176959392, -1.95091176 , 0.2         , 3           , 50          , 0           , 0
-0.0180729628, 0.0496184155, 9.812265    , 0.0003737129, 0.002148961 , -0.0009550866, -0.160644472, -0.4044762  , -0.352366179, -3.13724613 , -0.00179112493, -1.95090222 , 0.21        , 3           , 11          , 0.0321194828, 0.0321194828
0.00218274258, 0.0409764051, 9.802868    , -0.00160567253, 0.00260801543, -0.001962394, -0.160981536, -0.4040043  , -0.350141555, -3.137262   , -0.00181728962, -1.95088279 , 0.22        , 3           , 12          , 0.0346698426, 0
-0.0113268448, 0.0486577973, 9.812317    , 0.000369726622, 0.00172037224, -0.00110442878, -0.160577059, -0.404745847, -0.3514224  , -3.13725853 , -0.001834541, -1.95087183 , 0.23        , 3           , 50          , 0           , 0
0.0121217314, 0.06319834  , 9.825348    , 0.0009303448, 0.001985815 , 0.0006201554, -0.160711884, -0.404139131, -0.351692051, -3.13724923 , -0.00185437233, -1.950878   , 0.24        , 3           , 11          , 0.0321194828, 0.0321194828
-0.0005195569, 0.0450048447, 9.80785751  , -4.387787E-05, 0.00343522336, -8.038378E-05, -0.160711884, -0.404139131, -0.351692051, -3.13724947 , -0.00188872777, -1.95087743 , 0.25        , 3           , 12          , 0.0346698426, 0
-0.0266488772, 0.0456540957, 9.810334    , 0.0008148134, 0.00315149315, -0.00136715511, -0.160577059, -0.4044762  , -0.350478619, -3.13724136 , -0.00192030147, -1.95086384 , 0.26        , 3           , 50          , 0           , 0
-0.00647637062, 0.0453422032, 9.823164    , 0.000937233563, 0.00143057317, -0.0013913397, -0.160711884, -0.4045436  , -0.352366179, -3.137232   , -0.00193466735, -1.95085    , 0.27        , 3           , 11          , 0.0321194828, 0.0321194828
-0.03211366 , 0.0442710035, 9.817496    , 0.00164420239, 0.00155896018, -0.000526477466, -0.161048949, -0.4039369  , -0.350546032, -3.13721561 , -0.00195028016, -1.95084476 , 0.28        , 3           , 12          , 0.0346698426, 0
-0.0108701745, 0.04643806  , 9.808682    , 0.004196045 , 0.00123997568, 0.000200179609, -0.160509646, -0.40481326 , -0.3509505  , -3.13717365 , -0.001962671, -1.95084667 , 0.29        , 3           , 50          , 0           , 0
-0.0164526813, 0.04888085  , 9.837568    , 0.005313907 , -0.001217921, -0.000257617357, -0.160711884, -0.404206544, -0.351826876, -3.13703585 , -0.00172121811, -1.95084429 , 0.3         , 3           , 11          , 0.0267746411, 0.0267746411
0.00178236887, 0.054410737 , 9.812053    , 0.003462024 , -0.00162644754, -0.0005611788, -0.160711884, -0.404206544, -0.351826876, -3.13700128 , -0.00170497946, -1.95083857 , 0.31        , 3           , 12          , 0.0347559527, 0
-0.0235590711, 0.03262297  , 9.803437    , 0.000344312779, 0.000113295209, 0.000732753135, -0.160711884, -0.40434137 , -0.350208968, -3.136998   , -0.001706079, -1.950846   , 0.32        , 3           , 50          , 0           , 0
-0.028490968, 0.0340333246, 9.802053    , -0.0007950972, -1.84359124E-05, 0.0007238128, -0.160509646, -0.4044762  , -0.3519617  , -3.13700581 , -0.00170586107, -1.95085311 , 0.33        , 3           , 11          , 0.0267746411, 0.0267746411
-0.0140226008, 0.04824493  , 9.810933    , -0.00152420264, -0.00215159729, -0.000313346245, -0.1607793  , -0.404071718, -0.351017922, -3.137021   , -0.00168435962, -1.95085    , 0.34        , 3           , 12          , 0.0347559527, 0
0.008468462 , 0.0533581674, 9.820684    , -0.00167935726, -0.00244952925, 0.00111244351, -0.160644472, -0.4044762  , -0.351017922, -3.13703775 , -0.00165981415, -1.950861   , 0.35        , 3           , 50          , 0           , 0
-0.02716215 , 0.05490929  , 9.830763    , 0.002187392 , 8.683401E-05, 0.00160238217, -0.160644472, -0.4044762  , -0.351017922, -3.13701582 , -0.00166060915, -1.950877   , 0.36        , 3           , 11          , 0.0267746411, 0.0267746411
-0.0221652873, 0.04336036  , 9.810349    , 0.004218349 , 0.00336482632, 0.00137620757, -0.160509646, -0.4044762  , -0.352366179, -3.13697362 , -0.00169419358, -1.9508909  , 0.37        , 3           , 12          , 0.0347559527, 0
-0.008484169, 0.0550824478, 9.79977     , 0.000230407488, 0.00339760282, 0.002210712 , -0.161183774, -0.404071718, -0.350208968, -3.13697147 , -0.00172806683, -1.95091319 , 0.38        , 3           , 50          , 0           , 0
-0.0215742  , 0.0449075624, 9.791853    , -0.00149520137, 0.00127327512, 0.00131063827, -0.160577059, -0.404678434, -0.351692051, -3.13698626 , -0.00174073922, -1.95092642 , 0.39        , 3           , 11          , 0.0267746411, 0.0267746411
-0.0378618464, 0.04270222  , 9.800261    , -0.00349588157, 2.37558252E-05, 0.0004213172, -0.160914123, -0.4039369  , -0.351220161, -3.13702679 , -0.00186613353, -1.95093071 , 0.4         , 3           , 12          , 0.03489849  , 0
-0.0225948151, 0.0585305579, 9.825878    , -0.004922201, -0.000813855, -0.000458262453, -0.160577059, -0.4044762  , -0.350613445, -3.137076   , -0.00185801589, -1.95092618 , 0.41        , 3           , 50          , 0           , 0
-0.01980238 , 0.0466277525, 9.798214    , -0.003383771, -0.00283964118, -4.88075348E-05, -0.160577059, -0.4044762  , -0.350613445, -3.13710976 , -0.00182962185, -1.95092559 , 0.42        , 3           , 11          , 0.0230189562, 0.0230189543
0.000320859253, 0.03333152  , 9.802311    , -0.00124689436, -0.00271546445, -0.000320034334, -0.160577059, -0.404206544, -0.352568418, -3.13712215 , -0.001802482, -1.95092225 , 0.43        , 3           , 12          , 0.03489849  , 0
-0.0148833524, 0.0496490337, 9.806875    , 0.000340902363, -0.000866033253, -0.000569646654, -0.161048949, -0.4040043  , -0.3504112  , -3.13711882 , -0.00179384719, -1.95091641 , 0.44        , 3           , 50          , 0           , 0
-0.01987631 , 0.034050785 , 9.79355049  , 0.001477422 , -0.00073814136, -0.00013146027, -0.160509646, -0.4049481  , -0.351017922, -3.137104   , -0.00178647111, -1.9509151  , 0.45        , 3           , 11          , 0.0230189562, 0.0230189543
-0.025106892, 0.0314426   , 9.830511    , 0.002916676 , 0.000398846081, -0.000678527169, -0.160644472, -0.4039369  , -0.352029115, -3.137075   , -0.00179049058, -1.95090842 , 0.46        , 3           , 12          , 0.03489849  , 0
-0.0137260985, 0.0395479947, 9.822578    , 0.00304060173, -0.000614583958, 0.000309296185, -0.160644472, -0.4039369  , -0.352029115, -3.13704443 , -0.00178433023, -1.95091152 , 0.47        , 3           , 50          , 0           , 0
0.00910780951, 0.0625465661, 9.804534    , 0.003148858 , -0.00348309986, 0.000411499583, -0.160711884, -0.4044762  , -0.350208968, -3.137013   , -0.00174948107, -1.95091546 , 0.48        , 3           , 11          , 0.0230189562, 0.0230189543
-0.0009810627, 0.0552296   , 9.821974    , 0.0008887422, -0.0024518373, -0.0001599283, -0.160711884, -0.4044762  , -0.352163941, -3.13700414 , -0.00172497018, -1.95091367 , 0.49        , 3           , 12          , 0.03489849  , 0
-0.007270553, 0.04239692  , 9.804152    , -0.0003508384, 0.000120778037, 1.31079587E-05, -0.161183774, -0.403802067, -0.350815684, -3.136926   , -0.00159781589, -1.95091414 , 0.5         , 3           , 50          , 0           , 0
-0.00590584334, 0.04107116  , 9.800535    , -0.000356065284, -0.000168360668, 0.000295098464, -0.160442233, -0.404678434, -0.3508831  , -3.13692951 , -0.00159611856, -1.950917   , 0.51        , 3           , 11          , 0.0198162682, 0.019816272
-0.007738482, 0.0548375025, 9.821907    , -0.00266788458, -0.0032976144, 0.000235482439, -0.160644472, -0.404273957, -0.352096528, -3.13695621 , -0.00156313158, -1.95091915 , 0.52        , 3           , 12          , 0.03509635  , 0
-0.0174280833, 0.0309685972, 9.82651     , -0.00151678058, -0.00272705615, -0.000750891049, -0.160644472, -0.404273957, -0.352096528, -3.13697124 , -0.00153589586, -1.95091152 , 0.53        , 3           , 50          , 0           , 0
-0.0124344472, 0.03321387  , 9.82342148  , 0.000368379 , 0.000406531966, -0.0006938451, -0.16084671 , -0.404273957, -0.350006729, -3.13696766 , -0.00153999345, -1.95090461 , 0.54        , 3           , 11          , 0.0198162682, 0.019816272
-0.0125923958, 0.0510257   , 9.802848    , -0.0006443589, -0.000170590065, 0.0008657131, -0.160509646, -0.4045436  , -0.3518943  , -3.136974   , -0.0015382478, -1.95091319 , 0.55        , 3           , 12          , 0.03509635  , 0
-0.0348690972, 0.037089698 , 9.816484    , -0.00152353663, -0.00174834486, 0.0019822747, -0.160914123, -0.4040043  , -0.351287574, -3.13698936 , -0.001520673, -1.9509331  , 0.56        , 3           , 50          , 0           , 0
-0.00308807753, 0.0343003869, 9.840684    , -0.000813532562, -0.00218031835, 0.00140796986, -0.160509646, -0.4045436  , -0.3508831  , -3.13699746 , -0.00149880513, -1.95094717 , 0.57        , 3           , 11          , 0.0198162682, 0.019816272
-0.00729403039, 0.03212288  , 9.794999    , -0.0006405051, -0.000165471109, 0.0002933851, -0.160509646, -0.4045436  , -0.3508831  , -3.137004   , -0.00149713666, -1.95095    , 0.58        , 3           , 12          , 0.03509635  , 0
-0.02785606 , 0.0126974341, 9.81446     , -5.141592E-05, 0.00183096435, 0.0007552726, -0.160711884, -0.4045436  , -0.352366179, -3.13700438 , -0.00151541189, -1.95095766 , 0.59        , 3           , 50          , 0           , 0
-0.0102604292, 0.0228379574, 9.821966    , 0.000580430031, 0.0005649902, 0.000311297772, -0.16084671 , -0.404139131, -0.350208968, -3.137357   , -0.00166501221, -1.95096028 , 0.6         , 3           , 11          , 0.0192513727, 0.0192513838
-0.0119775459, 0.026543146 , 9.814314    , 0.00130322424, 0.0009965932, -0.0006797324, -0.160509646, -0.40481326 , -0.3514224  , -3.13734412 , -0.00167500682, -1.95095348 , 0.61        , 3           , 12          , 0.03534818  , 0
-0.0208541825, 0.0397268459, 9.811676    , 0.000856210536, -0.000437087234, -0.000130842178, -0.160711884, -0.4040043  , -0.3514224  , -3.13733554 , -0.00167064159, -1.95095229 , 0.62        , 3           , 50          , 0           , 0
-0.0351931527, 0.0533117242, 9.818024    , 0.000733380846, 0.00100109307, -0.0005400772, -0.160509646, -0.4044762  , -0.3504112  , -3.13732815 , -0.00168067554, -1.95094681 , 0.63        , 3           , 11          , 0.0192513727, 0.0192513838
-0.0162568018, 0.0491808653, 9.809567    , 0.00306542148, 0.005144892 , -0.00175359182, -0.160509646, -0.4044762  , -0.3504112  , -3.13729763 , -0.00173219852, -1.95092952 , 0.64        , 3           , 12          , 0.03534818  , 0
-0.004795311, 0.0175445639, 9.806599    , 0.00161007722, 0.00285774819, -0.000793973042, -0.160442233, -0.4044762  , -0.352298766, -3.13728142 , -0.0017608098, -1.95092177 , 0.65        , 3           , 50          , 0           , 0
-0.025149839, 0.01846795  , 9.820875    , -0.0034086064, 0.000173016684, 0.0005672139, -0.160711884, -0.404139131, -0.3504112  , -3.13731551 , -0.00176251587, -1.9509275  , 0.66        , 3           , 11          , 0.0192513727, 0.0192513838
0.00445523858, 0.0449956   , 9.804742    , -0.00326115987, 0.000460710551, 0.0002860802, -0.160442233, -0.404611021, -0.351085335, -3.13734818 , -0.00176711066, -1.95093036 , 0.67        , 3           , 12          , 0.03534818  , 0
-0.00236381218, 0.0387223735, 9.806414    , 0.00289747678, 0.0039833826, 8.892337E-05, -0.160577059, -0.4040043  , -0.351826876, -3.137319   , -0.00180694042, -1.95093131 , 0.68        , 3           , 50          , 0           , 0
-0.0117621738, 0.04111729  , 9.800934    , 0.002603137 , 0.00312653463, 7.468938E-05, -0.160577059, -0.4040043  , -0.351826876, -3.137293   , -0.001838202, -1.95093226 , 0.69        , 3           , 11          , 0.0192513727, 0.0192513838
-0.00041102618, 0.0482870042, 9.796152    , -0.00127528014, 9.613834E-05, -0.00113662321, -0.1607793  , -0.404408783, -0.350208968, -3.13735557 , -0.00153574685, -1.95092082 , 0.7         , 3           , 12          , 0.0356524326, 0
-0.0144149847, 0.0536790639, 9.809185    , -0.000268876844, 0.000947041844, -0.00126118772, -0.160644472, -0.404678434, -0.352298766, -3.13735819 , -0.00154527079, -1.9509083  , 0.71        , 3           , 50          , 0           , 0
-0.0116718477, 0.05416452  , 9.803796    , -0.0011277009, 0.0008073022, -0.0006960868, -0.16084671 , -0.40386948 , -0.351017922, -3.13736939 , -0.00155337329, -1.95090127 , 0.72        , 3           , 11          , 0.0184807647, 0.01848078
-0.0325296447, 0.0416565835, 9.809332    , -0.00155271089, 0.0009549262, -0.0006965701, -0.160509646, -0.404678434, -0.351085335, -3.13738513 , -0.001562952, -1.95089447 , 0.73        , 3           , 12          , 0.0356524326, 0
-0.0114837941, 0.0283864   , 9.810275    , 0.000283081725, 0.000213296982, 1.95431658E-05, -0.160509646, -0.404678434, -0.351085335, -3.13738227 , -0.00156508386, -1.95089471 , 0.74        , 3           , 50          , 0           , 0
-0.04384748 , 0.0380989537, 9.813704    , 0.00170652219, 5.939851E-05, -0.000403222657, -0.160577059, -0.404071718, -0.352231354, -3.137365   , -0.00156569493, -1.95089054 , 0.75        , 3           , 11          , 0.0184807647, 0.01848078
-0.0197524019, 0.05783266  , 9.80466652  , 0.00171738584, 0.00092041574, -0.0005337841, -0.161048949, -0.404139131, -0.350276381, -3.137348   , -0.00157492119, -1.9508853  , 0.76        , 3           , 12          , 0.0356524326, 0
0.003911894 , 0.0368445143, 9.808256    , -0.000580547552, -0.0009205116, -0.000431537133, -0.160442233, -0.404745847, -0.351826876, -3.137354   , -0.00156573439, -1.950881   , 0.77        , 3           , 50          , 0           , 0
-0.0208815075, 0.04280092  , 9.819389    , 0.000550202967, -0.00178796821, -0.000866450253, -0.16084671 , -0.403802067, -0.3514224  , -3.13734841 , -0.00154789153, -1.95087242 , 0.78        , 3           , 11          , 0.0184807647, 0.01848078
-0.00193960592, 0.02888563  , 9.798173    , 0.00327960169, 0.0010426935, 5.005436E-05, -0.160577059, -0.40434137 , -0.350680858, -3.13731551 , -0.00155831676, -1.9508729  , 0.79        , 3           , 12          , 0.0356524326, 0
0.00242255628, 0.0595942   , 9.790889    , 0.00293034548, 0.00210459763, 0.00107016962, -0.160577059, -0.40434137 , -0.350680858, -3.13797975 , -0.000869555632, -1.950883   , 0.8         , 3           , 50          , 0           , 0
-0.00317134149, 0.0375371762, 9.791486    , 0.00249035261, 0.0005391453, 0.000329235132, -0.160577059, -0.40434137 , -0.352366179, -3.13795471 , -0.0008749352, -1.95088637 , 0.81        , 3           , 11          , 0.0136722643, 0.013672268
-0.0248043258, 0.0336865559, 9.789435    , 0.0009424328, 0.00198793435, 0.000340679166, -0.160981536, -0.4039369  , -0.350478619, -3.13794541 , -0.0008948019, -1.95088983 , 0.82        , 3           , 12          , 0.0360073633, 0
0.0101362076, 0.0388941467, 9.82234     , -0.00205697725, 0.00115469855, 0.000739413954, -0.160577059, -0.4045436  , -0.351692051, -3.137966   , -0.0009063219, -1.95089722 , 0.83        , 3           , 50          , 0           , 0
-0.0137344729, 0.04265111  , 9.827583    , -0.00133857923, 0.0008749728, -0.0008343781, -0.160711884, -0.404071718, -0.351692051, -3.13797927 , -0.0009151016, -1.950889   , 0.84        , 3           , 11          , 0.0136722643, 0.013672268
-0.0286097564, 0.0463151336, 9.834265    , -0.000598875631, 0.00302221114, -0.001371121, -0.160711884, -0.404071718, -0.351692051, -3.13798523 , -0.000945373, -1.95087528 , 0.85        , 3           , 12          , 0.0360073633, 0
-0.011021479, 0.0395293161, 9.822152    , -0.00118082273, 0.00230514375, -0.0006695718, -0.160644472, -0.40434137 , -0.350748271, -3.13799715 , -0.00096844876, -1.95086873 , 0.86        , 3           , 50          , 0           , 0
0.000180410221, 0.0366774872, 9.826738    , -0.00106570066, 0.000856725732, 0.0008843195, -0.160509646, -0.404408783, -0.352501   , -3.13800764 , -0.000976984, -1.95087755 , 0.87        , 3           , 11          , 0.0136722643, 0.013672268
-0.006805683, 0.05309861  , 9.81512     , -0.001082887, -0.0007181798, 0.000718282943, -0.161183774, -0.40386948 , -0.3508831  , -3.13801861 , -0.0009697767, -1.9508847  , 0.88        , 3           , 12          , 0.0360073633, 0
-0.0173548125, 0.0315259621, 9.816582    , -0.000925396, -0.000134948466, -0.00056025153, -0.160509646, -0.4045436  , -0.351287574, -3.138028   , -0.000968447246, -1.9508791  , 0.89        , 3           , 50          , 0           , 0
0.001643925 , 0.04307034  , 9.818244    , -0.0006460688, -0.0002698328, -0.0007037534, -0.1607793  , -0.404206544, -0.352231354, -3.138044   , -0.0009879646, -1.95087218 , 0.9         , 3           , 11          , 0.00972008  , 0.009720087
0.01433206  , 0.0470913053, 9.811632    , 0.0013542244, 0.000427667517, -0.0008244078, -0.1607793  , -0.404206544, -0.352231354, -3.13803053 , -0.000992271, -1.950864   , 0.91        , 3           , 12          , 0.0364111   , 0
-0.008996382, 0.05588172  , 9.809712    , -0.000503571937, -0.000412007648, -0.0009911475, -0.1607793  , -0.404139131, -0.3503438  , -3.13803554 , -0.000988186, -1.950854   , 0.92        , 3           , 50          , 0           , 0
-0.00415270962, 0.0498848855, 9.81827     , -0.0028126454, -0.00297322217, -0.0004700884, -0.160577059, -0.404678434, -0.352298766, -3.13806367 , -0.0009584707, -1.95084918 , 0.93        , 3           , 11          , 0.00972008  , 0.009720087
-0.008658247, 0.0361202061, 9.801808    , -0.00193980266, -0.00112168607, -0.000151656219, -0.161048949, -0.4040043  , -0.351220161, -3.13808322 , -0.00094725925, -1.95084763 , 0.94        , 3           , 12          , 0.0364111   , 0
-0.003997594, 0.06881809  , 9.818942    , -0.00105086982, 0.00188000617, -0.00024577594, -0.160711884, -0.4044762  , -0.3508831  , -3.13809371 , -0.0009660677, -1.95084524 , 0.95        , 3           , 50          , 0           , 0
0.000924661756, 0.0580451638, 9.810281    , -0.00293645076, -0.000548651849, 0.0009953501, -0.160711884, -0.4044762  , -0.3508831  , -3.138123   , -0.000960546546, -1.95085526 , 0.96        , 3           , 11          , 0.00972008  , 0.009720087
-0.004146778, 0.0449975058, 9.811439    , -0.004227571, -0.00125593576, 0.00140645192, -0.160711884, -0.404408783, -0.352635831, -3.13816524 , -0.00094793865, -1.95086932 , 0.97        , 3           , 12          , 0.0364111   , 0
0.00480572134, 0.04350348  , 9.817375    , -0.000939457037, -0.000137730924, 0.000870522053, -0.161183774, -0.4039369  , -0.350546032, -3.13817453 , -0.0009465316, -1.9508779  , 0.98        , 3           , 50          , 0           , 0
0.0133790821, 0.0479090139, 9.820215    , 0.00147993269, -1.90031642E-05, 0.000887172646, -0.160644472, -0.404678434, -0.351759464, -3.13815975 , -0.0009463111, -1.95088685 , 0.99        , 3           , 11          , 0.00972008  , 0.009720087
-0.0115856137, 0.03001098  , 9.827005    , 0.0009336546, 9.94263E-05 , 0.0007428985, -0.160914123, -0.404071718, -0.351826876, -3.13811469 , -0.000890109339, -1.95089436 , 1           , 3           , 12          , 0.0368616469, 0
-0.0200203024, 0.0324948356, 9.812502    , 0.001659749 , 0.00081760867, -0.000243958231, -0.160711884, -0.4045436  , -0.3508831  , -3.138098   , -0.0008982938, -1.950892   , 1.01        , 3           , 50          , 0           , 0
-0.034127   , 0.06379567  , 9.806862    , 0.000822795846, 0.00183570327, -0.0009499011, -0.160711884, -0.4045436  , -0.3508831  , -3.13809    , -0.000916684046, -1.95088255 , 1.02        , 3           , 11          , 0.009962415 , 0.009962419
-0.01624462 , 0.05810221  , 9.818705    , -0.002602034, 0.00086735154, -0.0009850691, -0.160509646, -0.404206544, -0.352635831, -3.138116   , -0.0009253918, -1.95087266 , 1.03        , 3           , 12          , 0.0368616469, 0
-0.00469812 , 0.0448465832, 9.825886    , -0.000902547734, 0.00055831566, -0.000406634266, -0.161048949, -0.4039369  , -0.3509505  , -3.138125   , -0.00093098887, -1.95086861 , 1.04        , 3           , 50          , 0           , 0
0.00380618661, 0.0402436852, 9.827718    , 0.00105512282, -0.002610443, -0.0008697953, -0.160577059, -0.404745847, -0.3514224  , -3.13811445 , -0.0009049147, -1.95086    , 1.05        , 3           , 11          , 0.009962415 , 0.009962419
-0.0140562514, 0.0513093248, 9.81955051  , -0.00150016369, -0.00201383769, -0.000590704731, -0.1607793  , -0.404273957, -0.352029115, -3.13812947 , -0.000884796958, -1.95085406 , 1.06        , 3           , 12          , 0.0368616469, 0
-0.00909809 , 0.05528082  , 9.823707    , -0.0009153379, -0.000305261085, 1.00911166E-05, -0.1607793  , -0.404273957, -0.352029115, -3.13813853 , -0.0008817443, -1.95085418 , 1.07        , 3           , 50          , 0           , 0
-0.012325881, 0.04806957  , 9.825851    , -0.000205888049, -0.000455774716, 1.22878191E-05, -0.160914123, -0.40434137 , -0.3503438  , -3.13814068 , -0.000877185958, -1.9508543  , 1.08        , 3           , 11          , 0.009962415 , 0.009962419
-0.0153543316, 0.05985927  , 9.822347    , 0.000519098132, 0.0008253277, 0.000178434231, -0.160577059, -0.4044762  , -0.352231354, -3.13813543 , -0.0008854334, -1.95085609 , 1.09        , 3           , 12          , 0.0368616469, 0
-8.720532E-05, 0.03651598  , 9.800085    , 0.002833313 , 0.0005274562, 4.4893728E-05, -0.161116362, -0.4039369  , -0.351152748, -3.138042   , -0.000907427631, -1.95085669 , 1.1         , 3           , 50          , 0           , 0
-0.0013640523, 0.0375311673, 9.7906      , 0.00109738321, -0.00175167841, 0.000430471118, -0.160644472, -0.404611021, -0.350815684, -3.138031   , -0.0008898955, -1.950861   , 1.11        , 3           , 11          , 0.0103542423, 0.0103542469
0.023175085 , 0.0485455468, 9.837026    , 0.00223692553, -0.00119647756, 0.00116108172, -0.1607793  , -0.404139131, -0.352163941, -3.13800859 , -0.0008778892, -1.95087266 , 1.12        , 3           , 12          , 0.037356928 , 0
-0.005519055, 0.033847928 , 9.800906    , 0.00368552539, 0.00108170754, 0.001203037 , -0.1607793  , -0.404139131, -0.352163941, -3.13797188 , -0.0008886629, -1.9508847  , 1.13        , 3           , 50          , 0           , 0
-0.00560797 , 0.0426144078, 9.824495    , 0.00358924  , 0.004248321 , -0.000182730859, -0.160914123, -0.404071718, -0.350141555, -3.13793588 , -0.0009311526, -1.950883   , 1.14        , 3           , 11          , 0.0103542423, 0.0103542469
0.0213491786, 0.0418460257, 9.832414    , 0.00290193781, 0.005415939 , -0.00174422225, -0.160711884, -0.404408783, -0.351826876, -3.137907   , -0.0009853757, -1.95086575 , 1.15        , 3           , 12          , 0.037356928 , 0
0.005934192 , 0.040035367 , 9.845349    , 0.00144481147, 0.00256203581, -0.0015083605, -0.16084671 , -0.4039369  , -0.351355   , -3.13789248 , -0.00101105159, -1.95085073 , 1.16        , 3           , 50          , 0           , 0
-0.0145421205, 0.04369141  , 9.815392    , 0.0003948104, -0.00116873661, 0.000148370629, -0.160711884, -0.404611021, -0.350748271, -3.13788843 , -0.0009993588, -1.95085216 , 1.17        , 3           , 11          , 0.0103542423, 0.0103542469
-0.0140765784, 0.04104012  , 9.809946    , -0.0008811831, -0.0007271442, 0.000290002674, -0.160711884, -0.404611021, -0.350748271, -3.13789725 , -0.0009920768, -1.950855   , 1.18        , 3           , 12          , 0.037356928 , 0
-0.0301551744, 0.0533992425, 9.805876    , -0.0009967263, 0.00142620364, 3.428353E-05, -0.1607793  , -0.404408783, -0.352635831, -3.13790727 , -0.00100633735, -1.95085549 , 1.19        , 3           , 50          , 0           , 0
-0.0267223082, 0.0357486941, 9.808865    , 0.000918379752, -0.00162443216, -8.222173E-07, -0.161048949, -0.4040043  , -0.350546032, -3.13774586 , -0.001169139, -1.95085573 , 1.2         , 3           , 11          , 0.01085839  , 0.0108584026
0.0106910467, 0.03237343  , 9.799232    , -0.0009435473, -0.00232849643, 0.00069301686, -0.160644472, -0.404678434, -0.3514898  , -3.13775516 , -0.00114582793, -1.95086253 , 1.21        , 3           , 12          , 0.0378948152, 0
0.0147904474, 0.04843527  , 9.812103    , -0.00147296023, 0.0006927627, 1.80022653E-05, -0.160914123, -0.40386948 , -0.351826876, -3.13777    , -0.00115275441, -1.95086265 , 1.22        , 3           , 50          , 0           , 0
-0.00614990946, 0.0562770553, 9.854461    , 0.0015495494, 0.00353205251, -0.0003515178, -0.160914123, -0.40386948 , -0.351826876, -3.13775444 , -0.001188088, -1.95085955 , 1.23        , 3           , 11          , 0.01085839  , 0.0108584026
-0.0131703075, 0.02679685  , 9.791721    , 0.0008268995, 0.00253624981, -0.000370408641, -0.160914123, -0.404611021, -0.350680858, -3.137746   , -0.00121346454, -1.950856   , 1.24        , 3           , 12          , 0.0378948152, 0
-0.0268435087, 0.0208736379, 9.80824     , -0.002033856, 0.00056804996, -0.00141833129, -0.1607793  , -0.4044762  , -0.352635831, -3.1377666  , -0.00121919985, -1.95084155 , 1.25        , 3           , 50          , 0           , 0
-0.019664228, 0.0327918231, 9.826511    , -0.00203289231, 0.0005693298, -0.0015614134, -0.161251172, -0.40386948 , -0.350815684, -3.13778687 , -0.0012249524, -1.95082617 , 1.26        , 3           , 11          , 0.01085839  , 0.0108584026
-0.00635969872, 0.04997224  , 9.811926    , 0.00366030377, 0.001222866 , -0.0009443837, -0.160914123, -0.404678434, -0.351220161, -3.13775039 , -0.001237217, -1.95081663 , 1.27        , 3           , 12          , 0.0378948152, 0
0.00562904961, 0.04471287  , 9.830044    , 0.00382851367, 0.00323131471, -0.00134355831, -0.16084671 , -0.404206544, -0.352231354, -3.137712   , -0.00126958173, -1.9508034  , 1.28        , 3           , 50          , 0           , 0
0.0121081658, 0.044036828 , 9.803897    , -0.00088895415, 0.00183585961, -0.0002480407, -0.16084671 , -0.404206544, -0.352231354, -3.13772082 , -0.0012879502, -1.950801   , 1.29        , 3           , 11          , 0.01085839  , 0.0108584026
0.0049672965, 0.034848284 , 9.783399    , -0.00372326514, -0.00137324189, 0.0009796104, -0.161116362, -0.404273957, -0.350546032, -3.13768148 , -0.0009620629, -1.95081091 , 1.3         , 3           , 12          , 0.03847315  , 0
-0.0250019133, 0.02982285  , 9.813329    , -0.00426532375, 0.000220240428, -0.000288600044, -0.1607793  , -0.404678434, -0.352163941, -3.13772416 , -0.000964276434, -1.95080793 , 1.31        , 3           , 50          , 0           , 0
-0.007344049, 0.04629056  , 9.819554    , -0.00128819444, -0.000387097971, 0.000150289532, -0.160981536, -0.40386948 , -0.3514224  , -3.137737   , -0.0009603997, -1.95080936 , 1.32        , 3           , 11          , 0.0110829035, 0.0110829249
-0.0216706954, 0.0411987044, 9.801295    , 0.000267842872, -0.00154290872, -0.000572390854, -0.160577059, -0.404611021, -0.351085335, -3.13773441 , -0.00094499276, -1.95080364 , 1.33        , 3           , 12          , 0.03847315  , 0
-0.0179727674, 0.02415086  , 9.831848    , -0.00114994927, -0.00180480164, -0.00172978733, -0.160577059, -0.404611021, -0.351085335, -3.13774586 , -0.0009270115, -1.95078635 , 1.34        , 3           , 50          , 0           , 0
-0.007110282, 0.0285948757, 9.82928848  , -0.00270502316, -0.000647711335, -0.00115018908, -0.1607793  , -0.404206544, -0.352635831, -3.1377728  , -0.0009205785, -1.95077479 , 1.35        , 3           , 11          , 0.0110829035, 0.0110829249
-0.022743497, 0.0373815447, 9.821568    , -0.002981767, 0.000353086216, -0.000564967049, -0.161048949, -0.4040043  , -0.3503438  , -3.1378026  , -0.000924131251, -1.95076919 , 1.36        , 3           , 12          , 0.03847315  , 0
-0.02504211 , 0.03732857  , 9.828321    , -0.00313333329, -0.000786666467, -0.00115484581, -0.160711884, -0.404678434, -0.351692051, -3.137834   , -0.000916308, -1.95075762 , 1.37        , 3           , 50          , 0           , 0
-0.00468602031, 0.03062084  , 9.80675     , -0.00113882078, -9.684473E-05, -0.000417008239, -0.160914123, -0.40386948 , -0.351759464, -3.13784552 , -0.000915355165, -1.95075345 , 1.38        , 3           , 11          , 0.0110829035, 0.0110829249
-0.0190771446, 0.0383391   , 9.813482    , 0.00127148826, -0.000272374658, 0.00045396082, -0.160711884, -0.4044762  , -0.3508831  , -3.13783264 , -0.0009126144, -1.950758   , 1.39        , 3           , 12          , 0.03847315  , 0
0.005495215 , 0.0298184752, 9.831226    , 0.000556920539, -0.0009480317, 0.000439124065, -0.160711884, -0.4044762  , -0.3508831  , -3.13782048 , -0.000950573, -1.95076239 , 1.4         , 3           , 50          , 0           , 0
0.00703288242, 0.044337295 , 9.821922    , 0.00101658027, 0.00191342575, 0.000483429554, -0.160644472, -0.4044762  , -0.352635831, -3.13781023 , -0.0009696888, -1.9507674  , 1.41        , 3           , 11          , 0.0111156693, 0.011115686
-0.01589552 , 0.04636988  , 9.819024    , 0.00158670044, 0.00176819635, 5.552356E-05, -0.160981536, -0.4040043  , -0.350680858, -3.13779426 , -0.0009873683, -1.950768   , 1.42        , 3           , 12          , 0.03908978  , 0
-0.0208674259, 0.03926142  , 9.81302452  , 0.00112415035, -0.00109710044, 0.000440464122, -0.160644472, -0.4045436  , -0.351287574, -3.137783   , -0.0009763805, -1.95077252 , 1.43        , 3           , 50          , 0           , 0
-0.0261275358, 0.0515458174, 9.807246    , 0.00157335622, 0.00118607935, 0.00104875059, -0.160711884, -0.404071718, -0.3519617  , -3.13776731 , -0.0009882011, -1.950783   , 1.44        , 3           , 11          , 0.0111156693, 0.011115686
-0.0199512579, 0.04150327  , 9.813512    , 0.0007104135, 0.0001942808, 0.000742839 , -0.160711884, -0.404071718, -0.3519617  , -3.13776016 , -0.0009901153, -1.95079041 , 1.45        , 3           , 12          , 0.03908978  , 0
-0.0114312619, 0.0391500741, 9.81582     , 0.000145664308, 6.444907E-05, -0.0001211666, -0.16084671 , -0.404139131, -0.350546032, -3.13775873 , -0.0009907642, -1.95078921 , 1.46        , 3           , 50          , 0           , 0
-0.006788671, 0.05401495  , 9.813776    , 0.00243658782, 0.00104947807, -0.0006651801, -0.160644472, -0.4045436  , -0.352366179, -3.13773441 , -0.00100128469, -1.95078266 , 1.47        , 3           , 11          , 0.0111156693, 0.011115686
-0.0164281726, 0.0391254425, 9.822097    , 0.00354932132, -0.000970694062, -0.0004013773, -0.161116362, -0.403734654, -0.351085335, -3.137699   , -0.0009915933, -1.9507786  , 1.48        , 3           , 12          , 0.03908978  , 0
-0.02151031 , 0.0251711328, 9.823696    , -0.000291305332, -0.00107369409, -0.000569676864, -0.160442233, -0.404611021, -0.351152748, -3.13770175 , -0.0009808789, -1.95077288 , 1.49        , 3           , 50          , 0           , 0
-0.000493244268, 0.0619602352, 9.824766    , -0.00274416478, -0.00145586079, -0.00030446137, -0.1607793  , -0.404206544, -0.352298766, -3.13776946 , -0.0010028159, -1.9507699  , 1.5         , 3           , 11          , 0.01165115  , 0.0116511593
-0.0153396809, 0.04519229  , 9.802303    , -0.00188933883, -0.0007570401, 0.0007126866, -0.1607793  , -0.404206544, -0.352298766, -3.1377883  , -0.0009952186, -1.95077693 , 1.51        , 3           , 12          , 0.03974257  , 0
-0.0105662923, 0.0292948857, 9.808939    , -0.00160215248, -0.000191890489, 0.001295075 , -0.16084671 , -0.404206544, -0.350208968, -3.13780427 , -0.0009932506, -1.95078993 , 1.52        , 3           , 50          , 0           , 0
0.0143474033, 0.05601748  , 9.820316    , -0.00260223285, -0.000328905648, 0.00171623728, -0.160711884, -0.404745847, -0.352096528, -3.13783026 , -0.0009898967, -1.950807   , 1.53        , 3           , 11          , 0.01165115  , 0.0116511593
-0.007188588, 0.05854728  , 9.812017    , -0.0023228752, -0.00118513382, 0.0009900202, -0.16084671 , -0.4039369  , -0.351557225, -3.13785362 , -0.0009780083, -1.950817   , 1.54        , 3           , 12          , 0.03974257  , 0
-0.00415420346, 0.04187019  , 9.808692    , -0.00102363771, -0.000184872086, -0.000132318135, -0.160644472, -0.404611021, -0.350815684, -3.13786387 , -0.000976164534, -1.95081568 , 1.55        , 3           , 50          , 0           , 0
0.007094085 , 0.03374783  , 9.800118    , -0.0001644045, 0.0002376075, -0.000263999653, -0.160644472, -0.404611021, -0.350815684, -3.1378653  , -0.0009785502, -1.950813   , 1.56        , 3           , 11          , 0.01165115  , 0.0116511593
-0.0153721143, 0.04914882  , 9.811833    , -0.00178541127, -0.00412515 , 0.000592963363, -0.160711884, -0.404408783, -0.352635831, -3.13788319 , -0.000937277, -1.9508189  , 1.57        , 3           , 12          , 0.03974257  , 0
-0.0289519317, 0.0585031956, 9.833498    , -0.00222403719, -0.00491274754, 0.001008162 , -0.161116362, -0.4040043  , -0.350478619, -3.1379056  , -0.0008881126, -1.95082879 , 1.58        , 3           , 50          , 0           , 0
-0.0191872232, 0.0408412963, 9.832481    , -0.002446253, 4.06710569E-05, 0.000291491073, -0.160509646, -0.4045436  , -0.351557225, -3.13793    , -0.0008885086, -1.95083165 , 1.59        , 3           , 11          , 0.01165115  , 0.0116511593
-0.0169810019, 0.0309598427, 9.826967    , -0.00365793356, -0.00107248558, -1.8707542E-05, -0.160914123, -0.404139131, -0.351759464, -3.13795424 , -0.000904276851, -1.95083153 , 1.6         , 3           , 12          , 0.0404294245, 0
-0.00384578668, 0.03497205  , 9.82081     , -0.00229178858, 0.000344764878, 0.000224921721, -0.16084671 , -0.404408783, -0.350613445, -3.13797712 , -0.0009077161, -1.9508338  , 1.61        , 3           , 50          , 0           , 0
-0.0122152334, 0.0344398953, 9.793174    , 0.0002050398, 0.000682823535, -0.000327197136, -0.16084671 , -0.404408783, -0.350613445, -3.13797522 , -0.0009145562, -1.95083058 , 1.62        , 3           , 11          , 0.0123172775, 0.0123172989
0.007204054 , 0.0334711261, 9.783855    , 0.000592293 , -0.00163142069, 0.001573592 , -0.160644472, -0.404408783, -0.352366179, -3.13796926 , -0.00089818507, -1.9508462  , 1.63        , 3           , 12          , 0.0404294245, 0
-0.01441544 , 0.06258106  , 9.820129    , 0.00137731538, -0.0008595931, 0.00251981383, -0.161048949, -0.40386948 , -0.350748271, -3.13795543 , -0.0008894979, -1.95087147 , 1.64        , 3           , 50          , 0           , 0
-0.01624972 , 0.0589846522, 9.820521    , -0.004324745, -0.00265368656, 0.00124222087, -0.160914123, -0.40481326 , -0.351287574, -3.13799858 , -0.0008629161, -1.95088375 , 1.65        , 3           , 11          , 0.0123172775, 0.0123172989
-0.0121998079, 0.06651315  , 9.830132    , -0.000524559, -0.0004633076, 0.0004387762, -0.160914123, -0.404206544, -0.3519617  , -3.13800383 , -0.0008582673, -1.95088816 , 1.66        , 3           , 12          , 0.0404294245, 0
-0.0265199821, 0.070779    , 9.82237     , 0.00165136938, 0.002887444 , -7.166229E-05, -0.160914123, -0.404206544, -0.3519617  , -3.13798738 , -0.0008871441, -1.95088744 , 1.67        , 3           , 50          , 0           , 0
-0.0257882476, 0.046475485 , 9.817128    , 0.000220022557, 0.00239589973, 0.0004132541, -0.160981536, -0.404273957, -0.350276381, -3.13798523 , -0.000911087962, -1.95089173 , 1.68        , 3           , 11          , 0.0123172775, 0.0123172989
-0.00412895065, 0.0672815   , 9.836086    , -0.00179745129, -0.000370341237, -0.00049792364, -0.160577059, -0.404611021, -0.352096528, -3.138003   , -0.0009074026, -1.95088673 , 1.69        , 3           , 12          , 0.0404294245, 0
0.000449035317, 0.0602358729, 9.816625    , 0.002698683 , 0.00244180416, -0.000358004618, -0.161116362, -0.4039369  , -0.351287574, -3.13789463 , -0.000919608166, -1.95088327 , 1.7         , 3           , 50          , 0           , 0
-0.007669476, 0.0522724   , 9.80878     , 0.00324783544, 0.0004344497, -0.0008845795, -0.160711884, -0.4045436  , -0.3509505  , -3.13786221 , -0.0009239854, -1.95087457 , 1.71        , 3           , 11          , 0.0130456649, 0.0130456844
-0.00240716338, 0.0462232456, 9.821857    , -9.57793E-05, 0.000466483063, -0.0006900889, -0.160711884, -0.4045436  , -0.3509505  , -3.13786316 , -0.000928675756, -1.95086765 , 1.72        , 3           , 12          , 0.0411482975, 0
-0.01926957 , 0.0197938923, 9.81868649  , -0.000846573035, 0.00340866623, -0.000294317026, -0.160981536, -0.404273957, -0.352568418, -3.13787174 , -0.0009627733, -1.95086491 , 1.73        , 3           , 50          , 0           , 0
0.00187819172, 0.0280462075, 9.831172    , -0.00141654909, 0.002989696 , -0.0008763321, -0.160981536, -0.404206544, -0.3503438  , -3.13788581 , -0.0009927024, -1.95085621 , 1.74        , 3           , 11          , 0.0130456649, 0.0130456844
-0.0192085057, 0.036802493 , 9.830627    , 5.38395852E-06, -0.00198816136, 0.00120689964, -0.1607793  , -0.404611021, -0.3518943  , -3.13788581 , -0.00097277615, -1.95086825 , 1.75        , 3           , 12          , 0.0411482975, 0
-0.0240412448, 0.03925499  , 9.816157    , 0.00167667738, -5.24506067E-05, -0.000758224865, -0.160914123, -0.40386948 , -0.351692051, -3.13786912 , -0.00097228 , -1.95086062 , 1.76        , 3           , 50          , 0           , 0
0.00593615323, 0.05720186  , 9.80083     , 0.000537333952, 2.75532111E-05, -0.0004063301, -0.16084671 , -0.404408783, -0.350815684, -3.13786364 , -0.00097257056, -1.95085669 , 1.77        , 3           , 11          , 0.0130456649, 0.0130456844
-0.0218036585, 0.03387291  , 9.811599    , 0.0013197544, -0.000332858268, -0.00105070428, -0.16084671 , -0.404408783, -0.350815684, -3.13785052 , -0.000969281362, -1.9508462  , 1.78        , 3           , 12          , 0.0411482975, 0
-0.0192150921, 0.0296702739, 9.82286549  , 9.62174E-05 , 0.00462299632, -0.00091488 , -0.160711884, -0.404273957, -0.352501   , -3.13784957 , -0.001015545, -1.95083714 , 1.79        , 3           , 50          , 0           , 0
-0.0200444758, 0.03557376  , 9.819765    , 0.00162554684, 0.003907854 , 8.557041E-05, -0.161116362, -0.40386948 , -0.350815684, -3.137864   , -0.00109488121, -1.95083833 , 1.8         , 3           , 11          , 0.0137934955, 0.0137935141
-0.0132006435, 0.0392141342, 9.811289    , 0.00190126093, 0.0026940417, -0.0007174047, -0.160711884, -0.404678434, -0.351355   , -3.13784528 , -0.00112184836, -1.95083117 , 1.81        , 3           , 12          , 0.0418972224, 0
-0.0289796162, 0.0313076153, 9.804276    , -0.000226380216, -0.0028042167, -0.00052400335, -0.1607793  , -0.404273957, -0.351826876, -3.13784742 , -0.00109382614, -1.95082593 , 1.82        , 3           , 50          , 0           , 0
-0.0247100685, 0.05653273  , 9.803703    , -0.00167822442, -5.310667E-05, -0.00199571112, -0.1607793  , -0.404273957, -0.351826876, -3.13786435 , -0.00109336968, -1.9508059  , 1.83        , 3           , 11          , 0.0137934955, 0.0137935141
-0.00201755483, 0.04568132  , 9.829985    , -0.00113932672, -0.00200353353, -0.0008757997, -0.160644472, -0.404273957, -0.350748271, -3.13787556 , -0.001073367, -1.9507972  , 1.84        , 3           , 12          , 0.0418972224, 0
0.00517716445, 0.02735405  , 9.809061    , 0.00256216875, -0.0012600444, -5.509729E-05, -0.160644472, -0.40434137 , -0.352501   , -3.13785    , -0.00106076861, -1.9507966  , 1.85        , 3           , 50          , 0           , 0
-0.0142333638, 0.0301167667, 9.81930351  , 0.0022337772, 0.0008961108, -0.000383642619, -0.161116362, -0.40386948 , -0.351287574, -3.13782763 , -0.00106974412, -1.95079267 , 1.86        , 3           , 11          , 0.0137934955, 0.0137935141
-0.00183887314, 0.06108954  , 9.822937    , 0.0006804315, 0.00142055587, -0.00117271359, -0.160577059, -0.4045436  , -0.351287574, -3.137821   , -0.00108399394, -1.95078111 , 1.87        , 3           , 12          , 0.0418972224, 0
0.0161415618, 0.0533205569, 9.818044    , 0.00114953134, -0.000950698741, -0.0009895238, -0.16084671 , -0.404206544, -0.352366179, -3.13780951 , -0.00107452425, -1.95077109 , 1.88        , 3           , 50          , 0           , 0
-0.00251648948, 0.0215734411, 9.807569    , -0.000284368376, -0.00088124274, 0.0008630186, -0.16084671 , -0.404206544, -0.352366179, -3.13781214 , -0.001065679, -1.95077968 , 1.89        , 3           , 11          , 0.0137934955, 0.0137935141
-0.0204605721, 0.03518483  , 9.814337    , -0.00114741549, 0.00109175942, -0.0013301397, -0.160981536, -0.404139131, -0.350141555, -3.13801384 , -0.0009793927, -1.95076644 , 1.9         , 3           , 12          , 0.04267428  , 0
-0.0266981646, 0.0580423474, 9.83261     , 0.000512936269, 0.00294238748, -0.00179394649, -0.160577059, -0.4044762  , -0.352029115, -3.13800859 , -0.00100888044, -1.95074844 , 1.91        , 3           , 50          , 0           , 0
0.0008578226, 0.0552719869, 9.81657     , -0.0006608522, 0.00015468034, -0.00126916415, -0.161116362, -0.4039369  , -0.3514224  , -3.13801527 , -0.00101047289, -1.95073581 , 1.92        , 3           , 11          , 0.0144205019, 0.01442052
0.004036257 , 0.0517243929, 9.808428    , -0.004454166, -0.00110943581, 0.000120172495, -0.160914123, -0.404611021, -0.350748271, -3.13805985 , -0.0009993742, -1.950737   , 1.93        , 3           , 12          , 0.04267428  , 0
-0.0177584589, 0.04718093  , 9.828954    , -0.002303337, 0.0005148026, 0.000371643779, -0.160914123, -0.404611021, -0.350748271, -3.13808274 , -0.001004509, -1.95074069 , 1.94        , 3           , 50          , 0           , 0
-0.0207407847, 0.0465775244, 9.803624    , -0.0005805462, 0.00235319068, 0.00119600317, -0.160914123, -0.404408783, -0.352501   , -3.1380887  , -0.001027999, -1.95075274 , 1.95        , 3           , 11          , 0.0144205019, 0.01442052
-0.0141752409, 0.0426695421, 9.826223    , 0.001951707 , -3.773389E-05, 0.001248533 , -0.161183774, -0.4039369  , -0.350546032, -3.13806915 , -0.001027578, -1.95076537 , 1.96        , 3           , 12          , 0.04267428  , 0
-0.0115163364, 0.03456843  , 9.822542    , 0.0005777825, -0.00118312251, 0.00265452033, -0.160644472, -0.404611021, -0.351624638, -3.13806319 , -0.001015653, -1.95079184 , 1.97        , 3           , 50          , 0           , 0
0.001701515 , 0.041378    , 9.807837    , 0.000546627 , 0.00133988471, 0.00104516756, -0.160981536, -0.404139131, -0.3518943  , -3.13805771 , -0.00102901482, -1.95080233 , 1.98        , 3           , 11          , 0.0144205019, 0.01442052
-0.00284891948, 0.040898554 , 9.814112    , -0.0007320402, 0.0009313379, 0.000101163721, -0.160711884, -0.4044762  , -0.350478619, -3.138065   , -0.00103832479, -1.95080328 , 1.99        , 3           , 12          , 0.04267428  , 0
-0.007350136, 0.0418299   , 9.814985    , -0.004206937, -0.000782179937, -0.0002308877, -0.160711884, -0.4044762  , -0.350478619, -3.13806176 , -0.0009773868, -1.950801   , 2           , 3           , 50          , 0           , 0
-0.0112708183, 0.05274982  , 9.809203    , -0.008191506, -0.0007449246, 0.000102829792, -0.160711884, -0.404408783, -0.352838069, -3.13814378 , -0.000969934161, -1.95080209 , 2.01        , 3           , 11          , 0.0144201508, 0.01442017
0.008363554 , 0.0411788821, 9.820994    , -0.00514732441, -0.00149947463, 0.000897765858, -0.161251172, -0.403734654, -0.350815684, -3.138195   , -0.0009549088, -1.950811   , 2.02        , 3           , 12          , 0.0434776619, 0
-0.00151071511, 0.0386419445, 9.813196    , 0.0009248707, 0.000733673864, 0.000752940949, -0.16084671 , -0.404880673, -0.3514898  , -3.138186   , -0.000962220132, -1.95081854 , 2.03        , 3           , 50          , 0           , 0
-0.00549275428, 0.0508032851, 9.817816    , 0.00121605478, 0.000739742536, -0.000246919779, -0.161048949, -0.404206544, -0.352163941, -3.13817382 , -0.0009696261, -1.95081615 , 2.04        , 3           , 11          , 0.0144201508, 0.01442017
-0.008765999, 0.0426321663, 9.825371    , 0.0012082865, 2.3934479E-05, -0.000328894617, -0.161048949, -0.404206544, -0.352163941, -3.13816166 , -0.000969876535, -1.9508127  , 2.05        , 3           , 12          , 0.0434776619, 0
-0.005892831, 0.04598757  , 9.804658    , 0.004349845 , 0.00113782543, -0.000221812123, -0.161116362, -0.40434137 , -0.3504112  , -3.138118   , -0.0009812623, -1.95081055 , 2.06        , 3           , 50          , 0           , 0
0.00526361354, 0.0421758667, 9.814653    , 0.000857831 , -0.000106784704, -0.00133469712, -0.1607793  , -0.4045436  , -0.352501   , -3.13810968 , -0.0009802409, -1.9507972  , 2.07        , 3           , 11          , 0.0144201508, 0.01442017
-0.0108917952, 0.04907575  , 9.815037    , -0.0004203779, 0.00146064768, 0.001112941 , -0.161183774, -0.4039369  , -0.3514224  , -3.13811374 , -0.0009948086, -1.95080829 , 2.08        , 3           , 12          , 0.0434776619, 0
-0.02121558 , 0.0447633043, 9.804955    , 0.000918264734, 0.0006543504, 0.00161038933, -0.1607793  , -0.404611021, -0.351152748, -3.13810468 , -0.0010012961, -1.9508245  , 2.09        , 3           , 50          , 0           , 0
-0.00535058137, 0.0510210432, 9.797494    , 0.00272025936, -0.001026198, -5.11650142E-05, -0.16084671 , -0.404273957, -0.352568418, -3.1378963  , -0.00118639669, -1.95082414 , 2.1         , 3           , 11          , 0.0147817992, 0.014781815
0.00520609133, 0.0300691519, 9.80819     , -0.000705329352, -0.00185445941, 0.000273458747, -0.16084671 , -0.404273957, -0.352568418, -3.13790345 , -0.00116784184, -1.950827   , 2.11        , 3           , 12          , 0.0443056263, 0
0.0050823167, 0.0410079323, 9.839481    , 0.00507822866, 0.0003054545, 0.000626663852, -0.160981536, -0.4040043  , -0.350478619, -3.13785267 , -0.00117087341, -1.9508332  , 2.12        , 3           , 50          , 0           , 0
-0.03295103 , 0.05817465  , 9.825328    , -0.000474541157, 7.138379E-05, 0.0010183251, -0.160509646, -0.404745847, -0.352029115, -3.13785744 , -0.00117154908, -1.95084345 , 2.13        , 3           , 11          , 0.0147817992, 0.014781815
-0.0298440959, 0.0438343659, 9.814351    , -0.00225243019, 0.000159808973, 0.00115174172, -0.161048949, -0.4039369  , -0.351557225, -3.13787985 , -0.00117310439, -1.9508549  , 2.14        , 3           , 12          , 0.0443056263, 0
-0.002016155, 0.03054892  , 9.811291    , -0.001754654, -0.0003390828, 0.000288944459, -0.160711884, -0.404611021, -0.3508831  , -3.13789725 , -0.00116970285, -1.95085788 , 2.15        , 3           , 50          , 0           , 0
-0.004278904, 0.033666797 , 9.816727    , -0.00256093312, -0.001844635, 0.00126389565, -0.160711884, -0.404611021, -0.3508831  , -3.137923   , -0.00115121016, -1.95087039 , 2.16        , 3           , 11          , 0.0147817992, 0.014781815
-0.0111541692, 0.0393260866, 9.841119    , 0.000400372868, 0.00136127963, 4.067215E-05, -0.160914123, -0.404408783, -0.352838069, -3.137919   , -0.00116482144, -1.95087087 , 2.17        , 3           , 12          , 0.0443056263, 0
0.007278723 , 0.0377884433, 9.84353     , -3.10985342E-05, 0.0008653802, -0.00011228364, -0.161048949, -0.404071718, -0.350613445, -3.13791919 , -0.00117347948, -1.95086968 , 2.18        , 3           , 50          , 0           , 0
-0.0106352987, 0.0318599939, 9.822067    , -0.0026674557, -0.000102599464, -0.001072773, -0.160711884, -0.404611021, -0.3514898  , -3.137946   , -0.00117249275, -1.950859   , 2.19        , 3           , 11          , 0.0147817992, 0.014781815
-0.015033328, 0.041406922 , 9.818523    , -0.00488386955, 0.000197641 , -0.000366468768, -0.16084671 , -0.404071718, -0.3519617  , -3.1380136  , -0.00117030158, -1.95085537 , 2.2         , 3           , 12          , 0.04515653  , 0
-0.003068283, 0.0303245075, 9.83296     , -5.47127456E-05, -0.0005653709, -0.000633938937, -0.16084671 , -0.404071718, -0.3519617  , -3.138014   , -0.00116467057, -1.950849   , 2.21        , 3           , 50          , 0           , 0
-0.00552339666, 0.0445244871, 9.814582    , -0.001054583, -0.00105485122, -0.0008618625, -0.1607793  , -0.4044762  , -0.350680858, -3.13802481 , -0.00115415349, -1.95084035 , 2.22        , 3           , 11          , 0.014306657 , 0.0143066663
0.008110026 , 0.03747789  , 9.787976    , -0.00278241141, 0.00255696615, -0.00210814 , -0.1607793  , -0.4044762  , -0.352703243, -3.13805246 , -0.00117979769, -1.95081937 , 2.23        , 3           , 12          , 0.04515653  , 0
0.0189426728, 0.0570107363, 9.808176    , -0.003487742, 0.00355953886, -0.00123932422, -0.161183774, -0.403802067, -0.351220161, -3.13808751 , -0.0012154365, -1.95080733 , 2.24        , 3           , 50          , 0           , 0
-0.02825556 , 0.03370038  , 9.832767    , 0.000176960253, 0.002137687 , 0.00133860169, -0.160711884, -0.404611021, -0.351287574, -3.1380856  , -0.00123676623, -1.95082068 , 2.25        , 3           , 11          , 0.014306657 , 0.0143066663
-0.020404771, 0.043727845 , 9.816694    , -0.0019689796, 0.000237747532, -0.000133240086, -0.160914123, -0.404206544, -0.3524336  , -3.13810539 , -0.00123914832, -1.95081949 , 2.26        , 3           , 12          , 0.04515653  , 0
0.00257688947, 0.05067951  , 9.822857    , -0.003342688, -0.00175394071, -0.00024213444, -0.160914123, -0.404206544, -0.3524336  , -3.13813877 , -0.00122161733, -1.95081711 , 2.27        , 3           , 50          , 0           , 0
-0.0240484439, 0.0316766948, 9.807939    , -0.00253304839, 0.000743760553, 1.37188181E-05, -0.161048949, -0.404071718, -0.3504112  , -3.138164   , -0.00122905464, -1.95081711 , 2.28        , 3           , 11          , 0.014306657 , 0.0143066663
-0.0226893388, 0.0285618212, 9.802947    , -0.00206271443, -0.00127310923, 0.0006313715, -0.1607793  , -0.404611021, -0.352029115, -3.13818479 , -0.00121630181, -1.95082343 , 2.29        , 3           , 12          , 0.04515653  , 0
-0.0138613852, 0.0282124486, 9.828319    , -0.00589073962, -0.00144504651, -0.000470214378, -0.160914123, -0.4039369  , -0.351624638, -3.13835955 , -0.00145931519, -1.95081878 , 2.3         , 3           , 50          , 0           , 0
-0.02549844 , 0.0328718126, 9.823749    , -0.00289608049, -0.000406474428, 0.000207296078, -0.160644472, -0.40481326 , -0.351152748, -3.1383884  , -0.00145524391, -1.95082068 , 2.31        , 3           , 11          , 0.0147896418, 0.0147896549
0.00169973273, 0.05161335  , 9.820601    , -0.00165206729, 0.00160329568, -0.00154473225, -0.160644472, -0.40481326 , -0.351152748, -3.138405   , -0.00147132645, -1.95080543 , 2.32        , 3           , 12          , 0.0460287929, 0
-0.009116358, 0.0418988168, 9.81        , -0.000892276468, 0.00022514  , -0.000558270665, -0.160577059, -0.404206544, -0.352635831, -3.138414   , -0.00147359527, -1.95079982 , 2.33        , 3           , 50          , 0           , 0
-0.0135819884, 0.03887844  , 9.800892    , 0.00027132922, 0.00278767524, 5.84726367E-05, -0.161116362, -0.4040043  , -0.3504112  , -3.13841128 , -0.00150147011, -1.95080054 , 2.34        , 3           , 11          , 0.0147896418, 0.0147896549
-0.0140210008, 0.05403412  , 9.817776    , 0.0003228382, 0.00170268235, 0.00111636531, -0.160644472, -0.404678434, -0.351692051, -3.138408   , -0.001518461, -1.95081186 , 2.35        , 3           , 12          , 0.0460287929, 0
0.00294406712, 0.031407617 , 9.811346    , 0.00385552133, -0.000974057, -4.54785331E-05, -0.161048949, -0.4039369  , -0.3518943  , -3.13836932 , -0.0015087222, -1.95081139 , 2.36        , 3           , 50          , 0           , 0
0.0005896557, 0.0228116177, 9.81574249  , 0.00210032868, 0.0003438474, -0.00118206243, -0.1607793  , -0.4044762  , -0.3508831  , -3.13834834 , -0.00151219894, -1.95079947 , 2.37        , 3           , 11          , 0.0147896418, 0.0147896549
-0.00185106217, 0.0521682054, 9.8138      , -0.0008090022, 0.00165155437, 0.000106894258, -0.1607793  , -0.4044762  , -0.3508831  , -3.13835645 , -0.00152871094, -1.95080054 , 2.38        , 3           , 12          , 0.0460287929, 0
-0.00298158452, 0.0587491058, 9.789926    , -0.00126542826, -0.00113505835, -0.0002940728, -0.160711884, -0.4045436  , -0.352770656, -3.138369   , -0.00151736976, -1.95079768 , 2.39        , 3           , 50          , 0           , 0
-0.0287006274, 0.0190227944, 9.814074    , -0.00126702315, -0.00177021511, -0.000374436466, -0.161048949, -0.4039369  , -0.351085335, -3.13809943 , -0.00137632643, -1.950794   , 2.4         , 3           , 11          , 0.0136729116, 0.0136729153
-0.009685209, 0.0381599851, 9.822601    , -0.0004747748, -0.0009887889, -0.0005013294, -0.160711884, -0.40481326 , -0.351355   , -3.1381042  , -0.001366456, -1.950789   , 2.41        , 3           , 12          , 0.04692096  , 0
0.020575555 , 0.04471898  , 9.81753349  , 0.00242827786, 0.00329316035, -0.00178087142, -0.160644472, -0.404071718, -0.352029115, -3.13808    , -0.00139944977, -1.95077133 , 2.42        , 3           , 50          , 0           , 0
0.004468756 , 0.0525835752, 9.812057    , -0.00168770354, -0.001122997, -0.0001529931, -0.160644472, -0.404071718, -0.352029115, -3.13809681 , -0.00138822524, -1.95076966 , 2.43        , 3           , 11          , 0.0136729116, 0.0136729153
-0.0285090879, 0.02999937  , 9.799748    , -0.0007559149, -0.0006993202, -0.00049886934, -0.160914123, -0.404408783, -0.350680858, -3.13810444 , -0.00138124928, -1.95076466 , 2.44        , 3           , 12          , 0.04692096  , 0
-0.0333717838, 0.0497662053, 9.810773    , 0.002253317 , 0.00176958786, 0.000485672732, -0.1607793  , -0.404678434, -0.3524336  , -3.13808179 , -0.00139892811, -1.95076966 , 2.45        , 3           , 50          , 0           , 0
-0.0168412291, 0.0409668535, 9.818953    , 0.00187672675, 0.000193175365, 0.00088982255, -0.161251172, -0.4039369  , -0.3514898  , -3.138063   , -0.00140082848, -1.9507786  , 2.46        , 3           , 11          , 0.0136729116, 0.0136729153
-0.01213632 , 0.0483598933, 9.798756    , -0.00231586653, -0.000254198385, -0.0004304917, -0.1607793  , -0.4044762  , -0.351085335, -3.138086   , -0.00139830168, -1.95077431 , 2.47        , 3           , 12          , 0.04692096  , 0
-0.025432596, 0.0303018764, 9.811072    , -0.000404158549, -2.48130618E-06, 0.00130223134, -0.16084671 , -0.404206544, -0.352635831, -3.13809013 , -0.00139823114, -1.95078731 , 2.48        , 3           , 50          , 0           , 0
-0.00730891153, 0.05124085  , 9.820516    , 3.68815272E-05, 0.000294480647, -0.000336468074, -0.16084671 , -0.404206544, -0.352635831, -3.13809    , -0.00140118774, -1.950784   , 2.49        , 3           , 11          , 0.0136729116, 0.0136729153
-0.00340989628, 0.03138507  , 9.818514    , 0.003283518 , 0.00159815035, 0.000847385 , -0.161116362, -0.404071718, -0.350546032, -3.13798    , -0.00138759706, -1.95079255 , 2.5         , 3           , 12          , 0.04783163  , 0
-0.0122579811, 0.0423868261, 9.809074    , 0.004012972 , 0.0033084813, 0.00109133252, -0.160711884, -0.40481326 , -0.352163941, -3.13793969 , -0.001420642, -1.95080352 , 2.51        , 3           , 50          , 0           , 0
-0.009259231, 0.0615142658, 9.789448    , -0.00150711345, -0.0007164467, 0.0006411719, -0.16084671 , -0.4040043  , -0.351826876, -3.13795471 , -0.00141345407, -1.95081    , 2.52        , 3           , 11          , 0.0136635052, 0.013663508
-0.0176728219, 0.0406350829, 9.808553    , 0.0012079234, 0.0003314137, 0.0006015589, -0.16084671 , -0.4044762  , -0.3509505  , -3.13794279 , -0.00141674618, -1.95081592 , 2.53        , 3           , 12          , 0.04783163  , 0
-0.0302997455, 0.02602465  , 9.793362    , 0.00226859376, -0.0003223059, 0.000383970677, -0.16084671 , -0.4044762  , -0.3509505  , -3.13792    , -0.00141350913, -1.95081985 , 2.54        , 3           , 50          , 0           , 0
-0.0201268867, 0.0283253975, 9.822842    , 0.0004276464, -0.000151915359, -0.0005551127, -0.1607793  , -0.404273957, -0.352905482, -3.13791585 , -0.0014120104, -1.95081425 , 2.55        , 3           , 11          , 0.0136635052, 0.013663508
0.00121850707, 0.05201496  , 9.825571    , -0.00141970243, 8.0521786E-05, -0.0004200376, -0.161116362, -0.4040043  , -0.350815684, -3.13793    , -0.001412831, -1.95081    , 2.56        , 3           , 12          , 0.04783163  , 0
-0.00210666656, 0.0335262343, 9.828035    , -0.004685182, -0.00463024341, 0.0011372664, -0.1607793  , -0.404678434, -0.351557225, -3.137977   , -0.00136648747, -1.95082116 , 2.57        , 3           , 50          , 0           , 0
0.0115539357, 0.05100361  , 9.82746     , -0.004299179, -0.00170089828, 0.00168297393, -0.160981536, -0.404071718, -0.3519617  , -3.1380198  , -0.00134941807, -1.95083809 , 2.58        , 3           , 11          , 0.0136635052, 0.013663508
-0.0154646831, 0.0552389249, 9.832681    , 0.00127648609, 0.000397856842, 0.0011038176, -0.1607793  , -0.404408783, -0.350748271, -3.138007   , -0.00135335722, -1.95084918 , 2.59        , 3           , 12          , 0.04783163  , 0
-0.0234098844, 0.05644355  , 9.810941    , 0.00365732284, 0.000594142068, 0.0009064847, -0.1607793  , -0.404408783, -0.350748271, -3.137908   , -0.001366007, -1.95085835 , 2.6         , 3           , 50          , 0           , 0
0.002271358 , 0.0504599437, 9.801623    , -0.000182616714, 0.000633152 , 0.000883353932, -0.160644472, -0.4045436  , -0.352703243, -3.13790965 , -0.00137230591, -1.95086718 , 2.61        , 3           , 11          , 0.0140547175, 0.0140547231
0.0119006056, 0.03748705  , 9.825953    , -0.00174064178, 0.00108083338, 0.0006655676, -0.161048949, -0.40386948 , -0.351085335, -3.137927   , -0.00138308969, -1.95087385 , 2.62        , 3           , 12          , 0.04875949  , 0
0.007516435 , 0.0479454622, 9.821516    , -0.000327040529, 0.0007727673, 0.00145691191, -0.160711884, -0.404611021, -0.3514898  , -3.13793039 , -0.00139076379, -1.9508884  , 2.63        , 3           , 50          , 0           , 0
-0.013936081, 0.0492677055, 9.799653    , 0.0006028991, 0.000417949719, 2.64435821E-05, -0.160914123, -0.404139131, -0.352298766, -3.13792443 , -0.0013949424, -1.95088875 , 2.64        , 3           , 11          , 0.0140547175, 0.0140547231
0.00280673243, 0.0231848545, 9.821187    , -0.0007678522, -0.00135816471, -0.000150861611, -0.160914123, -0.404139131, -0.352298766, -3.137932   , -0.0013813664, -1.9508872  , 2.65        , 3           , 12          , 0.04875949  , 0
-0.01191276 , 0.0324291065, 9.812125    , 0.00153475418, 0.00105336157, 4.14025926E-05, -0.161048949, -0.404139131, -0.350613445, -3.1379168  , -0.00139189814, -1.9508878  , 2.66        , 3           , 50          , 0           , 0
-0.0257418882, 0.0296313986, 9.789832    , -0.001832792, -0.000498468929, 0.00107143074, -0.160711884, -0.404745847, -0.352366179, -3.137935   , -0.00138687436, -1.95089841 , 2.67        , 3           , 11          , 0.0140547175, 0.0140547231
-0.0079075  , 0.0234192666, 9.807993    , -0.004106168, -0.00131909247, -0.000743322, -0.161183774, -0.4039369  , -0.351557225, -3.13797617 , -0.00137371034, -1.9508909  , 2.68        , 3           , 12          , 0.04875949  , 0
-0.02249098 , 0.0422196463, 9.790911    , 0.000312202348, -8.13140941E-05, 8.896752E-05, -0.1607793  , -0.4044762  , -0.351085335, -3.137973   , -0.00137289427, -1.95089185 , 2.69        , 3           , 50          , 0           , 0
-0.0200125445, 0.0723720044, 9.794895    , 0.002132079 , 0.000168495942, 0.000174212139, -0.1607793  , -0.4044762  , -0.351085335, -3.137866   , -0.00148896349, -1.95089364 , 2.7         , 3           , 11          , 0.01453934  , 0.0145393508
0.008583035 , 0.04952745  , 9.799412    , 0.00243150746, 0.00138484745, 5.058105E-05, -0.161048949, -0.404273957, -0.352838069, -3.1378417  , -0.00150280993, -1.95089424 , 2.71        , 3           , 12          , 0.0497033224, 0
-0.0303236488, 0.03622611  , 9.809289    , 0.0006206032, 0.00420545554, -0.00077835616, -0.161116362, -0.404206544, -0.350546032, -3.1378355  , -0.00154489337, -1.95088673 , 2.72        , 3           , 50          , 0           , 0
-0.0130467415, 0.05725521  , 9.811046    , 0.0007785082, 0.000461122458, 0.00102873915, -0.16084671 , -0.4045436  , -0.351759464, -3.13782763 , -0.00154946593, -1.950897   , 2.73        , 3           , 11          , 0.01453934  , 0.0145393508
-0.005429562, 0.0509000681, 9.80878448  , 0.004485447 , 0.0006474498, 5.2569274E-05, -0.160981536, -0.4039369  , -0.351826876, -3.13778281 , -0.00155593862, -1.95089746 , 2.74        , 3           , 12          , 0.0497033224, 0
0.0115816034, 0.0412530452, 9.81154     , -0.00187579391, -0.00194167288, 0.0002620051, -0.16084671 , -0.4045436  , -0.350815684, -3.13780141 , -0.00153651193, -1.9509     , 2.75        , 3           , 50          , 0           , 0
-0.02686109 , 0.031084789 , 9.823263    , -0.001632465, -0.00559716672, 6.74239564E-05, -0.16084671 , -0.4045436  , -0.350815684, -3.13781786 , -0.00148053851, -1.95090044 , 2.76        , 3           , 11          , 0.01453934  , 0.0145393508
-0.0353132039, 0.05312785  , 9.835184    , -0.0004590919, -0.00259836414, -2.49823734E-05, -0.1607793  , -0.4045436  , -0.3529729  , -3.13782239 , -0.0014545552, -1.9509002  , 2.77        , 3           , 12          , 0.0497033224, 0
-0.01581904 , 0.05850564  , 9.822779    , -0.001426179, 0.0006242469, 0.001303711 , -0.161318585, -0.403802067, -0.350748271, -3.13783669 , -0.00146074849, -1.95091319 , 2.78        , 3           , 50          , 0           , 0
0.0112826042, 0.018538408 , 9.827084    , -0.00348486356, 0.00107314577, 0.00151217228, -0.1607793  , -0.404745847, -0.351355   , -3.1378715  , -0.00147142343, -1.95092845 , 2.79        , 3           , 11          , 0.01453934  , 0.0145393508
-0.003918495, 0.023287205 , 9.817061    , -0.00221738336, -0.003569893, 0.00138211041, -0.160981536, -0.404206544, -0.352096528, -3.13796282 , -0.001336982, -1.950942   , 2.8         , 3           , 12          , 0.0506619774, 0
-0.0287382659, 0.0260872822, 9.828157    , 0.0008160617, -0.000151686239, 0.0003770685, -0.160981536, -0.404206544, -0.352096528, -3.13795471 , -0.0013354515, -1.95094585 , 2.81        , 3           , 50          , 0           , 0
-0.00568559673, 0.0157874972, 9.802956    , 0.00268527563, 0.00126754609, -0.000163254808, -0.160914123, -0.4044762  , -0.350680858, -3.13792777 , -0.001348133, -1.95094419 , 2.82        , 3           , 11          , 0.01427536  , 0.014275372
-0.00554155931, 0.07234335  , 9.785994    , 0.00301056588, -0.0005399834, 0.00124362239, -0.160711884, -0.404678434, -0.352635831, -3.13789773 , -0.001342687, -1.9509567  , 2.83        , 3           , 12          , 0.0506619774, 0
-0.0345090777, 0.0652394146, 9.798744    , -0.000618176, -0.00064707 , 0.0012912309, -0.161116362, -0.40386948 , -0.3514898  , -3.137904   , -0.00133616861, -1.95096958 , 2.84        , 3           , 50          , 0           , 0
-0.032976415, 0.060361445 , 9.83167648  , -0.000366187276, -0.00330337626, 0.00154050312, -0.16084671 , -0.404678434, -0.351152748, -3.13790751 , -0.00130307849, -1.95098484 , 2.85        , 3           , 11          , 0.01427536  , 0.014275372
-0.0286837965, 0.03596365  , 9.832337    , 0.00359835476, 0.0008903329, 0.000910211762, -0.160914123, -0.404206544, -0.352501   , -3.1378715  , -0.00131194841, -1.9509939  , 2.86        , 3           , 12          , 0.0506619774, 0
-0.003057479, 0.029005656 , 9.82978249  , 0.00371946371, 0.003707433 , -0.00169568509, -0.160914123, -0.404206544, -0.352501   , -3.13783431 , -0.00134908583, -1.95097709 , 2.87        , 3           , 50          , 0           , 0
-0.02294928 , 0.0205964241, 9.830858    , -0.00220769318, 0.0017587787, -0.00147428853, -0.161048949, -0.404273957, -0.350478619, -3.13785648 , -0.00136672892, -1.95096242 , 2.88        , 3           , 11          , 0.01427536  , 0.014275372
-0.00107699353, 0.0403932631, 9.817737    , -0.0015466467, -0.00226567243, -0.0009561067, -0.160711884, -0.4045436  , -0.352029115, -3.137872   , -0.00134410791, -1.95095289 , 2.89        , 3           , 12          , 0.0506619774, 0
0.0113567058, 0.05851719  , 9.799992    , 0.00254790578, 0.000666378066, -0.0003869582, -0.160981536, -0.4040043  , -0.351826876, -3.13782358 , -0.0012791  , -1.95094907 , 2.9         , 3           , 50          , 0           , 0
0.00220744684, 0.052142594 , 9.812933    , 0.000186902 , -0.000104913874, 0.0003743801, -0.160981536, -0.404611021, -0.351085335, -3.13782167 , -0.00127803651, -1.95095277 , 2.91        , 3           , 11          , 0.0146659594, 0.0146659743
-0.0127721317, 0.0440734029, 9.820382    , 0.0007493926, -0.00103631651, -0.00027962614, -0.160981536, -0.404611021, -0.351085335, -3.13781428 , -0.00126768393, -1.95095    , 2.92        , 3           , 12          , 0.05163438  , 0
-0.007943089, 0.0273709651, 9.817974    , 0.001956059 , -0.0009104268, 0.0003020706, -0.1607793  , -0.40434137 , -0.352905482, -3.13779449 , -0.00125856826, -1.950953   , 2.93        , 3           , 50          , 0           , 0
0.00560545363, 0.036664322 , 9.823627    , -0.000781823, 0.001986738 , -3.0604675E-05, -0.161183774, -0.4039369  , -0.350815684, -3.13780236 , -0.00127843663, -1.95095277 , 2.94        , 3           , 11          , 0.0146659594, 0.0146659743
-0.00515810959, 0.0377134345, 9.818572    , -0.00241260766, 0.00229185214, -0.0002509062, -0.16084671 , -0.404678434, -0.351692051, -3.13782644 , -0.00130136462, -1.95095038 , 2.95        , 3           , 12          , 0.05163438  , 0
0.0065648593, 0.03363078  , 9.811405    , -0.00220072246, 0.00228776527, -3.499813E-05, -0.161183774, -0.4039369  , -0.352163941, -3.13784862 , -0.00132424373, -1.95095015 , 2.96        , 3           , 50          , 0           , 0
-0.0265252776, 0.050739862 , 9.798651    , 0.0013520309, 0.00168360572, -0.000594255747, -0.160981536, -0.4045436  , -0.350815684, -3.137835   , -0.00134110183, -1.9509443  , 2.97        , 3           , 11          , 0.0146659594, 0.0146659743
-0.03909194 , 0.06871651  , 9.814551    , 0.0007404445, -0.00090710423, 0.00129636272, -0.160981536, -0.4045436  , -0.350815684, -3.13782763 , -0.00133198185, -1.95095718 , 2.98        , 3           , 12          , 0.05163438  , 0
-0.0208070129, 0.04425042  , 9.810373    , -0.000442085962, 0.0006922401, 9.583822E-05, -0.160914123, -0.404678434, -0.352905482, -3.13783216 , -0.0013389003, -1.95095825 , 2.99        , 3           , 50          , 0           , 0
-0.0285973232, 0.0254128985, 9.806922    , -0.00255330838, -0.000182433272, -0.000359887665, -0.161318585, -0.4040043  , -0.351220161, -3.13778687 , -0.00141079025, -1.95095479 , 3           , 3           , 11          , 0.0148839224, 0.0148839448
-0.00749577768, 0.0229112133, 9.812959    , -0.000206750847, 7.582726E-05, 0.0001592084, -0.1607793  , -0.404678434, -0.351287574, -3.137789   , -0.00141154276, -1.95095634 , 3.01        , 3           , 12          , 0.0526195168, 0
0.00397196226, 0.0485099852, 9.813812    , 0.000163727338, 0.0005858865, -0.00119062513, -0.160914123, -0.40434137 , -0.352366179, -3.13778734 , -0.00141744642, -1.95094442 , 3.02        , 3           , 50          , 0           , 0
-0.008266462, 0.030240003 , 9.8031      , -0.002642291, -0.00189862645, -0.0006715212, -0.160914123, -0.40434137 , -0.352366179, -3.13781381 , -0.00139848655, -1.95093763 , 3.03        , 3           , 11          , 0.0148839224, 0.0148839448
-0.0403683521, 0.0427759476, 9.837276    , -0.00221370463, -0.00190040143, -0.000955115131, -0.161048949, -0.404273957, -0.350748271, -3.137836   , -0.0013795183, -1.95092809 , 3.04        , 3           , 12          , 0.0526195168, 0
-0.0118717551, 0.046291057 , 9.823126    , 0.00122000126, -0.0007791619, -0.00199097535, -0.160577059, -0.4045436  , -0.352366179, -3.13782382 , -0.0013718016, -1.95090818 , 3.05        , 3           , 50          , 0           , 0
-0.00468730927, 0.04352774  , 9.822708    , -0.00100270263, -0.00176875258, -0.00101728749, -0.161251172, -0.403734654, -0.351624638, -3.13783383 , -0.00135415257, -1.95089793 , 3.06        , 3           , 11          , 0.0148839224, 0.0148839448
-0.040084973, 0.0494418629, 9.804382    , -0.000145263723, -0.0009253627, -0.000141134646, -0.1607793  , -0.404611021, -0.351287574, -3.13783526 , -0.00134490419, -1.9508965  , 3.07        , 3           , 12          , 0.0526195168, 0
-0.04223002 , 0.074106425 , 9.819101    , -0.00380315119, -0.00389312115, -0.0007075895, -0.160981536, -0.404206544, -0.3530403  , -3.13787341 , -0.0013059997, -1.95088935 , 3.08        , 3           , 50          , 0           , 0
0.00672801072, 0.0561373569, 9.81528     , -0.002672413, -0.00377290859, 0.0005890888, -0.160981536, -0.404206544, -0.3530403  , -3.1379     , -0.00126824889, -1.95089507 , 3.09        , 3           , 11          , 0.0148839224, 0.0148839448
-0.008983893, 0.0465530232, 9.796505    , -0.00428953348, -0.0008004819, 0.0006944329, -0.161183774, -0.4040043  , -0.350815684, -3.13780785 , -0.00112998183, -1.95090222 , 3.1         , 3           , 12          , 0.0536164455, 0
-0.0108552529, 0.03889363  , 9.797303    , -0.0006330739, 0.0006838527, -0.00112187606, -0.160644472, -0.4045436  , -0.352029115, -3.137814   , -0.00113686267, -1.9508909  , 3.11        , 3           , 50          , 0           , 0
-0.00381785631, 0.03234402  , 9.813554    , 0.000160563737, -0.00384867564, -3.781322E-05, -0.161116362, -0.4039369  , -0.351826876, -3.13781261 , -0.00109837775, -1.95089042 , 3.12        , 3           , 11          , 0.0147905219, 0.0147905415
-0.0171975251, 0.0451208651, 9.810415    , 0.00316169043, -0.0026604156, -7.362615E-05, -0.160644472, -0.4045436  , -0.351017922, -3.137781   , -0.00107177673, -1.95088959 , 3.13        , 3           , 12          , 0.0536164455, 0
0.00695857266, 0.0268632751, 9.811331    , 0.004066165 , 0.00127905735, -0.000869591837, -0.160644472, -0.4045436  , -0.351017922, -3.13774037 , -0.00108460046, -1.95088089 , 3.14        , 3           , 50          , 0           , 0
-0.004086975, 0.0495404378, 9.808329    , -0.000290110125, -4.196602E-05, -0.000486299425, -0.160711884, -0.40434137 , -0.3529729  , -3.13774323 , -0.00108419952, -1.950876   , 3.15        , 3           , 11          , 0.0147905219, 0.0147905415
-0.0154445507, 0.0445865281, 9.81675     , -0.00277585839, -0.000365307642, -0.00157962355, -0.161116362, -0.403802067, -0.351017922, -3.137771   , -0.00108060706, -1.95086026 , 3.16        , 3           , 12          , 0.0536164455, 0
0.0124894772, 0.0327989757, 9.800158    , -0.00122257869, -0.00110148778, -0.00115138781, -0.160711884, -0.404745847, -0.351624638, -3.13778329 , -0.0010696362, -1.95084858 , 3.17        , 3           , 50          , 0           , 0
-0.0151860081, 0.02425799  , 9.819678    , 0.00218897872, -0.0009973528, -0.0006279532, -0.160914123, -0.404273957, -0.352231354, -3.13776135 , -0.00105968688, -1.95084226 , 3.18        , 3           , 11          , 0.0147905219, 0.0147905415
-0.0308640711, 0.03253086  , 9.817823    , -0.0011623383, -0.00146939256, -0.0001546023, -0.160914123, -0.404273957, -0.352231354, -3.137773   , -0.001044999, -1.95084071 , 3.19        , 3           , 12          , 0.0536164455, 0
-0.0203525051, 0.047368966 , 9.813574    , -0.004084274, -0.0009601088, -0.000237631073, -0.160914123, -0.40434137 , -0.3508831  , -3.13784361 , -0.0011593001, -1.95083833 , 3.2         , 3           , 50          , 0           , 0
-0.0313512273, 0.03781984  , 9.829624    , -0.005431992, -0.000941903854, -0.000746556732, -0.160711884, -0.404611021, -0.352770656, -3.137898   , -0.00114990887, -1.95083094 , 3.21        , 3           , 11          , 0.0148987891, 0.0148988087
0.02265646  , 0.06961441  , 9.80745     , -0.0020931887, -0.00147417118, -0.001091433, -0.161318585, -0.40386948 , -0.3514224  , -3.137919   , -0.00113520725, -1.95082    , 3.22        , 3           , 12          , 0.0546242967, 0
0.00399103  , 0.04631353  , 9.808365    , -0.00022383609, -0.000125303937, -0.00177588162, -0.1607793  , -0.404611021, -0.3514898  , -3.137921   , -0.00113401958, -1.95080233 , 3.23        , 3           , 50          , 0           , 0
-0.00275996141, 0.043705605 , 9.80466     , 0.002510878 , -0.0028855775, -0.0007257096, -0.160914123, -0.404206544, -0.352501   , -3.137896   , -0.00110519049, -1.950795   , 3.24        , 3           , 11          , 0.0148987891, 0.0148988087
0.00747303851, 0.04387279  , 9.82282448  , 0.0005888486, -0.00329210237, -0.00117278134, -0.160914123, -0.404206544, -0.352501   , -3.13789034 , -0.001072313, -1.95078325 , 3.25        , 3           , 12          , 0.0546242967, 0
-0.011813066, 0.04771635  , 9.816367    , 0.000536159263, -0.00136208965, -0.000572710356, -0.161183774, -0.40434137 , -0.350613445, -3.13788486 , -0.00105871365, -1.95077741 , 3.26        , 3           , 50          , 0           , 0
-0.0226860233, 0.03791471  , 9.813896    , 0.00319108739, 0.000477145135, -0.0008874385, -0.1607793  , -0.404678434, -0.352366179, -3.137853   , -0.001063518, -1.95076859 , 3.27        , 3           , 11          , 0.0148987891, 0.0148988087
-0.0003786739, 0.05812951  , 9.8034935   , 0.002031667 , -0.00102159579, -0.0002723341, -0.161048949, -0.4039369  , -0.351624638, -3.13783264 , -0.00105331233, -1.95076585 , 3.28        , 3           , 12          , 0.0546242967, 0
-0.0143467654, 0.0666924343, 9.81520748  , 0.00223728945, -0.00103400112, 0.000873606943, -0.160981536, -0.404611021, -0.350815684, -3.13781023 , -0.00104293926, -1.95077455 , 3.29        , 3           , 50          , 0           , 0
-0.02767912 , 0.04991455  , 9.834314    , 0.0052055954, 0.00232311036, 8.13500956E-05, -0.160981536, -0.404611021, -0.350815684, -3.13755178 , -0.001094856, -1.95077574 , 3.3         , 3           , 11          , 0.01504903  , 0.0150490552
-0.0175730139, 0.0536968261, 9.81006     , 0.00435475633, 0.00205287873, -0.000786455756, -0.16084671 , -0.40434137 , -0.352838069, -3.13750839 , -0.00111541653, -1.95076787 , 3.31        , 3           , 12          , 0.05564224  , 0
-0.006618291, 0.0587272421, 9.794862    , -0.001376124, -0.00104937807, -8.14037048E-06, -0.161183774, -0.404206544, -0.350680858, -3.137522   , -0.00110492343, -1.95076776 , 3.32        , 3           , 50          , 0           , 0
-0.010130018, 0.030604966 , 9.812572    , -0.00133156253, 0.00183177053, -0.00168338884, -0.160711884, -0.404678434, -0.3518943  , -3.13753533 , -0.00112330948, -1.950751   , 3.33        , 3           , 11          , 0.01504903  , 0.0150490552
-0.0011658296, 0.03536072  , 9.824451    , -0.0007923823, -0.0007532211, -0.0017175239, -0.161251172, -0.404071718, -0.352096528, -3.1375432  , -0.0011158468, -1.95073378 , 3.34        , 3           , 12          , 0.05564224  , 0
-0.0154125737, 0.0495319776, 9.818162    , -0.00474180747, 0.00130608538, -0.003143117, -0.16084671 , -0.404206544, -0.350815684, -3.137591   , -0.001129034, -1.95070243 , 3.35        , 3           , 50          , 0           , 0
-0.02845955 , 0.0501062572, 9.817144    , 0.000699116732, 0.00525049353, -0.00162131281, -0.16084671 , -0.404206544, -0.350815684, -3.13758373 , -0.00118160341, -1.95068645 , 3.36        , 3           , 11          , 0.01504903  , 0.0150490552
-0.0314939879, 0.0552097857, 9.806335    , -0.00161793013, 0.00183210056, -0.00139893859, -0.16084671 , -0.4045436  , -0.353107721, -3.1376     , -0.00119998027, -1.95067239 , 3.37        , 3           , 12          , 0.05564224  , 0
-0.00588639174, 0.04377176  , 9.801019    , -0.000792117033, 9.371876E-05, -0.000274183461, -0.161251172, -0.4040043  , -0.351220161, -3.13760781 , -0.00120092859, -1.95066965 , 3.38        , 3           , 50          , 0           , 0
-0.0008820203, 0.0584972352, 9.811625    , 0.00234524952, 0.0006376507, -0.00053315307, -0.160914123, -0.404678434, -0.351355   , -3.13758445 , -0.00120732666, -1.9506644  , 3.39        , 3           , 11          , 0.01504903  , 0.0150490552
-0.00185167044, 0.0517221428, 9.813343    , 4.94055E-05 , -0.00597699871, 0.0005020164, -0.160914123, -0.404273957, -0.352501   , -3.13741422 , -0.00105043233, -1.95066929 , 3.4         , 3           , 12          , 0.05666951  , 0
-0.01635623 , 0.04101616  , 9.81399     , -0.00194415543, -0.005677871, 0.00135268806, -0.160914123, -0.404273957, -0.352501   , -3.13743353 , -0.000993598, -1.95068264 , 3.41        , 3           , 50          , 0           , 0
-0.0142264375, 0.0305725131, 9.818857    , -0.00275457534, -0.001943673, 0.00140180392, -0.160914123, -0.404206544, -0.350613445, -3.13746119 , -0.000974103052, -1.95069647 , 3.42        , 3           , 11          , 0.015104943 , 0.0151049746
0.00350039918, 0.0329015851, 9.797816    , -0.0009645937, 0.003793608 , -0.00107992114, -0.160981536, -0.404678434, -0.3524336  , -3.13747072 , -0.00101208326, -1.95068586 , 3.43        , 3           , 12          , 0.05666951  , 0
-0.00332383066, 0.0413098261, 9.818178    , 0.00148232409, -0.00456623 , 0.00138994306, -0.161183774, -0.404071718, -0.3514224  , -3.137456   , -0.000966363645, -1.95069969 , 3.44        , 3           , 50          , 0           , 0
-0.01057352 , 0.0470891744, 9.831728    , 0.00610018242, 0.00168459909, 0.00236766716, -0.160711884, -0.404745847, -0.351017922, -3.137395   , -0.000983111, -1.95072341 , 3.45        , 3           , 11          , 0.015104943 , 0.0151049746
-0.0183153264, 0.03144186  , 9.825154    , 0.00154035061, 0.0003081754, 0.00117472908, -0.160914123, -0.40434137 , -0.352770656, -3.13737965 , -0.0009861432, -1.95073509 , 3.46        , 3           , 12          , 0.05666951  , 0
-0.0121906446, 0.0478315577, 9.805977    , 0.0026935027, 0.00229243282, 0.00235545356, -0.160914123, -0.40434137 , -0.352770656, -3.13735247 , -0.0010089674, -1.95075893 , 3.47        , 3           , 50          , 0           , 0
-0.016352959, 0.0387955   , 9.810802    , 0.00300985831, 0.00374291535, 8.87224451E-05, -0.160914123, -0.404139131, -0.350613445, -3.13732243 , -0.00104639248, -1.95075989 , 3.48        , 3           , 11          , 0.015104943 , 0.0151049746
-0.000500213355, 0.0499309525, 9.811077    , 0.000707938336, 0.001473399 , 4.16270341E-05, -0.1607793  , -0.404745847, -0.352029115, -3.13731551 , -0.00106112438, -1.95076036 , 3.49        , 3           , 12          , 0.05666951  , 0
0.008089472 , 0.03165966  , 9.783843    , -0.00300835888, -0.002249786, 0.000251418445, -0.161183774, -0.4039369  , -0.351759464, -3.13727283 , -0.0009483298, -1.950763   , 3.5         , 3           , 50          , 0           , 0
-0.008188542, 0.0388168953, 9.802295    , 0.003334855 , 0.004290761 , -0.00104571553, -0.1607793  , -0.4045436  , -0.3509505  , -3.13723946 , -0.0009912828, -1.95075262 , 3.51        , 3           , 11          , 0.0149927754, 0.0149927977
-0.0205157325, 0.0386614278, 9.826572    , -0.00126597309, 0.00116670714, 0.00088410906, -0.1607793  , -0.4045436  , -0.3509505  , -3.13725233 , -0.00100291148, -1.95076132 , 3.52        , 3           , 12          , 0.0577054   , 0
-0.0137504283, 0.0332788676, 9.818441    , 0.0009905657, -1.0405025E-05, 0.00173961441, -0.160981536, -0.4045436  , -0.352703243, -3.13724232 , -0.00100273162, -1.95077884 , 3.53        , 3           , 50          , 0           , 0
-0.006477859, 0.03732752  , 9.813586    , 0.00155780744, -0.00114714378, 9.362935E-06, -0.161183774, -0.4039369  , -0.3508831  , -3.13722682 , -0.0009912597, -1.950779   , 3.54        , 3           , 11          , 0.0149927754, 0.0149927977
0.000778079033, 0.0453569   , 9.816004    , -0.00152702525, 0.00204725075, -0.00110823161, -0.160914123, -0.404745847, -0.351624638, -3.137242   , -0.00101178035, -1.95076787 , 3.55        , 3           , 12          , 0.0577054   , 0
-0.00605011359, 0.03239267  , 9.81082249  , -0.000656096963, 0.00290855765, -0.0022352268, -0.16084671 , -0.404139131, -0.352231354, -3.13724852 , -0.00104096287, -1.9507457  , 3.56        , 3           , 50          , 0           , 0
-0.008540372, 0.0235886052, 9.834639    , 0.0021374065, 0.0002722942, 0.0008921494, -0.160981536, -0.40434137 , -0.350613445, -3.1372273  , -0.00104364718, -1.95075464 , 3.57        , 3           , 11          , 0.0149927754, 0.0149927977
-0.01630187 , 0.0531180426, 9.820905    , -8.777084E-05, 0.00318423845, -0.00165529817, -0.160981536, -0.40434137 , -0.350613445, -3.137228   , -0.00107556127, -1.95073831 , 3.58        , 3           , 12          , 0.0577054   , 0
-0.0222182721, 0.0414986759, 9.815748    , 0.002199287 , 0.005151819 , 0.000104607454, -0.1607793  , -0.4045436  , -0.352635831, -3.137206   , -0.00112707436, -1.9507395  , 3.59        , 3           , 50          , 0           , 0
0.00114347134, 0.03632035  , 9.817258    , 0.000171593128, 0.00233213557, 5.07797522E-05, -0.161183774, -0.4039369  , -0.351355   , -3.13721466 , -0.00122406043, -1.9507401  , 3.6         , 3           , 11          , 0.0148442937, 0.0148443226
0.000421931967, 0.05885896  , 9.818867    , -0.00044018653, -0.00138761417, -6.90296247E-06, -0.16084671 , -0.404678434, -0.351287574, -3.13721919 , -0.00121018454, -1.9507401  , 3.61        , 3           , 12          , 0.05874923  , 0
-0.0266345683, 0.03766361  , 9.798498    , 0.00329190586, 0.00172463187, 0.000347444031, -0.160914123, -0.404273957, -0.352501   , -3.137186   , -0.00122741563, -1.95074356 , 3.62        , 3           , 50          , 0           , 0
-0.0244236551, 0.04737521  , 9.816247    , 0.004434628 , 0.00115527213, -0.00137103372, -0.160914123, -0.404273957, -0.352501   , -3.137142   , -0.001239029, -1.95072985 , 3.63        , 3           , 11          , 0.0148442937, 0.0148443226
0.0147354081, 0.0496863574, 9.821603    , -0.00247086631, -0.00480633648, -6.89791341E-05, -0.161048949, -0.404273957, -0.350546032, -3.1371665  , -0.00119096914, -1.95072889 , 3.64        , 3           , 12          , 0.05874923  , 0
-0.0144881029, 0.0624697655, 9.830516    , -0.00272560585, -0.00222423463, -3.31307238E-05, -0.160644472, -0.404408783, -0.352096528, -3.13719368 , -0.00116872834, -1.95072854 , 3.65        , 3           , 50          , 0           , 0
-0.0271147639, 0.0549818762, 9.823989    , -0.00301527348, -0.00251048361, 0.000247146352, -0.161048949, -0.4040043  , -0.351826876, -3.137224   , -0.0011436129, -1.95073092 , 3.66        , 3           , 11          , 0.0148442937, 0.0148443226
0.005400343 , 0.04995257  , 9.804356    , 0.000998513 , 3.083347E-05, 2.25316617E-05, -0.160711884, -0.404611021, -0.3508831  , -3.137214   , -0.00114392024, -1.95073116 , 3.67        , 3           , 12          , 0.05874923  , 0
0.009480067 , 0.06776479  , 9.822215    , -0.000421229284, 0.00174172083, 0.002614482 , -0.160711884, -0.404611021, -0.3508831  , -3.13721824 , -0.001161223, -1.9507575  , 3.68        , 3           , 50          , 0           , 0
0.000913132 , 0.061143443 , 9.815736    , 0.00191949448, 0.00490936777, -0.001618362, -0.160509646, -0.4044762  , -0.352703243, -3.137199   , -0.00121038721, -1.95074153 , 3.69        , 3           , 11          , 0.0148442937, 0.0148443226
-0.0135992318, 0.0424131081, 9.807707    , -0.0009663112, -0.00056114723, 0.00114701549, -0.161116362, -0.4040043  , -0.350546032, -3.13708973 , -0.00112034346, -1.95075321 , 3.7         , 3           , 12          , 0.0598003827, 0
-0.00441851933, 0.03300783  , 9.83614     , -0.00153381878, -0.00027134837, 0.00143392617, -0.160442233, -0.404745847, -0.351692051, -3.13710523 , -0.00111756567, -1.95076752 , 3.71        , 3           , 50          , 0           , 0
-0.012290407, 0.0463433638, 9.818605    , 0.00302822934, -2.07651137E-05, 0.000320857973, -0.161048949, -0.404071718, -0.351826876, -3.137075   , -0.00111734367, -1.95077074 , 3.72        , 3           , 11          , 0.0148780541, 0.0148780737
-0.0170904882, 0.04038834  , 9.789133    , 0.000173110515, -0.00141708611, -0.00057563564, -0.16084671 , -0.40434137 , -0.350680858, -3.137073   , -0.00110319885, -1.95076489 , 3.73        , 3           , 12          , 0.0598003827, 0
-0.008574383, 0.0398097225, 9.794172    , -0.00181633141, -0.000265899231, 0.00114604877, -0.16084671 , -0.40434137 , -0.350680858, -3.13709116 , -0.001100488, -1.95077634 , 3.74        , 3           , 50          , 0           , 0
-0.0005740281, 0.03512848  , 9.803678    , -0.0026085896, 0.004056814 , -0.0005134725, -0.16084671 , -0.4044762  , -0.352838069, -3.13711739 , -0.00114107877, -1.95077133 , 3.75        , 3           , 11          , 0.0148780541, 0.0148780737
-0.009410942, 0.03165469  , 9.840143    , 0.00332146138, 0.001399003 , 0.00148809515, -0.161048949, -0.4039369  , -0.351017922, -3.137084   , -0.00115500181, -1.95078623 , 3.76        , 3           , 12          , 0.0598003827, 0
-0.0145563185, 0.0494563952, 9.824492    , 0.00269539724, -0.00487948256, -0.0008964615, -0.160914123, -0.404745847, -0.351557225, -3.137057   , -0.001106248, -1.950777   , 3.77        , 3           , 50          , 0           , 0
-0.0159641821, 0.04225851  , 9.823945    , 0.00472304225, -0.000900399755, 0.0006047818, -0.160914123, -0.404071718, -0.352366179, -3.13700986 , -0.00109721685, -1.950783   , 3.78        , 3           , 11          , 0.0148780541, 0.0148780737
-0.0209070053, 0.04721321  , 9.828474    , -0.002686416, -0.00253706612, -0.000323299726, -0.160914123, -0.404071718, -0.352366179, -3.1370368  , -0.00107186066, -1.95077991 , 3.79        , 3           , 12          , 0.0598003827, 0
-0.0135138426, 0.0656908453, 9.823786    , -0.00154690468, -0.00281933858, -0.0006068311, -0.161116362, -0.40434137 , -0.350680858, -3.13704276 , -0.00108377612, -1.9507736  , 3.8         , 3           , 50          , 0           , 0
-0.0294983722, 0.0365482122, 9.820593    , 0.0032959946, -0.00172982388, 0.0002974828, -0.16084671 , -0.4045436  , -0.352501   , -3.13700986 , -0.00106646423, -1.95077646 , 3.81        , 3           , 11          , 0.0148973828, 0.0148974014
0.00200909656, 0.0384847745, 9.824969    , 0.00219701533, 0.00115520472, -0.0005261275, -0.161116362, -0.4039369  , -0.3514898  , -3.136988   , -0.00107804046, -1.95077121 , 3.82        , 3           , 12          , 0.06085828  , 0
0.00216493383, 0.05563855  , 9.823363    , 0.00583449239, -0.00263092527, 0.002017367 , -0.160711884, -0.4045436  , -0.351355   , -3.13692951 , -0.00105163816, -1.95079124 , 3.83        , 3           , 50          , 0           , 0
-0.0106373308, 0.0530265532, 9.783013    , -0.00298945769, -0.004242905, -6.393771E-05, -0.160644472, -0.404139131, -0.352568418, -3.13695955 , -0.00100921211, -1.95079052 , 3.84        , 3           , 11          , 0.0148973828, 0.0148974014
0.000901632069, 0.0388691351, 9.790184    , 0.000425749255, -0.004275021, -0.000329540984, -0.160644472, -0.404139131, -0.352568418, -3.13695526 , -0.000966477732, -1.95078707 , 3.85        , 3           , 12          , 0.06085828  , 0
-0.0327795856, 0.05443104  , 9.795925    , 0.00647021551, 0.00168501865, -0.000492079533, -0.161251172, -0.404206544, -0.350748271, -3.13689041 , -0.0009833508, -1.95078206 , 3.86        , 3           , 50          , 0           , 0
-0.0377719  , 0.0508523956, 9.797193    , 0.005312367 , 0.00110550213, 0.00149586785, -0.160914123, -0.4044762  , -0.3519617  , -3.13683748 , -0.0009943353, -1.95079708 , 3.87        , 3           , 11          , 0.0148973828, 0.0148974014
-0.0108951088, 0.0397228524, 9.804089    , 0.00104576664, 0.00114884647, 0.001470167 , -0.161048949, -0.4040043  , -0.351692051, -3.136827   , -0.00100575364, -1.95081174 , 3.88        , 3           , 12          , 0.06085828  , 0
-0.0189146474, 0.0488260463, 9.802764    , -0.000172565313, -0.00600151438, 0.00107281108, -0.16084671 , -0.4044762  , -0.3509505  , -3.13682866 , -0.0009456881, -1.95082223 , 3.89        , 3           , 50          , 0           , 0
-0.0106176734, 0.0332223922, 9.82118     , 0.00222368282, 0.002091038 , -0.00051391474, -0.16084671 , -0.4044762  , -0.3509505  , -3.13675451 , -0.00120227935, -1.95081711 , 3.9         , 3           , 11          , 0.0151138669, 0.015113892
0.0128827756, 0.0465069935, 9.825163    , 0.000531350961, 0.0026917723, -0.001660504, -0.160711884, -0.404273957, -0.3529729  , -3.13674927 , -0.001229277, -1.95080078 , 3.91        , 3           , 12          , 0.0619223677, 0
0.00218396261, 0.0418685451, 9.80378151  , -0.004948908, -0.003844645, -0.00178904983, -0.161183774, -0.403802067, -0.351085335, -3.13679862 , -0.00119091687, -1.95078278 , 3.92        , 3           , 50          , 0           , 0
-0.009483923, 0.05627365  , 9.815584    , 0.00302721467, -0.00108791806, 0.0014484647, -0.16084671 , -0.404678434, -0.351826876, -3.13676834 , -0.00117996836, -1.9507972  , 3.93        , 3           , 11          , 0.0151138669, 0.015113892
-0.0206896961, 0.0609000623, 9.813727    , 0.00108703063, 0.00153967633, -0.0016737713, -0.160914123, -0.403802067, -0.352298766, -3.13675761 , -0.00119544589, -1.95078051 , 3.94        , 3           , 12          , 0.0619223677, 0
-0.0108736018, 0.03931067  , 9.800469    , 0.000205649558, 0.000100092439, 1.72047876E-05, -0.160981536, -0.404206544, -0.350748271, -3.13675547 , -0.00119644636, -1.95078063 , 3.95        , 3           , 50          , 0           , 0
-0.012677961, 0.0437725037, 9.806377    , 0.0036059944, -0.000233959785, 0.00146441208, -0.160981536, -0.404206544, -0.350748271, -3.13671947 , -0.0011940354, -1.95079529 , 3.96        , 3           , 11          , 0.0151138669, 0.015113892
-0.0209373813, 0.04805695  , 9.833903    , 0.002514988 , 0.00350824627, 0.0009394863, -0.160711884, -0.404611021, -0.352770656, -3.13669419 , -0.00122907176, -1.95080483 , 3.97        , 3           , 12          , 0.0619223677, 0
0.013593439 , 0.0390862674, 9.843603    , 0.00223495578, 0.003234795 , -0.0002110566, -0.161453411, -0.403667241, -0.3514224  , -3.136672   , -0.00126142986, -1.95080292 , 3.98        , 3           , 50          , 0           , 0
-0.005570622, 0.0537999645, 9.832756    , -0.002039351, 0.003267902 , 0.000907898357, -0.1607793  , -0.404678434, -0.3514224  , -3.13669229 , -0.00129406387, -1.95081222 , 3.99        , 3           , 11          , 0.0151138669, 0.015113892
-0.0247595552, 0.0479993969, 9.800443    , -0.0012043796, 0.000399847078, -0.0005594774, -0.160914123, -0.404139131, -0.352298766, -3.13668847 , -0.00127778656, -1.95080662 , 4           , 3           , 12          , 0.06299214  , 0
-0.008066732, 0.05413801  , 9.803376    , -0.0001315347, -0.00393087463, 0.00167408516, -0.160914123, -0.404139131, -0.352298766, -3.13668966 , -0.00123839639, -1.95082307 , 4.01        , 3           , 50          , 0           , 0
-0.0137634464, 0.0283624455, 9.814319    , 0.00220119231, 0.000354933523, 0.000605739362, -0.161048949, -0.4040043  , -0.3504112  , -3.13666773 , -0.001241916, -1.95082915 , 4.02        , 3           , 11          , 0.013620981 , 0.0136210127
-0.0101304688, 0.03950695  , 9.823515    , -0.00404796051, 0.0009942231, 0.0002902277, -0.16084671 , -0.4044762  , -0.3524336  , -3.13670826 , -0.00125184329, -1.95083213 , 4.03        , 3           , 12          , 0.06299214  , 0
0.0089994   , 0.05703892  , 9.813504    , -2.83929112E-05, 0.0035432186, -0.000792879029, -0.161116362, -0.403667241, -0.351759464, -3.1367085  , -0.00128731376, -1.95082438 , 4.04        , 3           , 50          , 0           , 0
0.00127959251, 0.0436509624, 9.806503    , -0.00262905983, 0.0006931958, 0.000294621161, -0.16084671 , -0.404611021, -0.351017922, -3.13673472 , -0.00129423139, -1.95082736 , 4.05        , 3           , 11          , 0.013620981 , 0.0136210127
-0.0109062595, 0.0477181971, 9.815473    , -0.00522724725, -0.00243572774, 0.00051945576, -0.160914123, -0.404139131, -0.352905482, -3.136787   , -0.00126984937, -1.95083249 , 4.06        , 3           , 12          , 0.06299214  , 0
-0.0123328129, 0.0476138219, 9.826298    , 0.00104170549, -0.00135554245, 0.0008600086, -0.160914123, -0.404139131, -0.352905482, -3.13677645 , -0.001256252, -1.95084119 , 4.07        , 3           , 50          , 0           , 0
-0.0203099474, 0.055446554 , 9.817282    , -0.00180214038, -0.00160810619, 0.0002663731, -0.161318585, -0.4040043  , -0.350815684, -3.13679457 , -0.00124015822, -1.95084381 , 4.08        , 3           , 11          , 0.013620981 , 0.0136210127
-0.0161243416, 0.05383508  , 9.796071    , 0.00134842622, 8.214232E-05, 2.40976224E-05, -0.1607793  , -0.404678434, -0.3518943  , -3.13678122 , -0.00124097825, -1.95084417 , 4.09        , 3           , 12          , 0.06299214  , 0
-0.007415149, 0.0403949171, 9.822646    , 0.00481889257, 0.000647743058, 0.0006252483, -0.161048949, -0.4039369  , -0.352029115, -3.13655543 , -0.00135244813, -1.95085049 , 4.1         , 3           , 50          , 0           , 0
-0.0222628377, 0.0481074154, 9.830278    , -0.00202305848, -0.001278722, -0.000589743955, -0.160914123, -0.404408783, -0.350680858, -3.1365757  , -0.00133969064, -1.95084453 , 4.11        , 3           , 11          , 0.0138661843, 0.013866215
0.0120270178, 0.049254138 , 9.822024    , 0.000279680069, 0.001556274 , 0.000324190536, -0.160914123, -0.404408783, -0.350680858, -3.136573   , -0.001355237, -1.95084786 , 4.12        , 3           , 12          , 0.06406713  , 0
-0.0104581816, 0.05305256  , 9.822313    , 0.00224876753, -0.00103292766, -0.000846033567, -0.16084671 , -0.4044762  , -0.352838069, -3.13655043 , -0.00134495017, -1.9508394  , 4.13        , 3           , 50          , 0           , 0
-0.01584226 , 0.05535413  , 9.822289    , 0.00227928651, 0.00211176439, 5.836738E-05, -0.161251172, -0.403802067, -0.3509505  , -3.13652778 , -0.00136606453, -1.95084    , 4.14        , 3           , 11          , 0.0138661843, 0.013866215
-0.008841138, 0.0291630682, 9.819794    , 0.0007765141, -0.005035707, -0.000340701954, -0.160914123, -0.404611021, -0.3514898  , -3.13652    , -0.0013157255, -1.95083642 , 4.15        , 3           , 12          , 0.06406713  , 0
-0.03611686 , 0.0501680672, 9.817528    , -0.00344993221, -0.00183487264, -0.000892822049, -0.161048949, -0.404139131, -0.352096528, -3.13655448 , -0.001297422, -1.95082748 , 4.16        , 3           , 50          , 0           , 0
-0.0289976932, 0.03884721  , 9.816106    , 0.003373593 , -0.00134386285, 0.0005874666, -0.161048949, -0.404139131, -0.352096528, -3.13652062 , -0.00128395366, -1.95083332 , 4.17        , 3           , 11          , 0.0138661843, 0.013866215
-0.004163456, 0.0374046937, 9.804575    , 0.002503219 , -0.00248662964, 0.00113796024, -0.161116362, -0.404206544, -0.350748271, -3.13649559 , -0.00125903019, -1.95084441 , 4.18        , 3           , 12          , 0.06406713  , 0
-0.0103588682, 0.06344274  , 9.820627    , -0.0031443187, 0.000165732286, -0.0005757299, -0.160981536, -0.404611021, -0.352366179, -3.136527   , -0.00126071658, -1.9508388  , 4.19        , 3           , 50          , 0           , 0
-0.0261796825, 0.0456792079, 9.80763     , 0.00200430327, 0.00182334741, 0.0003386797, -0.161116362, -0.4039369  , -0.351759464, -3.13645816 , -0.00127170619, -1.95084226 , 4.2         , 3           , 11          , 0.0123115126, 0.0123115294
-0.002183915, 0.055022724 , 9.80028     , -0.00285015744, 0.000718475843, 0.00115134986, -0.160914123, -0.40434137 , -0.351152748, -3.13648653 , -0.00127883162, -1.95085382 , 4.21        , 3           , 12          , 0.0651468858, 0
0.000312259421, 0.04088563  , 9.812787    , 0.000291906 , -0.000142333229, -0.00227629137, -0.160914123, -0.404206544, -0.352501   , -3.13648367 , -0.0012775244, -1.95083117 , 4.22        , 3           , 50          , 0           , 0
0.00162492506, 0.03146776  , 9.806818    , 0.000610718736, 0.00300458819, -0.00194250525, -0.160914123, -0.404206544, -0.352501   , -3.13647771 , -0.00130766921, -1.95081186 , 4.23        , 3           , 11          , 0.0123115126, 0.0123115294
-0.0257281  , 0.04434192  , 9.805811    , 2.61580153E-05, 0.00214295136, -0.00109996053, -0.161048949, -0.404139131, -0.350680858, -3.13647747 , -0.00132915459, -1.950801   , 4.24        , 3           , 12          , 0.0651468858, 0
-0.0172422137, 0.0539551079, 9.827682    , -0.00114734785, -0.0012793208, -0.00172922434, -0.1607793  , -0.40481326 , -0.352096528, -3.136489   , -0.00131645 , -1.95078361 , 4.25        , 3           , 50          , 0           , 0
-0.00250624679, 0.0313820839, 9.818071    , -0.00201304816, -0.00185148884, -0.0008842198, -0.161116362, -0.4039369  , -0.351759464, -3.136509   , -0.00129798055, -1.95077479 , 4.26        , 3           , 11          , 0.0123115126, 0.0123115294
-0.0173035413, 0.0298239551, 9.807076    , 0.00197927654, -0.000185266181, 0.000595629041, -0.1607793  , -0.404408783, -0.350815684, -3.13648915 , -0.00129609741, -1.95078087 , 4.27        , 3           , 12          , 0.0651468858, 0
-0.0266567953, 0.03985522  , 9.804396    , -0.00319948862, -0.005573137, -8.68372445E-05, -0.1607793  , -0.404408783, -0.350815684, -3.13652134 , -0.00124037126, -1.95077968 , 4.28        , 3           , 50          , 0           , 0
-0.01942674 , 0.04739984  , 9.809969    , -0.0011371827, 0.0004273565, -0.0002733633, -0.16084671 , -0.404408783, -0.352905482, -3.13653255 , -0.00124465849, -1.95077693 , 4.29        , 3           , 11          , 0.0123115126, 0.0123115294
-0.009505091, 0.05000936  , 9.810994    , 0.0008339137, -0.00157388975, -0.00143532269, -0.161183774, -0.4040043  , -0.3508831  , -3.13654    , -0.00127944164, -1.95076251 , 4.3         , 3           , 12          , 0.0662310049, 0
-0.0247848276, 0.0479606837, 9.804055    , 0.000264214963, -0.00213359017, -0.00230558845, -0.160981536, -0.4045436  , -0.351624638, -3.13653731 , -0.00125822274, -1.95073938 , 4.31        , 3           , 50          , 0           , 0
-0.022367334, 0.0154526075, 9.80551     , 0.003429331 , 0.00296233478, 0.00122235063, -0.161048949, -0.404139131, -0.3518943  , -3.136503   , -0.00128778315, -1.95075178 , 4.32        , 3           , 11          , 0.0124674663, 0.0124674961
-0.01170727 , 0.0240379162, 9.837324    , 4.44013858E-05, 0.003316863 , -0.00251416885, -0.160981536, -0.404408783, -0.350748271, -3.1365025  , -0.00132107933, -1.95072687 , 4.33        , 3           , 12          , 0.0662310049, 0
-0.0120584723, 0.02730947  , 9.82697     , -0.0005880207, -0.0007125017, -5.48927346E-07, -0.160981536, -0.404408783, -0.350748271, -3.13650846 , -0.00131395459, -1.95072687 , 4.34        , 3           , 50          , 0           , 0
-0.0154136335, 0.057987906 , 9.828649    , 0.00115713419, 0.0012966909, -0.002250366, -0.160644472, -0.4044762  , -0.352905482, -3.136497   , -0.00132703572, -1.95070434 , 4.35        , 3           , 11          , 0.0124674663, 0.0124674961
0.0184173323, 0.0551191   , 9.816731    , -0.00198601256, 0.0007450803, -0.00113290432, -0.161386   , -0.4040043  , -0.351220161, -3.13651681 , -0.00133454415, -1.95069313 , 4.36        , 3           , 12          , 0.0662310049, 0
0.0111433882, 0.0408302546, 9.809271    , 0.002888801 , 0.00328796683, -0.00249703485, -0.160644472, -0.4044762  , -0.351287574, -3.136488   , -0.00136755058, -1.95066833 , 4.37        , 3           , 50          , 0           , 0
-0.00110880658, 0.04479587  , 9.8277235   , -0.000304134621, -0.000433931156, 0.00057766604, -0.160914123, -0.404206544, -0.352298766, -3.136491   , -0.00136318186, -1.950674   , 4.38        , 3           , 11          , 0.0124674663, 0.0124674961
-0.0190374088, 0.039735347 , 9.809433    , -0.000841653033, 0.00130668015, -0.00111770362, -0.160914123, -0.404206544, -0.352298766, -3.1364994  , -0.00137630536, -1.95066285 , 4.39        , 3           , 12          , 0.0662310049, 0
0.000245990232, 0.0269849785, 9.805398    , 0.001677191 , 0.00154806965, 0.002335768 , -0.161116362, -0.404071718, -0.350546032, -3.13655686 , -0.00143186 , -1.9506861  , 4.4         , 3           , 50          , 0           , 0
0.01198769  , 0.0273823477, 9.800994    , 0.000242634109, -0.0009936589, -0.000285837072, -0.160711884, -0.404611021, -0.352231354, -3.13655448 , -0.00142193807, -1.95068324 , 4.41        , 3           , 11          , 0.0123959864, 0.01239601
0.006024167 , 0.0228129569, 9.811275    , -0.000909698836, -0.00241243653, -0.0005997224, -0.160981536, -0.4039369  , -0.3514224  , -3.13656354 , -0.00139784417, -1.95067716 , 4.42        , 3           , 12          , 0.06731908  , 0
-0.008268705, 0.0493773222, 9.826808    , -0.00229889923, 0.000467803 , -0.000566553965, -0.16084671 , -0.404611021, -0.351220161, -3.13658643 , -0.00140255049, -1.95067143 , 4.43        , 3           , 50          , 0           , 0
-0.007900576, 0.0238750111, 9.807546    , 0.00112813432, 0.001297984 , -0.00110580062, -0.160914123, -0.404273957, -0.352568418, -3.13657522 , -0.00141558563, -1.95066047 , 4.44        , 3           , 11          , 0.0123959864, 0.01239601
-0.00422020629, 0.0350921   , 9.809967    , 0.004527661 , 0.0003984521, -0.0005254325, -0.160914123, -0.404273957, -0.352568418, -3.13653    , -0.00141959661, -1.95065522 , 4.45        , 3           , 12          , 0.06731908  , 0
-0.00875302 , 0.03597505  , 9.815357    , 0.00514440238, 0.00356040034, -0.002193081, -0.161251172, -0.4039369  , -0.350815684, -3.13647866 , -0.0014553112, -1.95063353 , 4.46        , 3           , 50          , 0           , 0
-0.005946804, 0.03878277  , 9.803671    , -0.0039942665, 0.00162889773, -0.000273976184, -0.16084671 , -0.404611021, -0.351692051, -3.13651848 , -0.00147161377, -1.95063078 , 4.47        , 3           , 11          , 0.0123959864, 0.01239601
-0.0234803837, 0.05099398  , 9.814491    , 0.00194045831, -0.000458314433, 0.00202210224, -0.161116362, -0.4039369  , -0.351692051, -3.13649917 , -0.00146692782, -1.950651   , 4.48        , 3           , 12          , 0.06731908  , 0
-0.0113961725, 0.0325268023, 9.802646    , 0.00390761951, -0.00305007561, 0.00113804243, -0.16084671 , -0.404611021, -0.3509505  , -3.13646    , -0.00143636938, -1.95066214 , 4.49        , 3           , 50          , 0           , 0
-0.022766836, 0.03645554  , 9.823815    , 0.004187265 , 0.00410289224, 0.00067172735, -0.16084671 , -0.404611021, -0.3509505  , -3.13674283 , -0.00142835174, -1.95066881 , 4.5         , 3           , 11          , 0.0122993775, 0.0122993961
-0.02149231 , 0.0314306   , 9.828737    , 0.0059238933, 0.005536367 , -0.00130027276, -0.16084671 , -0.404408783, -0.352770656, -3.1366837  , -0.00148377812, -1.950656   , 4.51        , 3           , 12          , 0.06841076  , 0
-0.0271196812, 0.03983979  , 9.806198    , 0.00186968851, -0.0010093801, -0.00199257955, -0.161318585, -0.404139131, -0.3509505  , -3.136665   , -0.00147378223, -1.95063615 , 4.52        , 3           , 50          , 0           , 0
0.00249751657, 0.0456614681, 9.828218    , 0.002406653 , -0.00246853125, 0.0002792917, -0.1607793  , -0.404745847, -0.351355   , -3.136641   , -0.00144908321, -1.95063877 , 4.53        , 3           , 11          , 0.0122993775, 0.0122993961
-0.004550581, 0.05130443  , 9.81241     , 0.00161988626, 0.00299026072, -0.000218879359, -0.160981536, -0.404139131, -0.352231354, -3.13662481 , -0.00147899648, -1.95063686 , 4.54        , 3           , 12          , 0.06841076  , 0
0.00564213656, 0.07925659  , 9.805148    , 0.00130656571, 0.0009794175, 0.000608684553, -0.16084671 , -0.404273957, -0.350815684, -3.1366117  , -0.00148876035, -1.950643   , 4.55        , 3           , 50          , 0           , 0
-0.00316106 , 0.05891935  , 9.816124    , -0.00151280779, 0.00301692751, 0.000334601325, -0.16084671 , -0.404273957, -0.350815684, -3.13662672 , -0.00151891261, -1.9506464  , 4.56        , 3           , 11          , 0.0122993775, 0.0122993961
-0.0159121435, 0.0503506176, 9.826297    , 0.00157698651, -0.0007352684, -0.000273135316, -0.16084671 , -0.404611021, -0.352501   , -3.136611   , -0.00151157368, -1.95064378 , 4.57        , 3           , 12          , 0.06841076  , 0
-0.023464134, 0.042116195 , 9.80129     , 0.000440600066, -0.000439690368, 1.03486818E-05, -0.161251172, -0.403734654, -0.351085335, -3.13660669 , -0.00150717609, -1.95064378 , 4.58        , 3           , 50          , 0           , 0
-0.0109660989, 0.031601727 , 9.804445    , -0.00274077384, -0.004146231, 0.00136806548, -0.160914123, -0.404611021, -0.351017922, -3.136634   , -0.00146564643, -1.95065737 , 4.59        , 3           , 11          , 0.0122993775, 0.0122993961
0.005772598 , 0.0551707931, 9.822035    , -0.0002117952, -0.00387076731, -0.00147398468, -0.161116362, -0.404273957, -0.3524336  , -3.13683081 , -0.00138805248, -1.950642   , 4.6         , 3           , 12          , 0.06950569  , 0
0.00215746649, 0.0409376845, 9.80648     , 0.00552127743, 8.09884441E-05, -0.00109512324, -0.161116362, -0.404273957, -0.3524336  , -3.13677573 , -0.00138891535, -1.950631   , 4.61        , 3           , 50          , 0           , 0
-0.010971088, 0.0302586742, 9.803527    , 0.00155670149, 0.0029667588, 0.0012119367, -0.160981536, -0.404139131, -0.350478619, -3.13676023 , -0.00141852361, -1.9506433  , 4.62        , 3           , 11          , 0.0114665153, 0.0114665376
-0.0197652634, 0.0622642934, 9.811945    , 0.00122442329, -0.00217341934, -0.0005818844, -0.16084671 , -0.40481326 , -0.352029115, -3.13674784 , -0.00139681774, -1.95063758 , 4.63        , 3           , 12          , 0.06950569  , 0
-0.0123647163, 0.0288693383, 9.808014    , 0.00181722245, 0.00039233506, 0.000317596277, -0.161251172, -0.4039369  , -0.351624638, -3.13672972 , -0.00140072568, -1.95064068 , 4.64        , 3           , 50          , 0           , 0
-0.020622734, 0.018021388 , 9.816847    , -0.00137238973, -0.005018323, -6.671224E-05, -0.160711884, -0.4045436  , -0.3508831  , -3.13674355 , -0.00135054649, -1.95063984 , 4.65        , 3           , 11          , 0.0114665153, 0.0114665376
-0.000532462262, 0.0378629453, 9.801       , -0.0007878525, -0.00218134676, 0.002553926 , -0.160711884, -0.4045436  , -0.3508831  , -3.13675141 , -0.00132860942, -1.95066524 , 4.66        , 3           , 12          , 0.06950569  , 0
-0.0121825021, 0.04917944  , 9.806445    , 0.00325151463, 0.002087124 , 0.00149586052, -0.160711884, -0.404273957, -0.352838069, -3.13671875 , -0.00134940771, -1.95068026 , 4.67        , 3           , 50          , 0           , 0
-0.00779052358, 0.04674539  , 9.819555    , -0.00209645648, 0.00588547252, -0.000485586148, -0.161116362, -0.404071718, -0.350748271, -3.13673973 , -0.001408285, -1.95067561 , 4.68        , 3           , 11          , 0.0114665153, 0.0114665376
-0.007652117, 0.0465122238, 9.799227    , 0.005319602 , 0.008095297 , 0.0004508424, -0.160711884, -0.404611021, -0.351557225, -3.13668656 , -0.00148921506, -1.95068061 , 4.69        , 3           , 12          , 0.06950569  , 0
0.009167774 , 0.03301119  , 9.824973    , 0.00208510458, 0.00168173411, 0.000627270667, -0.160914123, -0.404071718, -0.3519617  , -3.136781   , -0.0009940504, -1.95068872 , 4.7         , 3           , 50          , 0           , 0
-0.00105758011, 0.03152031  , 9.804083    , -0.000758741342, 0.00142917025, 3.36351222E-05, -0.1607793  , -0.4045436  , -0.350613445, -3.13678861 , -0.00100834016, -1.9506892  , 4.71        , 3           , 11          , 0.01110958  , 0.0111096073
-0.011901455, 0.0337818339, 9.81214     , -0.000800267968, -0.002012339, 0.0002697167, -0.1607793  , -0.4045436  , -0.350613445, -3.13679671 , -0.0009882036, -1.95069194 , 4.72        , 3           , 12          , 0.07060358  , 0
-0.0262744129, 0.0571075939, 9.835314    , 0.00179791846, 0.00111658452, 4.4882152E-05, -0.160577059, -0.4044762  , -0.352703243, -3.13677859 , -0.0009993671, -1.95069242 , 4.73        , 3           , 50          , 0           , 0
-0.005482165, 0.0539354458, 9.82011     , -0.000194534325, 0.0008527923, -0.000257449166, -0.161116362, -0.40386948 , -0.351017922, -3.1367805  , -0.00100790733, -1.95068979 , 4.74        , 3           , 11          , 0.01110958  , 0.0111096073
-0.0130409235, 0.0545933172, 9.80695     , 0.00264463853, 0.0005347573, 4.167526E-05, -0.161048949, -0.404745847, -0.351287574, -3.13675427 , -0.001013253, -1.95069015 , 4.75        , 3           , 12          , 0.07060358  , 0
-0.0108371638, 0.0683001652, 9.830616    , 5.49789947E-05, -0.00201844843, -1.13071E-05, -0.160914123, -0.404139131, -0.352096528, -3.13675356 , -0.0009930693, -1.95069    , 4.76        , 3           , 50          , 0           , 0
-0.009627086, 0.0507127754, 9.829521    , -0.0018945745, 0.00144328829, -0.000259382476, -0.160914123, -0.404139131, -0.352096528, -3.13677263 , -0.00100751454, -1.95068741 , 4.77        , 3           , 11          , 0.01110958  , 0.0111096073
-0.0088438  , 0.0318298042, 9.823439    , 0.0017844534, -0.000876672, -0.0014151528, -0.161048949, -0.404206544, -0.350613445, -3.13675475 , -0.0009988166, -1.95067322 , 4.78        , 3           , 12          , 0.07060358  , 0
0.008734049 , 0.031259872 , 9.820432    , -0.00247940049, -0.000265288341, -0.000860178436, -0.16084671 , -0.404611021, -0.3524336  , -3.13677955 , -0.0009962047, -1.95066476 , 4.79        , 3           , 50          , 0           , 0
-0.009938815, 0.0482580326, 9.806454    , -0.00309583335, -0.004554952, -0.00178466225, -0.161251172, -0.403802067, -0.351692051, -3.13682461 , -0.0009343565, -1.95064688 , 4.8         , 3           , 11          , 0.00601445  , 0.00601446
0.033333078 , 0.05107191  , 9.803721    , -0.00108854217, -0.00201388355, 0.0002680414, -0.1607793  , -0.404408783, -0.3514224  , -3.13683558 , -0.000914205, -1.9506495  , 4.81        , 3           , 12          , 0.0717041   , 0
0.0106207076, 0.0362718962, 9.814184    , -0.000236883818, -0.00117817207, 0.00200268626, -0.1607793  , -0.404273957, -0.352770656, -3.136838   , -0.0009023277, -1.95066953 , 4.82        , 3           , 50          , 0           , 0
-0.0225497931, 0.04301983  , 9.8004055   , 0.00149974436, 0.000255302584, 3.06861766E-05, -0.1607793  , -0.404273957, -0.352770656, -3.136823   , -0.0009048793, -1.95066977 , 4.83        , 3           , 11          , 0.00601445  , 0.00601446
-0.0252840668, 0.04210284  , 9.803984    , -0.004457814, 0.00118340075, -0.0008512666, -0.161183774, -0.404139131, -0.350546032, -3.13686752 , -0.0009167533, -1.9506613  , 4.84        , 3           , 12          , 0.0717041   , 0
-0.0261289  , 0.04130564  , 9.794932    , -0.000477027672, 0.0008589263, -0.00111761654, -0.160711884, -0.404678434, -0.352029115, -3.13687229 , -0.000925395638, -1.9506501  , 4.85        , 3           , 50          , 0           , 0
-0.0138165029, 0.0402997956, 9.83659     , -0.00336324284, -0.00142528687, 0.00112117326, -0.160914123, -0.4039369  , -0.3519617  , -3.136906   , -0.000911090057, -1.95066142 , 4.86        , 3           , 11          , 0.00601445  , 0.00601446
0.00110811274, 0.0358210579, 9.821769    , 0.002639431 , 0.000246303622, -0.000248624245, -0.16084671 , -0.4044762  , -0.350815684, -3.13687944 , -0.0009135647, -1.9506588  , 4.87        , 3           , 12          , 0.0717041   , 0
0.007586775 , 0.0440469943, 9.806566    , 0.0028903177, -0.00234091724, 0.000287855335, -0.16084671 , -0.4044762  , -0.350815684, -3.1368506  , -0.0008901423, -1.95066166 , 4.88        , 3           , 50          , 0           , 0
-0.00506478176, 0.0414174534, 9.809581    , 0.00119357742, -0.00146384211, 0.000290095573, -0.160914123, -0.40434137 , -0.3529729  , -3.13683867 , -0.0008754899, -1.95066452 , 4.89        , 3           , 11          , 0.00601445  , 0.00601446
-0.0221641362, 0.0580515452, 9.82813549  , 2.7345699E-05, -0.00402815 , -0.0003266282, -0.161183774, -0.4040043  , -0.350815684, -3.136848   , -0.000828674762, -1.950661   , 4.9         , 3           , 12          , 0.072807    , 0
-0.02304034 , 0.0527549647, 9.818129    , 0.003201566 , -0.0006133075, -0.00111619045, -0.161048949, -0.404745847, -0.351557225, -3.136816   , -0.0008225952, -1.95064974 , 4.91        , 3           , 50          , 0           , 0
-0.004999155, 0.04329849  , 9.802377    , -0.0039099874, -0.000259606866, -0.00058252376, -0.161116362, -0.404071718, -0.352298766, -3.13685513 , -0.0008200264, -1.950644   , 4.92        , 3           , 11          , 0.0061529926, 0.00615300843
-0.00660206564, 0.031795688 , 9.824814    , 0.000897165155, -0.002603923, -0.000300620333, -0.161048949, -0.404408783, -0.3508831  , -3.1368463  , -0.0007940017, -1.9506408  , 4.93        , 3           , 12          , 0.072807    , 0
0.0103759021, 0.05973743  , 9.813097    , 0.00265385862, 0.00139596616, -0.000804238545, -0.161048949, -0.404408783, -0.3508831  , -3.1368196  , -0.00080799975, -1.95063281 , 4.94        , 3           , 50          , 0           , 0
-0.0174999665, 0.05870518  , 9.805601    , 0.0023771266, 0.001409094 , -0.00195060787, -0.161048949, -0.4045436  , -0.352770656, -3.136796   , -0.0008221839, -1.95061338 , 4.95        , 3           , 11          , 0.0061529926, 0.00615300843
-0.009261959, 0.03455367  , 9.822111    , 0.00121405092, 0.0005404388, 0.000319329964, -0.161318585, -0.403734654, -0.3514224  , -3.13678384 , -0.0008275728, -1.9506166  , 4.96        , 3           , 12          , 0.072807    , 0
-0.01989488 , 0.03891881  , 9.802189    , -0.00249879551, -0.0005708722, 0.000566525734, -0.16084671 , -0.404611021, -0.351355   , -3.13680887 , -0.000821837, -1.95062232 , 4.97        , 3           , 50          , 0           , 0
-0.007857255, 0.04174671  , 9.823111    , -0.00227760826, -0.005737305, 0.0010654435, -0.160711884, -0.404139131, -0.352366179, -3.13683152 , -0.0007644137, -1.95063257 , 4.98        , 3           , 11          , 0.0061529926, 0.00615300843
-0.01501597 , 0.03564676  , 9.808972    , 0.00348819862, 0.0002333022, 4.269957E-05, -0.160711884, -0.404139131, -0.352366179, -3.13679671 , -0.0007667448, -1.950633   , 4.99        , 3           , 12          , 0.072807    , 0
-0.01364175 , 0.0459090546, 9.818136    , 0.00176425918, -4.20389333E-05, 0.00117286528, -0.161116362, -0.4040043  , -0.350680858, -3.1368022  , -0.000781585055, -1.95064473 , 5           , 3           , 50          , 0           , 0
-0.0130857574, 0.0540795177, 9.812815    , 0.00236230856, 0.000837514468, -0.00167282729, -0.160914123, -0.404678434, -0.352298766, -3.13677859 , -0.000790040533, -1.950628   , 5.01        , 3           , 11          , 0.00626464561, 0.006264674
-0.0108635882, 0.0535702929, 9.816443    , 0.00520422775, 0.00108751887, -0.0007930278, -0.161318585, -0.403734654, -0.351692051, -3.13672662 , -0.000800953654, -1.95062    , 5.02        , 3           , 12          , 0.07391202  , 0
-0.008244038, 0.0489699654, 9.822739    , 0.00180552073, 0.00255253073, -0.000506556942, -0.161116362, -0.404611021, -0.351152748, -3.1367085  , -0.0008265036, -1.95061517 , 5.03        , 3           , 50          , 0           , 0
-0.024040021, 0.0401471257, 9.817071    , 0.000661714468, 0.00170947064, -0.00109825912, -0.16084671 , -0.40434137 , -0.352838069, -3.136702   , -0.0008436516, -1.9506042  , 5.04        , 3           , 11          , 0.00626464561, 0.006264674
-0.00382743962, 0.0345550142, 9.817644    , -0.00479380647, -0.00168993347, 0.000536088133, -0.16084671 , -0.40434137 , -0.352838069, -3.13675    , -0.000826726551, -1.95060956 , 5.05        , 3           , 12          , 0.07391202  , 0
0.000586537644, 0.0343803354, 9.83033     , 0.0006702414, 0.0022851883, -0.00137607614, -0.161251172, -0.404071718, -0.3508831  , -3.13674331 , -0.000849645, -1.95059574 , 5.06        , 3           , 50          , 0           , 0
