Acc X       , Acc Y       , Acc Z       , Gyro X      , Gyro Y      , Gyro Z      , Magn X      , Magn Y      , Magn Z      , Euler X     , Euler Y     , Euler Z     , Time        , Status      , LowRate X   , LowRate Y   , LowRate Z    
0.176572025 , -9.781987   , 0.06460119  , 0.00253401743, 0.00356025528, -0.000303412351, 0.07887286  , 0.5734124   , -0.208979368, 1.57793713  , 0.0176996   , -1.16084254 , 0           , 3           , 11          , 0.0346410163, 0.0346410163
0.1590225   , -9.779148   , 0.06627935  , -6.48673158E-05, 0.00127699168, 0.00150784489, 0.07840097  , 0.573547244 , -0.208979368, 1.57793665  , 0.0176843982, -1.1608299  , 0.01        , 3           , 12          , 0.0346410163, 0
0.1662994   , -9.785777   , 0.04775033  , -0.00136767 , -0.000856789062, 0.00118266908, 0.07867062  , 0.573345    , -0.20877713 , 1.57792294  , 0.0176727138, -1.1608386  , 0.02        , 3           , 50          , 0           , 0
0.180180728 , -9.802484   , 0.0386512727, -0.00078709604, -0.000423741236, 0.0001907822, 0.07867062  , 0.573345    , -0.20877713 , 1.57791507  , 0.0176708661, -1.1608429  , 0.03        , 3           , 11          , 0.0346410163, 0.0346410163
0.186754659 , -9.797922   , 0.07038293  , 0.00123451441, 0.00171305356, -0.0006244147, 0.07880545  , 0.5732776   , -0.208911955, 1.57792771  , 0.0176770054, -1.16082573 , 0.04        , 3           , 12          , 0.0346410163, 0
0.1782066   , -9.790715   , 0.07806628  , -0.0005012828, -0.000142611229, 0.000482833071, 0.07867062  , 0.573479831 , -0.208979368, 1.57792258  , 0.0176721774, -1.16082728 , 0.05        , 3           , 50          , 0           , 0
0.17550759  , -9.788907   , 0.0798691   , -0.00277969288, -0.000123333492, 0.000898372033, 0.07887286  , 0.5734124   , -0.208709717, 1.57789469  , 0.0176631752, -1.16082859 , 0.06        , 3           , 11          , 0.0346410163, 0.0346410163
0.159238413 , -9.793756   , 0.0823737   , -0.00231039873, 0.002750921 , -0.000488142745, 0.0787380338, 0.5734124   , -0.20877713 , 1.577872    , 0.0176677946, -1.160801   , 0.07        , 3           , 12          , 0.0346410163, 0
0.171683177 , -9.769828   , 0.07011691  , -0.00232111779, 0.001325704 , -0.00136750238, 0.0787380338, 0.5734124   , -0.20877713 , 1.57784915  , 0.0176813584, -1.1607877  , 0.08        , 3           , 50          , 0           , 0
0.17614606  , -9.761915   , 0.08560685  , -0.004205591, -0.0016658745, -0.00127937947, 0.0787380338, 0.573479831 , -0.208979368, 1.57780671  , 0.017694205 , -1.16080427 , 0.09        , 3           , 11          , 0.0346410163, 0.0346410163
0.177956328 , -9.771265   , 0.0728681758, -0.000638846541, -0.000422559882, -9.533633E-05, 0.0785357952, 0.5734124   , -0.208911955, 1.578051    , 0.0177447572, -1.16080427 , 0.1         , 3           , 12          , 0.0346410163, 0
0.16992794  , -9.787103   , 0.04234808  , 0.00222190865, 0.00154563971, 0.0009525863, 0.0785357952, 0.57368207  , -0.208911955, 1.5780735   , 0.0177351   , -1.16078889 , 0.11        , 3           , 50          , 0           , 0
0.154697746 , -9.81247    , 0.06495157  , -0.0007824521, 0.000282535359, 0.00134506088, 0.07894027  , 0.5734124   , -0.208979368, 1.57806575  , 0.0177216567, -1.16078627 , 0.12        , 3           , 11          , 0.0346410163, 0.0346410163
0.182428122 , -9.821009   , 0.0818207   , -0.003488618, -0.000118602227, 0.00117944134, 0.07894027  , 0.573345    , -0.208911955, 1.57803082  , 0.0177098531, -1.16078746 , 0.13        , 3           , 12          , 0.0346410163, 0
0.186913684 , -9.76919    , 0.0824600458, -0.00221633422, -0.00112951361, 0.0006002162, 0.07894027  , 0.573345    , -0.208911955, 1.57800841  , 0.0177039523, -1.16079879 , 0.14        , 3           , 50          , 0           , 0
0.179703161 , -9.787833   , 0.0604972653, 0.00146983564, -0.0021701057, 0.000607883 , 0.07894027  , 0.573479831 , -0.208979368, 1.57802272  , 0.01769802  , -1.1608206  , 0.15        , 3           , 11          , 0.0346410163, 0.0346410163
0.158095136 , -9.784969   , 0.06304179  , -0.00152063766, -0.00214488362, 0.00116222037, 0.07887286  , 0.5734124   , -0.208979368, 1.57800722  , 0.0176866036, -1.16084218 , 0.16        , 3           , 12          , 0.0346410163, 0
0.193977922 , -9.793059   , 0.07366735  , -0.00261934 , 0.000599414867, 5.035936E-05, 0.07860321  , 0.573547244 , -0.208844543, 1.57798111  , 0.0176860671, -1.16083622 , 0.17        , 3           , 50          , 0           , 0
0.183719635 , -9.793264   , 0.0591164343, -0.0009003199, 0.001162914 , -0.000789505255, 0.07894027  , 0.573479831 , -0.209046781, 1.57797229  , 0.0176938474, -1.16082466 , 0.18        , 3           , 11          , 0.0346410163, 0.0346410163
0.163924515 , -9.777044   , 0.07628598  , -0.00178237644, -0.00140634959, -0.0009752894, 0.07894027  , 0.573479831 , -0.209046781, 1.57795417  , 0.0177036524, -1.1608386  , 0.19        , 3           , 12          , 0.0346410163, 0
0.1687397   , -9.794658   , 0.07477188  , -0.00290253083, -0.0006718173, -0.00168050069, 0.07894027  , 0.5732776   , -0.209046781, 1.57805324  , 0.0175335146, -1.16084313 , 0.2         , 3           , 50          , 0           , 0
0.1659294   , -9.773186   , 0.0515058078, -0.00229831436, 0.0024734945, -0.00148808293, 0.0785357952, 0.573547244 , -0.208911955, 1.57803071  , 0.01754821  , -1.1608181  , 0.21        , 3           , 11          , 0.0320944   , 0.0320944
0.172315821 , -9.783601   , 0.09209673  , -0.00115285919, 0.00345984381, -0.000894294062, 0.0785357952, 0.573547244 , -0.20877713 , 1.57801974  , 0.017556943 , -1.16078353 , 0.22        , 3           , 12          , 0.0346698463, 0
0.1655671   , -9.750345   , 0.06667198  , -0.00104446977, 0.0010147976, -7.042046E-05, 0.0787380338, 0.5734124   , -0.208844543, 1.57800937  , 0.0175575688, -1.16077328 , 0.23        , 3           , 50          , 0           , 0
0.183472753 , -9.766686   , 0.0621310957, -0.00107142352, -0.0009963755, 0.000472692831, 0.07880545  , 0.573345    , -0.208979368, 1.5779984   , 0.01755283  , -1.16078329 , 0.24        , 3           , 11          , 0.0320944   , 0.0320944
0.2013836   , -9.772337   , 0.0699094   , -6.73568138E-05, -0.000430771353, 0.000200872761, 0.07880545  , 0.573345    , -0.208979368, 1.57799768  , 0.0175508931, -1.16078758 , 0.25        , 3           , 12          , 0.0346698463, 0
0.182327852 , -9.781742   , 0.07911113  , 0.00381892687, 0.00297812745, -0.000727488, 0.07867062  , 0.573479831 , -0.208844543, 1.57803643  , 0.0175579861, -1.16075778 , 0.26        , 3           , 50          , 0           , 0
0.162877217 , -9.741846   , 0.07532751  , 0.00295350328, 0.00226522936, -0.000170734012, 0.07887286  , 0.573479831 , -0.208911955, 1.57806635  , 0.017559506 , -1.16073513 , 0.27        , 3           , 11          , 0.0320944   , 0.0320944
0.165824547 , -9.773792   , 0.06595204  , -0.00120498333, 4.25714E-06 , 0.000915689452, 0.07880545  , 0.573547244 , -0.208844543, 1.57805443  , 0.0175504163, -1.16073513 , 0.28        , 3           , 12          , 0.0346698463, 0
0.1642042   , -9.802682   , 0.06966892  , -0.00135545351, -0.000710745866, 0.000904399 , 0.07867062  , 0.573345    , -0.209046781, 1.5780406   , 0.0175414141, -1.16074228 , 0.29        , 3           , 50          , 0           , 0
0.168519363 , -9.810575   , 0.08723354  , -0.000202671261, 0.000149034444, -0.00034348332, 0.07867062  , 0.573345    , -0.209046781, 1.577978    , 0.017195059 , -1.16074193 , 0.3         , 3           , 11          , 0.0287942048, 0.0287941918
0.178761035 , -9.776761   , 0.08003923  , -0.0006155774, 0.00101822533, -0.000905860739, 0.0785357952, 0.5734124   , -0.208911955, 1.577972    , 0.0172040612, -1.16073167 , 0.31        , 3           , 12          , 0.0347559527, 0
0.190974548 , -9.765206   , 0.08615692  , -0.002469255, 0.00103060913, -0.000201587914, 0.0790751   , 0.5734124   , -0.20877713 , 1.5779475   , 0.0172059983, -1.16072142 , 0.32        , 3           , 50          , 0           , 0
0.170546278 , -9.792884   , 0.0761640444, -0.00174302829, 0.002172261 , -0.000466774334, 0.0790751   , 0.573479831 , -0.20877713 , 1.57793045  , 0.0172104388, -1.16069973 , 0.33        , 3           , 11          , 0.0287942048, 0.0287941918
0.167012632 , -9.793638   , 0.06528219  , 8.86454654E-05, 0.0005785729, -0.000621673651, 0.07880545  , 0.573479831 , -0.208709717, 1.57793128  , 0.01721652  , -1.16069388 , 0.34        , 3           , 12          , 0.0347559527, 0
0.165812358 , -9.782714   , 0.05681508  , -6.278779E-05, -0.00013770978, -0.000489882252, 0.07880545  , 0.573479831 , -0.208709717, 1.57793057  , 0.017221408 , -1.1606952  , 0.35        , 3           , 50          , 0           , 0
0.157201067 , -9.787176   , 0.0593945347, 0.00140505785, 0.00414141035, 0.0001536158, 0.07887286  , 0.5734124   , -0.208979368, 1.57794535  , 0.01721962  , -1.16065371 , 0.36        , 3           , 11          , 0.0287942048, 0.0287941918
0.170828745 , -9.768414   , 0.0651567355, 0.00268709753, 0.00455443654, 0.000596832368, 0.0787380338, 0.573614657 , -0.208844543, 1.577973    , 0.01721336  , -1.16060829 , 0.37        , 3           , 12          , 0.0347559527, 0
0.178330809 , -9.785184   , 0.06683894  , -0.00187548087, 0.00260997354, -0.00117678044, 0.07867062  , 0.573547244 , -0.2086423  , 1.57795477  , 0.0172249544, -1.160582   , 0.38        , 3           , 50          , 0           , 0
0.1758968   , -9.80592    , 0.0679323   , -0.00314445281, 0.00291979429, -0.00232497347, 0.07894027  , 0.573479831 , -0.208574891, 1.57792389  , 0.0172479954, -1.16055274 , 0.39        , 3           , 11          , 0.0287942048, 0.0287941918
0.178272083 , -9.79818249 , 0.0594612621, -0.0002115396, -0.000421741337, -0.0006524119, 0.07867062  , 0.573345    , -0.2091816  , 1.57787919  , 0.0174009036, -1.16055763 , 0.4         , 3           , 12          , 0.0348984934, 0
0.1603732   , -9.790734   , 0.05215555  , -0.00108645379, -0.001711637, 0.0003252411, 0.07867062  , 0.573345    , -0.2091816  , 1.5778681   , 0.0173977744, -1.16057467 , 0.41        , 3           , 50          , 0           , 0
0.183017373 , -9.777374   , 0.04980782  , -0.00148767757, 0.0005840508, 0.0004991412, 0.07860321  , 0.573479831 , -0.208844543, 1.57785332  , 0.0173927676, -1.160569   , 0.42        , 3           , 11          , 0.02162631  , 0.0216262657
0.1837306   , -9.785236   , 0.06733969  , -0.000623217144, 0.00129566912, 8.546927E-05, 0.07867062  , 0.573547244 , -0.20877713 , 1.57784724  , 0.0173918139, -1.160556   , 0.43        , 3           , 12          , 0.0348984934, 0
0.151265651 , -9.785027   , 0.07381897  , 0.0007890829, 0.0004214835, 8.15156454E-05, 0.0787380338, 0.573547244 , -0.20877713 , 1.57785523  , 0.01739095  , -1.16055167 , 0.44        , 3           , 50          , 0           , 0
0.178797364 , -9.782492   , 0.06777769  , 0.00291839615, -2.877764E-05, -5.49762735E-05, 0.0787380338, 0.573345    , -0.208844543, 1.57788444  , 0.0173914861, -1.160552   , 0.45        , 3           , 11          , 0.02162631  , 0.0216262657
0.184052587 , -9.798345   , 0.06990151  , 0.003068589 , 0.00082695554, 0.000244565 , 0.0787380338, 0.573345    , -0.208844543, 1.57791531  , 0.01738898  , -1.1605438  , 0.46        , 3           , 12          , 0.0348984934, 0
0.17818895  , -9.803651   , 0.06481771  , 9.639771E-05, 0.00285183312, 0.00154352712, 0.07887286  , 0.5734124   , -0.208911955, 1.57791674  , 0.0173733924, -1.16051531 , 0.47        , 3           , 50          , 0           , 0
0.16034171  , -9.793008   , 0.0539357774, -0.00133679807, 0.00158179412, 0.000943851366, 0.07887286  , 0.573547244 , -0.20877713 , 1.57790363  , 0.017363824 , -1.16049957 , 0.48        , 3           , 11          , 0.02162631  , 0.0216262657
0.176522434 , -9.788295   , 0.06407624  , 0.00036751703, 0.000291486678, -0.0009247153, 0.07867062  , 0.573547244 , -0.208844543, 1.57790732  , 0.0173730645, -1.16049659 , 0.49        , 3           , 12          , 0.0348984934, 0
0.1634919   , -9.775678   , 0.07539438  , 0.002680195 , 0.00456924876, -0.00115120586, 0.0787380338, 0.5732776   , -0.208844543, 1.57783735  , 0.0174980741, -1.16045249 , 0.5         , 3           , 50          , 0           , 0
0.177430332 , -9.785177   , 0.06683075  , 0.00339115039, 0.00512622437, -0.000137001334, 0.07894027  , 0.5734124   , -0.209046781, 1.57787216  , 0.0174990576, -1.16040123 , 0.51        , 3           , 11          , 0.01934201  , 0.0193419885
0.189580977 , -9.78039551 , 0.0737730861, 0.004640467 , 0.00253272918, -2.37708373E-05, 0.07894027  , 0.5734124   , -0.209046781, 1.57791889  , 0.0174990874, -1.16037583 , 0.52        , 3           , 12          , 0.0350963548, 0
0.167092636 , -9.7766     , 0.07451345  , 0.002050265 , -0.000726686558, -0.00123184291, 0.07860321  , 0.573345    , -0.208979368, 1.57793927  , 0.0175114572, -1.160383   , 0.53        , 3           , 50          , 0           , 0
0.152894884 , -9.756567   , 0.068290405 , -0.002384268, -0.00283252075, -0.00114662 , 0.07887286  , 0.573479831 , -0.20877713 , 1.57791507  , 0.0175231416, -1.16041136 , 0.54        , 3           , 11          , 0.01934201  , 0.0193419885
0.158190846 , -9.76568    , 0.0727508441, -0.000534865656, -0.0021450934, 1.96067558E-05, 0.0787380338, 0.5732776   , -0.208844543, 1.57790935  , 0.017523082 , -1.16043282 , 0.55        , 3           , 12          , 0.0350963548, 0
0.172002137 , -9.785168   , 0.0703944862, 0.00174436381, -0.00159889157, 0.000470907049, 0.07894027  , 0.573547244 , -0.208911955, 1.5779264   , 0.0175184626, -1.16044879 , 0.56        , 3           , 50          , 0           , 0
0.17276071  , -9.77179    , 0.04209917  , 0.00132732664, -0.0005940896, 0.0007691084, 0.07894027  , 0.573547244 , -0.208911955, 1.57793951  , 0.0175107419, -1.16045475 , 0.57        , 3           , 11          , 0.01934201  , 0.0193419885
0.179882675 , -9.77643    , 0.0484348163, 0.00161878788, -0.000728751, -0.000519003137, 0.0787380338, 0.5734124   , -0.208979368, 1.5779556   , 0.017515989 , -1.1604619  , 0.58        , 3           , 12          , 0.0350963548, 0
0.186907887 , -9.803473   , 0.0414118767, 0.00149389857, 0.000283399335, -0.00136374438, 0.07887286  , 0.573479831 , -0.20877713 , 1.57797062  , 0.01752958  , -1.160459   , 0.59        , 3           , 50          , 0           , 0
0.19403401  , -9.802766   , 0.0536812879, -0.0006310633, -0.000281043322, -0.000445145182, 0.07860321  , 0.573479831 , -0.208574891, 1.57735837  , 0.0178490523, -1.16047263 , 0.6         , 3           , 11          , 0.0178096928, 0.0178096835
0.168342829 , -9.787895   , 0.07529797  , -0.00106170948, -0.0007052978, -0.000597057631, 0.07880545  , 0.5734124   , -0.208844543, 1.57734764  , 0.017855132 , -1.16047978 , 0.61        , 3           , 12          , 0.0353481844, 0
0.171201408 , -9.78367    , 0.0577569678, 0.001976204 , 0.00314213848, -0.00152429822, 0.07880545  , 0.5734124   , -0.208844543, 1.5773679   , 0.0178701263, -1.16044831 , 0.62        , 3           , 50          , 0           , 0
0.168572173 , -9.774635   , 0.0582887754, 0.004828577 , 0.00397042045, -0.00120847987, 0.0787380338, 0.5734124   , -0.208979368, 1.5774169   , 0.01788193  , -1.1604085  , 0.63        , 3           , 11          , 0.0178096928, 0.0178096835
0.159721911 , -9.801721   , 0.06783201  , 0.00381131028, 0.002258499 , -0.000953353941, 0.07867062  , 0.5734124   , -0.208844543, 1.5774554   , 0.0178913176, -1.16038585 , 0.64        , 3           , 12          , 0.0353481844, 0
0.158852518 , -9.778964   , 0.09112307  , -0.000758156064, 0.0008692777, -0.000715471862, 0.0787380338, 0.573479831 , -0.208844543, 1.577448    , 0.0178984422, -1.16037714 , 0.65        , 3           , 50          , 0           , 0
0.159478828 , -9.774692   , 0.0708519146, -0.00416209 , 0.00204515085, -0.000147010389, 0.07880545  , 0.573479831 , -0.20877713 , 1.57740676  , 0.0178997833, -1.16035676 , 0.66        , 3           , 11          , 0.0178096928, 0.0178096835
0.164054692 , -9.776399   , 0.0582268722, -0.00345263979, 0.001894637 , -0.000144813661, 0.07894027  , 0.5734124   , -0.208911955, 1.57737255  , 0.0179011244, -1.16033781 , 0.67        , 3           , 12          , 0.0353481844, 0
0.180404454 , -9.797494   , 0.07755656  , -0.000632990152, -0.0002836027, -0.000158981231, 0.07894027  , 0.5734124   , -0.208911955, 1.57736623  , 0.0179027338, -1.16034055 , 0.68        , 3           , 50          , 0           , 0
0.162480369 , -9.803883   , 0.0569917858, -0.0004884339, 2.51850452E-07, -1.08690019E-05, 0.0787380338, 0.573547244 , -0.20877713 , 1.57736123  , 0.0179028232, -1.16034055 , 0.69        , 3           , 11          , 0.0178096928, 0.0178096835
0.176476866 , -9.78703    , 0.0722209   , -0.0037945488, 3.20249019E-05, 0.000172920772, 0.0787380338, 0.573479831 , -0.20877713 , 1.57719111  , 0.01766684  , -1.16034269 , 0.7         , 3           , 12          , 0.0356524326, 0
0.188943967 , -9.785572   , 0.09448534  , -0.004065234, 0.000899771054, -0.0003886  , 0.0790076852, 0.573614657 , -0.20877713 , 1.5771507   , 0.0176707469, -1.16033363 , 0.71        , 3           , 50          , 0           , 0
0.153769433 , -9.768634   , 0.0573185273, -0.004364801, -0.0002462154, -0.00012084347, 0.0790076852, 0.5734124   , -0.208911955, 1.57710707  , 0.0176719688, -1.16033614 , 0.72        , 3           , 11          , 0.0161562543, 0.0161562711
0.176467836 , -9.795946   , 0.06263236  , -0.00452930247, -0.001685345, 0.000715924136, 0.0790076852, 0.5734124   , -0.208911955, 1.5770613   , 0.0176649038, -1.160353   , 0.73        , 3           , 12          , 0.0356524326, 0
0.180861965 , -9.778346   , 0.09991478  , -0.00179356872, 0.000871535 , 0.000197435162, 0.07867062  , 0.573479831 , -0.208911955, 1.57704365  , 0.0176629666, -1.16034424 , 0.74        , 3           , 50          , 0           , 0
0.175061449 , -9.79513    , 0.07166271  , 0.0010671987, 0.00185206463, -0.000486233621, 0.0787380338, 0.573345    , -0.208844543, 1.57705462  , 0.0176676754, -1.16032565 , 0.75        , 3           , 11          , 0.0161562543, 0.0161562711
0.15954867  , -9.824689   , 0.06485516  , 0.00221925438, 0.003411573 , 0.000115902461, 0.07860321  , 0.573547244 , -0.20877713 , 1.57707727  , 0.0176662449, -1.16029167 , 0.76        , 3           , 12          , 0.0356524326, 0
0.158513084 , -9.783242   , 0.0698409751, 0.00177265052, 0.00226063235, 0.00109821232, 0.07860321  , 0.573345    , -0.208844543, 1.57709539  , 0.0176551268, -1.16026914 , 0.77        , 3           , 50          , 0           , 0
0.178513378 , -9.77155    , 0.057060726 , -0.000403127633, -0.00214815512, -0.000267065974, 0.0787380338, 0.5732776   , -0.20877713 , 1.577091    , 0.01765793  , -1.16029048 , 0.78        , 3           , 11          , 0.0161562543, 0.0161562711
0.173397243 , -9.77576351 , 0.07548447  , 0.000610297138, -0.00142902334, -0.00168145529, 0.0787380338, 0.5732776   , -0.20877713 , 1.57709682  , 0.01767486  , -1.16030478 , 0.79        , 3           , 12          , 0.0356524326, 0
0.174978435 , -9.802824   , 0.0742833   , 0.002471911 , -0.00146148039, -9.74124341E-05, 0.0785357952, 0.5734124   , -0.208844543, 1.57719445  , 0.0176790915, -1.16031814 , 0.8         , 3           , 50          , 0           , 0
0.184728682 , -9.778417   , 0.0615555644, 0.0004553831, -0.00274493662, 0.00144571485, 0.07867062  , 0.5737495   , -0.208911955, 1.57719862  , 0.0176647846, -1.16034579 , 0.81        , 3           , 11          , 0.0150106708, 0.0150106791
0.194785014 , -9.764917   , 0.05638352  , 0.00121021352, 0.0005511783, 0.0006395019, 0.07880545  , 0.5734124   , -0.208844543, 1.57721066  , 0.0176582877, -1.16034031 , 0.82        , 3           , 12          , 0.0360073671, 0
0.17694065  , -9.761392   , 0.03638562  , 0.00407359377, 0.00167627737, -0.00018516196, 0.07880545  , 0.5734124   , -0.208911955, 1.57725179  , 0.0176599864, -1.16032362 , 0.83        , 3           , 50          , 0           , 0
0.163724646 , -9.810289   , 0.06460807  , 0.00107281026, 0.000559022 , -7.67647143E-05, 0.07880545  , 0.5734124   , -0.208911955, 1.57726252  , 0.0176607613, -1.160318   , 0.84        , 3           , 11          , 0.0150106708, 0.0150106791
0.17762962  , -9.795803   , 0.09019799  , -0.00178327155, -0.000838578853, -0.0008301764, 0.07867062  , 0.573479831 , -0.208911955, 1.57724452  , 0.017669078 , -1.16032648 , 0.85        , 3           , 12          , 0.0360073671, 0
0.159920663 , -9.783166   , 0.061724294 , 0.00162794883, -0.00129928393, -0.00124512194, 0.07880545  , 0.573547244 , -0.208911955, 1.57726049  , 0.0176815968, -1.16033936 , 0.86        , 3           , 50          , 0           , 0
0.170789629 , -9.769363   , 0.0696623549, -8.33759259E-05, -0.0008648749, 0.000181678071, 0.0787380338, 0.573547244 , -0.208709717, 1.57725966  , 0.0176798664, -1.160348   , 0.87        , 3           , 11          , 0.0150106708, 0.0150106791
0.190134346 , -9.757982   , 0.08623257  , -0.00193622208, -0.00127468118, 2.11986389E-05, 0.07867062  , 0.573547244 , -0.208709717, 1.57724     , 0.0176796876, -1.16036081 , 0.88        , 3           , 12          , 0.0360073671, 0
0.190024167 , -9.790202   , 0.06282332  , -0.00195121649, -0.00200008764, 0.00101233891, 0.07894027  , 0.573345    , -0.2091142  , 1.57722     , 0.0176696442, -1.16038084 , 0.89        , 3           , 50          , 0           , 0
0.188270912 , -9.796789   , 0.0478252545, -0.00552854361, -0.00382738234, 0.0008681651, 0.07894027  , 0.573345    , -0.2091142  , 1.57716286  , 0.0179184135, -1.16041934 , 0.9         , 3           , 11          , 0.0150505109, 0.0150505183
0.172116354 , -9.782321   , 0.0573292635, -0.005788221, -0.002662819, -0.0008338383, 0.07887286  , 0.573614657 , -0.208911955, 1.57710445  , 0.0179268774, -1.16044581 , 0.91        , 3           , 12          , 0.0364111066, 0
0.1518508   , -9.778593   , 0.06215458  , -0.00265526283, -0.001842546, 5.602176E-05, 0.07867062  , 0.573547244 , -0.20877713 , 1.57707751  , 0.0179264   , -1.16046429 , 0.92        , 3           , 50          , 0           , 0
0.157669187 , -9.790269   , 0.05303943  , -0.00166852679, -0.00228764745, 0.000628086331, 0.07887286  , 0.573479831 , -0.208844543, 1.57706034  , 0.0179202612, -1.16048717 , 0.93        , 3           , 11          , 0.0150505109, 0.0150505183
0.174177408 , -9.783078   , 0.0839894041, -0.00236242847, -0.00169318775, -0.0009417521, 0.07880545  , 0.573479831 , -0.208979368, 1.57703638  , 0.01792974  , -1.1605041  , 0.94        , 3           , 12          , 0.0364111066, 0
0.1656637   , -9.792288   , 0.0666404441, -0.00232722471, 0.00103443314, -0.0014744316, 0.07880545  , 0.573479831 , -0.208979368, 1.57701325  , 0.0179444347, -1.16049373 , 0.95        , 3           , 50          , 0           , 0
0.174199119 , -9.799515   , 0.0607635155, -0.000335879915, 0.00186114584, -1.90971841E-05, 0.0787380338, 0.573479831 , -0.20877713 , 1.57701027  , 0.0179444943, -1.160475   , 0.96        , 3           , 11          , 0.0150505109, 0.0150505183
0.1799942   , -9.800545   , 0.06803203  , 0.0013369295, -0.0005997935, 0.000814200146, 0.07880545  , 0.573547244 , -0.208911955, 1.57702351  , 0.0179363862, -1.1604811  , 0.97        , 3           , 12          , 0.0364111066, 0
0.188299239 , -9.782948   , 0.0606327169, 0.00190334034, -0.00131434214, -5.12988663E-05, 0.07887286  , 0.573547244 , -0.208709717, 1.57704234  , 0.017937012 , -1.16049421 , 0.98        , 3           , 50          , 0           , 0
0.167705476 , -9.779917   , 0.04692751  , 0.00303546363, -0.00189777918, -0.000195874309, 0.07887286  , 0.5734124   , -0.208844543, 1.57707238  , 0.01793907  , -1.16051316 , 0.99        , 3           , 11          , 0.0150505109, 0.0150505183
0.170291185 , -9.7908     , 0.05043921  , 0.0018532438, -0.00217971252, 0.0005280204, 0.07887286  , 0.5734124   , -0.208844543, 1.57700408  , 0.0178875029, -1.16053665 , 1           , 3           , 12          , 0.03686165  , 0
0.165338    , -9.768056   , 0.0782094747, -0.0009816659, -0.00157381862, 8.998742E-05, 0.07887286  , 0.573345    , -0.209046781, 1.57699406  , 0.017886728 , -1.16055226 , 1.01        , 3           , 50          , 0           , 0
0.196422622 , -9.7829895  , 0.05799677  , 0.00059802545, -0.00100503524, -0.00117997988, 0.07846838  , 0.573547244 , -0.208844543, 1.57699978  , 0.0178985614, -1.16056228 , 1.02        , 3           , 11          , 0.0143833524, 0.014383371
0.163692057 , -9.772255   , 0.05059258  , 0.00246807025, -7.993185E-06, -0.00258505531, 0.07860321  , 0.573479831 , -0.20877713 , 1.57702446  , 0.0179244336, -1.16056228 , 1.03        , 3           , 12          , 0.03686165  , 0
0.159805581 , -9.782008   , 0.07980436  , -0.000548538, -0.00142846443, -0.0006207657, 0.07867062  , 0.573547244 , -0.208844543, 1.57701874  , 0.0179307237, -1.16057658 , 1.04        , 3           , 50          , 0           , 0
0.173191249 , -9.788097   , 0.0902460963, -0.0031145555, -0.00126940629, 0.0005105565, 0.07880545  , 0.573479831 , -0.208844543, 1.57698739  , 0.0179256853, -1.16058922 , 1.05        , 3           , 11          , 0.0143833524, 0.014383371
0.184998408 , -9.795167   , 0.06723672  , -0.00120106945, 0.004159374 , 0.0003148267, 0.07880545  , 0.573479831 , -0.208844543, 1.57697618  , 0.0179223176, -1.16054773 , 1.06        , 3           , 12          , 0.03686165  , 0
0.177874655 , -9.780293   , 0.07366661  , 0.000234330408, 0.00529124262, 0.0003400878, 0.07887286  , 0.5734124   , -0.208911955, 1.57697952  , 0.0179186519, -1.16049469 , 1.07        , 3           , 50          , 0           , 0
0.171492562 , -9.798609   , 0.06255587  , -0.00107740879, 0.00229900447, -0.000140690579, 0.0787380338, 0.573547244 , -0.208844543, 1.57696927  , 0.0179199632, -1.16047168 , 1.08        , 3           , 11          , 0.0143833524, 0.014383371
0.161633849 , -9.796671   , 0.05797064  , -0.0033673693, 0.00131525507, 0.000260240922, 0.0787380338, 0.5734124   , -0.208844543, 1.57693577  , 0.0179171916, -1.16045856 , 1.09        , 3           , 12          , 0.03686165  , 0
0.164489076 , -9.788      , 0.0463529229, -0.00300489878, 0.0005958188, 0.000610020361, 0.07894027  , 0.573614657 , -0.2091816  , 1.5767839   , 0.0171311833, -1.16045475 , 1.1         , 3           , 50          , 0           , 0
0.151979432 , -9.76059    , 0.0655254051, -0.001001161, 0.00101569819, -0.0005163816, 0.07894027  , 0.573614657 , -0.2091816  , 1.576774    , 0.01713634  , -1.16044462 , 1.11        , 3           , 11          , 0.0145235937, 0.0145236077
0.167516112 , -9.784658   , 0.0685523152, 0.00015007559, 0.00200972613, -0.000781084644, 0.07867062  , 0.5734124   , -0.209046781, 1.57677579  , 0.01714403  , -1.16042447 , 1.12        , 3           , 12          , 0.037356928 , 0
0.183063865 , -9.802923   , 0.07706667  , -0.0005868818, 0.000430526881, 0.0003363334, 0.0785357952, 0.5737495   , -0.208911955, 1.57677     , 0.0171406623, -1.16042018 , 1.13        , 3           , 50          , 0           , 0
0.183568865 , -9.785929   , 0.08991489  , -0.0011497041, 0.0003032547, -0.0008138362, 0.0787380338, 0.573547244 , -0.20877713 , 1.57675838  , 0.0171487685, -1.16041708 , 1.14        , 3           , 11          , 0.0145235937, 0.0145236077
0.176942557 , -9.780333   , 0.0781745   , 0.00115771918, 0.00272117951, -0.00133698212, 0.07887286  , 0.573547244 , -0.208911955, 1.57677042  , 0.017161943 , -1.1603899  , 1.15        , 3           , 12          , 0.037356928 , 0
0.188673943 , -9.775946   , 0.0801398   , 0.00244428753, 0.00426900433, 0.000410666777, 0.07887286  , 0.5734124   , -0.20924902 , 1.5767957   , 0.0171575919, -1.16034734 , 1.16        , 3           , 50          , 0           , 0
0.168413416 , -9.796244   , 0.05487604  , 0.00328179379, 0.00296944985, 0.000540108071, 0.07887286  , 0.5734124   , -0.20924902 , 1.576829    , 0.0171519574, -1.16031754 , 1.17        , 3           , 11          , 0.0145235937, 0.0145236077
0.162324935 , -9.804565   , 0.07866375  , 0.000126421583, 0.000285132381, -0.0002337979, 0.07880545  , 0.573479831 , -0.208979368, 1.57683027  , 0.017154254 , -1.1603148  , 1.18        , 3           , 12          , 0.037356928 , 0
0.156827465 , -9.765689   , 0.074544996 , -0.0012997645, -0.000129008491, -0.000391707144, 0.0787380338, 0.57368207  , -0.208709717, 1.57681727  , 0.0171582177, -1.160316   , 1.19        , 3           , 50          , 0           , 0
0.186493427 , -9.786501   , 0.05696155  , 0.0006888704, -0.00158308574, -0.000247242977, 0.0785357952, 0.573547244 , -0.208709717, 1.57685184  , 0.0171417054, -1.16033125 , 1.2         , 3           , 11          , 0.0101956362, 0.0101955887
0.159119487 , -9.772768   , 0.0600301772, 0.000404707273, -0.00172092614, -0.000537207059, 0.0790076852, 0.57368207  , -0.209046781, 1.57685554  , 0.0171471   , -1.16034842 , 1.21        , 3           , 12          , 0.03789481  , 0
0.175240368 , -9.784172   , 0.0591434   , 0.00171370048, 0.0007032729, -0.000637103745, 0.0790076852, 0.57368207  , -0.209046781, 1.57687283  , 0.01715342  , -1.16034138 , 1.22        , 3           , 50          , 0           , 0
0.167564839 , -9.785919   , 0.059956044 , 0.0008522635, 0.000418963842, 6.89924636E-05, 0.07887286  , 0.57368207  , -0.208844543, 1.57688153  , 0.0171527341, -1.16033721 , 1.23        , 3           , 11          , 0.0101956362, 0.0101955887
0.173209772 , -9.804539   , 0.06747183  , -0.00100334059, 0.0004287881, 0.00105942949, 0.07887286  , 0.57368207  , -0.20877713 , 1.57687163  , 0.0171421226, -1.16033292 , 1.24        , 3           , 12          , 0.03789481  , 0
0.157344013 , -9.77716351 , 0.050929226 , -0.00156410318, 0.0007275453, 0.000344766246, 0.0790076852, 0.573547244 , -0.208709717, 1.57685614  , 0.0171386935, -1.16032577 , 1.25        , 3           , 50          , 0           , 0
0.162237868 , -9.776407   , 0.06046853  , -0.00182364893, 0.00231557875, -0.0006355667, 0.07887286  , 0.57368207  , -0.208979368, 1.57683825  , 0.0171448346, -1.16030264 , 1.26        , 3           , 11          , 0.0101956362, 0.0101955887
0.16932568  , -9.792228   , 0.0580926538, -0.000514246349, 0.00502251741, -0.000302044, 0.07887286  , 0.57368207  , -0.208979368, 1.57683408  , 0.0171475764, -1.16025233 , 1.27        , 3           , 12          , 0.03789481  , 0
0.179988921 , -9.80901051 , 0.0584486872, -0.00211730273, 0.00160074059, -0.0005046321, 0.0787380338, 0.573479831 , -0.209046781, 1.5768131   , 0.0171525255, -1.16023624 , 1.28        , 3           , 50          , 0           , 0
0.1977454   , -9.780374   , 0.06526624  , -0.00202018651, -0.00198806264, 1.63834338E-05, 0.07894027  , 0.573614657 , -0.208911955, 1.5767926   , 0.0171524957, -1.160256   , 1.29        , 3           , 11          , 0.0101956362, 0.0101955887
0.158571512 , -9.777366   , 0.06855425  , -0.0013018758, -0.00271061668, -0.000198523645, 0.07860321  , 0.573547244 , -0.20877713 , 1.57680357  , 0.0172653738, -1.16028285 , 1.3         , 3           , 12          , 0.03847315  , 0
0.1656721   , -9.795391   , 0.0616360754, -0.0012822086, -0.00141461159, -0.0008951528, 0.07860321  , 0.573479831 , -0.208979368, 1.57679057  , 0.0172744635, -1.16029692 , 1.31        , 3           , 50          , 0           , 0
0.181482792 , -9.77809    , 0.075532    , -0.000294786179, -0.00171770342, -0.000177919472, 0.0790751   , 0.573479831 , -0.2091142  , 1.57678735  , 0.0172763411, -1.16031408 , 1.32        , 3           , 11          , 0.0106291   , 0.0106290635
0.186869    , -9.771931   , 0.08558987  , -0.00302432943, -0.00398416445, -8.450294E-05, 0.0790751   , 0.573479831 , -0.2091142  , 1.57675648  , 0.0172774736, -1.1603539  , 1.33        , 3           , 12          , 0.03847315  , 0
0.156663984 , -9.781519   , 0.07887771  , -0.00342032616, -0.00139933825, -0.000192593245, 0.0787380338, 0.573547244 , -0.208979368, 1.576722    , 0.017279502 , -1.16036785 , 1.34        , 3           , 50          , 0           , 0
0.154516056 , -9.77511    , 0.07170485  , -0.00241351314, -0.00026569498, 0.000116261777, 0.07887286  , 0.5738169   , -0.208979368, 1.57669771  , 0.01727831  , -1.16037059 , 1.35        , 3           , 11          , 0.0106291   , 0.0106290635
0.1554335   , -9.785774   , 0.0562326   , -0.00242120912, -0.001263603, -0.00047067352, 0.07894027  , 0.57368207  , -0.20877713 , 1.57667327  , 0.0172831081, -1.16038322 , 1.36        , 3           , 12          , 0.03847315  , 0
0.153648823 , -9.783063   , 0.057150878 , -0.003435176, -0.00268894434, -0.000211374077, 0.07880545  , 0.573479831 , -0.208844543, 1.57663846  , 0.0172854327, -1.16041    , 1.37        , 3           , 50          , 0           , 0
0.1524907   , -9.798583   , 0.07548051  , -0.00357850385, -0.00212457916, 0.000940772356, 0.07880545  , 0.573479831 , -0.208844543, 1.57660234  , 0.0172761325, -1.16043139 , 1.38        , 3           , 11          , 0.0106291   , 0.0106290635
0.162530363 , -9.792678   , 0.063445285 , -0.002989824, -0.0004108838, 0.0009692403, 0.07887286  , 0.573479831 , -0.208844543, 1.5765723   , 0.0172664467, -1.16043544 , 1.39        , 3           , 12          , 0.03847315  , 0
0.1536935   , -9.766524   , 0.07089298  , -0.00164699054, -0.00069258525, -0.0008360552, 0.0787380338, 0.57368207  , -0.208844543, 1.57664144  , 0.017192943 , -1.16044092 , 1.4         , 3           , 50          , 0           , 0
0.181361973 , -9.788067   , 0.08083603  , 0.00151017611, 0.00157082162, -0.00106998358, 0.07887286  , 0.573614657 , -0.208709717, 1.57665682  , 0.0172035545, -1.16042507 , 1.41        , 3           , 11          , 0.0110475849, 0.0110475551
0.179177165 , -9.776371   , 0.085467875 , 0.0005195745, 0.00299847382, 0.000661871338, 0.07880545  , 0.57368207  , -0.208844543, 1.57666242  , 0.0171967279, -1.160395   , 1.42        , 3           , 12          , 0.039089784 , 0
0.163702786 , -9.759775   , 0.0642875358, -0.000207206293, 0.002138282 , 0.0015035593, 0.0790076852, 0.573547244 , -0.208979368, 1.57666075  , 0.0171816461, -1.16037369 , 1.43        , 3           , 50          , 0           , 0
0.174435914 , -9.771554   , 0.0606367439, 0.000204748227, 0.000280141277, 0.000477427529, 0.0790076852, 0.573547244 , -0.208979368, 1.5766629   , 0.017176846 , -1.160371   , 1.44        , 3           , 11          , 0.0110475849, 0.0110475551
0.196004391 , -9.766464   , 0.07354122  , 0.00160907512, -0.00145122234, 0.0001747892, 0.0787380338, 0.573547244 , -0.208911955, 1.57667863  , 0.0171751473, -1.16038549 , 1.45        , 3           , 12          , 0.039089784 , 0
0.188181281 , -9.786244   , 0.07369268  , 0.000318231643, -0.00229923613, 0.0002976402, 0.07867062  , 0.573614657 , -0.208979368, 1.57668149  , 0.0171722565, -1.16040862 , 1.46        , 3           , 50          , 0           , 0
0.16975075  , -9.806069   , 0.0448376834, -0.000387641165, -0.00200287346, 1.13662736E-05, 0.07887286  , 0.573479831 , -0.208709717, 1.5766772   , 0.0171722565, -1.16042852 , 1.47        , 3           , 11          , 0.0110475849, 0.0110475551
0.181195214 , -9.801677   , 0.08835622  , 0.00248466432, 0.0009683533, 0.00107389642, 0.07894027  , 0.573479831 , -0.208844543, 1.57670224  , 0.017161496 , -1.16041911 , 1.48        , 3           , 12          , 0.039089784 , 0
0.173198014 , -9.79699    , 0.0783994943, 0.000356313976, 0.00141989428, 0.00106730626, 0.07894027  , 0.573479831 , -0.208844543, 1.576706    , 0.0171507951, -1.16040492 , 1.49        , 3           , 50          , 0           , 0
0.16626285  , -9.775595   , 0.06548356  , -0.000251976278, 0.000309854659, 0.000226194767, 0.07867062  , 0.573479831 , -0.209046781, 1.57819855  , 0.0175240375, -1.1603756  , 1.5         , 3           , 11          , 0.0110060414, 0.011006006
0.161834076 , -9.770102   , 0.061441    , 7.43727924E-06, -0.00170164846, 0.000484857446, 0.0787380338, 0.573614657 , -0.208844543, 1.57819819  , 0.0175192375, -1.16039264 , 1.51        , 3           , 12          , 0.0397425666, 0
0.178381577 , -9.764185   , 0.08514952  , -0.00185256323, -0.002403153, 0.0008925326, 0.07880545  , 0.57368207  , -0.20877713 , 1.57817924  , 0.0175104439, -1.16041672 , 1.52        , 3           , 50          , 0           , 0
0.190756679 , -9.7931385  , 0.0835740641, -0.0003939191, 0.00017056943, -6.291275E-05, 0.07860321  , 0.573614657 , -0.208911955, 1.57817543  , 0.01751107  , -1.160415   , 1.53        , 3           , 11          , 0.0110060414, 0.011006006
0.177319452 , -9.804041   , 0.05983658  , 0.00102099439, -0.0005590467, -0.000207861609, 0.07880545  , 0.57368207  , -0.209046781, 1.57818556  , 0.017513277 , -1.16042066 , 1.54        , 3           , 12          , 0.0397425666, 0
0.175665289 , -9.795788   , 0.0486242846, -0.00154543249, -0.0006827285, 0.0004900411, 0.07880545  , 0.57368207  , -0.209046781, 1.57817006  , 0.0175084174, -1.16042757 , 1.55        , 3           , 50          , 0           , 0
0.183704332 , -9.790618   , 0.06456718  , 0.000585807837, -0.00113043026, 6.738531E-05, 0.07860321  , 0.573479831 , -0.208844543, 1.57817566  , 0.0175078511, -1.16043878 , 1.56        , 3           , 11          , 0.0110060414, 0.011006006
0.166068509 , -9.793252   , 0.07205338  , 0.00226454227, -0.00414789049, -0.0009677305, 0.07880545  , 0.5737495   , -0.208709717, 1.5781976   , 0.017517807 , -1.16048014 , 1.57        , 3           , 12          , 0.0397425666, 0
0.158554241 , -9.785404   , 0.061234206 , -0.000255818362, -0.000682933838, -0.00093306863, 0.0787380338, 0.573614657 , -0.208844543, 1.578195    , 0.0175272264, -1.160487   , 1.58        , 3           , 50          , 0           , 0
0.161438718 , -9.780697   , 0.04053718  , -0.003069832, 0.002067184 , -0.0007674719, 0.0787380338, 0.5734124   , -0.20877713 , 1.57816446  , 0.0175347365, -1.16046619 , 1.59        , 3           , 11          , 0.0110060414, 0.011006006
0.162245035 , -9.780403   , 0.05455046  , 2.49565346E-07, -0.000399729062, -0.000917052967, 0.0787380338, 0.5734124   , -0.20877713 , 1.57812285  , 0.0175306238, -1.16047072 , 1.6         , 3           , 12          , 0.04042942  , 0
0.176443055 , -9.793314   , 0.0694379061, 0.005542289 , -0.0006032056, -0.000456482667, 0.07867062  , 0.5734124   , -0.208844543, 1.57817817  , 0.0175351836, -1.16047692 , 1.61        , 3           , 50          , 0           , 0
0.156195611 , -9.785549   , 0.07656841  , 0.004109082 , -0.000885574729, 0.0006754328, 0.0787380338, 0.573479831 , -0.20877713 , 1.57821918  , 0.0175285675, -1.16048574 , 1.62        , 3           , 11          , 0.00627656234, 0.00627657957
0.158008382 , -9.78154    , 0.07979322  , -0.00016150462, -0.00127081946, 0.0005003896, 0.07860321  , 0.573547244 , -0.208844543, 1.57821739  , 0.0175236482, -1.16049862 , 1.63        , 3           , 12          , 0.04042942  , 0
0.192561865 , -9.776232   , 0.1036603   , -0.001309851, -0.002261008, 0.000335846649, 0.07867062  , 0.57368207  , -0.209046781, 1.57820392  , 0.01752046  , -1.16052127 , 1.64        , 3           , 50          , 0           , 0
0.175138116 , -9.773645   , 0.08681727  , -0.00161271752, -0.00369357364, 0.0005994296, 0.07867062  , 0.57368207  , -0.209046781, 1.57818711  , 0.0175147671, -1.16055822 , 1.65        , 3           , 11          , 0.00627656234, 0.00627657957
0.178476647 , -9.78228951 , 0.0492576472, -0.004441714, -0.00265653152, 2.457502E-05, 0.07867062  , 0.5734124   , -0.20924902 , 1.57814229  , 0.0175147671, -1.16058481 , 1.66        , 3           , 12          , 0.04042942  , 0
0.167590231 , -9.788105   , 0.05360733  , -0.00296932762, 0.00176971778, 0.000240913781, 0.07867062  , 0.5737495   , -0.209046781, 1.57811284  , 0.0175121743, -1.160567   , 1.67        , 3           , 50          , 0           , 0
0.175341576 , -9.786243   , 0.041956082 , -0.00180255412, 0.004195362 , 0.00014016038, 0.07867062  , 0.57368207  , -0.208911955, 1.57809556  , 0.0175104141, -1.1605252  , 1.68        , 3           , 11          , 0.00627656234, 0.00627657957
0.187439352 , -9.785549   , 0.0515609123, -0.002345356, 0.00033096  , 0.00015236024, 0.0787380338, 0.5734124   , -0.208911955, 1.57807219  , 0.0175088644, -1.16052186 , 1.69        , 3           , 12          , 0.04042942  , 0
0.19639416  , -9.783032   , 0.06206126  , 0.000127934531, 0.00209532771, 0.0002357314, 0.07880545  , 0.573479831 , -0.2091142  , 1.57803023  , 0.0175418314, -1.16050172 , 1.7         , 3           , 50          , 0           , 0
0.186415434 , -9.781279   , 0.07463715  , 0.00212025456, 0.00193565  , -0.000183607655, 0.07880545  , 0.573479831 , -0.2091142  , 1.57805181  , 0.01754359  , -1.16048241 , 1.71        , 3           , 11          , 0.00669665076, 0.00669666566
0.170088723 , -9.798232   , 0.07067778  , 0.001465559 , 8.83454559E-05, -0.00121616467, 0.07894027  , 0.573547244 , -0.209046781, 1.57806647  , 0.0175557211, -1.16048145 , 1.72        , 3           , 12          , 0.04114829  , 0
0.1740783   , -9.809492   , 0.06606757  , -0.0001781543, -0.0003997521, -0.0008756155, 0.07860321  , 0.5737495   , -0.20877713 , 1.57806456  , 0.0175645147, -1.16048527 , 1.73        , 3           , 50          , 0           , 0
0.155480847 , -9.771903   , 0.06633041  , -0.0008497046, -0.00276328763, -0.000270033255, 0.07880545  , 0.573547244 , -0.2086423  , 1.5780555   , 0.0175673757, -1.16051292 , 1.74        , 3           , 11          , 0.00669665076, 0.00669666566
0.158475429 , -9.758123   , 0.0407704674, 0.000149617117, -0.00248618214, -0.000331403833, 0.0785357952, 0.573547244 , -0.20877713 , 1.57805657  , 0.0175708625, -1.16053784 , 1.75        , 3           , 12          , 0.04114829  , 0
0.166461229 , -9.761935   , 0.0534473248, 0.0005378295, -0.000188842489, -0.00122590677, 0.0785357952, 0.573547244 , -0.20877713 , 1.57806182  , 0.0175830834, -1.16053963 , 1.76        , 3           , 50          , 0           , 0
0.166447684 , -9.787578   , 0.0892867   , -0.000102293168, -0.0006058108, -0.00195143244, 0.0787380338, 0.573614657 , -0.208844543, 1.57806075  , 0.0176026672, -1.16054559 , 1.77        , 3           , 11          , 0.00669665076, 0.00669666566
0.171919152 , -9.781288   , 0.08715114  , -0.0011760249, -0.00116877281, -0.00189466344, 0.07867062  , 0.5737495   , -0.208844543, 1.57804883  , 0.0176217146, -1.160557   , 1.78        , 3           , 12          , 0.04114829  , 0
0.167448536 , -9.785652   , 0.07712242  , -0.005099528, -0.00142777734, -0.000563117268, 0.0792099237, 0.57368207  , -0.208844543, 1.57799745  , 0.0176274069, -1.16057134 , 1.79        , 3           , 50          , 0           , 0
0.184977755 , -9.79876    , 0.06583999  , -0.0005271052, -0.000476418034, 0.000133572044, 0.07894027  , 0.573547244 , -0.208911955, 1.57800889  , 0.0176133681, -1.16057587 , 1.8         , 3           , 11          , 0.007174191 , 0.007174201
0.180922121 , -9.762426   , 0.0454441644, -6.11223441E-05, 0.00309892744, 0.0004744753, 0.07887286  , 0.5732776   , -0.208911955, 1.57800889  , 0.0176083911, -1.16054487 , 1.81        , 3           , 12          , 0.0418972075, 0
0.1492074   , -9.752216   , 0.08592276  , 0.0007032809, 0.00158580067, 0.0005288171, 0.07887286  , 0.5732776   , -0.208911955, 1.57801628  , 0.0176030546, -1.160529   , 1.82        , 3           , 50          , 0           , 0
0.160872847 , -9.768405   , 0.07229238  , -0.0007817731, 0.00182358385, -0.000335540128, 0.07887286  , 0.5738169   , -0.208911955, 1.57800877  , 0.0176063031, -1.16051078 , 1.83        , 3           , 11          , 0.007174191 , 0.007174201
0.157367736 , -9.771341   , 0.0546102077, -0.0008250219, -0.0014791151, 0.0004034153, 0.07860321  , 0.573547244 , -0.208911955, 1.57800031  , 0.01760237  , -1.1605258  , 1.84        , 3           , 12          , 0.0418972075, 0
0.172741234 , -9.792544   , 0.0847703144, 0.0004808158, 9.43051E-05 , -0.000710575841, 0.0787380338, 0.573479831 , -0.208844543, 1.57800508  , 0.0176094342, -1.16052485 , 1.85        , 3           , 50          , 0           , 0
0.165940285 , -9.806357   , 0.07461108  , 0.0006146415, -5.93875375E-05, 0.000289767981, 0.07880545  , 0.573547244 , -0.208911955, 1.57801127  , 0.0176065713, -1.16052532 , 1.86        , 3           , 11          , 0.007174191 , 0.007174201
0.174123123 , -9.808978   , 0.0602019   , -0.0003061394, -0.00018624714, -0.0005048384, 0.07880545  , 0.573547244 , -0.208911955, 1.57800817  , 0.01761164  , -1.16052723 , 1.87        , 3           , 12          , 0.0418972075, 0
0.157774687 , -9.82107    , 0.0653323159, -0.002066553, 0.000348683621, -0.00222522765, 0.07887286  , 0.573547244 , -0.2091142  , 1.57798755  , 0.0176338758, -1.16052365 , 1.88        , 3           , 50          , 0           , 0
0.173793152 , -9.787869   , 0.06857299  , -0.00130643055, 2.92026962E-05, 0.000565409835, 0.0787380338, 0.57368207  , -0.208979368, 1.57797456  , 0.0176282413, -1.16052341 , 1.89        , 3           , 11          , 0.007174191 , 0.007174201
0.165454477 , -9.772775   , 0.05557142  , 0.0004108311, 0.001373    , 0.000591837568, 0.07880545  , 0.573614657 , -0.20877713 , 1.57797289  , 0.0176266916, -1.16051    , 1.9         , 3           , 12          , 0.0426742658, 0
0.165152729 , -9.790596   , 0.0774959251, 0.00105880538, 0.00123600638, -0.0008372139, 0.07894027  , 0.573614657 , -0.208979368, 1.57798374  , 0.0176349487, -1.16049743 , 1.91        , 3           , 50          , 0           , 0
0.170086667 , -9.79512    , 0.07477893  , -0.00402555149, -0.00151132874, -0.0004075317, 0.07894027  , 0.573614657 , -0.208979368, 1.57794321  , 0.0176390614, -1.16051257 , 1.92        , 3           , 11          , 0.00770261325, 0.00770263048
0.183423951 , -9.763201   , 0.07346323  , -0.00596292969, -0.0017265944, 0.00179554371, 0.07887286  , 0.5734124   , -0.208979368, 1.57788312  , 0.017621208 , -1.16053    , 1.93        , 3           , 12          , 0.0426742658, 0
0.179829374 , -9.771616   , 0.0620407164, -3.17148078E-05, 0.00036854847, 0.00121852919, 0.07867062  , 0.573614657 , -0.208911955, 1.57788289  , 0.0176089276, -1.16052628 , 1.94        , 3           , 50          , 0           , 0
0.161435112 , -9.789853   , 0.09508635  , 0.00156159152, 0.00187255326, -0.0004671202, 0.07867062  , 0.573614657 , -0.208911955, 1.57789874  , 0.0176134575, -1.16050756 , 1.95        , 3           , 11          , 0.00770261325, 0.00770263048
0.159501776 , -9.778663   , 0.0626758039, 0.000552027 , 0.0006647055, -0.000490854552, 0.07887286  , 0.573547244 , -0.208911955, 1.57790446  , 0.0176183153, -1.16050088 , 1.96        , 3           , 12          , 0.0426742658, 0
0.178200141 , -9.800074   , 0.06756927  , -0.00251760753, 0.0006094069, 0.00113512611, 0.0787380338, 0.573547244 , -0.209046781, 1.57787931  , 0.0176069   , -1.160495   , 1.97        , 3           , 50          , 0           , 0
0.175859928 , -9.789062   , 0.09387306  , 0.000198331647, 0.000952977047, -0.00027419976, 0.0787380338, 0.573547244 , -0.209046781, 1.57788146  , 0.0176095534, -1.16048539 , 1.98        , 3           , 11          , 0.00770261325, 0.00770263048
0.177743286 , -9.78183    , 0.09081201  , -8.260932E-05, 0.00187765062, 0.0008107658, 0.07887286  , 0.5738169   , -0.208911955, 1.5778811   , 0.0176013261, -1.16046679 , 1.99        , 3           , 12          , 0.0426742658, 0
0.169797763 , -9.773949   , 0.07727912  , -0.00161685946, 0.000463905482, 0.000482769246, 0.07867062  , 0.57368207  , -0.208911955, 1.57792008  , 0.0176106561, -1.16046119 , 2           , 3           , 50          , 0           , 0
0.181607589 , -9.783685   , 0.05062543  , 0.00187420228, 0.0007195659, 7.1448344E-06, 0.07880545  , 0.57368207  , -0.2091142  , 1.577939    , 0.0176106263, -1.160454   , 2.01        , 3           , 11          , 0.008230602 , 0.008230618
0.163111657 , -9.772895   , 0.06864759  , 0.00314867846, 0.000558154 , 0.0005850963, 0.0790076852, 0.573547244 , -0.209046781, 1.57797062  , 0.0176047534, -1.16044855 , 2.02        , 3           , 12          , 0.043477647 , 0
0.185073733 , -9.77235    , 0.08421342  , -0.001572011, -0.00189981528, 0.0003056839, 0.0790076852, 0.573547244 , -0.209046781, 1.57795453  , 0.0176018029, -1.16046762 , 2.03        , 3           , 50          , 0           , 0
0.1864617   , -9.784324   , 0.0642134845, -0.00380207319, -0.00332247419, 0.00163081649, 0.07880545  , 0.573614657 , -0.209046781, 1.57791591  , 0.017585678 , -1.16050088 , 2.04        , 3           , 11          , 0.008230602 , 0.008230618
0.161277816 , -9.785395   , 0.05809751  , -0.00313676754, -0.002448762, -0.000642119849, 0.07894027  , 0.57368207  , -0.208911955, 1.5778842   , 0.0175923239, -1.16052532 , 2.05        , 3           , 12          , 0.043477647 , 0
0.186587    , -9.775675   , 0.0566356778, -0.00131893076, 0.000478932634, -0.00151866535, 0.07860321  , 0.573547244 , -0.209046781, 1.57787108  , 0.017607525 , -1.16052032 , 2.06        , 3           , 50          , 0           , 0
0.196324289 , -9.788036   , 0.0660681054, -0.00040254023, -0.0005993716, -0.00217261654, 0.07894027  , 0.573614657 , -0.208911955, 1.57786691  , 0.0176292248, -1.16052616 , 2.07        , 3           , 11          , 0.008230602 , 0.008230618
0.165757582 , -9.77434    , 0.0749789551, -0.000893102144, 0.000896788144, -0.0006513431, 0.07867062  , 0.573479831 , -0.209046781, 1.57785809  , 0.0176356342, -1.16051722 , 2.08        , 3           , 12          , 0.043477647 , 0
0.147532269 , -9.809679   , 0.06265944  , -0.00195783074, 0.001404019 , -7.813655E-05, 0.07867062  , 0.573479831 , -0.209046781, 1.57783878  , 0.01763638  , -1.16050315 , 2.09        , 3           , 50          , 0           , 0
0.149561256 , -9.7951     , 0.04748877  , -0.000368420384, -0.000624189, 0.00062047824, 0.07880545  , 0.573547244 , -0.208979368, 1.57781136  , 0.01753575  , -1.16050971 , 2.1         , 3           , 11          , 0.008827794 , 0.008827803
0.19650209  , -9.780195   , 0.04989925  , -0.00209032535, -0.00168536231, 0.00102379313, 0.0787380338, 0.5737495   , -0.208911955, 1.57779014  , 0.0175255872, -1.16052663 , 2.11        , 3           , 12          , 0.04430561  , 0
0.174870938 , -9.782709   , 0.0492196381, 0.0007820575, 0.0005099294, 0.000715567 , 0.0787380338, 0.57368207  , -0.208911955, 1.577798    , 0.0175184328, -1.16052163 , 2.12        , 3           , 50          , 0           , 0
0.172524542 , -9.787732   , 0.05681888  , -0.0005697249, 0.0008754802, 0.00142805511, 0.07894027  , 0.573614657 , -0.208844543, 1.57779253  , 0.0175040662, -1.160513   , 2.13        , 3           , 11          , 0.008827794 , 0.008827803
0.188749671 , -9.773604   , 0.07203704  , 0.0005117203, 0.0009548454, -0.00063916517, 0.07894027  , 0.573614657 , -0.208844543, 1.57779789  , 0.0175103843, -1.16050339 , 2.14        , 3           , 12          , 0.04430561  , 0
0.176120117 , -9.773973   , 0.0746267959, 0.002579569 , -0.004586035, -0.0004204913, 0.07867062  , 0.5737495   , -0.209046781, 1.57782292  , 0.0175149459, -1.16054928 , 2.15        , 3           , 50          , 0           , 0
0.170229942 , -9.791785   , 0.05810608  , 0.00310523831, -0.00109713408, 0.001493699 , 0.07867062  , 0.5738169   , -0.208844543, 1.57785368  , 0.0175000727, -1.16056025 , 2.16        , 3           , 11          , 0.008827794 , 0.008827803
0.1796201   , -9.781729   , 0.07998979  , 0.000340746657, -0.000140137578, 0.00177672144, 0.07867062  , 0.573547244 , -0.208844543, 1.57785714  , 0.0174823366, -1.1605618  , 2.17        , 3           , 12          , 0.04430561  , 0
0.180064008 , -9.781743   , 0.0808971   , 0.0017900446, 0.00129238749, 0.000232253937, 0.0787380338, 0.57368207  , -0.208911955, 1.57787526  , 0.0174798928, -1.16054893 , 2.18        , 3           , 50          , 0           , 0
0.187430739 , -9.777994   , 0.06203698  , 0.00128389208, 0.0001575264, -0.000502848648, 0.0787380338, 0.57368207  , -0.208911955, 1.57788813  , 0.01748493  , -1.16054726 , 2.19        , 3           , 11          , 0.008827794 , 0.008827803
0.166807845 , -9.805079   , 0.08095752  , -1.90360533E-05, -0.000617419835, -0.000625877641, 0.07867062  , 0.573547244 , -0.2091142  , 1.57786882  , 0.01753435  , -1.16055381 , 2.2         , 3           , 12          , 0.045156505 , 0
0.175688729 , -9.771715   , 0.07464889  , 0.00330209313, -0.00223139767, -0.000199453643, 0.07880545  , 0.5737495   , -0.20877713 , 1.57790136  , 0.0175364669, -1.16057611 , 2.21        , 3           , 50          , 0           , 0
0.182241425 , -9.796564   , 0.07351894  , 0.003266934 , 0.00134452572, 0.000639238162, 0.07860321  , 0.57368207  , -0.208844543, 1.57793438  , 0.017529998 , -1.16056275 , 2.22        , 3           , 11          , 0.009388842 , 0.00938884448
0.173749521 , -9.787491   , 0.07535235  , -0.0003454462, 0.0027406998, 0.000851839664, 0.07894027  , 0.573479831 , -0.208844543, 1.5779314   , 0.0175213236, -1.16053545 , 2.23        , 3           , 12          , 0.045156505 , 0
0.155039355 , -9.770104   , 0.0672505   , 0.00154482387, 0.000141982411, 0.0008258433, 0.07840097  , 0.573547244 , -0.208911955, 1.5779469   , 0.0175130386, -1.160534   , 2.24        , 3           , 50          , 0           , 0
0.179165542 , -9.79642    , 0.06265169  , 0.00532377  , 0.000117132317, -0.0006538151, 0.07840097  , 0.573547244 , -0.208911955, 1.57800019  , 0.0175195951, -1.160533   , 2.25        , 3           , 11          , 0.009388842 , 0.00938884448
0.178524688 , -9.813623   , 0.06922263  , 0.00175926182, -0.000423105026, -0.0003258747, 0.07846838  , 0.5737495   , -0.208844543, 1.57801759  , 0.0175228436, -1.16053724 , 2.26        , 3           , 12          , 0.045156505 , 0
0.1796732   , -9.782092   , 0.07185559  , -0.00145044958, -0.00132069935, -0.00050179637, 0.07880545  , 0.5737495   , -0.208844543, 1.57800293  , 0.0175279416, -1.16055036 , 2.27        , 3           , 50          , 0           , 0
0.180136785 , -9.783856   , 0.06777425  , -0.000514740765, -0.000680168334, -0.00105916534, 0.0785357952, 0.573614657 , -0.20877713 , 1.5779978   , 0.0175385829, -1.160557   , 2.28        , 3           , 11          , 0.009388842 , 0.00938884448
0.169837847 , -9.779228   , 0.06502281  , -0.0008635528, -0.000173763139, -0.00119708537, 0.07880545  , 0.573479831 , -0.208911955, 1.5779891   , 0.0175506249, -1.1605587  , 2.29        , 3           , 12          , 0.045156505 , 0
0.157813087 , -9.774914   , 0.05095952  , -8.815999E-05, 0.000741816359, -0.000316302263, 0.07880545  , 0.573479831 , -0.208911955, 1.57797182  , 0.0175481215, -1.16055155 , 2.3         , 3           , 50          , 0           , 0
0.163233876 , -9.778049   , 0.0446494743, -0.00142653182, 0.0019012189, -0.000236205786, 0.07894027  , 0.5737495   , -0.2091816  , 1.577958    , 0.0175504163, -1.16053259 , 2.31        , 3           , 11          , 0.010008459 , 0.0100084664
0.178026676 , -9.775163   , 0.0579179376, 0.000119178665, 0.00108443561, 0.00119256077, 0.07887286  , 0.5737495   , -0.20877713 , 1.57795942  , 0.0175384637, -1.16052175 , 2.32        , 3           , 12          , 0.0460287742, 0
0.1763597   , -9.794332   , 0.08026604  , -0.000663917162, 0.0003151674, -3.98253651E-05, 0.07894027  , 0.573547244 , -0.208979368, 1.57795274  , 0.0175388213, -1.16051865 , 2.33        , 3           , 50          , 0           , 0
0.1463613   , -9.791141   , 0.0592490919, 0.005063795 , 0.00355431554, -0.000100643847, 0.07880545  , 0.573614657 , -0.208709717, 1.57800412  , 0.0175395962, -1.16048312 , 2.34        , 3           , 11          , 0.010008459 , 0.0100084664
0.150353864 , -9.786371   , 0.07379504  , 0.00175299775, 0.000218961039, -2.630492E-05, 0.07887286  , 0.57368207  , -0.209046781, 1.57802165  , 0.0175398644, -1.160481   , 2.35        , 3           , 12          , 0.0460287742, 0
0.157758459 , -9.768766   , 0.06638756  , -0.00128101138, 0.00218635355, -0.0002311756, 0.07887286  , 0.57368207  , -0.209046781, 1.57800925  , 0.01754204  , -1.16045928 , 2.36        , 3           , 50          , 0           , 0
0.173557818 , -9.764389   , 0.06613168  , 0.000885155168, 0.004607003 , -0.00089826 , 0.07860321  , 0.573614657 , -0.208979368, 1.5780189   , 0.0175506249, -1.160413   , 2.37        , 3           , 11          , 0.010008459 , 0.0100084664
0.16811417  , -9.771082   , 0.06374591  , 0.00148368475, 0.00137072674, -0.000297488179, 0.07867062  , 0.5737495   , -0.208844543, 1.578034    , 0.0175535455, -1.16039932 , 2.38        , 3           , 12          , 0.0460287742, 0
0.1549912   , -9.779972   , 0.0621675365, -0.0026597362, -0.000446939, -0.000707165455, 0.07860321  , 0.5737495   , -0.208979368, 1.57800722  , 0.01756064  , -1.16040373 , 2.39        , 3           , 50          , 0           , 0
0.163910389 , -9.785077   , 0.0685143247, -0.00126996846, -0.00153610657, -0.0006739818, 0.0790076852, 0.5737495   , -0.2091142  , 1.5779649   , 0.0175084472, -1.16041934 , 2.4         , 3           , 11          , 0.0106067471, 0.0106067676
0.154021665 , -9.788973   , 0.06115134  , -0.0020402798, -0.0009479631, -0.00145729759, 0.0790076852, 0.5737495   , -0.2091142  , 1.5779444   , 0.0175231416, -1.16042876 , 2.41        , 3           , 12          , 0.0469209366, 0
0.1562748   , -9.764506   , 0.09081452  , -0.00304482854, -0.001514207, -0.00111393654, 0.0787380338, 0.573614657 , -0.209046781, 1.57791376  , 0.0175344385, -1.160444   , 2.42        , 3           , 50          , 0           , 0
0.169327274 , -9.786438   , 0.0649348944, -0.0008849797, -0.00441775 , 0.000574591046, 0.07867062  , 0.573547244 , -0.208911955, 1.57790411  , 0.0175289847, -1.16048825 , 2.43        , 3           , 11          , 0.0106067471, 0.0106067676
0.175303444 , -9.781849   , 0.0528470874, -0.000313907425, -0.00357402978, 0.00173519447, 0.07880545  , 0.573547244 , -0.208574891, 1.57790029  , 0.0175119359, -1.160524   , 2.44        , 3           , 12          , 0.0469209366, 0
0.1780464   , -9.76534    , 0.06706537  , -0.0010179925, -0.003204743, 0.0013068819, 0.0787380338, 0.573479831 , -0.20877713 , 1.57788956  , 0.0174990874, -1.1605562  , 2.45        , 3           , 50          , 0           , 0
0.177326351 , -9.778213   , 0.09039822  , -0.00139679085, -3.26805566E-05, -0.000366763474, 0.07894027  , 0.573479831 , -0.208911955, 1.57787561  , 0.0175027549, -1.16055644 , 2.46        , 3           , 11          , 0.0106067471, 0.0106067676
0.192657262 , -9.775642   , 0.0905689   , 0.0019475047, 0.000571130658, 0.0004497104, 0.07894027  , 0.573479831 , -0.208911955, 1.57789516  , 0.0174982231, -1.16055071 , 2.47        , 3           , 12          , 0.0469209366, 0
0.164317787 , -9.774908   , 0.08715488  , 0.00262085977, -0.00259038364, 0.0006227081, 0.07860321  , 0.5734124   , -0.20877713 , 1.577921    , 0.017492203 , -1.16057658 , 2.48        , 3           , 50          , 0           , 0
0.146180734 , -9.794087   , 0.08179809  , 0.00185583613, -0.00100753154, 0.0007840326, 0.07867062  , 0.573479831 , -0.208844543, 1.57793939  , 0.017484393 , -1.16058671 , 2.49        , 3           , 11          , 0.0106067471, 0.0106067676
0.164353877 , -9.776189   , 0.08036503  , 0.0007263731, 0.0005213637, 0.0002823722, 0.0787380338, 0.573479831 , -0.208709717, 1.57814431  , 0.0170626268, -1.16057754 , 2.5         , 3           , 12          , 0.0478316024, 0
0.1733488   , -9.767381   , 0.09274515  , -0.002192359, -0.0005115318, -0.00111011975, 0.0787380338, 0.573547244 , -0.208979368, 1.57812214  , 0.0170737449, -1.16058254 , 2.51        , 3           , 50          , 0           , 0
0.183504969 , -9.76619148 , 0.05807185  , -0.00115693768, -0.00183373 , 0.00130991847, 0.0787380338, 0.573547244 , -0.208979368, 1.57811034  , 0.017060779 , -1.1606009  , 2.52        , 3           , 11          , 0.0111768628, 0.0111768879
0.188504457 , -9.810035   , 0.06303211  , 0.0003637357, 0.000445012527, 0.00120922015, 0.0787380338, 0.573479831 , -0.208844543, 1.578114    , 0.0170486476, -1.16059649 , 2.53        , 3           , 12          , 0.0478316024, 0
0.1594417   , -9.808381   , 0.100274488 , 0.000208659054, -0.0006288543, 0.00126425375, 0.0787380338, 0.57368207  , -0.208709717, 1.57811594  , 0.01703601  , -1.16060293 , 2.54        , 3           , 50          , 0           , 0
0.190287277 , -9.788712   , 0.09175131  , -0.002739574, -0.00360575737, 0.0009167053, 0.07860321  , 0.573479831 , -0.208844543, 1.57808793  , 0.0170270987, -1.160639   , 2.55        , 3           , 11          , 0.0111768628, 0.0111768879
0.1812738   , -9.763025   , 0.0589912757, -0.00344949961, -0.00394971855, 0.000120253833, 0.0787380338, 0.573614657 , -0.208844543, 1.57805264  , 0.0170260854, -1.16067863 , 2.56        , 3           , 12          , 0.0478316024, 0
0.167157665 , -9.775166   , 0.0668518245, -0.00209264015, -0.002968096, 0.00100149191, 0.0787380338, 0.573614657 , -0.208844543, 1.57803118  , 0.0170163382, -1.16070843 , 2.57        , 3           , 50          , 0           , 0
0.161529616 , -9.796829   , 0.07287372  , 0.00135845644, -0.000130581015, 0.000348377915, 0.0787380338, 0.5734124   , -0.208911955, 1.57804489  , 0.0170128811, -1.16070962 , 2.58        , 3           , 11          , 0.0111768628, 0.0111768879
0.155648887 , -9.789253   , 0.08600619  , 0.005139794 , 0.00132927333, 0.00110840145, 0.07887286  , 0.573614657 , -0.208911955, 1.57809651  , 0.017001763 , -1.16069651 , 2.59        , 3           , 12          , 0.0478316024, 0
0.160930932 , -9.767426   , 0.06507712  , 0.003742546 , -0.00209876546, 0.00167294045, 0.0787380338, 0.573614657 , -0.208844543, 1.57824445  , 0.0169027746, -1.16071558 , 2.6         , 3           , 50          , 0           , 0
0.181491286 , -9.783418   , 0.06779178  , 0.00147954584, -0.00156517653, 0.0006649628, 0.07860321  , 0.573479831 , -0.20877713 , 1.578259    , 0.0168962777, -1.1607312  , 2.61        , 3           , 11          , 0.0109257773, 0.0109257875
0.184530392 , -9.768928   , 0.10186398  , 0.00271144323, 0.0007106964, 0.00120642025, 0.07887286  , 0.573547244 , -0.20877713 , 1.57828617  , 0.0168841463, -1.16072416 , 2.62        , 3           , 12          , 0.0487594567, 0
0.151872814 , -9.776332   , 0.0617291667, 0.00391199673, -0.000229767291, 0.000842433 , 0.07887286  , 0.573547244 , -0.20877713 , 1.57832515  , 0.01687565  , -1.16072655 , 2.63        , 3           , 50          , 0           , 0
0.1805175   , -9.79554    , 0.06357767  , 0.005203527 , 0.0007602565, 0.0008647506, 0.0787380338, 0.5734124   , -0.208979368, 1.57837737  , 0.016866887 , -1.160719   , 2.64        , 3           , 11          , 0.0109257773, 0.0109257875
0.173335135 , -9.784317   , 0.0740301162, 0.004927469 , 0.00190306385, 0.00159514137, 0.07880545  , 0.57368207  , -0.208844543, 1.578427    , 0.0168508515, -1.16070008 , 2.65        , 3           , 12          , 0.0487594567, 0
0.1624978   , -9.786496   , 0.07571205  , 0.004727345 , 0.00255771261, 0.0007447548, 0.07880545  , 0.5732776   , -0.2086423  , 1.57847476  , 0.0168432519, -1.16067481 , 2.66        , 3           , 50          , 0           , 0
0.1741436   , -9.800935   , 0.0670703351, 0.00362576847, -0.000299802166, 0.0009827584, 0.07880545  , 0.5734124   , -0.208844543, 1.578511    , 0.0168334749, -1.16067791 , 2.67        , 3           , 11          , 0.0109257773, 0.0109257875
0.172055244 , -9.785531   , 0.062260285 , 0.00178371323, 0.000433508569, 0.001196678 , 0.07880545  , 0.5734124   , -0.208844543, 1.57852888  , 0.0168214627, -1.16067362 , 2.68        , 3           , 12          , 0.0487594567, 0
0.180949777 , -9.790231   , 0.07267681  , -0.0004176017, 0.0006011124, 0.000970863 , 0.07860321  , 0.573345    , -0.208911955, 1.57852483  , 0.0168117154, -1.16066766 , 2.69        , 3           , 50          , 0           , 0
0.1729564   , -9.798891   , 0.0458534   , -0.00145807234, -0.00253189588, -0.00031513194, 0.07860321  , 0.573614657 , -0.20877713 , 1.578482    , 0.0169668589, -1.16069388 , 2.7         , 3           , 11          , 0.0111972336, 0.0111972364
0.192274764 , -9.790668   , 0.06238695  , -0.000729105435, -0.000328369671, 0.000866152463, 0.07867062  , 0.573547244 , -0.208844543, 1.57847464  , 0.0169582441, -1.16069722 , 2.71        , 3           , 12          , 0.0497032925, 0
0.158096239 , -9.781851   , 0.0666913241, -0.0008524233, 0.00160300534, 0.00139425427, 0.07880545  , 0.573614657 , -0.208911955, 1.5784663   , 0.016944116 , -1.16068125 , 2.72        , 3           , 50          , 0           , 0
0.1730091   , -9.77878    , 0.062798664 , -0.00338953175, -0.002809848, 0.000885326241, 0.07860321  , 0.5732776   , -0.208911955, 1.578432    , 0.0169354435, -1.16070938 , 2.73        , 3           , 11          , 0.0111972336, 0.0111972364
0.1832266   , -9.796887   , 0.06087686  , 0.003110286 , -0.00057975424, 0.0005999892, 0.07860321  , 0.5732776   , -0.208911955, 1.578463    , 0.01692954  , -1.16071534 , 2.74        , 3           , 12          , 0.0497032925, 0
0.164675862 , -9.789297   , 0.08292685  , -0.00107852556, -0.000739909068, -0.000787692436, 0.07880545  , 0.573547244 , -0.208911955, 1.57845211  , 0.01693747  , -1.16072261 , 2.75        , 3           , 50          , 0           , 0
0.148177177 , -9.773328   , 0.07889421  , -0.00142257579, -0.005542979, -0.000215443564, 0.07860321  , 0.5734124   , -0.208844543, 1.578437    , 0.0169400629, -1.16077816 , 2.76        , 3           , 11          , 0.0111972336, 0.0111972364
0.178772539 , -9.791432   , 0.06044717  , 0.00158328994, -0.003572385, 0.000404089718, 0.0787380338, 0.573479831 , -0.208844543, 1.57845223  , 0.0169363078, -1.16081381 , 2.77        , 3           , 12          , 0.0497032925, 0
0.190648854 , -9.766347   , 0.06671795  , 0.004740113 , -0.00137998327, 9.75769944E-05, 0.0785357952, 0.5732776   , -0.208844543, 1.57849932  , 0.0169354733, -1.16082764 , 2.78        , 3           , 50          , 0           , 0
0.191504717 , -9.771319   , 0.06712013  , 0.002330352 , -0.0009920786, -0.00048409804, 0.0785357952, 0.5732776   , -0.208844543, 1.57852244  , 0.01694036  , -1.16083753 , 2.79        , 3           , 11          , 0.0111972336, 0.0111972364
0.175026953 , -9.78806    , 0.08529479  , 0.00167660567, -0.0007756665, -2.39246347E-05, 0.0785357952, 0.573614657 , -0.208844543, 1.57851636  , 0.0170116   , -1.16084588 , 2.8         , 3           , 12          , 0.0506619476, 0
0.173014    , -9.763638   , 0.08058954  , 0.004824824 , 0.00161695259, 0.00131813576, 0.07840097  , 0.573547244 , -0.208844543, 1.578565    , 0.0169983339, -1.16082978 , 2.81        , 3           , 50          , 0           , 0
0.149469554 , -9.781442   , 0.07745735  , 0.0007005162, 0.00137675216, 0.000788331032, 0.07846838  , 0.573547244 , -0.20877713 , 1.57857215  , 0.0169903468, -1.16081607 , 2.82        , 3           , 11          , 0.01134023  , 0.0113402484
0.152652383 , -9.784092   , 0.06977725  , 0.00286709913, 0.00358630717, -0.0003111297, 0.07887286  , 0.573345    , -0.20877713 , 1.57860148  , 0.0169932377, -1.16078019 , 2.83        , 3           , 12          , 0.0506619476, 0
0.17436564  , -9.781454   , 0.0587150343, 0.00159625476, 0.005092973 , 0.000919268234, 0.07887286  , 0.573345    , -0.20877713 , 1.57861829  , 0.01698361  , -1.16072941 , 2.84        , 3           , 50          , 0           , 0
0.165022522 , -9.80281448 , 0.08141893  , 0.00112642371, 0.00101867307, 0.000284897251, 0.07860321  , 0.5734124   , -0.208844543, 1.57862961  , 0.01698066  , -1.16071928 , 2.85        , 3           , 11          , 0.01134023  , 0.0113402484
0.166160226 , -9.769965   , 0.0872288942, 0.00148582167, 0.0015140149, 0.000580506632, 0.0785357952, 0.573547244 , -0.208844543, 1.57864475  , 0.0169746988, -1.16070414 , 2.86        , 3           , 12          , 0.0506619476, 0
0.170183271 , -9.793636   , 0.0626012   , 0.0011564669, 0.00366889033, 0.0003950434, 0.07867062  , 0.5734124   , -0.208844543, 1.57865691  , 0.016970465 , -1.16066754 , 2.87        , 3           , 50          , 0           , 0
0.191814333 , -9.788899   , 0.06601667  , 0.00482566142, 0.0007009277, -0.000412412279, 0.0785357952, 0.573479831 , -0.2086423  , 1.57870531  , 0.01697452  , -1.16066051 , 2.88        , 3           , 11          , 0.01134023  , 0.0113402484
0.169555187 , -9.76962    , 0.0524836965, 0.003731576 , -0.00130004936, 0.0001958168, 0.07867062  , 0.5732102   , -0.20877713 , 1.57874238  , 0.01697264  , -1.16067362 , 2.89        , 3           , 12          , 0.0506619476, 0
0.183420986 , -9.779229   , 0.0543070547, 0.0009917425, -0.000921453466, 0.0008946966, 0.07867062  , 0.5732102   , -0.20877713 , 1.57868338  , 0.0169739537, -1.16068411 , 2.9         , 3           , 50          , 0           , 0
0.187493324 , -9.778344   , 0.05254796  , 0.00141846854, -0.000714052934, 0.001258102 , 0.07860321  , 0.573614657 , -0.208911955, 1.57869744  , 0.0169614349, -1.16069126 , 2.91        , 3           , 11          , 0.01185161  , 0.0118516274
0.154347375 , -9.813204   , 0.0495823063, 0.003071673 , 0.000351042225, 0.0004966537, 0.07894027  , 0.5732776   , -0.2086423  , 1.57872832  , 0.0169565156, -1.1606878  , 2.92        , 3           , 12          , 0.0516343452, 0
0.1678669   , -9.8044     , 0.05884212  , 7.068993E-05, -0.001401418, -0.0004774547, 0.07867062  , 0.5734124   , -0.2086423  , 1.5787288   , 0.0169613753, -1.160702   , 2.93        , 3           , 50          , 0           , 0
0.17818132  , -9.802328   , 0.06754308  , 0.0004658459, 0.00154008484, -0.00129102613, 0.07887286  , 0.5732776   , -0.208709717, 1.57873368  , 0.0169741623, -1.16068625 , 2.94        , 3           , 11          , 0.01185161  , 0.0118516274
0.1764778   , -9.793261   , 0.06447022  , -9.973986E-05, 0.002326278 , -0.0004244837, 0.07887286  , 0.5732776   , -0.208709717, 1.57873309  , 0.0169782452, -1.160663   , 2.95        , 3           , 12          , 0.0516343452, 0
0.172496766 , -9.775756   , 0.0754762739, -0.0002813002, 0.000229547964, 0.00183371361, 0.07880545  , 0.573345    , -0.208979368, 1.57873034  , 0.0169599131, -1.16066086 , 2.96        , 3           , 50          , 0           , 0
0.1819156   , -9.795479   , 0.05681581  , -0.000858834246, -0.00125769549, 0.0005206377, 0.07846838  , 0.573547244 , -0.20877713 , 1.57872164  , 0.0169548169, -1.1606735  , 2.97        , 3           , 11          , 0.01185161  , 0.0118516274
0.186315417 , -9.815263   , 0.0475940853, 0.00237040618, 0.0010062689, 0.000144055623, 0.0787380338, 0.573479831 , -0.20877713 , 1.57874548  , 0.0169532374, -1.1606636  , 2.98        , 3           , 12          , 0.0516343452, 0
0.182029128 , -9.790854   , 0.046029605 , 5.76948441E-05, -0.00240636477, -0.000277438958, 0.07887286  , 0.5732102   , -0.208911955, 1.57874572  , 0.0169562176, -1.16068769 , 2.99        , 3           , 50          , 0           , 0
0.176595017 , -9.774385   , 0.07056116  , -0.00169455528, -0.0014733806, 0.000775350258, 0.07880545  , 0.573479831 , -0.208979368, 1.57835734  , 0.0171353258, -1.16070914 , 3           , 3           , 11          , 0.012354143 , 0.0123541737
0.174433708 , -9.777788   , 0.0533376671, 0.00118449994, 0.00101296918, -2.94893889E-05, 0.07880545  , 0.573479831 , -0.208979368, 1.57836926  , 0.0171354748, -1.16069889 , 3.01        , 3           , 12          , 0.0526194833, 0
0.154717147 , -9.777918   , 0.039152354 , -0.00104920624, -0.0007672738, 0.00121888518, 0.0787380338, 0.5732776   , -0.208979368, 1.57835865  , 0.0171233732, -1.16070676 , 3.02        , 3           , 50          , 0           , 0
0.159549892 , -9.780371   , 0.0536226854, 0.000690915156, 0.00208182  , 0.00119935989, 0.07867062  , 0.573479831 , -0.208979368, 1.57836592  , 0.0171112418, -1.160686   , 3.03        , 3           , 11          , 0.012354143 , 0.0123541737
0.169897631 , -9.774685   , 0.0619139373, 0.00205191085, 0.00243399665, 0.000354223419, 0.07880545  , 0.5734124   , -0.208709717, 1.5783869   , 0.0171075165, -1.1606617  , 3.04        , 3           , 12          , 0.0526194833, 0
0.162992716 , -9.751908   , 0.046304062 , 0.00045037223, -0.00126796076, -0.000567948329, 0.07867062  , 0.573479831 , -0.208911955, 1.57839119  , 0.0171132982, -1.16067445 , 3.05        , 3           , 50          , 0           , 0
0.179795772 , -9.78235149 , 0.053786017 , -0.00140178727, -0.00153575756, -0.0005832588, 0.07867062  , 0.573479831 , -0.208911955, 1.578377    , 0.01711923  , -1.16068983 , 3.06        , 3           , 11          , 0.012354143 , 0.0123541737
0.1829268   , -9.760597   , 0.08342595  , -0.00226569339, -0.002528836, -0.000746088452, 0.07860321  , 0.5732776   , -0.208979368, 1.57835388  , 0.017126862 , -1.160715   , 3.07        , 3           , 12          , 0.0526194833, 0
0.157658681 , -9.770254   , 0.07901688  , 0.001217118 , -0.00298962346, -0.00123214663, 0.0787380338, 0.5734124   , -0.208709717, 1.57836545  , 0.01713944  , -1.16074479 , 3.08        , 3           , 50          , 0           , 0
0.1576211   , -9.776989   , 0.07622863  , 0.002818745 , -0.0051677404, 0.000105682993, 0.0787380338, 0.5734124   , -0.20877713 , 1.57839286  , 0.0171387829, -1.16079652 , 3.09        , 3           , 11          , 0.012354143 , 0.0123541737
0.175174519 , -9.781603   , 0.07181989  , -0.0003944002, -0.0002650021, 0.000462182332, 0.07867062  , 0.573345    , -0.208709717, 1.57839656  , 0.0170954745, -1.16079926 , 3.1         , 3           , 12          , 0.05361642  , 0
0.15817681  , -9.775942   , 0.0622433461, -0.000660828664, 0.001384438 , 0.0006275488, 0.07867062  , 0.5732102   , -0.209046781, 1.57839012  , 0.0170890372, -1.16078544 , 3.11        , 3           , 50          , 0           , 0
0.181483477 , -9.791441   , 0.0591169223, 0.00233391882, -0.00345706427, 0.00172071706, 0.07867062  , 0.5732102   , -0.209046781, 1.578413    , 0.0170721952, -1.16082013 , 3.12        , 3           , 11          , 0.01225561  , 0.0122556426
0.182376921 , -9.78968048 , 0.0623073168, 0.001359696 , -0.00200765627, 0.00102017785, 0.0785357952, 0.5732776   , -0.208911955, 1.57842624  , 0.01706218  , -1.16084027 , 3.13        , 3           , 12          , 0.05361642  , 0
0.159248158 , -9.786619   , 0.08968325  , -0.000105419713, -0.000120762867, 3.673648E-05, 0.07867062  , 0.573142767 , -0.20877713 , 1.57842529  , 0.0170618221, -1.16084146 , 3.14        , 3           , 50          , 0           , 0
0.1528134   , -9.770046   , 0.06361714  , -0.00148229487, -0.00197556056, 0.0006453389, 0.0790076852, 0.5732776   , -0.208709717, 1.57841015  , 0.0170555338, -1.16086125 , 3.15        , 3           , 11          , 0.01225561  , 0.0122556426
0.171024114 , -9.788839   , 0.07711849  , -0.000134986738, -0.00227650534, 0.00072084507, 0.07867062  , 0.5732776   , -0.20877713 , 1.57840824  , 0.017048439 , -1.16088414 , 3.16        , 3           , 12          , 0.05361642  , 0
0.213526309 , -9.773354   , 0.0709127   , 0.000880009553, -0.0006381489, 0.0006792987, 0.07867062  , 0.5732776   , -0.20877713 , 1.57841706  , 0.0170416739, -1.1608907  , 3.17        , 3           , 50          , 0           , 0
0.174395114 , -9.764494   , 0.0751720443, 0.002063094 , -0.002518953, 0.00130332168, 0.07867062  , 0.573345    , -0.20877713 , 1.57843709  , 0.0170287974, -1.160916   , 3.18        , 3           , 11          , 0.01225561  , 0.0122556426
0.164811268 , -9.780189   , 0.07445106  , 0.000491658866, -0.00286512356, 0.00171792717, 0.0787380338, 0.5734124   , -0.208709717, 1.57844162  , 0.017011838 , -1.1609447  , 3.19        , 3           , 12          , 0.05361642  , 0
0.1738771   , -9.786406   , 0.0582017079, -0.00421333546, -0.004595751, 0.000236401029, 0.07860321  , 0.573345    , -0.208440065, 1.578397    , 0.01700212  , -1.16099072 , 3.2         , 3           , 50          , 0           , 0
0.16927138  , -9.792757   , 0.06531316  , 0.0008864856, -0.000134699992, 0.000475628942, 0.07867062  , 0.573142767 , -0.20877713 , 1.578406    , 0.01699738  , -1.16099215 , 3.21        , 3           , 11          , 0.0126417214, 0.012641754
0.160101384 , -9.788924   , 0.09372973  , 0.00348646077, 0.003067148 , 0.000108755739, 0.07867062  , 0.573142767 , -0.20877713 , 1.57844138  , 0.01699604  , -1.16096151 , 3.22        , 3           , 12          , 0.0546242669, 0
0.158779114 , -9.777296   , 0.103789046 , 0.0006177207, 0.00122944044, 0.000493739848, 0.07887286  , 0.5732102   , -0.208911955, 1.5784477   , 0.0169909131, -1.16094935 , 3.23        , 3           , 50          , 0           , 0
0.166402459 , -9.79299    , 0.08922384  , 0.000200904789, -0.00322236121, 0.00192926952, 0.07867062  , 0.5732776   , -0.208709717, 1.57844913  , 0.0169718955, -1.16098166 , 3.24        , 3           , 11          , 0.0126417214, 0.012641754
0.18378152  , -9.780262   , 0.0660425052, 0.00110621075, 0.000294921047, 0.0002685513, 0.07860321  , 0.573479831 , -0.208709717, 1.57846022  , 0.0169691239, -1.16097879 , 3.25        , 3           , 12          , 0.0546242669, 0
0.173846737 , -9.785561   , 0.06363149  , 0.00308524282, 0.004869002 , -0.00058313983, 0.07867062  , 0.5734124   , -0.208709717, 1.57849181  , 0.01697458  , -1.16093    , 3.26        , 3           , 50          , 0           , 0
0.166262969 , -9.77782    , 0.06274772  , 0.004229619 , -0.000167373408, 0.000352679344, 0.07867062  , 0.5732102   , -0.208979368, 1.57853413  , 0.016971061 , -1.16093171 , 3.27        , 3           , 11          , 0.0126417214, 0.012641754
0.194862232 , -9.797988   , 0.0700050443, 0.00164682465, -0.001300481, 0.0017513847, 0.07867062  , 0.5732102   , -0.208979368, 1.57855046  , 0.0169536844, -1.16094482 , 3.28        , 3           , 12          , 0.0546242669, 0
0.176387191 , -9.788058   , 0.0839522555, 0.000310861622, -0.000137879266, 0.0014737763, 0.0785357952, 0.5732776   , -0.208911955, 1.57855344  , 0.01693893  , -1.16094637 , 3.29        , 3           , 50          , 0           , 0
0.16962041  , -9.79069    , 0.08250457  , 0.00318985921, -0.00094125 , -6.709004E-05, 0.0785357952, 0.573345    , -0.20877713 , 1.578659    , 0.0170369931, -1.16095483 , 3.3         , 3           , 11          , 0.0129480567, 0.0129480846
0.170871243 , -9.78348351 , 0.0405917466, 0.00292026321, 0.0008450808, 0.0008157731, 0.07880545  , 0.5732776   , -0.20877713 , 1.57868838  , 0.0170287378, -1.16094637 , 3.31        , 3           , 12          , 0.0556422062, 0
0.189945772 , -9.789877   , 0.07457039  , 0.000124277416, -0.000356224627, 0.00206906814, 0.07867062  , 0.5732776   , -0.20877713 , 1.57868946  , 0.0170080215, -1.16095018 , 3.32        , 3           , 50          , 0           , 0
0.1688798   , -9.765954   , 0.08955865  , 0.001307767 , 0.00265601557, 0.000474300672, 0.07867062  , 0.5732776   , -0.20877713 , 1.57870293  , 0.0170029849, -1.1609236  , 3.33        , 3           , 11          , 0.0129480567, 0.0129480846
0.188347191 , -9.76863    , 0.07118736  , 0.00148892787, -0.00063413335, -0.000430901855, 0.07860321  , 0.573345    , -0.209046781, 1.57871771  , 0.0170073062, -1.16092992 , 3.34        , 3           , 12          , 0.0556422062, 0
0.189859375 , -9.793125   , 0.08311427  , 0.00132202439, -0.002570297, -0.000102224934, 0.0787380338, 0.573345    , -0.208844543, 1.57873046  , 0.0170085281, -1.16095555 , 3.35        , 3           , 50          , 0           , 0
0.182814419 , -9.78747749 , 0.0668537   , 0.0006660166, -0.00399605138, -0.000198488764, 0.07833356  , 0.573479831 , -0.20877713 , 1.57873642  , 0.0170108229, -1.1609956  , 3.36        , 3           , 11          , 0.0129480567, 0.0129480846
0.16888386  , -9.783753   , 0.06722028  , 0.000485343131, -0.00119909772, -0.000230622827, 0.07860321  , 0.5732102   , -0.208911955, 1.57874119  , 0.0170132089, -1.16100752 , 3.37        , 3           , 12          , 0.0556422062, 0
0.168710068 , -9.795593   , 0.0779226646, 0.00133886177, -0.0005725618, 0.0008570229, 0.0785357952, 0.573142767 , -0.208979368, 1.57875443  , 0.0170046836, -1.16101336 , 3.38        , 3           , 50          , 0           , 0
0.178828463 , -9.785115   , 0.0600688979, 0.000169669685, 0.00210273429, -0.000470932719, 0.0785357952, 0.573142767 , -0.208979368, 1.57875633  , 0.017009154 , -1.16099226 , 3.39        , 3           , 11          , 0.0129480567, 0.0129480846
0.177066    , -9.78459549 , 0.05509007  , 0.00430671033, 0.0021241107, 0.000232959748, 0.0787380338, 0.573345    , -0.208911955, 1.57867491  , 0.0170934182, -1.16097331 , 3.4         , 3           , 12          , 0.0566694774, 0
0.1845881   , -9.772844   , 0.08872019  , -0.00163481419, -0.00111350953, 0.000364034117, 0.0787380338, 0.573345    , -0.2091816  , 1.57865834  , 0.0170898121, -1.16098452 , 3.41        , 3           , 50          , 0           , 0
0.1823181   , -9.788879   , 0.07180158  , 0.00182227232, -0.00273725041, 0.00172134792, 0.07860321  , 0.573142767 , -0.208844543, 1.578676    , 0.017072821 , -1.16101193 , 3.42        , 3           , 11          , 0.0129363053, 0.0129363332
0.1578958   , -9.803969   , 0.0686926544, 0.00326208025, -0.00188172271, 0.000597779348, 0.0787380338, 0.573345    , -0.2091142  , 1.57870829  , 0.01706695  , -1.16103077 , 3.43        , 3           , 12          , 0.0566694774, 0
0.1814411   , -9.778598   , 0.08094606  , 0.0038515795, 0.0003974525, 0.00149308634, 0.0787380338, 0.573345    , -0.2091142  , 1.57874691  , 0.0170519873, -1.161027   , 3.44        , 3           , 50          , 0           , 0
0.181597948 , -9.799527   , 0.09787027  , 0.00188359886, 0.002423734 , 0.00151030743, 0.07867062  , 0.5732102   , -0.208979368, 1.57876611  , 0.0170366652, -1.16100287 , 3.45        , 3           , 11          , 0.0129363053, 0.0129363332
0.154964715 , -9.780903   , 0.06486671  , 0.00186765287, 0.000709378044, 0.000912938151, 0.07846838  , 0.5732102   , -0.208911955, 1.57878506  , 0.0170274861, -1.16099572 , 3.46        , 3           , 12          , 0.0566694774, 0
0.155079708 , -9.768263   , 0.06365858  , -0.00237529259, 0.00247731619, 0.000339950435, 0.07867062  , 0.573142767 , -0.208844543, 1.57876158  , 0.0170238782, -1.160971   , 3.47        , 3           , 50          , 0           , 0
0.169939235 , -9.803803   , 0.08551799  , 0.00163796288, 0.003324754 , -0.0027713452, 0.07880545  , 0.5732776   , -0.208911955, 1.57877851  , 0.0170512721, -1.16093779 , 3.48        , 3           , 11          , 0.0129363053, 0.0129363332
0.178112522 , -9.804214   , 0.07519948  , 0.00443558535, 0.00154054922, 0.00122704334, 0.07880545  , 0.5732776   , -0.208911955, 1.57882321  , 0.0170388725, -1.16092253 , 3.49        , 3           , 12          , 0.0566694774, 0
0.17020601  , -9.793158   , 0.0598967969, -0.00074224663, -0.00128424214, 0.002244799 , 0.07867062  , 0.573075354 , -0.2091142  , 1.57877445  , 0.0171459373, -1.16093636 , 3.5         , 3           , 50          , 0           , 0
0.174841553 , -9.776523   , 0.06103481  , -0.00123383128, 0.00362153747, -0.000835482031, 0.0785357952, 0.573345    , -0.208844543, 1.57876265  , 0.017153956 , -1.16090012 , 3.51        , 3           , 11          , 0.01305334  , 0.0130533716
0.167614609 , -9.770264   , 0.0718812346, -0.0010200867, -0.000708194159, 0.00225143251, 0.07860321  , 0.5732776   , -0.208709717, 1.5787524   , 0.0171315111, -1.16090739 , 3.52        , 3           , 12          , 0.0577053651, 0
0.180532962 , -9.78884    , 0.0695271641, 0.00213599531, 0.000142793113, -0.000292675628, 0.07867062  , 0.573345    , -0.208844543, 1.57877374  , 0.0171344019, -1.160906   , 3.53        , 3           , 50          , 0           , 0
0.166239828 , -9.769398   , 0.07639552  , -0.00186210964, -0.00153110793, -0.000914032455, 0.07846838  , 0.573075354 , -0.208844543, 1.5787549   , 0.0171436425, -1.1609211  , 3.54        , 3           , 11          , 0.01305334  , 0.0130533716
0.174986288 , -9.783227   , 0.09709424  , -0.000147785933, 0.000437132141, 0.00141477468, 0.07846838  , 0.573075354 , -0.208844543, 1.57875359  , 0.0171295144, -1.160917   , 3.55        , 3           , 12          , 0.0577053651, 0
0.165725216 , -9.784182   , 0.06763797  , -9.387854E-05, 0.00445947843, 0.000328548253, 0.07860321  , 0.573345    , -0.208844543, 1.57875323  , 0.0171257574, -1.16087246 , 3.56        , 3           , 50          , 0           , 0
0.1492384   , -9.796041   , 0.09309601  , -0.0009796444, 0.00132089562, -0.000294828846, 0.07894027  , 0.573345    , -0.208844543, 1.5787437   , 0.01712862  , -1.16085923 , 3.57        , 3           , 11          , 0.01305334  , 0.0130533716
0.158519819 , -9.766762   , 0.08900238  , 0.00131430209, 0.002733234 , -0.000546418, 0.07867062  , 0.5732102   , -0.2086423  , 1.57875741  , 0.0171338953, -1.16083193 , 3.58        , 3           , 12          , 0.0577053651, 0
0.178097084 , -9.799341   , 0.0833860561, 0.00527803553, 0.00125732389, -0.000257134147, 0.0787380338, 0.573142767 , -0.20877713 , 1.57881021  , 0.01713628  , -1.16081929 , 3.59        , 3           , 50          , 0           , 0
0.154475436 , -9.784074   , 0.0666323751, 0.000519735331, 0.00274433475, -0.0009565036, 0.0787380338, 0.573142767 , -0.20877713 , 1.57895637  , 0.0174391177, -1.16079021 , 3.6         , 3           , 11          , 0.0128189987, 0.0128190331
0.173886612 , -9.786391   , 0.0568468831, 0.003876073 , -0.0007523263, 0.001589451 , 0.07867062  , 0.573075354 , -0.208979368, 1.57899487  , 0.0174232889, -1.16079783 , 3.61        , 3           , 12          , 0.0587491952, 0
0.201390252 , -9.779003   , 0.06079863  , 0.0027699396, 0.00184100389, 0.00133399514, 0.07860321  , 0.573142767 , -0.208979368, 1.57902288  , 0.0174097568, -1.16077971 , 3.62        , 3           , 50          , 0           , 0
0.164407313 , -9.783231   , 0.06402329  , -0.002107886, -0.00211686129, 0.00067411  , 0.0785357952, 0.5732776   , -0.208844543, 1.57900143  , 0.01740317  , -1.16080093 , 3.63        , 3           , 11          , 0.0128189987, 0.0128190331
0.178355277 , -9.781139   , 0.06824092  , 0.00128229393, -0.004157591, 0.000665456057, 0.0787380338, 0.5732776   , -0.208844543, 1.57901359  , 0.01739688  , -1.16084242 , 3.64        , 3           , 12          , 0.0587491952, 0
0.153572    , -9.80009651 , 0.047468    , -0.0009670911, -0.002688781, -0.000758203561, 0.07860321  , 0.573075354 , -0.2091816  , 1.57900345  , 0.01740472  , -1.16086924 , 3.65        , 3           , 50          , 0           , 0
0.1781695   , -9.806352   , 0.06433467  , 0.00357872178, -0.00302415341, -0.000448798732, 0.07860321  , 0.573075354 , -0.2091816  , 1.57903874  , 0.017409429 , -1.16089952 , 3.66        , 3           , 11          , 0.0128189987, 0.0128190331
0.204466268 , -9.781373   , 0.06893006  , 0.00108338811, 0.00244941656, -0.000671086134, 0.07887286  , 0.5732776   , -0.208979368, 1.57905     , 0.0174159277, -1.16087484 , 3.67        , 3           , 12          , 0.0587491952, 0
0.179244146 , -9.76425    , 0.09057702  , 0.00332838949, -0.0007183923, -0.00156177976, 0.07887286  , 0.5732102   , -0.208911955, 1.57908309  , 0.017431546 , -1.160882   , 3.68        , 3           , 50          , 0           , 0
0.158597469 , -9.765307   , 0.07953431  , 0.00168996421, 0.00390468817, -0.003794596, 0.0787380338, 0.5732776   , -0.20877713 , 1.57910061  , 0.0174691919, -1.16084278 , 3.69        , 3           , 11          , 0.0128189987, 0.0128190331
0.179630756 , -9.792396   , 0.06541258  , 0.0008053681, 0.002462618 , -0.00180756068, 0.07894027  , 0.573075354 , -0.208844543, 1.57910585  , 0.0174618289, -1.16081786 , 3.7         , 3           , 12          , 0.05980034  , 0
0.181275934 , -9.797991   , 0.08117239  , -0.0006613933, -0.00040408218, -0.00014087907, 0.07894027  , 0.573075354 , -0.208844543, 1.5790993   , 0.01746332  , -1.16082191 , 3.71        , 3           , 50          , 0           , 0
0.157583714 , -9.799747   , 0.0538326353, 0.004745447 , -0.0007378856, -0.0009709902, 0.07860321  , 0.5732776   , -0.208911955, 1.57914674  , 0.017473096 , -1.16082931 , 3.72        , 3           , 11          , 0.0113102393, 0.0113102673
0.182431534 , -9.782029   , 0.06375122  , 0.004473364 , 0.00182118057, 0.00164033426, 0.0785357952, 0.573142767 , -0.208709717, 1.5791918   , 0.0174565539, -1.16081119 , 3.73        , 3           , 12          , 0.05980034  , 0
0.189583987 , -9.789738   , 0.061921224 , 0.00419060932, -0.00099565 , -0.00355406641, 0.07867062  , 0.573142767 , -0.208911955, 1.57923353  , 0.0174921732, -1.160821   , 3.74        , 3           , 50          , 0           , 0
0.173268437 , -9.777741   , 0.09172143  , -0.00179474521, -0.000668864755, -0.001296562, 0.07887286  , 0.573075354 , -0.208844543, 1.57921553  , 0.0175052583, -1.16082752 , 3.75        , 3           , 11          , 0.0113102393, 0.0113102673
0.2003742   , -9.780508   , 0.0756778046, 0.001321136 , 0.0009753124, 0.00361211458, 0.07887286  , 0.573075354 , -0.208844543, 1.579229    , 0.0174690727, -1.160818   , 3.76        , 3           , 12          , 0.05980034  , 0
0.18425715  , -9.782452   , 0.05969788  , 0.000482412725, 0.000438977731, 0.0004508231, 0.0785357952, 0.573142767 , -0.209046781, 1.57923388  , 0.0174644832, -1.16081369 , 3.77        , 3           , 50          , 0           , 0
0.173296    , -9.785267   , 0.0785357058, -0.0009444602, -0.000117172967, 0.000147745086, 0.07880545  , 0.5732776   , -0.208911955, 1.57922435  , 0.0174630526, -1.16081488 , 3.78        , 3           , 11          , 0.0113102393, 0.0113102673
0.192309558 , -9.779041   , 0.07155533  , -0.002939659, -0.0009490046, -0.0007352613, 0.07887286  , 0.573142767 , -0.208911955, 1.5791949   , 0.017470533 , -1.1608243  , 3.79        , 3           , 12          , 0.05980034  , 0
0.169655    , -9.799984   , 0.0661366358, 0.000166282582, -0.00127305952, -0.000180192932, 0.0787380338, 0.573345    , -0.208844543, 1.57915473  , 0.0175567642, -1.16083813 , 3.8         , 3           , 50          , 0           , 0
0.174624085 , -9.799558   , 0.06438049  , 0.00302744727, 0.0009778799, 0.00130114926, 0.07894027  , 0.573075354 , -0.208979368, 1.57918513  , 0.01754362  , -1.16082835 , 3.81        , 3           , 11          , 0.01164835  , 0.0116483895
0.190837547 , -9.780105   , 0.08779047  , -0.0006667072, 0.00214896374, 0.00272638956, 0.07894027  , 0.573075354 , -0.208979368, 1.57917893  , 0.017516287 , -1.16080713 , 3.82        , 3           , 12          , 0.06085824  , 0
0.173416287 , -9.789534   , 0.05590289  , 0.00239312183, -0.00502938358, 0.0006377503, 0.07860321  , 0.5732102   , -0.208979368, 1.57920194  , 0.0175103247, -1.16085744 , 3.83        , 3           , 50          , 0           , 0
0.162063926 , -9.797596   , 0.05977069  , 0.0055433996, -0.00221073558, 0.002415317 , 0.07860321  , 0.573142767 , -0.208844543, 1.579257    , 0.01748633  , -1.16087985 , 3.84        , 3           , 11          , 0.01164835  , 0.0116483895
0.165664718 , -9.786945   , 0.07302584  , 0.00389040215, 0.0009820086, -0.000124530517, 0.0785357952, 0.5732776   , -0.208709717, 1.579296    , 0.0174874943, -1.16087008 , 3.85        , 3           , 12          , 0.06085824  , 0
0.172989741 , -9.783707   , 0.0595797747, 0.00651113363, 0.006398447 , 0.0002563512, 0.0785357952, 0.573142767 , -0.208979368, 1.57936227  , 0.0174844526, -1.16080606 , 3.86        , 3           , 50          , 0           , 0
0.169242933 , -9.792799   , 0.06937762  , 0.005050154 , 0.00353942416, 0.00106454093, 0.0785357952, 0.573142767 , -0.208979368, 1.57941341  , 0.0174734835, -1.16077077 , 3.87        , 3           , 11          , 0.01164835  , 0.0116483895
0.173162222 , -9.788588   , 0.09385374  , 0.00127846154, -0.00301177148, 0.0006601115, 0.07860321  , 0.573075354 , -0.208844543, 1.57942569  , 0.0174671654, -1.16080093 , 3.88        , 3           , 12          , 0.06085824  , 0
0.17443192  , -9.767553   , 0.0661032   , 0.000720300945, -0.0015807749, 0.00153604441, 0.07846838  , 0.5732102   , -0.208844543, 1.57943261  , 0.0174519047, -1.160817   , 3.89        , 3           , 50          , 0           , 0
0.158668518 , -9.770985   , 0.0623050854, -9.32437251E-05, 0.00217102235, -0.000421582139, 0.07846838  , 0.5732776   , -0.20877713 , 1.57938671  , 0.0174656752, -1.16079617 , 3.9         , 3           , 11          , 0.011870672 , 0.0118707158
0.1707609   , -9.788105   , 0.0509263426, 0.0004470443, -0.0009768895, -0.00160872028, 0.07867062  , 0.573007941 , -0.208844543, 1.57939088  , 0.01748186  , -1.1608057  , 3.91        , 3           , 12          , 0.061922323 , 0
0.161392331 , -9.775426   , 0.053696692 , -0.0018339674, -0.00208985084, -0.00278377743, 0.07880545  , 0.573007941 , -0.208979368, 1.57937217  , 0.0175098181, -1.16082633 , 3.92        , 3           , 50          , 0           , 0
0.182123154 , -9.763557   , 0.06576836  , 0.0007237765, -0.0009900172, -0.0004623508, 0.07880545  , 0.573007941 , -0.208979368, 1.57937932  , 0.0175145287, -1.16083622 , 3.93        , 3           , 11          , 0.011870672 , 0.0118707158
0.191817254 , -9.784443   , 0.07103677  , -0.00182931789, 0.000456087582, 0.000973916438, 0.0787380338, 0.573075354 , -0.208979368, 1.57936108  , 0.0175047517, -1.16083169 , 3.94        , 3           , 12          , 0.061922323 , 0
0.186804861 , -9.791168   , 0.07136473  , 0.00103490474, 0.000171326508, -0.00244709128, 0.0785357952, 0.5732102   , -0.209046781, 1.57937145  , 0.0175291933, -1.16082978 , 3.95        , 3           , 50          , 0           , 0
0.1875449   , -9.761349   , 0.0658437   , 0.00526132761, -0.00105416786, 0.00156821159, 0.07867062  , 0.573142767 , -0.20877713 , 1.5794239   , 0.017513575 , -1.16084051 , 3.96        , 3           , 11          , 0.011870672 , 0.0118707158
0.183771923 , -9.778049   , 0.07013318  , 0.00387954619, 0.00296471  , 0.002476566 , 0.0787380338, 0.5732102   , -0.208979368, 1.57946312  , 0.0174884778, -1.16081119 , 3.97        , 3           , 12          , 0.061922323 , 0
0.180325836 , -9.804291   , 0.0806392357, 0.000464917248, 0.000740025949, -0.00129751489, 0.0787380338, 0.5732102   , -0.208979368, 1.57946789  , 0.017501384 , -1.16080356 , 3.98        , 3           , 50          , 0           , 0
0.170641169 , -9.794965   , 0.0598799326, 0.002164403 , 0.000430989981, -0.000719080155, 0.0785357952, 0.5732776   , -0.209046781, 1.57948947  , 0.0175085068, -1.16079926 , 3.99        , 3           , 11          , 0.011870672 , 0.0118707158
0.194370836 , -9.784248   , 0.09274378  , -0.000343657041, -0.00013037576, 0.000124976228, 0.07880545  , 0.5732776   , -0.208911955, 1.57886529  , 0.0174857639, -1.160811   , 4           , 3           , 12          , 0.06299209  , 0
0.176890373 , -9.797773   , 0.0644219145, -0.00149791746, -0.0015517131, 9.72549751E-05, 0.07867062  , 0.5732776   , -0.208709717, 1.57885     , 0.0174849   , -1.16082656 , 4.01        , 3           , 50          , 0           , 0
0.170702562 , -9.784632   , 0.06361331  , 0.0033686352, 0.00126239541, 0.000454282 , 0.07867062  , 0.5732776   , -0.20877713 , 1.57888389  , 0.01748019  , -1.160814   , 4.02        , 3           , 11          , 0.0121710524, 0.0121711046
0.176989123 , -9.776256   , 0.07641522  , -0.00171799574, 0.00305180019, -0.00155466585, 0.07887286  , 0.573007941 , -0.208979368, 1.5788672   , 0.01749554  , -1.16078341 , 4.03        , 3           , 12          , 0.06299209  , 0
0.148691118 , -9.770563   , 0.07305882  , 0.0014058823, 0.00357781537, 0.000189512532, 0.07887286  , 0.573007941 , -0.208979368, 1.578882    , 0.0174933355, -1.16074765 , 4.04        , 3           , 50          , 0           , 0
0.1668864   , -9.784485   , 0.09474677  , 0.00113601529, 0.00501104165, 0.000494830834, 0.07860321  , 0.573142767 , -0.208709717, 1.57889426  , 0.01748806  , -1.16069758 , 4.05        , 3           , 11          , 0.0121710524, 0.0121711046
0.181408077 , -9.775086   , 0.090020135 , 0.001644388 , 0.000409757573, 0.001576137 , 0.07860321  , 0.5732776   , -0.208911955, 1.57891071  , 0.017472202 , -1.16069353 , 4.06        , 3           , 12          , 0.06299209  , 0
0.184642136 , -9.779441   , 0.07283528  , 0.000181480747, -0.002451824, 0.00267049088, 0.0787380338, 0.5732102   , -0.20877713 , 1.57891214  , 0.0174457338, -1.1607182  , 4.07        , 3           , 50          , 0           , 0
0.184194043 , -9.796349   , 0.0518581271, 0.00135912863, -0.000152832537, 0.0007075846, 0.07867062  , 0.5732102   , -0.208911955, 1.57892573  , 0.01743867  , -1.16071987 , 4.08        , 3           , 11          , 0.0121710524, 0.0121711046
0.1686633   , -9.777165   , 0.0419994369, 0.00193542789, 0.0009800263, 0.00158619776, 0.07867062  , 0.5732102   , -0.208911955, 1.57894516  , 0.0174226929, -1.16071022 , 4.09        , 3           , 12          , 0.06299209  , 0
0.17091614  , -9.777876   , 0.10615243  , -0.002422314, -0.00440693833, -0.000233976563, 0.0785357952, 0.573075354 , -0.20877713 , 1.578804    , 0.01742016  , -1.16075623 , 4.1         , 3           , 50          , 0           , 0
0.168882221 , -9.76417    , 0.09138604  , 0.000425386184, -0.00414925534, -0.000212669111, 0.07846838  , 0.573345    , -0.20877713 , 1.57880759  , 0.017422663 , -1.1607976  , 4.11        , 3           , 11          , 0.0109969527, 0.0109969918
0.162729487 , -9.769227   , 0.0632661059, -0.00263716537, 0.000485713419, -0.002167888, 0.07867062  , 0.5732102   , -0.20877713 , 1.57878125  , 0.0174442735, -1.16079259 , 4.12        , 3           , 12          , 0.06406708  , 0
0.184726834 , -9.779755   , 0.0601850227, -0.00179981533, 0.000738028553, 0.000703065831, 0.0785357952, 0.573142767 , -0.208844543, 1.57876337  , 0.0174371488, -1.16078532 , 4.13        , 3           , 50          , 0           , 0
0.173412442 , -9.776186   , 0.0727695748, 0.00102837326, -0.00185216323, -0.00132050994, 0.0785357952, 0.573142767 , -0.208844543, 1.5787735   , 0.0174505319, -1.16080379 , 4.14        , 3           , 11          , 0.0109969527, 0.0109969918
0.171169579 , -9.790843   , 0.0536086559, 0.000483412645, 0.000725149643, -0.000427883031, 0.07860321  , 0.573075354 , -0.2091142  , 1.57877851  , 0.0174547657, -1.1607964  , 4.15        , 3           , 12          , 0.06406708  , 0
0.167953387 , -9.778006   , 0.0785703957, -0.00209911633, 0.0004389819, 0.002414163 , 0.07867062  , 0.573075354 , -0.208844543, 1.57875764  , 0.0174305923, -1.16079235 , 4.16        , 3           , 50          , 0           , 0
0.181359321 , -9.785399   , 0.08448034  , -0.002640754, 0.00132753432, -0.00015221932, 0.0785357952, 0.5732776   , -0.208911955, 1.57873142  , 0.017431993 , -1.16077912 , 4.17        , 3           , 11          , 0.0109969527, 0.0109969918
0.212833613 , -9.789301   , 0.08653153  , 0.00135212427, 0.002712297 , 0.0007511279, 0.0787380338, 0.573007941 , -0.209046781, 1.57874548  , 0.0174242426, -1.160752   , 4.18        , 3           , 12          , 0.06406708  , 0
0.17279157  , -9.788017   , 0.08301628  , -7.831349E-05, 0.00102262711, -0.0009994644, 0.07887286  , 0.5729405   , -0.209046781, 1.57874477  , 0.0174341686, -1.16074181 , 4.19        , 3           , 50          , 0           , 0
0.149995729 , -9.783554   , 0.063887    , -0.000945855165, -0.000414246431, 0.0004004981, 0.07887286  , 0.5729405   , -0.209046781, 1.578771    , 0.0174446311, -1.16074562 , 4.2         , 3           , 11          , 0.0112156095, 0.01121565
0.168419927 , -9.775312   , 0.07950915  , 0.00162207743, 0.000416924828, 0.000714603229, 0.07867062  , 0.5732102   , -0.208979368, 1.57878745  , 0.0174375065, -1.16074157 , 4.21        , 3           , 12          , 0.06514683  , 0
0.168475568 , -9.776118   , 0.0704665   , -0.00378254754, -0.00037511214, -0.000761291943, 0.07860321  , 0.5732776   , -0.20877713 , 1.57874954  , 0.0174451973, -1.16074526 , 4.22        , 3           , 50          , 0           , 0
0.185914367 , -9.788474   , 0.0731944   , -0.000679818448, -0.003827931, -0.002795675, 0.0787380338, 0.5732102   , -0.208709717, 1.57874215  , 0.0174734537, -1.16078329 , 4.23        , 3           , 11          , 0.0112156095, 0.01121565
0.167445883 , -9.782986   , 0.08076671  , 0.0012947378, -0.00330571434, 0.0006586339, 0.07867062  , 0.5732102   , -0.208844543, 1.57875454  , 0.0174671356, -1.16081643 , 4.24        , 3           , 12          , 0.06514683  , 0
0.164673775 , -9.797759   , 0.07289193  , 0.00272134552, -0.00359650329, -0.000481628667, 0.07867062  , 0.5732102   , -0.208844543, 1.57878125  , 0.0174722616, -1.16085231 , 4.25        , 3           , 50          , 0           , 0
0.186317518 , -9.806801   , 0.0576290041, 0.00156323193, -0.00502296025, 6.29780843E-05, 0.0790076852, 0.5732102   , -0.2091816  , 1.57879591  , 0.0174720231, -1.1609025  , 4.26        , 3           , 11          , 0.0112156095, 0.01121565
0.173332155 , -9.800345   , 0.0548739359, -0.00296829664, -0.00212885113, 0.00208044727, 0.07867062  , 0.5732102   , -0.209046781, 1.57876587  , 0.0174513981, -1.160924   , 4.27        , 3           , 12          , 0.06514683  , 0
0.164957717 , -9.776849   , 0.0573266074, -0.000660042046, -0.000133116439, 0.000692549045, 0.07860321  , 0.573142767 , -0.208709717, 1.57875931  , 0.0174445119, -1.16092527 , 4.28        , 3           , 50          , 0           , 0
0.179173112 , -9.783945   , 0.0767982453, 0.00360463071, -0.00017902028, 0.00100441393, 0.07880545  , 0.573075354 , -0.209046781, 1.57879543  , 0.0174345262, -1.16092718 , 4.29        , 3           , 11          , 0.0112156095, 0.01121565
0.183609173 , -9.795661   , 0.0721869   , 0.00186543644, -0.002459622, 0.00151958875, 0.07867062  , 0.573007941 , -0.2091142  , 1.57880628  , 0.0174609646, -1.16095233 , 4.3         , 3           , 12          , 0.0662309453, 0
0.181946024 , -9.784749   , 0.06552212  , -0.00121910707, -0.000393627415, -0.001617848, 0.07867062  , 0.573007941 , -0.2091142  , 1.57879412  , 0.01747718  , -1.16095614 , 4.31        , 3           , 50          , 0           , 0
0.162599668 , -9.776547   , 0.07311768  , -0.0006433618, 0.00102069147, -0.000162733457, 0.0785357952, 0.573142767 , -0.208844543, 1.5787878   , 0.01747873  , -1.16094589 , 4.32        , 3           , 11          , 0.0112084486, 0.01120848
0.171140924 , -9.774861   , 0.0772809163, 0.00249181269, 0.00071512413, -0.00157887978, 0.07880545  , 0.5734124   , -0.20877713 , 1.57881284  , 0.0174943786, -1.16093862 , 4.33        , 3           , 12          , 0.0662309453, 0
0.151778132 , -9.778703   , 0.07254159  , 0.000458652445, -0.00242469786, -0.000778290268, 0.07880545  , 0.573075354 , -0.208911955, 1.578817    , 0.0175024271, -1.16096294 , 4.34        , 3           , 50          , 0           , 0
0.170887887 , -9.793944   , 0.09060913  , 0.00363973738, 0.0024102428, -0.000116164869, 0.0787380338, 0.5732102   , -0.208979368, 1.57885385  , 0.017503351 , -1.16093874 , 4.35        , 3           , 11          , 0.0112084486, 0.01120848
0.173288092 , -9.791065   , 0.0725967   , 0.0005009982, 0.00158229144, -0.0001475328, 0.0787380338, 0.5732102   , -0.208979368, 1.57885921  , 0.0175047219, -1.160923   , 4.36        , 3           , 12          , 0.0662309453, 0
0.174772039 , -9.776629   , 0.0709702149, 0.008192994 , 0.00123816857, -0.00239475677, 0.07894027  , 0.573142767 , -0.208911955, 1.57894135  , 0.0175285377, -1.16091037 , 4.37        , 3           , 50          , 0           , 0
0.1815663   , -9.767722   , 0.0761041045, 0.003646049 , 0.00411180127, 0.00191202434, 0.07860321  , 0.573345    , -0.20877713 , 1.57897842  , 0.0175090432, -1.16086936 , 4.38        , 3           , 11          , 0.0112084486, 0.01120848
0.160740227 , -9.782407   , 0.074388    , 0.00392747764, 0.0026939325, -0.000110277942, 0.07867062  , 0.573075354 , -0.208911955, 1.57901824  , 0.0175099671, -1.16084242 , 4.39        , 3           , 12          , 0.0662309453, 0
0.180707127 , -9.772102   , 0.06475332  , -0.003466326, 0.00362882065, -0.000127853767, 0.07887286  , 0.5732776   , -0.208844543, 1.57895792  , 0.0174651686, -1.1608063  , 4.4         , 3           , 50          , 0           , 0
0.1793337   , -9.760998   , 0.08158152  , 0.001079487 , 0.00329344836, 0.000181551033, 0.07887286  , 0.5732776   , -0.208844543, 1.57896924  , 0.0174630824, -1.1607734  , 4.41        , 3           , 11          , 0.011306772 , 0.0113068027
0.182218969 , -9.789922   , 0.08488776  , -0.0009143386, 0.00274563627, -0.0004111178, 0.07867062  , 0.573075354 , -0.208979368, 1.57896054  , 0.0174668971, -1.160746   , 4.42        , 3           , 12          , 0.06731902  , 0
0.1603218   , -9.786806   , 0.06439613  , -0.00268533942, -0.0018376495, 0.00122880936, 0.07867062  , 0.573479831 , -0.209046781, 1.57893336  , 0.0174547061, -1.16076446 , 4.43        , 3           , 50          , 0           , 0
0.171576709 , -9.776223   , 0.07772091  , -0.0003581046, 0.00131208031, -0.00100088678, 0.07846838  , 0.573007941 , -0.208844543, 1.5789299   , 0.0174646024, -1.16075134 , 4.44        , 3           , 11          , 0.011306772 , 0.0113068027
0.18918255  , -9.767847   , 0.08159304  , 0.002229074 , 0.00414418662, -8.52388039E-05, 0.0785357952, 0.5732102   , -0.208844543, 1.57895291  , 0.0174651686, -1.16070986 , 4.45        , 3           , 12          , 0.06731902  , 0
0.15052551  , -9.769193   , 0.0699296743, -0.001492854, 0.002738618 , 0.00101627549, 0.07840097  , 0.573007941 , -0.208911955, 1.57893848  , 0.0174547955, -1.16068256 , 4.46        , 3           , 50          , 0           , 0
0.158604354 , -9.776424   , 0.06495186  , -0.00148020789, 0.00416639447, 0.00160947116, 0.07840097  , 0.573007941 , -0.208911955, 1.57892454  , 0.0174383409, -1.16064107 , 4.47        , 3           , 11          , 0.011306772 , 0.0113068027
0.187227666 , -9.785872   , 0.0818186849, 0.00477583334, 0.00297186361, -8.651239E-05, 0.07860321  , 0.5732102   , -0.208979368, 1.57897282  , 0.0174389984, -1.16061127 , 4.48        , 3           , 12          , 0.06731902  , 0
0.1753604   , -9.75861549 , 0.0729903057, 0.0084037   , -0.00280240388, 0.000424619066, 0.0782661438, 0.5732776   , -0.208979368, 1.57905638  , 0.0174349435, -1.16063929 , 4.49        , 3           , 50          , 0           , 0
0.181843325 , -9.790693   , 0.07313135  , 0.00219469378, 0.00184632407, 0.000450886233, 0.07819873  , 0.5732102   , -0.208979368, 1.5790652   , 0.0174395051, -1.16062129 , 4.5         , 3           , 11          , 0.0114254728, 0.01142552
0.1813171   , -9.800155   , 0.07256563  , 0.000461365649, 0.00069942855, 0.00242705969, 0.0785357952, 0.5729405   , -0.208911955, 1.57907     , 0.0174151827, -1.16061449 , 4.51        , 3           , 12          , 0.0684106946, 0
0.179243118 , -9.781167   , 0.0700555444, -0.0023717382, -0.00010325796, -0.0007503988, 0.0785357952, 0.5729405   , -0.208911955, 1.57904625  , 0.0174227227, -1.16061532 , 4.52        , 3           , 50          , 0           , 0
0.16062066  , -9.779921   , 0.09474182  , 0.00157686789, -0.00272804429, -0.000191645115, 0.07860321  , 0.573075354 , -0.2091142  , 1.57906151  , 0.017424779 , -1.16064262 , 4.53        , 3           , 11          , 0.0114254728, 0.01142552
0.186331227 , -9.778291   , 0.0904801339, -0.00200862857, 0.005077873 , -0.003535202, 0.07860321  , 0.573075354 , -0.2091142  , 1.5790422   , 0.0174596831, -1.1605916  , 4.54        , 3           , 12          , 0.0684106946, 0
0.191625923 , -9.79987049 , 0.0798907951, -0.00521613844, -7.436173E-05, -0.0007675327, 0.07860321  , 0.5732776   , -0.208844543, 1.5789901   , 0.0174674038, -1.1605922  , 4.55        , 3           , 50          , 0           , 0
0.1785883   , -9.797056   , 0.0802550837, -0.00638441648, -0.00320749544, -0.0016787874, 0.07867062  , 0.573075354 , -0.20877713 , 1.57892561  , 0.017484393 , -1.16062415 , 4.56        , 3           , 11          , 0.0114254728, 0.01142552
0.1864342   , -9.765224   , 0.0915352851, 0.000195641158, 0.00100937346, 0.000140207878, 0.07867062  , 0.573075354 , -0.208979368, 1.57892764  , 0.0174829029, -1.16061413 , 4.57        , 3           , 12          , 0.0684106946, 0
0.172941908 , -9.774878   , 0.07729731  , 0.00131085492, -0.00128969923, -0.00045865486, 0.07867062  , 0.573075354 , -0.208979368, 1.57894063  , 0.0174876135, -1.160627   , 4.58        , 3           , 50          , 0           , 0
0.173428074 , -9.785509   , 0.059111312 , 0.0009989073, -0.00301652262, 0.000659246638, 0.07846838  , 0.5732776   , -0.209046781, 1.57895     , 0.0174812637, -1.16065717 , 4.59        , 3           , 11          , 0.0114254728, 0.01142552
0.1871509   , -9.773278   , 0.0431177281, -0.00269322447, -0.000385053019, -0.00104648911, 0.07840097  , 0.5732776   , -0.20877713 , 1.57880366  , 0.0175052583, -1.160663   , 4.6         , 3           , 12          , 0.06950565  , 0
0.180512846 , -9.80356    , 0.05445118  , 0.0009791793, -0.00130283192, 0.00125257659, 0.07846838  , 0.5728731   , -0.208574891, 1.5788132   , 0.0174928587, -1.16067612 , 4.61        , 3           , 50          , 0           , 0
0.15265429  , -9.784979   , 0.06841196  , -0.00270230533, -0.00067931076, -0.000192170512, 0.0785357952, 0.573007941 , -0.208844543, 1.578786    , 0.0174948554, -1.16068292 , 4.62        , 3           , 11          , 0.0116855418, 0.0116855912
0.182446986 , -9.775329   , 0.06970071  , -0.000965412, 0.00160110358, -0.0007208299, 0.0785357952, 0.573007941 , -0.208844543, 1.57877672  , 0.01750195  , -1.160667   , 4.63        , 3           , 12          , 0.06950565  , 0
0.174583584 , -9.810747   , 0.05657216  , 0.00246381364, 0.00328078424, -0.00010289994, 0.07880545  , 0.573142767 , -0.2091142  , 1.57880187  , 0.0175026953, -1.160634   , 4.64        , 3           , 50          , 0           , 0
0.156579092 , -9.802125   , 0.06599167  , 0.00154586707, -0.00215811026, 9.882674E-05, 0.07860321  , 0.573345    , -0.208844543, 1.578817    , 0.01750189  , -1.16065574 , 4.65        , 3           , 11          , 0.0116855418, 0.0116855912
0.176756874 , -9.775918   , 0.0452501252, 0.00325662619, -0.00132338924, 0.0009801198, 0.07867062  , 0.5732776   , -0.208709717, 1.57884932  , 0.017492203 , -1.160669   , 4.66        , 3           , 12          , 0.06950565  , 0
0.173946261 , -9.779622   , 0.05647386  , 0.00268553058, -0.000191769548, 0.00328269927, 0.07880545  , 0.5732102   , -0.208979368, 1.57887626  , 0.0174594149, -1.16067123 , 4.67        , 3           , 50          , 0           , 0
0.176644072 , -9.782323   , 0.0537573472, -0.002410158, -0.0006719623, -0.001335113, 0.0787380338, 0.5732102   , -0.20924902 , 1.578852    , 0.0174728576, -1.16067779 , 4.68        , 3           , 11          , 0.0116855418, 0.0116855912
0.174447119 , -9.767975   , 0.06338831  , 0.00411049929, -0.00161351822, 0.0004087584, 0.0787380338, 0.5732102   , -0.20924902 , 1.578893    , 0.0174689833, -1.160694   , 4.69        , 3           , 12          , 0.06950565  , 0
0.166123152 , -9.774027   , 0.08763334  , 0.00334323  , 0.0069897403, 0.000812329061, 0.0785357952, 0.573142767 , -0.209046781, 1.57888961  , 0.01746937  , -1.16062486 , 4.7         , 3           , 50          , 0           , 0
0.165994659 , -9.782681   , 0.09566274  , 0.00302386354, 0.00412427867, 0.00105504424, 0.07860321  , 0.573142767 , -0.208844543, 1.5789206   , 0.0174584016, -1.16058373 , 4.71        , 3           , 11          , 0.0117005324, 0.0117005734
0.1721709   , -9.760871   , 0.07564508  , 0.00185999251, 0.000714804162, -0.0010050399, 0.07860321  , 0.5732776   , -0.208979368, 1.5789392   , 0.0174683277, -1.16057646 , 4.72        , 3           , 12          , 0.07060353  , 0
0.181924909 , -9.77944    , 0.07506876  , 0.00186411128, 0.00156686292, -0.000134027185, 0.0787380338, 0.573142767 , -0.2091142  , 1.578958    , 0.01746949  , -1.16056073 , 4.73        , 3           , 50          , 0           , 0
0.181945443 , -9.773622   , 0.0792013556, -0.002690228, 0.0013265179, -0.000165615027, 0.0787380338, 0.573142767 , -0.2091142  , 1.57893133  , 0.01747107  , -1.16054749 , 4.74        , 3           , 11          , 0.0117005324, 0.0117005734
0.170167252 , -9.78921    , 0.07033095  , -0.000157775954, -0.000429201667, 0.0009694204, 0.07887286  , 0.5732102   , -0.208911955, 1.57892966  , 0.0174614117, -1.16055179 , 4.75        , 3           , 12          , 0.07060353  , 0
0.178756639 , -9.789231   , 0.06544106  , -0.00160252256, -0.00270226784, 0.000355137134, 0.0785357952, 0.5732776   , -0.208979368, 1.57891321  , 0.0174580142, -1.16057885 , 4.76        , 3           , 50          , 0           , 0
0.194185644 , -9.777162   , 0.06301211  , -0.003860434, -0.00180917524, -0.000790705439, 0.0787380338, 0.5732102   , -0.208911955, 1.57887423  , 0.0174660329, -1.160597   , 4.77        , 3           , 11          , 0.0117005324, 0.0117005734
0.1764128   , -9.794695   , 0.07213185  , -0.00186415063, 0.0004350759, 0.00240248046, 0.0787380338, 0.573142767 , -0.209046781, 1.57885563  , 0.0174420085, -1.160593   , 4.78        , 3           , 12          , 0.07060353  , 0
0.182828709 , -9.795468   , 0.0550175756, -6.728017E-05, 0.00561711565, -0.00209073955, 0.0787380338, 0.573142767 , -0.209046781, 1.578856    , 0.0174624547, -1.16053665 , 4.79        , 3           , 50          , 0           , 0
0.1751299   , -9.786567   , 0.0722138658, -0.003514492, -0.00269218767, 0.0005311601, 0.07880545  , 0.573075354 , -0.209046781, 1.57810307  , 0.0178096462, -1.16057861 , 4.8         , 3           , 11          , 0.0119084092, 0.011908452
0.178051263 , -9.761771   , 0.0707201362, 0.000180481351, -0.00329779182, -2.72408215E-05, 0.07887286  , 0.5732102   , -0.2091142  , 1.57810426  , 0.0178101826, -1.16061163 , 4.81        , 3           , 12          , 0.07170406  , 0
0.172874629 , -9.794121   , 0.0635237545, 0.00160516181, -0.00359114073, -0.0008813394, 0.07860321  , 0.573142767 , -0.208979368, 1.57811964  , 0.0178192444, -1.16064739 , 4.82        , 3           , 50          , 0           , 0
0.172436833 , -9.789646   , 0.0671849251, 0.0005708088, 0.004741452 , -0.00191181642, 0.07860321  , 0.5732102   , -0.208844543, 1.57812631  , 0.0178380832, -1.1606     , 4.83        , 3           , 11          , 0.0119084092, 0.011908452
0.184157848 , -9.792843   , 0.0613838173, 0.000502039853, 0.000417169 , 0.000887220551, 0.0785357952, 0.573075354 , -0.208911955, 1.57813144  , 0.0178292   , -1.16059577 , 4.84        , 3           , 12          , 0.07170406  , 0
0.158693075 , -9.769166   , 0.06097121  , -0.003503508, -0.0004200304, 0.00285386061, 0.0785357952, 0.573075354 , -0.208911955, 1.57809639  , 0.0178006757, -1.16060019 , 4.85        , 3           , 50          , 0           , 0
0.154746622 , -9.804383   , 0.0677555352, -0.00491000433, -0.001513506, -0.00146386062, 0.0785357952, 0.5732102   , -0.208911955, 1.578047    , 0.01781549  , -1.16061521 , 4.86        , 3           , 11          , 0.0119084092, 0.011908452
0.178424418 , -9.774357   , 0.06651308  , 0.00108192745, 0.000708207 , -0.0002498352, 0.07846838  , 0.5732776   , -0.208844543, 1.57805777  , 0.0178179033, -1.160608   , 4.87        , 3           , 12          , 0.07170406  , 0
0.185915291 , -9.769332   , 0.09645172  , -0.00439532055, -0.00441323128, 0.00164563488, 0.07867062  , 0.5732102   , -0.20877713 , 1.57801306  , 0.0178017486, -1.1606524  , 4.88        , 3           , 50          , 0           , 0
0.19034642  , -9.796188   , 0.07404951  , -0.00176688051, 0.00101344427, 0.00088186044, 0.07867062  , 0.573142767 , -0.20877713 , 1.57799554  , 0.0177928656, -1.16064239 , 4.89        , 3           , 11          , 0.0119084092, 0.011908452
0.170579091 , -9.791944   , 0.07256164  , 0.00282351347, -0.000165169971, -0.00101083168, 0.07867062  , 0.573142767 , -0.20877713 , 1.578172    , 0.0184763148, -1.16064513 , 4.9         , 3           , 12          , 0.07280695  , 0
0.183272064 , -9.784355   , 0.06960411  , -0.0011979806, -0.00271672546, 0.000358439 , 0.07867062  , 0.5732776   , -0.208844543, 1.57815945  , 0.0184728578, -1.16067219 , 4.91        , 3           , 50          , 0           , 0
0.1630455   , -9.78902149 , 0.0585235953, -0.00366691453, 0.00504947826, 0.000169539868, 0.0787380338, 0.5732776   , -0.20877713 , 1.57812357  , 0.0184708014, -1.16062164 , 4.92        , 3           , 11          , 0.0103013255, 0.0103013581
0.156459376 , -9.808985   , 0.07494525  , 0.003418239 , 0.002403144 , -0.000397515134, 0.0787380338, 0.573075354 , -0.208911955, 1.57815826  , 0.0184745863, -1.16059756 , 4.93        , 3           , 12          , 0.07280695  , 0
0.166951641 , -9.787499   , 0.08161345  , 0.00110890053, -0.00100501021, -0.00131979678, 0.07894027  , 0.573142767 , -0.208709717, 1.57816911  , 0.01848779  , -1.16060758 , 4.94        , 3           , 50          , 0           , 0
0.177083686 , -9.77166    , 0.0683386549, -0.00173798052, -0.0006972133, -0.000474265078, 0.07887286  , 0.5729405   , -0.2091816  , 1.5781517   , 0.01849256  , -1.16061461 , 4.95        , 3           , 11          , 0.0103013255, 0.0103013581
0.182788044 , -9.790634   , 0.06681702  , 0.00279352488, -0.00161598239, 0.0009714486, 0.07887286  , 0.5729405   , -0.2091816  , 1.57817936  , 0.0184829626, -1.16063082 , 4.96        , 3           , 12          , 0.07280695  , 0
0.190398335 , -9.785871   , 0.07913772  , -0.00147500157, -0.00157519756, 0.00123191183, 0.07867062  , 0.573345    , -0.20877713 , 1.57816422  , 0.0184708014, -1.16064668 , 4.97        , 3           , 50          , 0           , 0
0.179193288 , -9.783024   , 0.07500228  , -0.002326394, -0.00156396907, 0.0009406075, 0.0787380338, 0.573142767 , -0.208844543, 1.57814074  , 0.0184615012, -1.16066229 , 4.98        , 3           , 11          , 0.0103013255, 0.0103013581
0.172961816 , -9.781079   , 0.06683695  , 0.00369689846, 0.00239257584, 0.0004626903, 0.07860321  , 0.5732776   , -0.208979368, 1.57817817  , 0.0184567627, -1.16063833 , 4.99        , 3           , 12          , 0.07280695  , 0
0.168105528 , -9.775102   , 0.0600858852, 0.00279239169, -0.001613427, 0.0006896139, 0.0787380338, 0.5732776   , -0.209046781, 1.5781945   , 0.0184340477, -1.16065478 , 5           , 3           , 50          , 0           , 0
0.168012917 , -9.780584   , 0.0667971447, -0.000300967426, 0.00100524991, -0.000150163673, 0.0787380338, 0.5732776   , -0.209046781, 1.57819164  , 0.01843548  , -1.16064477 , 5.01        , 3           , 11          , 0.008126041 , 0.00812607
0.165666044 , -9.788279   , 0.0712036937, -0.00288484618, -0.00154027739, -0.001061638, 0.07880545  , 0.573142767 , -0.208979368, 1.57816255  , 0.01844624  , -1.16066015 , 5.02        , 3           , 12          , 0.07391194  , 0
0.167007178 , -9.786079   , 0.07530664  , 0.0008695267, 0.00301254331, -0.00154491526, 0.07867062  , 0.573075354 , -0.208979368, 1.57817185  , 0.018461531 , -1.16062987 , 5.03        , 3           , 50          , 0           , 0
0.186379567 , -9.78445    , 0.07595531  , 0.00194897153, -0.0007450205, 0.0006969943, 0.0785357952, 0.573345    , -0.208979368, 1.5781914   , 0.0184547044, -1.16063738 , 5.04        , 3           , 11          , 0.008126041 , 0.00812607
0.16041407  , -9.774647   , 0.06589241  , 0.00134791085, -0.003039553, 0.00151867128, 0.07846838  , 0.573142767 , -0.208844543, 1.57820427  , 0.018439712 , -1.1606679  , 5.05        , 3           , 12          , 0.07391194  , 0
0.170667589 , -9.780233   , 0.074052684 , -0.00113419886, 0.00160499371, -0.00215010485, 0.07846838  , 0.573142767 , -0.208844543, 1.57819319  , 0.018461084 , -1.16065168 , 5.06        , 3           , 50          , 0           , 0
0.168146878 , -9.811341   , 0.07502555  , 0.0025266672, -0.0013034821, -0.00159723789, 0.07860321  , 0.5732776   , -0.2091816  , 1.57821822  , 0.01847715  , -1.16066468 , 5.07        , 3           , 11          , 0.008126041 , 0.00812607
0.189931929 , -9.790789   , 0.0754631162, 0.00368393818, 0.00153283437, 0.000454498921, 0.07860321  , 0.573142767 , -0.209046781, 1.5782553   , 0.0184725   , -1.16064954 , 5.08        , 3           , 12          , 0.07391194  , 0
0.186419725 , -9.803528   , 0.0468270853, -0.0005898152, 0.00128448056, 0.0009969524, 0.0787380338, 0.5732776   , -0.208979368, 1.57824957  , 0.0184623953, -1.16063666 , 5.09        , 3           , 50          , 0           , 0
0.160306841 , -9.790835   , 0.06163933  , -0.00260275556, 0.00104291458, -0.00188863231, 0.07887286  , 0.5732102   , -0.208844543, 1.57808149  , 0.0185105056, -1.16062927 , 5.1         , 3           , 11          , 0.008266064 , 0.008266098
0.176008642 , -9.781712   , 0.0813118443, 0.00139479619, 0.002998276 , -0.0006907742, 0.07894027  , 0.573142767 , -0.208979368, 1.57809615  , 0.01851727  , -1.16059923 , 5.11        , 3           , 12          , 0.07501879  , 0
