Acc X       , Acc Y       , Acc Z       , Gyro X      , Gyro Y      , Gyro Z      , Magn X      , Magn Y      , Magn Z      , Euler X     , Euler Y     , Euler Z     , Time        , Status      , LowRate X   , LowRate Y   , LowRate Z    
-9.816332   , -0.0432465971, 0.0575579181, 0.00165195728, 0.000922336942, -0.000193576037, 0.3736012   , 0.432182819 , 0.0836591646, 2.73328924  , -1.56406581 , -1.35928011 , 0           , 3           , 11          , 0.0346410163, 0.0346410163
-9.807911   , -0.0285881776, 0.0297995619, 0.000958043849, 0.00250446657, -3.1823085E-05, 0.3730619   , 0.432317644 , 0.0838614   , 2.73328924  , -1.56408358 , -1.35927057 , 0.01        , 3           , 12          , 0.0346410163, 0
-9.815121   , -0.0267557  , 0.0329162478, 0.0008075739, 0.00178946322, -4.311362E-05, 0.37575838  , 0.432519883 , 0.08379399  , 2.73328924  , -1.56410134 , -1.35926247 , 0.02        , 3           , 50          , 0           , 0
-9.809191   , 0.0017996754, 0.0567884445, -0.000788063335, -0.0004936755, 0.0006294844, 0.37575838  , 0.432519883 , 0.08379399  , 2.73328924  , -1.56411028 , -1.35927033 , 0.03        , 3           , 11          , 0.0346410163, 0.0346410163
-9.812675   , -0.0311760791, 0.06450626  , 0.00178481941, 0.0007673645, 0.0009498499, 0.373736024 , 0.432519883 , 0.08372658  , 2.73328924  , -1.56411922 , -1.35925257 , 0.04        , 3           , 12          , 0.0346410163, 0
-9.8352375  , -0.024827078, 0.0792779252, 0.00335364719, 0.0004751305, -0.000189556, 0.374005675 , 0.432182819 , 0.0836591646, 2.73328924  , -1.56411922 , -1.359219   , 0.05        , 3           , 50          , 0           , 0
-9.81089    , -0.0365590826, 0.0603952929, 0.00278779026, 0.0009082189, 9.944152E-05, 0.375084251 , 0.432789534 , 0.08399622  , 2.73328924  , -1.5641371  , -1.35919106 , 0.06        , 3           , 11          , 0.0346410163, 0.0346410163
-9.809012   , -0.0222135279, 0.06690185  , 0.0042401   , 0.00375572359, 0.0005789899, 0.3730619   , 0.4321154   , 0.08399622  , 2.73328924  , -1.564155   , -1.35914862 , 0.07        , 3           , 12          , 0.0346410163, 0
-9.811113   , -0.0046037673, 0.0666340962, 0.00284431153, 0.005075135 , -0.0011277803, 0.3752865   , 0.432385057 , 0.08338951  , 2.73328924  , -1.5642271  , -1.35912    , 0.08        , 3           , 50          , 0           , 0
-9.817475   , -0.0349056274, 0.03776916  , 0.000128931613, 0.00395626947, -0.00116075168, 0.3752865   , 0.432385057 , 0.08338951  , 2.73328924  , -1.5642271  , -1.35911858 , 0.09        , 3           , 11          , 0.0346410163, 0.0346410163
-9.809582   , -0.0353003927, 0.06810065  , 0.0018194369, 0.002797248 , -0.0007413897, 0.374410152 , 0.432519883 , 0.08379399  , 2.73328924  , -1.56462967 , -1.35910165 , 0.1         , 3           , 12          , 0.0346410163, 0
-9.80455    , -0.024095064, 0.07053472  , 0.00209123082, 0.00136658188, -0.00133287185, 0.3735338   , 0.432317644 , 0.0836591646, 2.73328924  , -1.56463933 , -1.35908067 , 0.11        , 3           , 50          , 0           , 0
-9.817558   , -0.0221245326, 0.06546922  , -0.0005094363, -0.00148344133, -0.0002453719, 0.375556141 , 0.4326547   , 0.0838614   , 2.73328924  , -1.56462967 , -1.3590858  , 0.12        , 3           , 11          , 0.0346410163, 0.0346410163
-9.81383    , -0.00638387445, 0.06658856  , 0.0006235061, -0.00150139863, 0.000476891641, 0.373331547 , 0.432317644 , 0.0838614   , 2.73328924  , -1.56460071 , -1.3590796  , 0.13        , 3           , 12          , 0.0346410163, 0
-9.806158   , -0.00464205071, 0.06622753  , 0.002347886 , -0.000225290758, 7.670692E-05, 0.373331547 , 0.432317644 , 0.0838614   , 2.73328924  , -1.564591   , -1.35905612 , 0.14        , 3           , 50          , 0           , 0
-9.803577   , -0.0391240157, 0.04146183  , 0.00305981678, -0.000654705, -0.0007837619, 0.374949455 , 0.432182819 , 0.08352434  , 2.73328924  , -1.56458151 , -1.35902548 , 0.15        , 3           , 11          , 0.0346410163, 0.0346410163
-9.805471   , -0.021003468, 0.07733733  , 0.00347300014, -0.001664626, -0.000509635138, 0.3746798   , 0.432789534 , 0.0838614   , 2.73328924  , -1.56460071 , -1.35899067 , 0.16        , 3           , 12          , 0.0346410163, 0
-9.798936   , -0.0140237855, 0.0521831624, 0.00205629272, -0.0005140993, 0.000643148 , 0.373331547 , 0.432317644 , 0.0836591646, 2.73328924  , -1.56458151 , -1.35897017 , 0.17        , 3           , 50          , 0           , 0
-9.811226   , -0.0243613552, 0.05872622  , -0.00320653361, -0.0006026512, 0.0004662815, 0.37575838  , 0.4325873   , 0.08379399  , 2.73328924  , -1.564572   , -1.35900235 , 0.18        , 3           , 11          , 0.0346410163, 0.0346410163
-9.822483   , -0.008684881, 0.07777476  , -0.00336223026, -0.001606793, 0.000736981339, 0.37339896  , 0.43245247  , 0.08352434  , 2.73328924  , -1.56456232 , -1.35903609 , 0.19        , 3           , 12          , 0.0346410163, 0
-9.816003   , -0.0057972353, 0.05573472  , 0.002221024 , 0.00133393682, 0.000540260866, 0.37339896  , 0.43245247  , 0.08352434  , 2.73328924  , -1.564374   , -1.359013   , 0.2         , 3           , 50          , 0           , 0
-9.804386   , -0.0122699048, 0.0611871555, 0.00250766752, 0.00119287672, -3.24404027E-05, 0.3742079   , 0.4321154   , 0.08359175  , 2.73328924  , -1.564374   , -1.35898781 , 0.21        , 3           , 11          , 0.0301959049, 0.0301958974
-9.8155     , -0.03801776 , 0.0738868862, 0.00249735825, 5.03993761E-05, -0.000478380447, 0.375016838 , 0.432856947 , 0.08392881  , 2.73328924  , -1.56438327 , -1.35896277 , 0.22        , 3           , 12          , 0.0346698537, 0
-9.82387    , -0.0363244228, 0.0489863157, 0.004634091 , 0.0007387763, 0.0002603139, 0.3730619   , 0.432317644 , 0.0836591646, 2.73328924  , -1.56438327 , -1.3589164  , 0.23        , 3           , 50          , 0           , 0
-9.802977   , -0.0471601635, 0.0752516   , 0.005469117 , -0.000281877932, 0.00125242071, 0.375623554 , 0.432519883 , 0.08372658  , 2.73328924  , -1.56438327 , -1.35886168 , 0.24        , 3           , 11          , 0.0301959049, 0.0301958974
-9.810023   , -0.0357280262, 0.06628488  , 0.00493365759, 0.001884763 , -7.44271347E-06, 0.375623554 , 0.432519883 , 0.08372658  , 2.73328924  , -1.56439257 , -1.35881233 , 0.25        , 3           , 12          , 0.0346698537, 0
-9.817066   , -0.0233989116, 0.0577802546, 0.003265112 , 0.00463356124, -0.0009796486, 0.3741405   , 0.4325873   , 0.08359175  , 2.73328924  , -1.56446743 , -1.35877967 , 0.26        , 3           , 50          , 0           , 0
-9.833615   , -0.0217511319, 0.04364457  , 0.0006814982, 0.00293497369, -0.00044778228, 0.3742079   , 0.432317644 , 0.08338951  , 2.73328924  , -1.56446743 , -1.35877275 , 0.27        , 3           , 11          , 0.0301959049, 0.0301958974
-9.80432    , -0.009942797, 0.0544392243, -0.00117588858, 0.00237803836, -0.000181102369, 0.375084251 , 0.432789534 , 0.0836591646, 2.73328924  , -1.56446743 , -1.35878444 , 0.28        , 3           , 12          , 0.0346698537, 0
-9.791546   , -0.03897734 , 0.060093578 , 0.00136592134, 0.0007758461, -0.000188636259, 0.3730619   , 0.432385057 , 0.0838614   , 2.73328924  , -1.56451476 , -1.35877073 , 0.29        , 3           , 50          , 0           , 0
-9.793305   , -0.0313301347, 0.063327536 , 0.004614548 , -0.0007065289, 0.000638516154, 0.37481463  , 0.432385057 , 0.083456926 , 2.73328924  , -1.564173   , -1.35872579 , 0.3         , 3           , 11          , 0.0277626645, 0.0277626626
-9.792408   , -0.0291173235, 0.06652318  , 0.00519306259, -0.0006995104, -0.0007888771, 0.37481463  , 0.432385057 , 0.083456926 , 2.73328924  , -1.564155   , -1.35867381 , 0.31        , 3           , 12          , 0.0347559638, 0
-9.810034   , -0.008786793, 0.035428904 , 0.00360952923, -0.00226108287, -0.000678173266, 0.374410152 , 0.432722121 , 0.0836591646, 2.73328924  , -1.56411922 , -1.35863769 , 0.32        , 3           , 50          , 0           , 0
-9.804355   , -0.009996027, 0.059406925 , 0.00262800837, -0.0005391727, 0.00019936313, 0.373466372 , 0.432250232 , 0.083456926 , 2.73328924  , -1.5641371  , -1.35861158 , 0.33        , 3           , 11          , 0.0277626645, 0.0277626626
-9.814817   , -0.0345508233, 0.0445730947, 0.00561724138, -0.000424944272, 7.635854E-05, 0.375151664 , 0.4326547   , 0.08359175  , 2.73328924  , -1.5641371  , -1.35855532 , 0.34        , 3           , 12          , 0.0347559638, 0
-9.813907   , -0.03899514 , 0.0377547741, 0.00431704056, -0.001426486, 0.001341779 , 0.3731293   , 0.432385057 , 0.0836591646, 2.73328924  , -1.56411922 , -1.35851216 , 0.35        , 3           , 50          , 0           , 0
-9.80730152 , -0.0299333259, 0.0704420358, 0.002645881 , 0.001177743 , 0.0005105683, 0.3731293   , 0.432385057 , 0.0836591646, 2.73328924  , -1.56412816 , -1.3584857  , 0.36        , 3           , 11          , 0.0277626645, 0.0277626626
-9.803321   , -0.0434328765, 0.0644508153, 0.00336358068, 0.00174367707, 0.0005231989, 0.374275327 , 0.432048    , 0.083456926 , 2.73328924  , -1.564146   , -1.35845208 , 0.37        , 3           , 12          , 0.0347559638, 0
-9.809113   , -0.0490743145, 0.0485231578, 0.00178060168, -9.93552239E-05, 5.74013029E-05, 0.374747217 , 0.432856947 , 0.08379399  , 2.73328924  , -1.564155   , -1.35843432 , 0.38        , 3           , 50          , 0           , 0
-9.818449   , -0.02566103 , 0.0595482066, 0.00264231581, 4.42237724E-05, -0.0009369459, 0.373331547 , 0.432182819 , 0.0836591646, 2.73328924  , -1.5641371  , -1.35840786 , 0.39        , 3           , 11          , 0.0277626645, 0.0277626626
-9.804267   , -0.0305858627, 0.08672337  , 0.00165146159, 0.0006231558, -0.0006434346, 0.375488728 , 0.4326547   , 0.08359175  , 2.73328924  , -1.5641371  , -1.3583914  , 0.4         , 3           , 12          , 0.03489851  , 0
-9.843099   , -0.0464426242, 0.0825697   , -0.0019481784, -0.0029268025, -0.000287775125, 0.3736012   , 0.4325873   , 0.08359175  , 2.73328924  , -1.56411922 , -1.35841084 , 0.41        , 3           , 50          , 0           , 0
-9.814959   , -0.033876434, 0.0658091754, -0.00127682241, -0.00580877624, 0.0006763471, 0.3736012   , 0.4325873   , 0.08359175  , 2.73328924  , -1.56408358 , -1.35842383 , 0.42        , 3           , 11          , 0.0226021074, 0.0226020962
-9.781877   , -0.0271570869, 0.043606285 , 0.00115645386, -0.00440172153, 0.000854860642, 0.37387085  , 0.432250232 , 0.08352434  , 2.73328924  , -1.56403053 , -1.35841227 , 0.43        , 3           , 12          , 0.03489851  , 0
-9.8230505  , -0.037350215, 0.05982264  , 0.00347047718, -0.001410639, 0.000340061873, 0.375151664 , 0.432722121 , 0.08379399  , 2.73328924  , -1.56403053 , -1.3583777  , 0.44        , 3           , 50          , 0           , 0
-9.833841   , -0.028329948, 0.0684097   , 0.004634228 , 0.000587695744, -5.311583E-05, 0.372859657 , 0.432385057 , 0.08359175  , 2.73328924  , -1.56403053 , -1.35833132 , 0.45        , 3           , 11          , 0.0226021074, 0.0226020962
-9.840077   , -0.0317323133, 0.05431059  , 0.004506857 , 0.00187874667, -3.519163E-05, 0.375219077 , 0.43245247  , 0.083456926 , 2.73328924  , -1.56404817 , -1.35828626 , 0.46        , 3           , 12          , 0.03489851  , 0
-9.820985   , -0.0447730049, 0.07737202  , 0.00407332  , 0.00145065284, 0.000242141992, 0.375219077 , 0.43245247  , 0.083456926 , 2.73328924  , -1.56404817 , -1.35824537 , 0.47        , 3           , 50          , 0           , 0
-9.822514   , -0.0327676572, 0.0526533872, 0.002777527 , 0.000172770247, 0.000358732825, 0.3741405   , 0.4325873   , 0.0836591646, 2.73328924  , -1.56408358 , -1.35821772 , 0.48        , 3           , 11          , 0.0226021074, 0.0226020962
-9.820388   , -0.03921123 , 0.06298751  , 0.00109619112, 0.00205799146, -0.0001967476, 0.374005675 , 0.432250232 , 0.083456926 , 2.73328924  , -1.56408358 , -1.35820663 , 0.49        , 3           , 12          , 0.03489851  , 0
-9.809081   , -0.0303298365, 0.0668075457, 0.0009639196, 0.00333720818, 0.000523163937, 0.375421315 , 0.4326547   , 0.0838614   , 2.73328924  , -1.56404817 , -1.35819745 , 0.5         , 3           , 50          , 0           , 0
-9.805918   , -0.0294506215, 0.06639509  , 0.0010819321, 0.00189262978, 0.001647809 , 0.3731293   , 0.432317644 , 0.08359175  , 2.73328924  , -1.564057   , -1.35818648 , 0.51        , 3           , 11          , 0.0214363821, 0.0214363746
-9.822042   , -0.0291788429, 0.0540542156, 0.0004962869, -0.000381426944, 0.000180174 , 0.3731293   , 0.432317644 , 0.08359175  , 2.73328924  , -1.56404817 , -1.35818148 , 0.52        , 3           , 12          , 0.0350963771, 0
-9.814759   , -0.0130960653, 0.06243731  , 0.00250304723, 0.000465761754, -0.000653803756, 0.3746124   , 0.432250232 , 0.0831872746, 2.73328924  , -1.56407464 , -1.35815644 , 0.53        , 3           , 50          , 0           , 0
-9.827584   , -0.0248937141, 0.07934754  , 0.00365730748, 0.00188709912, -0.0006260824, 0.3746798   , 0.432856947 , 0.08379399  , 2.73328924  , -1.56406581 , -1.35811985 , 0.54        , 3           , 11          , 0.0214363821, 0.0214363746
-9.843308   , -0.03182584 , 0.06557213  , 0.00221530767, 0.0001820723, -0.000659690646, 0.373264134 , 0.432317644 , 0.083456926 , 2.73328924  , -1.56406581 , -1.35809767 , 0.55        , 3           , 12          , 0.0350963771, 0
-9.791009   , -0.0375124142, 0.0492747948, 0.000188747028, -0.00238459115, 0.000149245738, 0.375421315 , 0.4325873   , 0.08372658  , 2.73328924  , -1.564057   , -1.35809577 , 0.56        , 3           , 50          , 0           , 0
-9.808909   , -0.008700876, 0.06841385  , -0.00123454863, -0.00279489276, -0.000437909417, 0.3735338   , 0.432519883 , 0.083456926 , 2.73328924  , -1.56403053 , -1.35810816 , 0.57        , 3           , 11          , 0.0214363821, 0.0214363746
-9.811257   , -0.0155077651, 0.0741857   , 8.035777E-05, 6.045493E-05, -0.0006746278, 0.3735338   , 0.432519883 , 0.083456926 , 2.73328924  , -1.56401289 , -1.35810733 , 0.58        , 3           , 12          , 0.0350963771, 0
-9.794586   , -0.0151873929, 0.07298764  , 0.002919796 , 0.0005893598, 0.001067837 , 0.37434274  , 0.432182819 , 0.08325469  , 2.73328924  , -1.56403053 , -1.35807812 , 0.59        , 3           , 50          , 0           , 0
-9.791042   , -0.0362274423, 0.0556130335, 0.002489762 , 0.000643672 , 0.002016907 , 0.37481463  , 0.432991773 , 0.08352434  , 2.73328924  , -1.56380522 , -1.35805142 , 0.6         , 3           , 11          , 0.020620171 , 0.02062017
-9.793596   , -0.0186186  , 0.0557927825, -4.66769961E-05, 0.00197080267, 0.0007325295, 0.372859657 , 0.432385057 , 0.083456926 , 2.73328924  , -1.56383944 , -1.3580519  , 0.61        , 3           , 12          , 0.0353482142, 0
-9.818277   , -0.008483071, 0.05568282  , -0.000770290266, 0.000973720045, 0.000856720668, 0.3753539   , 0.432789534 , 0.083456926 , 2.73328924  , -1.56385648 , -1.35805964 , 0.62        , 3           , 50          , 0           , 0
-9.81319    , -0.0286022257, 0.07717864  , 0.00240517058, 0.00424911268, -0.000364174251, 0.3753539   , 0.432789534 , 0.083456926 , 2.73328924  , -1.56389093 , -1.35803556 , 0.63        , 3           , 11          , 0.020620171 , 0.02062017
-9.825681   , -0.0238624252, 0.06582615  , 0.0044427393, 0.00711259339, -0.00231359317, 0.373938262 , 0.4325873   , 0.08352434  , 2.73328924  , -1.56394291 , -1.357991   , 0.64        , 3           , 12          , 0.0353482142, 0
-9.793276   , -0.0335120931, 0.0565272123, 0.00112409471, 0.00383736636, -0.000950473, 0.373803437 , 0.432385057 , 0.08338951  , 2.73328924  , -1.56397784 , -1.35797954 , 0.65        , 3           , 50          , 0           , 0
-9.820047   , -0.0460609868, 0.07059036  , -0.00247843564, 0.000283568166, -0.00016556753, 0.375084251 , 0.432722121 , 0.0836591646, 2.73328924  , -1.56396914 , -1.35800433 , 0.66        , 3           , 11          , 0.020620171 , 0.02062017
-9.819463   , -0.0400724858, 0.05846913  , -0.000478828821, 0.000839058659, -0.0004313907, 0.372994483 , 0.432317644 , 0.083456926 , 2.73328924  , -1.56398654 , -1.35800922 , 0.67        , 3           , 12          , 0.0353482142, 0
-9.794823   , -0.008624012, 0.0500248447, 0.00352808  , 0.00294794771, -0.000376101671, 0.375084251 , 0.432317644 , 0.08325469  , 2.73328924  , -1.56401289 , -1.35797381 , 0.68        , 3           , 50          , 0           , 0
-9.806132   , -0.0175102428, 0.04665643  , 0.00224066945, 0.002809983 , 0.0004725933, 0.375084251 , 0.432317644 , 0.08325469  , 2.73328924  , -1.56404817 , -1.3579514  , 0.69        , 3           , 11          , 0.020620171 , 0.02062017
-9.81645    , -0.05233245 , 0.06377566  , -0.0009023038, 0.00175324176, 0.000611195166, 0.374477565 , 0.432856947 , 0.08338951  , 2.73328924  , -1.56434619 , -1.35796022 , 0.7         , 3           , 12          , 0.0356524661, 0
-9.826232   , -0.04003788 , 0.0606657527, 0.0005073826, 0.000734486734, 0.000748236664, 0.3735338   , 0.432317644 , 0.08338951  , 2.73328924  , -1.56434619 , -1.3579551  , 0.71        , 3           , 50          , 0           , 0
-9.813368   , -0.0108194211, 0.0593145341, 0.000931151968, 0.0007263129, 0.00118005287, 0.375488728 , 0.432991773 , 0.08338951  , 2.73328924  , -1.56435549 , -1.35794592 , 0.72        , 3           , 11          , 0.017052656 , 0.0170526616
-9.8112     , -0.0127491076, 0.06924944  , 0.0006669332, 0.00174374727, -9.47911758E-05, 0.3731293   , 0.432385057 , 0.08359175  , 2.73328924  , -1.56440187 , -1.35793912 , 0.73        , 3           , 12          , 0.0356524661, 0
-9.809152   , -0.0406764634, 0.064429    , 0.00280807377, 0.00215578335, -0.0005049265, 0.3731293   , 0.432385057 , 0.08359175  , 2.73328924  , -1.56439257 , -1.357911   , 0.74        , 3           , 50          , 0           , 0
-9.805798   , -0.0377226658, 0.0387474224, 0.005061866 , 0.000410631968, -0.000230096543, 0.374477565 , 0.432385057 , 0.0831872746, 2.73328924  , -1.56442988 , -1.35786021 , 0.75        , 3           , 11          , 0.017052656 , 0.0170526616
-9.827021   , -0.0380764157, 0.0466786548, 0.003912556 , -0.0005808366, -0.0002515575, 0.374747217 , 0.432856947 , 0.08359175  , 2.73328924  , -1.56439257 , -1.35782111 , 0.76        , 3           , 12          , 0.0356524661, 0
-9.82877    , -0.009047032, 0.07455094  , -0.001326893, 0.00119593553, -0.000687460066, 0.3731293   , 0.43245247  , 0.083456926 , 2.73328924  , -1.56439257 , -1.35783434 , 0.77        , 3           , 50          , 0           , 0
-9.806078   , -0.0372611843, 0.07985427  , -0.0013187757, 0.00148891343, -0.00139869633, 0.37575838  , 0.4326547   , 0.08338951  , 2.73328924  , -1.56440187 , -1.35784745 , 0.78        , 3           , 11          , 0.017052656 , 0.0170526616
-9.818299   , -0.0205365457, 0.0442511365, 0.0017912162, 0.000726602448, 0.000183619079, 0.3736686   , 0.4325873   , 0.08338951  , 2.73328924  , -1.56442988 , -1.35782957 , 0.79        , 3           , 12          , 0.0356524661, 0
-9.811125   , -0.0104074795, 0.061146684 , 0.002769537 , 0.0001542041, 0.00176141586, 0.3736686   , 0.4325873   , 0.08338951  , 2.73328924  , -1.56451476 , -1.3578018  , 0.8         , 3           , 50          , 0           , 0
-9.793821   , -0.029202342, 0.07554307  , 0.00163494423, 2.88718184E-05, 0.00103706541, 0.3742079   , 0.432250232 , 0.0831872746, 2.73328924  , -1.56452417 , -1.35778546 , 0.81        , 3           , 11          , 0.0158395357, 0.0158395283
-9.839784   , -0.04755665 , 0.0577441826, 9.37688E-05 , 0.00148661889, 4.693544E-05, 0.3752865   , 0.432856947 , 0.08352434  , 2.73328924  , -1.56454325 , -1.35778451 , 0.82        , 3           , 12          , 0.0360074   , 0
-9.804579   , -0.0472857  , 0.0463270247, -0.000760237745, 0.00135327794, -0.00010337351, 0.3731293   , 0.43245247  , 0.08338951  , 2.73328924  , -1.56456232 , -1.35779214 , 0.83        , 3           , 50          , 0           , 0
-9.813604   , -0.02542745 , 0.0758563951, 0.0006667795, 0.00134522852, -0.0008102165, 0.375556141 , 0.4326547   , 0.08325469  , 2.73328924  , -1.56456232 , -1.35778546 , 0.84        , 3           , 11          , 0.0158395357, 0.0158395283
-9.811289   , -0.0284630675, 0.06274355  , 0.00121736526, 0.000327463931, 0.000180177 , 0.375556141 , 0.4326547   , 0.08325469  , 2.73328924  , -1.56456232 , -1.3577733  , 0.85        , 3           , 12          , 0.0360074   , 0
-9.812254   , -0.03434119 , 0.06492529  , -0.00047731516, 0.00163056911, 0.000617923448, 0.374005675 , 0.4325873   , 0.083456926 , 2.73328924  , -1.56456232 , -1.35777807 , 0.86        , 3           , 50          , 0           , 0
-9.808573   , -0.0387025736, 0.0481961444, 0.000242865543, 0.00191760249, -0.000232111561, 0.374005675 , 0.432519883 , 0.08311986  , 2.73328924  , -1.56458151 , -1.35777557 , 0.87        , 3           , 11          , 0.0158395357, 0.0158395283
-9.793778   , -0.0371492878, 0.0596424676, 0.00218925159, -0.00140724354, 0.0007334606, 0.3752865   , 0.432789534 , 0.08372658  , 2.73328924  , -1.56458151 , -1.35775375 , 0.88        , 3           , 12          , 0.0360074   , 0
-9.813549   , -0.0346883945, 0.0563272126, 0.0041767545, -0.00157332 , 0.0010295317, 0.373264134 , 0.432385057 , 0.08352434  , 2.73328924  , -1.56460071 , -1.35771191 , 0.89        , 3           , 50          , 0           , 0
-9.81545448 , -0.0352784619, 0.0707570538, 0.0032020756, 1.70067779E-05, 0.000585357659, 0.375016838 , 0.432250232 , 0.08305245  , 2.73328924  , -1.56454325 , -1.35768008 , 0.9         , 3           , 11          , 0.0157401767, 0.0157401636
-9.797312   , -0.016982004, 0.07429694  , -0.000178336777, 0.00249400362, -0.000115138086, 0.375016838 , 0.432250232 , 0.08305245  , 2.73328924  , -1.56458151 , -1.35768187 , 0.91        , 3           , 12          , 0.03641114  , 0
-9.81313    , -0.0218337961, 0.07680562  , -0.00205250015, 0.0006449027, 0.0004189248, 0.374544978 , 0.432991773 , 0.083456926 , 2.73328924  , -1.56456232 , -1.35770237 , 0.92        , 3           , 50          , 0           , 0
-9.806763   , -0.0275762547, 0.06053694  , -0.000948848, -0.001669527, 0.00153704628, 0.3735338   , 0.432317644 , 0.0833221   , 2.73328924  , -1.56455278 , -1.35771191 , 0.93        , 3           , 11          , 0.0157401767, 0.0157401636
-9.798634   , -0.0351767242, 0.04787655  , 0.00150203577, 0.0006075028, 0.0005834244, 0.37575838  , 0.432722121 , 0.083456926 , 2.73328924  , -1.56456232 , -1.35769689 , 0.94        , 3           , 12          , 0.03641114  , 0
-9.811082   , -0.0337366238, 0.09159295  , 0.00294679333, 0.00189289916, -0.0005338838, 0.373466372 , 0.432385057 , 0.0833221   , 2.73328924  , -1.56458151 , -1.35766745 , 0.95        , 3           , 50          , 0           , 0
-9.812704   , -0.0138617381, 0.0900006741, 0.00134854275, -0.0005348094, 0.0002797095, 0.373466372 , 0.432385057 , 0.0833221   , 2.73328924  , -1.56460071 , -1.35765386 , 0.96        , 3           , 11          , 0.0157401767, 0.0157401636
-9.830748   , -0.03334155 , 0.07063877  , 0.000484359422, -0.00138715783, 0.0004051307, 0.374410152 , 0.43245247  , 0.08311986  , 2.73328924  , -1.56455278 , -1.35764909 , 0.97        , 3           , 12          , 0.03641114  , 0
-9.807621   , -0.0243878867, 0.05830738  , 0.00250693341, 0.000750916835, -0.0005531481, 0.374882042 , 0.432722121 , 0.08352434  , 2.73328924  , -1.564591   , -1.35762393 , 0.98        , 3           , 50          , 0           , 0
-9.792786   , -0.0272226781, 0.0584110729, 0.00363218  , -0.000264948467, -0.0004178199, 0.373264134 , 0.432519883 , 0.083456926 , 2.73328924  , -1.56456232 , -1.35758758 , 0.99        , 3           , 11          , 0.0157401767, 0.0157401636
-9.804142   , -0.0197109077, 0.08188142  , 0.00318343122, -0.00185805792, 0.0001067238, 0.375690967 , 0.432722121 , 0.08325469  , 2.73328924  , -1.56448638 , -1.35755587 , 1           , 3           , 12          , 0.03686169  , 0
-9.792849   , -0.03622144 , 0.05649987  , 0.004050095 , -0.00128461013, -0.000881362939, 0.375690967 , 0.432722121 , 0.08325469  , 2.73328924  , -1.56448638 , -1.35751545 , 1.01        , 3           , 50          , 0           , 0
-9.815072   , -0.0358300619, 0.07978808  , 0.00292457221, -0.000128014741, -0.000728440355, 0.3736686   , 0.4326547   , 0.083456926 , 2.73328924  , -1.56446743 , -1.35748613 , 1.02        , 3           , 11          , 0.0155721726, 0.0155721605
-9.825812   , -0.03252158 , 0.07430718  , 5.59647124E-05, -0.00154225237, 0.000378214027, 0.373938262 , 0.432317644 , 0.08311986  , 2.73328924  , -1.56446743 , -1.35748565 , 1.03        , 3           , 12          , 0.03686169  , 0
-9.821941   , -0.0129994731, 0.05921052  , 0.00147734536, -0.0021221803, -0.00048005805, 0.375016838 , 0.43292436  , 0.08352434  , 2.73328924  , -1.56444871 , -1.35747087 , 1.04        , 3           , 50          , 0           , 0
-9.827813   , -0.00407555746, 0.07281032  , 0.00190826866, -0.00183865568, -0.0006163964, 0.37292707  , 0.432385057 , 0.08338951  , 2.73328924  , -1.56442988 , -1.35745192 , 1.05        , 3           , 11          , 0.0155721726, 0.0155721605
-9.821688   , -0.0271024313, 0.0703424141, 0.00247604121, -0.00128151476, 0.0005400334, 0.375151664 , 0.432519883 , 0.08305245  , 2.73328924  , -1.56441116 , -1.35742712 , 1.06        , 3           , 12          , 0.03686169  , 0
-9.823526   , -0.02269383 , 0.08121703  , 0.004466977 , -0.000737542, 0.00156194821, 0.375151664 , 0.432519883 , 0.08305245  , 2.73328924  , -1.56439257 , -1.35738254 , 1.07        , 3           , 50          , 0           , 0
-9.809801   , -0.022923626, 0.04972205  , 0.00276226364, -0.000717644754, 0.00126550393, 0.3741405   , 0.432789534 , 0.0833221   , 2.73328924  , -1.56441116 , -1.35735488 , 1.08        , 3           , 11          , 0.0155721726, 0.0155721605
-9.806314   , -0.0315899439, 0.0559777953, 0.003358507 , 0.00157048891, 0.00115923688, 0.3736686   , 0.432385057 , 0.0831872746, 2.73328924  , -1.56442988 , -1.35732126 , 1.09        , 3           , 12          , 0.03686169  , 0
-9.824329   , -0.0247614812, 0.06447314  , 0.005493469 , 0.00156015181, 0.0008437237, 0.375421315 , 0.432722121 , 0.08338951  , 2.73328924  , -1.56442988 , -1.35726666 , 1.1         , 3           , 50          , 0           , 0
-9.801891   , -0.0250736251, 0.07551651  , 0.00362480944, -0.000140540491, 0.0008075454, 0.373331547 , 0.432385057 , 0.08338951  , 2.73328924  , -1.56442988 , -1.35723042 , 1.11        , 3           , 11          , 0.0146807544, 0.0146807469
-9.78387    , -0.02031402 , 0.07980242  , 0.004762292 , -1.13689566E-05, 0.00110264961, 0.373331547 , 0.432385057 , 0.08338951  , 2.73328924  , -1.5644393  , -1.35718286 , 1.12        , 3           , 12          , 0.03735698  , 0
-9.808416   , -0.01843117 , 0.05023834  , 0.004063296 , 0.000717422052, 0.000536472129, 0.3746124   , 0.432385057 , 0.08311986  , 2.73328924  , -1.56444871 , -1.35714221 , 1.13        , 3           , 50          , 0           , 0
-9.822874   , -0.0201625712, 0.0550540276, 0.002237536 , 0.002742259 , 0.0005545498, 0.37481463  , 0.432856947 , 0.08359175  , 2.73328924  , -1.56447685 , -1.3571198  , 1.14        , 3           , 11          , 0.0146807544, 0.0146807469
-9.807598   , -0.0234618764, 0.05605982  , 0.00339001324, 0.003596837 , -0.000141486089, 0.373331547 , 0.4325873   , 0.0833221   , 2.73328924  , -1.56450522 , -1.35708582 , 1.15        , 3           , 12          , 0.03735698  , 0
-9.808729   , -0.02158177 , 0.09175489  , 0.00267850352, 0.00332132075, -0.00057918916, 0.37575838  , 0.432722121 , 0.08325469  , 2.73328924  , -1.56453371 , -1.357059   , 1.16        , 3           , 50          , 0           , 0
-9.807807   , -0.038472414, 0.06808036  , 0.0026431554, 0.0011579   , 0.000963411469, 0.373466372 , 0.4326547   , 0.08325469  , 2.73328924  , -1.56454325 , -1.35703266 , 1.17        , 3           , 11          , 0.0146807544, 0.0146807469
-9.808575   , -0.02179074 , 0.06916922  , 0.0007955359, 0.00103723211, 0.0005209417, 0.373466372 , 0.4326547   , 0.08325469  , 2.73328924  , -1.56456232 , -1.35702467 , 1.18        , 3           , 12          , 0.03735698  , 0
-9.814528   , -0.0379191563, 0.06395969  , 0.00168144633, 0.003611615 , 0.000134397575, 0.3740731   , 0.432385057 , 0.08305245  , 2.73328924  , -1.56460071 , -1.35700786 , 1.19        , 3           , 50          , 0           , 0
-9.811444   , -0.0411658362, 0.0698225945, 0.00363026885, 0.000406083331, 0.0009191911, 0.375016838 , 0.4331266   , 0.0833221   , 2.73328924  , -1.56451476 , -1.35697174 , 1.2         , 3           , 11          , 0.0142285582, 0.0142285619
-9.79508    , -0.0286041815, 0.06289098  , 0.00146864238, -0.0018674375, 0.00115911651, 0.3730619   , 0.432385057 , 0.08338951  , 2.73328924  , -1.5644958  , -1.3569572  , 1.21        , 3           , 12          , 0.0378948748, 0
-9.801287   , -0.007036481, 0.07527856  , 0.00247202255, -0.00144384312, 0.000742127537, 0.375421315 , 0.4326547   , 0.08291762  , 2.73328924  , -1.56448638 , -1.3569324  , 1.22        , 3           , 50          , 0           , 0
-9.797275   , -0.003570965, 0.08529271  , 0.003210907 , 0.000137915777, -0.0006614546, 0.375421315 , 0.4326547   , 0.08291762  , 2.73328924  , -1.5644958  , -1.35690033 , 1.23        , 3           , 11          , 0.0142285582, 0.0142285619
-9.826957   , -0.0241805986, 0.05451841  , 0.000354403339, -0.0005547549, -0.000116694369, 0.373938262 , 0.4326547   , 0.08338951  , 2.73328924  , -1.56448638 , -1.35689688 , 1.24        , 3           , 12          , 0.0378948748, 0
-9.81755352 , -0.020335421, 0.06684499  , -0.000372377282, -0.00141494686, 0.000724993646, 0.373803437 , 0.432385057 , 0.08305245  , 2.73328924  , -1.56448638 , -1.35690057 , 1.25        , 3           , 50          , 0           , 0
-9.81176949 , -0.0120369308, 0.0873201638, 0.00223598629, 0.00243298453, 0.000224428921, 0.3753539   , 0.432856947 , 0.0831872746, 2.73328924  , -1.56448638 , -1.35687816 , 1.26        , 3           , 11          , 0.0142285582, 0.0142285619
-9.806601   , -0.0175353661, 0.0493619964, 0.00639267825, 0.00511486642, 0.0001458397, 0.3730619   , 0.432385057 , 0.08338951  , 2.73328924  , -1.56452417 , -1.35681415 , 1.27        , 3           , 12          , 0.0378948748, 0
-9.841301   , -0.0310809352, 0.0366908126, 0.00666886847, 0.004395529 , 0.000137119248, 0.375084251 , 0.432385057 , 0.08285021  , 2.73328924  , -1.564572   , -1.35674739 , 1.28        , 3           , 50          , 0           , 0
-9.821642   , -0.03816217 , 0.05034067  , 0.00237119687, 0.00157564122, -0.000216481028, 0.375084251 , 0.432385057 , 0.08285021  , 2.73328924  , -1.564591   , -1.35672367 , 1.29        , 3           , 11          , 0.0142285582, 0.0142285619
-9.811214   , -0.03146456 , 0.04825541  , -0.00222062925, -0.0018067  , -0.000180639821, 0.374410152 , 0.432789534 , 0.08325469  , 2.73328924  , -1.564591   , -1.35674608 , 1.3         , 3           , 12          , 0.03847322  , 0
-9.808672   , -0.03929864 , 0.06173917  , -0.00264068926, -0.00122920726, -0.000174862857, 0.3736686   , 0.43245247  , 0.08305245  , 2.73328924  , -1.56458151 , -1.35677254 , 1.31        , 3           , 50          , 0           , 0
-9.822172   , -0.03605372 , 0.06436263  , 0.00163580989, -0.000412814057, -0.000136641334, 0.375690967 , 0.432856947 , 0.08311986  , 2.73328924  , -1.56454325 , -1.35675609 , 1.32        , 3           , 11          , 0.0143872146, 0.0143872108
-9.805902   , -0.0427793972, 0.0477219559, 0.00233439635, -0.00142434484, -3.88320723E-06, 0.3736012   , 0.432519883 , 0.08305245  , 2.73328924  , -1.564572   , -1.35673273 , 1.33        , 3           , 12          , 0.03847322  , 0
-9.820274   , -0.030135043, 0.057673    , 0.00162177917, -0.00113694055, 0.000711416767, 0.3736012   , 0.432519883 , 0.08305245  , 2.73328924  , -1.56453371 , -1.35671639 , 1.34        , 3           , 50          , 0           , 0
-9.824472   , -0.0240919329, 0.08616082  , 0.00137941982, 0.00202599866, -0.000102879771, 0.374477565 , 0.432317644 , 0.08285021  , 2.73328924  , -1.56454325 , -1.35670269 , 1.35        , 3           , 11          , 0.0143872146, 0.0143872108
-9.79807949 , -0.004751322, 0.06991412  , -0.0004540365, 0.003052927 , -0.000671737362, 0.375016838 , 0.432856947 , 0.08311986  , 2.73328924  , -1.56460071 , -1.3567071  , 1.36        , 3           , 12          , 0.03847322  , 0
-9.794586   , -0.0316579938, 0.0529230163, -0.00320007978, -0.000646430359, -0.000599188555, 0.373331547 , 0.4326547   , 0.0831872746, 2.73328924  , -1.56456232 , -1.356739   , 1.37        , 3           , 50          , 0           , 0
-9.802669   , -0.0342251174, 0.0464953445, -0.00136002351, -0.00110020069, -2.19838057E-05, 0.37575838  , 0.432722121 , 0.08291762  , 2.73328924  , -1.56455278 , -1.35675263 , 1.38        , 3           , 11          , 0.0143872146, 0.0143872108
-9.803602   , -0.0320401676, 0.0537390821, 0.003192245 , -0.000298215047, 0.0013056891, 0.37575838  , 0.432722121 , 0.08291762  , 2.73328924  , -1.56454325 , -1.35672069 , 1.39        , 3           , 12          , 0.03847322  , 0
-9.795784   , -0.03052184 , 0.0321472138, 0.005625777 , 0.000279339554, -0.000165613164, 0.3741405   , 0.4325873   , 0.0829850361, 2.73328924  , -1.56454325 , -1.35666513 , 1.4         , 3           , 50          , 0           , 0
-9.817812   , -0.0280510169, 0.029714698 , 0.00720958738, 0.00170018163, -0.000564567745, 0.3740731   , 0.432250232 , 0.08285021  , 2.73328924  , -1.56455278 , -1.356593   , 1.41        , 3           , 11          , 0.0147325434, 0.0147325369
-9.806765   , -0.0195664056, 0.07056662  , 0.00350829051, 0.00159189769, -0.000302764733, 0.375219077 , 0.432856947 , 0.0831872746, 2.73328924  , -1.56456232 , -1.356558   , 1.42        , 3           , 12          , 0.03908986  , 0
-9.824465   , -0.03876859 , 0.06702038  , 0.00108821422, 0.00133116008, -0.0004645841, 0.3731293   , 0.432519883 , 0.08311986  , 2.73328924  , -1.56458151 , -1.35654688 , 1.43        , 3           , 50          , 0           , 0
-9.824881   , -0.03203496 , 0.07025613  , 0.002509451 , 0.00131543225, -0.000312935183, 0.3752865   , 0.432519883 , 0.0827153847, 2.73328924  , -1.564591   , -1.35652184 , 1.44        , 3           , 11          , 0.0147325434, 0.0147325369
-9.81215    , -0.0208285321, 0.0664373   , 0.00204758719, -0.00140785438, 0.000217174151, 0.3752865   , 0.432519883 , 0.0827153847, 2.73328924  , -1.56456232 , -1.35650134 , 1.45        , 3           , 12          , 0.03908986  , 0
-9.820274   , -0.0163360126, 0.07454492  , 0.003613922 , -0.000433517765, 0.0016720253, 0.374410152 , 0.432789534 , 0.08311986  , 2.73328924  , -1.56458151 , -1.35646522 , 1.46        , 3           , 50          , 0           , 0
-9.804607   , -0.032638073, 0.06817712  , 0.005220699 , 0.00256990851, 0.0005806151, 0.373736024 , 0.43245247  , 0.08291762  , 2.73328924  , -1.56460071 , -1.35641289 , 1.47        , 3           , 11          , 0.0147325434, 0.0147325369
-9.816278   , -0.0275858678, 0.0690315   , 0.00392078655, 0.0004399668, -0.0001738068, 0.375421315 , 0.43292436  , 0.08311986  , 2.73328924  , -1.56460071 , -1.35637367 , 1.48        , 3           , 12          , 0.03908986  , 0
-9.822646   , -0.0440983661, 0.0579417162, -0.000215828913, -0.0006631704, -0.00035842706, 0.373331547 , 0.4325873   , 0.0829850361, 2.73328924  , -1.56458151 , -1.35637581 , 1.49        , 3           , 50          , 0           , 0
-9.810444   , -0.04413648 , 0.0517297648, -0.00122620189, -0.00209116167, -0.000709251, 0.373331547 , 0.4325873   , 0.0829850361, 2.73328924  , -1.56452417 , -1.35638845 , 1.5         , 3           , 11          , 0.0138500938, 0.0138500929
-9.795034   , -0.0320953019, 0.0520104542, 0.000329414353, -0.00254204241, -0.000133759677, 0.3746798   , 0.432385057 , 0.0827828   , 2.73328924  , -1.56451476 , -1.35638523 , 1.51        , 3           , 12          , 0.0397426449, 0
-9.809939   , -0.02714146 , 0.06457799  , -8.92725E-05, -0.00168053014, 0.000162354831, 0.3746124   , 0.432991773 , 0.08311986  , 2.73328924  , -1.5644958  , -1.35638607 , 1.52        , 3           , 50          , 0           , 0
-9.813083   , -0.0213151518, 0.07048833  , -0.000245101954, -0.00310814171, -0.000288615585, 0.3736686   , 0.432385057 , 0.0829850361, 2.73328924  , -1.56446743 , -1.35638845 , 1.53        , 3           , 11          , 0.0138500938, 0.0138500929
-9.80761    , -0.0163586829, 0.0665306449, -0.00123610161, -0.00295089884, -0.000721771736, 0.375623554 , 0.432722121 , 0.08311986  , 2.73328924  , -1.56444871 , -1.35640073 , 1.54        , 3           , 12          , 0.0397426449, 0
-9.784675   , -0.02728357 , 0.0575815849, -0.00191544206, 6.156661E-05, -0.000252987054, 0.373736024 , 0.4326547   , 0.0829850361, 2.73328924  , -1.56444871 , -1.35641992 , 1.55        , 3           , 50          , 0           , 0
-9.805475   , -0.0370328426, 0.05818116  , 0.000235730666, 0.00175680965, 7.106864E-05, 0.373736024 , 0.4326547   , 0.0829850361, 2.73328924  , -1.5644393  , -1.35641742 , 1.56        , 3           , 11          , 0.0138500938, 0.0138500929
-9.83109    , -0.0167025067, 0.07534461  , 0.002329021 , -0.0019865518, -0.000399582874, 0.3742079   , 0.432250232 , 0.0827153847, 2.73328924  , -1.56442988 , -1.35639429 , 1.57        , 3           , 12          , 0.0397426449, 0
-9.80155    , -0.0350361764, 0.0790182054, 0.00289941835, -0.00227251113, -0.00111573969, 0.375151664 , 0.4331266   , 0.08311986  , 2.73328924  , -1.56441116 , -1.3563652  , 1.58        , 3           , 50          , 0           , 0
-9.787633   , -0.0418970957, 0.07680853  , 0.00165903824, 0.00117944146, -0.00107336766, 0.373196721 , 0.432519883 , 0.08305245  , 2.73328924  , -1.56441116 , -1.35634863 , 1.59        , 3           , 11          , 0.0138500938, 0.0138500929
-9.818093   , -0.02313855 , 0.076293245 , 0.000224682823, 0.000791928 , 0.000134006041, 0.375556141 , 0.432722121 , 0.0829850361, 2.73328924  , -1.56418192 , -1.35634685 , 1.6         , 3           , 12          , 0.0404295065, 0
-9.82803249 , -0.0351251438, 0.06657793  , 0.00205222564, -0.000666149, 0.000839685556, 0.375556141 , 0.432722121 , 0.0829850361, 2.73328924  , -1.564173   , -1.35632634 , 1.61        , 3           , 50          , 0           , 0
-9.81036    , -0.0431185253, 0.040901646 , 0.00433132239, -0.000543416943, 0.0005693155, 0.37434274  , 0.4326547   , 0.08285021  , 2.73328924  , -1.564191   , -1.35628307 , 1.62        , 3           , 11          , 0.0142747425, 0.0142747378
-9.812034   , -0.0179779325, 0.05292047  , 0.00390218175, -0.0002601819, 0.00142941088, 0.37387085  , 0.43245247  , 0.0827153847, 2.73328924  , -1.5642     , -1.35624409 , 1.63        , 3           , 12          , 0.0404295065, 0
-9.796406   , -0.0236566477, 0.06519437  , 0.003660049 , -0.00304768234, 0.000886646856, 0.3753539   , 0.432856947 , 0.08305245  , 2.73328924  , -1.564155   , -1.35620761 , 1.64        , 3           , 50          , 0           , 0
-9.818863   , -0.0233783871, 0.057312265 , -0.00200797524, -0.002256805, -0.0009972531, 0.37292707  , 0.432317644 , 0.08291762  , 2.73328924  , -1.564155   , -1.35622752 , 1.65        , 3           , 11          , 0.0142747425, 0.0142747378
-9.8312     , -0.0435778126, 0.0583207533, -0.00104511424, 0.00103010377, -0.00101523008, 0.375219077 , 0.432519883 , 0.0827153847, 2.73328924  , -1.5641371  , -1.356238   , 1.66        , 3           , 12          , 0.0404295065, 0
-9.838789   , -0.0376252  , 0.05606119  , 0.000390351983, 0.00237370725, -0.000629133836, 0.375219077 , 0.432519883 , 0.0827153847, 2.73328924  , -1.56418192 , -1.356234   , 1.67        , 3           , 50          , 0           , 0
-9.84361649 , -0.02492769 , 0.0534532033, 7.75793742E-05, 0.0005752391, 0.000487724261, 0.37434274  , 0.432856947 , 0.08311986  , 2.73328924  , -1.564155   , -1.35623312 , 1.68        , 3           , 11          , 0.0142747425, 0.0142747378
-9.817997   , -0.0114198457, 0.07688107  , 0.00186674041, 0.00163057086, 0.0006571658, 0.373736024 , 0.432519883 , 0.0829850361, 2.73328924  , -1.564191   , -1.3562144  , 1.69        , 3           , 12          , 0.0404295065, 0
-9.805525   , -0.0362181328, 0.06632059  , -4.43192221E-05, 0.00216861861, 0.000421445584, 0.375488728 , 0.432789534 , 0.08291762  , 2.73328924  , -1.564155   , -1.35621464 , 1.7         , 3           , 50          , 0           , 0
-9.805762   , -0.0118507911, 0.0652445853, 0.00358174229, 0.00191940111, 0.000153997215, 0.373331547 , 0.4326547   , 0.08305245  , 2.73328924  , -1.564173   , -1.35617888 , 1.71        , 3           , 11          , 0.014347069 , 0.0143470746
-9.812654   , -0.0275833663, 0.06590301  , 0.003778019 , 0.000765798264, 0.0007109161, 0.373331547 , 0.4326547   , 0.08305245  , 2.73328924  , -1.56418192 , -1.35614109 , 1.72        , 3           , 12          , 0.04114838  , 0
-9.813814   , -0.0515654646, 0.0741977   , 0.00226593274, -0.0002316564, 0.00176042854, 0.37434274  , 0.432317644 , 0.08264797  , 2.73328924  , -1.564191   , -1.35611856 , 1.73        , 3           , 50          , 0           , 0
-9.8349905  , -0.041611284, 0.08812035  , -0.0006481982, -0.000411853078, 0.00116740807, 0.375016838 , 0.432991773 , 0.0829850361, 2.73328924  , -1.5642     , -1.356125   , 1.74        , 3           , 11          , 0.014347069 , 0.0143470746
-9.821972   , -0.0174988527, 0.0582549162, 0.000200653769, -0.000849750941, 0.00109474687, 0.3731293   , 0.43245247  , 0.08285021  , 2.73328924  , -1.56418192 , -1.356123   , 1.75        , 3           , 12          , 0.04114838  , 0
-9.83233    , -0.0254233759, 0.0485826433, 0.004208123 , 0.000483843 , -0.000292261364, 0.375421315 , 0.432789534 , 0.08285021  , 2.73328924  , -1.564191   , -1.35608089 , 1.76        , 3           , 50          , 0           , 0
-9.831495   , -0.018410271, 0.06673901  , 0.001308571 , 0.00124014774, -0.0014440458, 0.373803437 , 0.432519883 , 0.08285021  , 2.73328924  , -1.5642     , -1.35606778 , 1.77        , 3           , 11          , 0.014347069 , 0.0143470746
-9.794778   , -0.04886499 , 0.05949805  , -0.000252133585, 0.00133152469, -0.001881672, 0.373803437 , 0.432519883 , 0.08285021  , 2.73328924  , -1.5642     , -1.35607016 , 1.78        , 3           , 12          , 0.04114838  , 0
-9.810715   , -0.04385674 , 0.0259839911, 0.00205954746, 0.00453114323, -0.00167793059, 0.373938262 , 0.43245247  , 0.0825131461, 2.73328924  , -1.56423628 , -1.35604942 , 1.79        , 3           , 50          , 0           , 0
-9.813028   , -0.0385907851, 0.04138106  , 0.00387501717, 0.00251061679, -0.0006305306, 0.375151664 , 0.432991773 , 0.0829850361, 2.73328924  , -1.56444871 , -1.35601187 , 1.8         , 3           , 11          , 0.0147103872, 0.0147103975
-9.819831   , -0.0390506238, 0.047636915 , 0.00528429449, 0.00120912213, -0.000926908629, 0.373196721 , 0.432519883 , 0.0827828   , 2.73328924  , -1.56444871 , -1.355959   , 1.81        , 3           , 12          , 0.0418973   , 0
-9.811469   , 0.0013345062, 0.05992398  , 0.00387008954, -0.004011061, -0.0005819682, 0.3753539   , 0.4325873   , 0.0827153847, 2.73328924  , -1.56441116 , -1.35592031 , 1.82        , 3           , 50          , 0           , 0
-9.82049751 , 0.004491833 , 0.0671044961, 0.00141093961, -0.00140656438, -0.0005593987, 0.3753539   , 0.4325873   , 0.0827153847, 2.73328924  , -1.56439257 , -1.35590625 , 1.83        , 3           , 11          , 0.0147103872, 0.0147103975
-9.80575752 , -0.0154047972, 0.0602349751, 0.00331530068, -0.00257558539, -0.000206822311, 0.374275327 , 0.432991773 , 0.08291762  , 2.73328924  , -1.564374   , -1.35587323 , 1.84        , 3           , 12          , 0.0418973   , 0
-9.820561   , -0.0356687047, 0.02734302  , 0.00356045645, 0.00063922425, 0.000628366 , 0.373803437 , 0.4325873   , 0.08258056  , 2.73328924  , -1.564374   , -1.35583758 , 1.85        , 3           , 50          , 0           , 0
-9.8078     , -0.05671277 , 0.04483351  , 0.00442347163, 0.00134892273, 0.000429317035, 0.375488728 , 0.432789534 , 0.08285021  , 2.73328924  , -1.56442058 , -1.35579336 , 1.86        , 3           , 11          , 0.0147103872, 0.0147103975
-9.807293   , -0.030364871, 0.06863037  , 0.00265369425, 0.002224161 , 0.000717292831, 0.373264134 , 0.432385057 , 0.08285021  , 2.73328924  , -1.56442988 , -1.35576677 , 1.87        , 3           , 12          , 0.0418973   , 0
-9.812997   , -0.0140619483, 0.0669593   , 0.00023953167, 0.002394572 , 0.0004186518, 0.373264134 , 0.432385057 , 0.08285021  , 2.73328924  , -1.564458   , -1.35576439 , 1.88        , 3           , 50          , 0           , 0
-9.809724   , 0.007908216 , 0.07627686  , 0.00348887057, 0.000145471815, -0.000166317055, 0.37481463  , 0.4325873   , 0.08264797  , 2.73328924  , -1.56446743 , -1.35572946 , 1.89        , 3           , 11          , 0.0147103872, 0.0147103975
-9.808688   , -0.0148423761, 0.09409152  , 0.00201538438, 0.00169298227, 0.000119821249, 0.374747217 , 0.432991773 , 0.08311986  , 2.73328924  , -1.5644393  , -1.3557086  , 1.9         , 3           , 12          , 0.0426743664, 0
-9.805514   , -0.04777716 , 0.0508296825, 0.00285754772, 0.006562    , -0.000376844866, 0.3735338   , 0.43245247  , 0.0827153847, 2.73328924  , -1.56450522 , -1.35568    , 1.91        , 3           , 50          , 0           , 0
-9.798584   , -0.03154045 , 0.04520881  , 0.004012378 , 0.00210390333, -5.0067E-06 , 0.375690967 , 0.432856947 , 0.08305245  , 2.73328924  , -1.56452417 , -1.35563982 , 1.92        , 3           , 11          , 0.0147927888, 0.0147927916
-9.821381   , -0.01951052 , 0.0352007821, -0.0007318264, -0.002149025, 0.000118742304, 0.373736024 , 0.43245247  , 0.0829850361, 2.73328924  , -1.56450522 , -1.35564721 , 1.93        , 3           , 12          , 0.0426743664, 0
-9.827008   , -0.0153560359, 0.07268753  , 0.000175886758, -0.00274501182, 0.00161832466, 0.373736024 , 0.43245247  , 0.0829850361, 2.73328924  , -1.56447685 , -1.35564542 , 1.94        , 3           , 50          , 0           , 0
-9.821984   , -0.009057445, 0.0700962842, 0.00191340048, -0.000534322462, 0.00087399903, 0.374410152 , 0.432519883 , 0.08258056  , 2.73328924  , -1.56446743 , -1.35562623 , 1.95        , 3           , 11          , 0.0147927888, 0.0147927916
-9.838813   , -0.0341002122, 0.06378046  , 0.0009034205, -0.0015310751, 0.00128264085, 0.37481463  , 0.432856947 , 0.08291762  , 2.73328924  , -1.56446743 , -1.35561728 , 1.96        , 3           , 12          , 0.0426743664, 0
-9.819565   , -0.04557045 , 0.06653522  , -0.00250662561, -0.00142155529, 0.0009054185, 0.373196721 , 0.4326547   , 0.0827828   , 2.73328924  , -1.56444871 , -1.35564232 , 1.97        , 3           , 50          , 0           , 0
-9.796982   , -0.03987083 , 0.0636468455, -0.0007140083, -0.00163151417, -0.001662479, 0.375556141 , 0.4326547   , 0.0827153847, 2.73328924  , -1.5644393  , -1.35564959 , 1.98        , 3           , 11          , 0.0147927888, 0.0147927916
-9.807073   , -0.0108888242, 0.06072669  , -0.00106838427, -0.00197908771, -0.002456789, 0.375556141 , 0.4326547   , 0.0827153847, 2.73328924  , -1.56440187 , -1.3556602  , 1.99        , 3           , 12          , 0.0426743664, 0
-9.824522   , -0.0141254338, 0.04020268  , -0.0006590437, -0.00295027252, -0.00129208073, 0.373938262 , 0.432789534 , 0.0827828   , 2.73328924  , -1.56442988 , -1.35566628 , 2           , 3           , 50          , 0           , 0
-9.805438   , -0.0258472934, 0.06644108  , -0.00145171315, -0.00302676857, 0.000132984118, 0.373938262 , 0.43245247  , 0.08264797  , 2.73328924  , -1.56438327 , -1.35568082 , 2.01        , 3           , 11          , 0.0148121985, 0.0148122031
-9.809225   , -0.0505818874, 0.06295893  , -9.745591E-05, -0.00317738485, -0.000576374063, 0.375556141 , 0.4331266   , 0.08285021  , 2.73328924  , -1.56435549 , -1.35568178 , 2.02        , 3           , 12          , 0.04347776  , 0
-9.812733   , -0.0432828  , 0.0580422953, 0.00242679613, 0.000160156647, -1.15557787E-05, 0.3730619   , 0.432385057 , 0.08264797  , 2.73328924  , -1.564374   , -1.35565758 , 2.03        , 3           , 50          , 0           , 0
-9.83153    , -0.03849296 , 0.04708407  , 8.999409E-05, 0.00132583361, 0.0004917899, 0.3753539   , 0.4325873   , 0.0825131461, 2.73328924  , -1.564374   , -1.35565674 , 2.04        , 3           , 11          , 0.0148121985, 0.0148122031
-9.820027   , -0.0384633429, 0.07700196  , 0.000161037926, 0.00111337611, 0.000131383087, 0.3753539   , 0.4325873   , 0.0825131461, 2.73328924  , -1.56438327 , -1.35565519 , 2.05        , 3           , 12          , 0.04347776  , 0
-9.816657   , -0.0265833661, 0.0600057133, 0.00285882177, 0.0003745959, -0.0004351015, 0.374544978 , 0.432722121 , 0.08264797  , 2.73328924  , -1.56439257 , -1.35562658 , 2.06        , 3           , 50          , 0           , 0
-9.828194   , -0.00129362172, 0.06606354  , 0.00126441917, -0.0015541584, 0.0006719595, 0.37387085  , 0.4326547   , 0.08264797  , 2.73328924  , -1.56439257 , -1.35561407 , 2.07        , 3           , 11          , 0.0148121985, 0.0148122031
-9.82290649 , -0.0277795829, 0.0504488759, 0.00220474042, -0.0010485989, -0.0008175293, 0.3758258   , 0.432789534 , 0.08291762  , 2.73328924  , -1.564374   , -1.35559189 , 2.08        , 3           , 12          , 0.04347776  , 0
-9.817788   , -0.0585317574, 0.0542062446, 0.004052143 , -8.163109E-05, 0.00113982207, 0.373736024 , 0.432722121 , 0.0827828   , 2.73328924  , -1.564374   , -1.35555148 , 2.09        , 3           , 50          , 0           , 0
-9.785534   , -0.0174187124, 0.06355958  , 0.00509838527, -0.00179937633, 0.00101804419, 0.373736024 , 0.432722121 , 0.0827828   , 2.73328924  , -1.56430018 , -1.355501   , 2.1         , 3           , 11          , 0.0145810954, 0.0145811019
-9.795916   , -0.0187054537, 0.0657077   , 0.00404500728, -0.00092432386, 0.000523352646, 0.3746798   , 0.432385057 , 0.08258056  , 2.73328924  , -1.564291   , -1.35546064 , 2.11        , 3           , 12          , 0.0443057232, 0
-9.80779648 , -0.04468831 , 0.0589748323, 0.009386773 , 0.0005848834, 0.002009253 , 0.375219077 , 0.432856947 , 0.0827828   , 2.73328924  , -1.56430018 , -1.35536683 , 2.12        , 3           , 50          , 0           , 0
-9.809246   , -0.0426010638, 0.0756982639, 0.0006469929, 0.000188862672, 8.919659E-05, 0.3736012   , 0.432519883 , 0.08264797  , 2.73328924  , -1.56430018 , -1.35536027 , 2.13        , 3           , 11          , 0.0145810954, 0.0145811019
-9.81819    , -0.004788716, 0.0475957729, -0.000574727834, -0.0013680032, -0.000727990759, 0.375960618 , 0.432856947 , 0.0825131461, 2.73328924  , -1.56428182 , -1.35536611 , 2.14        , 3           , 12          , 0.0443057232, 0
-9.806134   , -0.009946464, 0.05622928  , 0.000383271952, -0.00439103646, -0.000336570025, 0.374005675 , 0.432856947 , 0.08258056  , 2.73328924  , -1.56424534 , -1.35536242 , 2.15        , 3           , 50          , 0           , 0
-9.806813   , -0.0298791714, 0.0650268346, -0.00102690235, -0.002879087, 0.000463725126, 0.374005675 , 0.432856947 , 0.08258056  , 2.73328924  , -1.5642     , -1.35537267 , 2.16        , 3           , 11          , 0.0145810954, 0.0145811019
-9.825436   , -0.0491073765, 0.06463364  , 0.00151103758, 0.0011115761, 0.000107900771, 0.37434274  , 0.4325873   , 0.08244573  , 2.73328924  , -1.56424534 , -1.35535753 , 2.17        , 3           , 12          , 0.0443057232, 0
-9.838693   , -0.0183378682, 0.06577027  , -0.000286711584, -0.00122504355, -0.00101035449, 0.375219077 , 0.4331266   , 0.0827828   , 2.73328924  , -1.564209   , -1.35536051 , 2.18        , 3           , 50          , 0           , 0
-9.808956   , -0.01544994 , 0.0669804439, 6.58040444E-05, -0.0006682949, 0.000430954329, 0.373331547 , 0.432385057 , 0.0827153847, 2.73328924  , -1.564209   , -1.35535991 , 2.19        , 3           , 11          , 0.0145810954, 0.0145811019
-9.795653   , -0.0381370261, 0.06909938  , -0.000161866177, -0.0022807098, -3.70875132E-05, 0.375690967 , 0.432722121 , 0.0827153847, 2.73328924  , -1.564173   , -1.3553611  , 2.2         , 3           , 12          , 0.04515662  , 0
-9.80591    , -0.03299981 , 0.06093387  , 0.00408960646, -0.00347293029, 0.000258083281, 0.375690967 , 0.432722121 , 0.0827153847, 2.73328924  , -1.56411922 , -1.35532022 , 2.21        , 3           , 50          , 0           , 0
-9.794502   , -0.0248508584, 0.0489371158, 0.000683547056, -0.00293482188, 3.02032149E-05, 0.3746124   , 0.432856947 , 0.0825131461, 2.73328924  , -1.56411028 , -1.3553133  , 2.22        , 3           , 11          , 0.0149109913, 0.0149110034
-9.794702   , -0.00977349747, 0.0310415756, -0.000677459, 0.00181714084, -0.000911074341, 0.3741405   , 0.4325873   , 0.08237832  , 2.73328924  , -1.56411922 , -1.35532    , 2.23        , 3           , 12          , 0.04515662  , 0
-9.81281    , -0.0155558838, 0.0380353928, -0.000849727832, -0.000337796577, -0.000156281632, 0.375556141 , 0.43292436  , 0.0827828   , 2.73328924  , -1.56411028 , -1.35532844 , 2.24        , 3           , 50          , 0           , 0
-9.813304   , -0.0492519476, 0.06835708  , 0.0046051885, -0.00246664183, -0.000654344, 0.37339896  , 0.432519883 , 0.08264797  , 2.73328924  , -1.56408358 , -1.35528243 , 2.25        , 3           , 11          , 0.0149109913, 0.0149110034
-9.8286     , -0.0419767424, 0.0750758   , 0.00371609512, 0.0006938405, -0.00047092163, 0.375151664 , 0.432519883 , 0.08237832  , 2.73328924  , -1.56410134 , -1.35524523 , 2.26        , 3           , 12          , 0.04515662  , 0
-9.828763   , -0.025954023, 0.05312625  , 0.000212797124, -0.0007068568, -0.000155073329, 0.375151664 , 0.432519883 , 0.08237832  , 2.73328924  , -1.56408358 , -1.35524309 , 2.27        , 3           , 50          , 0           , 0
-9.796301   , -0.02171755 , 0.0525702834, -0.000650705537, -0.000923360232, 0.0009813124, 0.374747217 , 0.432856947 , 0.08285021  , 2.73328924  , -1.56406581 , -1.35524952 , 2.28        , 3           , 11          , 0.0149109913, 0.0149110034
-9.802537   , -0.01132087 , 0.0553431   , 0.00104548619, -0.00201281044, 0.000689778 , 0.3736012   , 0.4325873   , 0.08244573  , 2.73328924  , -1.56404817 , -1.35523915 , 2.29        , 3           , 12          , 0.04515662  , 0
-9.816867   , -0.00261854124, 0.05440838  , -0.000967656437, -0.004277567, 0.000167929713, 0.375690967 , 0.43292436  , 0.0827153847, 2.73328924  , -1.56430018 , -1.35524762 , 2.3         , 3           , 50          , 0           , 0
-9.801238   , -0.0167531781, 0.0561957434, -5.95377169E-05, 1.949029E-05, -0.0005512782, 0.373938262 , 0.4326547   , 0.08258056  , 2.73328924  , -1.56426358 , -1.35524809 , 2.31        , 3           , 11          , 0.0148296729, 0.0148296915
-9.816874   , -0.02043217 , 0.033424817 , 0.0017804401, 0.00034165493, 0.001396683 , 0.373938262 , 0.4326547   , 0.08258056  , 2.73328924  , -1.56427264 , -1.35523033 , 2.32        , 3           , 12          , 0.0460288934, 0
-9.787797   , -0.0352224223, 0.04345875  , 0.00175479276, -0.00159723312, 0.00186929852, 0.3746124   , 0.43245247  , 0.08231091  , 2.73328924  , -1.56430018 , -1.35521281 , 2.33        , 3           , 50          , 0           , 0
-9.790034   , -0.027614845, 0.0507530756, 0.00528917043, 0.002172861 , 0.001015554 , 0.375084251 , 0.43292436  , 0.0827828   , 2.73328924  , -1.56431854 , -1.35515988 , 2.34        , 3           , 11          , 0.0148296729, 0.0148296915
-9.810903   , -0.0383578762, 0.05992274  , 0.00245741638, 0.00362953357, 0.00159161573, 0.373466372 , 0.4325873   , 0.0827153847, 2.73328924  , -1.56431854 , -1.3551352  , 2.35        , 3           , 12          , 0.0460288934, 0
-9.808255   , -0.0322332345, 0.07537534  , 0.001951956 , 0.00214284752, 0.000135886192, 0.376028031 , 0.4326547   , 0.0825131461, 2.73328924  , -1.56438327 , -1.35511577 , 2.36        , 3           , 50          , 0           , 0
-9.832945   , -0.0381367467, 0.0570124127, 0.000515875639, 0.000375134376, -0.0009003393, 0.376028031 , 0.4326547   , 0.0825131461, 2.73328924  , -1.56434619 , -1.35511053 , 2.37        , 3           , 11          , 0.0148296729, 0.0148296915
-9.81182    , -0.0414918549, 0.0585230477, -0.00027713133, -0.0002662014, -0.000413654721, 0.374275327 , 0.432789534 , 0.08258056  , 2.73328924  , -1.564374   , -1.35511327 , 2.38        , 3           , 12          , 0.0460288934, 0
-9.793287   , -0.03219324 , 0.059704192 , 0.00134767359, -0.00121419888, -0.000417366682, 0.374275327 , 0.432519883 , 0.08244573  , 2.73328924  , -1.56435549 , -1.35509968 , 2.39        , 3           , 50          , 0           , 0
-9.814341   , -0.0216042884, 0.0564709567, 0.00339491363, -0.00217253459, 7.015112E-05, 0.375488728 , 0.43292436  , 0.08264797  , 2.73328924  , -1.56424534 , -1.3550657  , 2.4         , 3           , 11          , 0.0135123041, 0.0135123236
-9.835987   , -0.02770461 , 0.0539429858, 0.003490159 , -0.0004480232, -0.0005482484, 0.373466372 , 0.4325873   , 0.08244573  , 2.73328924  , -1.56424534 , -1.35503078 , 2.41        , 3           , 12          , 0.04692106  , 0
-9.83309    , -0.0122908829, 0.0442102961, 0.00359125156, 0.00149590184, -0.00166430464, 0.375556141 , 0.432722121 , 0.08231091  , 2.73328924  , -1.5642544  , -1.35499477 , 2.42        , 3           , 50          , 0           , 0
-9.80175    , -0.0159539022, 0.0661375   , -0.0002144377, -0.0008428862, -0.000290618715, 0.375556141 , 0.432722121 , 0.08231091  , 2.73328924  , -1.56427264 , -1.35499692 , 2.43        , 3           , 11          , 0.0135123041, 0.0135123236
-9.82486    , -0.0262167286, 0.0743887052, 0.000431188615, -0.0002775094, -0.000135334543, 0.374882042 , 0.432856947 , 0.08264797  , 2.73328924  , -1.56424534 , -1.35499263 , 2.44        , 3           , 12          , 0.04692106  , 0
-9.816184   , -0.0158671588, 0.06961933  , 0.00237130164, 0.0014934655, -2.61435453E-05, 0.373938262 , 0.43245247  , 0.0822434947, 2.73328924  , -1.56426358 , -1.35496891 , 2.45        , 3           , 50          , 0           , 0
-9.797338   , -0.04328544 , 0.0459880941, 0.00279953983, 0.00191452063, 0.00048347385, 0.37575838  , 0.432991773 , 0.08264797  , 2.73328924  , -1.56430018 , -1.35494089 , 2.46        , 3           , 11          , 0.0135123041, 0.0135123236
-9.829576   , -0.0146832177, 0.054152254 , -0.00041477842, 0.0006580625, 0.000373876275, 0.37387085  , 0.4325873   , 0.08258056  , 2.73328924  , -1.56428182 , -1.35494506 , 2.47        , 3           , 12          , 0.04692106  , 0
-9.826516   , -0.0152970525, 0.06682072  , -0.000436770322, -0.00191091211, -0.0008083414, 0.37387085  , 0.4325873   , 0.08258056  , 2.73328924  , -1.56428182 , -1.35494936 , 2.48        , 3           , 50          , 0           , 0
-9.807773   , -0.029517198, 0.0740560442, 0.00119414693, -0.00179255591, 0.000133630281, 0.374747217 , 0.4325873   , 0.08217608  , 2.73328924  , -1.56426358 , -1.35493743 , 2.49        , 3           , 11          , 0.0135123041, 0.0135123236
-9.805014   , -0.0138703212, 0.0846509859, 0.004454795 , 0.00312938541, -0.000233330182, 0.375016838 , 0.433261424 , 0.08258056  , 2.73328924  , -1.5641371  , -1.35489261 , 2.5         , 3           , 12          , 0.0478317253, 0
-9.831182   , -0.0306418724, 0.07156934  , 0.00323588587, 0.00235229358, -0.000109007342, 0.3736686   , 0.432317644 , 0.0822434947, 2.73328924  , -1.564155   , -1.35486019 , 2.51        , 3           , 50          , 0           , 0
-9.818507   , -0.0319833867, 0.0603780746, 0.001186497 , -0.00186731922, 0.00124825921, 0.376028031 , 0.432991773 , 0.08244573  , 2.73328924  , -1.56412816 , -1.35484838 , 2.52        , 3           , 11          , 0.0130812814, 0.0130812963
-9.822843   , -0.00809457 , 0.06513086  , 0.003130193 , -0.000444330333, 0.000207577366, 0.3741405   , 0.432519883 , 0.08237832  , 2.73328924  , -1.564155   , -1.35481715 , 2.53        , 3           , 12          , 0.0478317253, 0
-9.8192215  , -0.00186647684, 0.07020467  , 0.00010614872, 0.00259453477, 0.000376062526, 0.3741405   , 0.432519883 , 0.08237832  , 2.73328924  , -1.564173   , -1.354816   , 2.54        , 3           , 50          , 0           , 0
-9.832059   , -0.030154096, 0.06885674  , -0.0014117  , 0.000107896361, -0.000313320255, 0.374477565 , 0.432519883 , 0.08231091  , 2.73328924  , -1.564173   , -1.35483    , 2.55        , 3           , 11          , 0.0130812814, 0.0130812963
-9.828285   , -0.0334830247, 0.0399446338, -0.00147654733, 0.000116937212, -0.00124378165, 0.375421315 , 0.4330592   , 0.0827828   , 2.73328924  , -1.564173   , -1.35484481 , 2.56        , 3           , 12          , 0.0478317253, 0
-9.813817   , -0.0188253522, 0.049280744 , -0.00344933476, -0.00296731922, 0.00127526349, 0.3735338   , 0.432722121 , 0.08244573  , 2.73328924  , -1.56411922 , -1.35487926 , 2.57        , 3           , 50          , 0           , 0
-9.804356   , -0.0131136505, 0.0557573773, 0.000397138647, -0.00264490559, 0.0009459063, 0.3758258   , 0.432722121 , 0.08217608  , 2.73328924  , -1.56410134 , -1.35487545 , 2.58        , 3           , 11          , 0.0130812814, 0.0130812963
-9.8093605  , -0.0296185464, 0.04287343  , 0.005339619 , 0.000174878878, 0.0005879516, 0.3758258   , 0.432722121 , 0.08217608  , 2.73328924  , -1.56411922 , -1.354822   , 2.59        , 3           , 12          , 0.0478317253, 0
-9.812031   , -0.02153679 , 0.0483624749, 0.0049902075, 0.00166937744, 0.00208436721, 0.374747217 , 0.43292436  , 0.08237832  , 2.73328924  , -1.56426358 , -1.35477209 , 2.6         , 3           , 50          , 0           , 0
-9.810722   , -0.0149349682, 0.0624532141, 0.003845372 , 0.0006133027, 0.00127491192, 0.3740731   , 0.432722121 , 0.0822434947, 2.73328924  , -1.56427264 , -1.35473371 , 2.61        , 3           , 11          , 0.013074168 , 0.0130741792
-9.816824   , -0.0495408364, 0.0561256446, 0.0014882281, -0.000646705157, 0.000598126557, 0.375556141 , 0.432991773 , 0.0825131461, 2.73328924  , -1.56427264 , -1.3547188  , 2.62        , 3           , 12          , 0.0487595946, 0
-9.816636   , -0.0341181159, 0.04772321  , 0.00376093  , -0.000955761352, 0.0005361191, 0.3735338   , 0.4325873   , 0.0825131461, 2.73328924  , -1.56428182 , -1.35468125 , 2.63        , 3           , 50          , 0           , 0
-9.82058048 , -0.0192271322, 0.0501172878, 0.00285568531, 0.000348994974, -9.453747E-05, 0.375084251 , 0.4326547   , 0.0820412561, 2.73328924  , -1.56426358 , -1.35465264 , 2.64        , 3           , 11          , 0.013074168 , 0.0130741792
-9.832834   , -0.0192712918, 0.06400658  , 0.00266401586, 0.00186146144, -0.000717780553, 0.375084251 , 0.4326547   , 0.0820412561, 2.73328924  , -1.56428182 , -1.354626   , 2.65        , 3           , 12          , 0.0487595946, 0
-9.803944   , -0.008278578, 0.067109324 , 0.00431453437, 0.00306408736, -0.00083327305, 0.374949455 , 0.432991773 , 0.08244573  , 2.73328924  , -1.56430018 , -1.35458279 , 2.66        , 3           , 50          , 0           , 0
-9.801679   , -0.0176268741, 0.05392312  , 0.00197691726, -0.000946019834, 0.00145544345, 0.373736024 , 0.4326547   , 0.0822434947, 2.73328924  , -1.56430018 , -1.35456312 , 2.67        , 3           , 11          , 0.013074168 , 0.0130741792
-9.808674   , -0.0410829037, 0.05991178  , -0.0008342  , 0.00131410279, 0.000325998379, 0.375960618 , 0.43292436  , 0.08258056  , 2.73328924  , -1.56430018 , -1.35457134 , 2.68        , 3           , 12          , 0.0487595946, 0
-9.811725   , -0.0181996  , 0.07324695  , -0.00104215869, 0.001041209 , -0.000967198052, 0.3736686   , 0.4325873   , 0.0825131461, 2.73328924  , -1.564337   , -1.35458171 , 2.69        , 3           , 50          , 0           , 0
-9.822452   , -0.0357885063, 0.039971672 , -0.00133994455, 6.373325E-05, -0.0005367815, 0.3736686   , 0.4325873   , 0.0825131461, 2.73328924  , -1.56424534 , -1.35459447 , 2.7         , 3           , 11          , 0.01314081  , 0.01314082
-9.813801   , -0.0303747058, 0.0328866169, 0.00108151056, 0.000114655544, -0.000950420159, 0.374949455 , 0.432519883 , 0.08217608  , 2.73328924  , -1.56424534 , -1.35458362 , 2.71        , 3           , 12          , 0.0497034267, 0
-9.799084   , -0.0280502588, 0.0565368459, 0.00195050531, 0.0014672376, -0.0009254558, 0.375151664 , 0.4331266   , 0.08258056  , 2.73328924  , -1.56424534 , -1.35456419 , 2.72        , 3           , 50          , 0           , 0
-9.835386   , -0.0203537047, 0.0409342535, -1.718729E-05, -0.00175135047, 0.0005899286, 0.373736024 , 0.4325873   , 0.08237832  , 2.73328924  , -1.5642271  , -1.35456443 , 2.73        , 3           , 11          , 0.01314081  , 0.01314082
-9.809203   , -0.0274009127, 0.08806983  , 0.00489778537, -0.0006612785, 0.00135158875, 0.3758932   , 0.43292436  , 0.08231091  , 2.73328924  , -1.56426358 , -1.35451543 , 2.74        , 3           , 12          , 0.0497034267, 0
-9.808713   , -0.0353566222, 0.07262492  , -0.00116395019, -0.002809984, 6.66371561E-05, 0.3758932   , 0.43292436  , 0.08231091  , 2.73328924  , -1.564209   , -1.35452712 , 2.75        , 3           , 50          , 0           , 0
-9.815683   , -0.0184652247, 0.05920499  , -0.00188371 , -0.00380194769, -0.0003814997, 0.374275327 , 0.432519883 , 0.08237832  , 2.73328924  , -1.564173   , -1.354546   , 2.76        , 3           , 11          , 0.01314081  , 0.01314082
-9.803685   , -0.0290531963, 0.06958207  , 0.002396909 , -0.00213349587, 0.0005277345, 0.374544978 , 0.432722121 , 0.08217608  , 2.73328924  , -1.564155   , -1.354522   , 2.77        , 3           , 12          , 0.0497034267, 0
-9.793704   , -0.0125526991, 0.07889817  , 0.002757132 , -0.00156650913, 0.0008243873, 0.375421315 , 0.4330592   , 0.0827153847, 2.73328924  , -1.5641371  , -1.35449445 , 2.78        , 3           , 50          , 0           , 0
-9.815992   , -0.00489058 , 0.05529359  , 0.00292019942, -0.00111696939, -0.0015293489, 0.37339896  , 0.432722121 , 0.08244573  , 2.73328924  , -1.56411922 , -1.35446525 , 2.79        , 3           , 11          , 0.01314081  , 0.01314082
-9.833793   , -0.0180171877, 0.0739495   , 0.00155554409, -0.001389757, 7.66619E-05 , 0.375488728 , 0.432722121 , 0.08217608  , 2.73328924  , -1.564173   , -1.35444891 , 2.8         , 3           , 12          , 0.05066209  , 0
-9.820524   , 0.00801198  , 0.07527535  , 0.00364295882, 0.00123311148, 0.000914640259, 0.375488728 , 0.432722121 , 0.08217608  , 2.73328924  , -1.564191   , -1.35441256 , 2.81        , 3           , 50          , 0           , 0
-9.818562   , -0.027614655, 0.07352711  , 0.004943979 , 0.00280013285, 0.0005160589, 0.3746124   , 0.4331266   , 0.0825131461, 2.73328924  , -1.564218   , -1.35436308 , 2.82        , 3           , 11          , 0.0132984342, 0.01329844
-9.804935   , -0.0239895284, 0.0610468462, 0.005693118 , 0.000208494937, 0.0009839961, 0.3740731   , 0.4325873   , 0.0822434947, 2.73328924  , -1.5642271  , -1.3543061  , 2.83        , 3           , 12          , 0.05066209  , 0
-9.806763   , -0.0235713329, 0.06555179  , 0.00268092332, -0.00198215246, 0.0009336604, 0.3758932   , 0.432991773 , 0.08258056  , 2.73328924  , -1.56423628 , -1.35427928 , 2.84        , 3           , 50          , 0           , 0
-9.805032   , -0.0259189587, 0.0727677047, 0.000538819644, -0.00239546783, 0.00148687768, 0.3736686   , 0.4325873   , 0.08237832  , 2.73328924  , -1.564218   , -1.354274   , 2.85        , 3           , 11          , 0.0132984342, 0.01329844
-9.79781    , -0.02194773 , 0.0751384348, 0.004015369 , -0.00286457385, 0.00193085277, 0.3736686   , 0.4325873   , 0.08237832  , 2.73328924  , -1.564191   , -1.354234   , 2.86        , 3           , 12          , 0.05066209  , 0
-9.805011   , -0.0428017676, 0.04908498  , 0.00259522418, 0.0021862078, -0.000294417929, 0.375016838 , 0.4325873   , 0.08197384  , 2.73328924  , -1.564191   , -1.354208   , 2.87        , 3           , 50          , 0           , 0
-9.815319   , -0.02661447 , 0.0618244261, -0.00129898218, 0.00372984051, -0.000224525123, 0.374882042 , 0.4330592   , 0.08244573  , 2.73328924  , -1.5642271  , -1.35422087 , 2.88        , 3           , 11          , 0.0132984342, 0.01329844
-9.817167   , -0.02088218 , 0.07542441  , 0.0006427362, -0.000659438956, -0.0004192598, 0.373938262 , 0.4325873   , 0.08231091  , 2.73328924  , -1.564218   , -1.35421443 , 2.89        , 3           , 12          , 0.05066209  , 0
-9.811053   , -0.0129677383, 0.0475669876, 0.0026720725, -0.00280373427, 0.00092381  , 0.376028031 , 0.43292436  , 0.08244573  , 2.73328924  , -1.56411028 , -1.35418689 , 2.9         , 3           , 50          , 0           , 0
-9.823127   , 0.004626645 , 0.0566929132, 0.000727138 , 2.919619E-05, -0.00112218084, 0.3742079   , 0.432789534 , 0.0825131461, 2.73328924  , -1.56411028 , -1.35417962 , 2.91        , 3           , 11          , 0.0135483174, 0.0135483313
-9.809172   , -0.04337706 , 0.063945964 , -0.000909018156, 0.0006093716, -5.057066E-05, 0.3742079   , 0.432789534 , 0.0825131461, 2.73328924  , -1.564155   , -1.35418868 , 2.92        , 3           , 12          , 0.05163449  , 0
-9.830529   , -0.0209880583, 0.0540707149, 8.116839E-05, -0.000607185648, -0.0013500494, 0.374544978 , 0.43245247  , 0.08217608  , 2.73328924  , -1.56411028 , -1.35418785 , 2.93        , 3           , 50          , 0           , 0
-9.816169   , -0.0127301682, 0.07146243  , -0.000339102233, 0.000322772074, -0.000695186434, 0.375623554 , 0.433328837 , 0.08264797  , 2.73328924  , -1.56411922 , -1.35419118 , 2.94        , 3           , 11          , 0.0135483174, 0.0135483313
-9.792407   , -0.0170977134, 0.081116125 , -0.002141403, -0.00117330649, 0.000345308828, 0.373736024 , 0.4325873   , 0.08237832  , 2.73328924  , -1.56410134 , -1.35421264 , 2.95        , 3           , 12          , 0.05163449  , 0
-9.805237   , -0.0104052126, 0.05623222  , 0.000351981056, -0.00055762683, 0.000798937457, 0.376162857 , 0.432856947 , 0.0822434947, 2.73328924  , -1.56410134 , -1.35420907 , 2.96        , 3           , 50          , 0           , 0
-9.817146   , -0.0195149481, 0.0740853   , -0.0014213  , -0.000110337875, 0.000866030168, 0.376162857 , 0.432856947 , 0.0822434947, 2.73328924  , -1.56410134 , -1.35422325 , 2.97        , 3           , 11          , 0.0135483174, 0.0135483313
-9.832347   , -0.0152122192, 0.06360623  , 0.00191550388, -0.000363064551, 0.00131227821, 0.374477565 , 0.432856947 , 0.08237832  , 2.73328924  , -1.56410134 , -1.35420418 , 2.98        , 3           , 12          , 0.05163449  , 0
-9.810223   , -0.003733994, 0.0689108   , 0.00207306142, 0.000431901717, 0.0003945792, 0.374275327 , 0.432519883 , 0.08217608  , 2.73328924  , -1.5641371  , -1.35418344 , 2.99        , 3           , 50          , 0           , 0
-9.783235   , -0.0191451516, 0.0545269176, -0.0002988061, -0.00165001152, 0.000700209639, 0.3758258   , 0.43292436  , 0.08237832  , 2.73328924  , -1.56410134 , -1.354185   , 3           , 3           , 11          , 0.0138032045, 0.0138032194
-9.810677   , -0.0251025632, 0.04336514  , -0.0007236112, -0.00136101758, 0.00091643614, 0.3736012   , 0.432385057 , 0.08231091  , 2.73328924  , -1.56408358 , -1.35419226 , 3.01        , 3           , 12          , 0.05261963  , 0
-9.814575   , -0.0326486155, 0.0771192   , -0.0008643802, -0.001851488, -0.00016483925, 0.375016838 , 0.4325873   , 0.08197384  , 2.73328924  , -1.56408358 , -1.354201   , 3.02        , 3           , 50          , 0           , 0
-9.799971   , -0.01333189 , 0.0725078359, 0.000358647347, -0.000222337767, 0.0005818505, 0.375016838 , 0.4325873   , 0.08197384  , 2.73328924  , -1.56407464 , -1.35419726 , 3.03        , 3           , 11          , 0.0138032045, 0.0138032194
-9.808456   , -0.0273960531, 0.0451658666, 0.002096715 , 0.00170689146, -0.000738976756, 0.37481463  , 0.4330592   , 0.08231091  , 2.73328924  , -1.56408358 , -1.3541764  , 3.04        , 3           , 12          , 0.05261963  , 0
-9.796718   , -0.0221064687, 0.04714164  , 0.00184247259, -0.00130834058, 0.000145949 , 0.3736012   , 0.43245247  , 0.0820412561, 2.73328924  , -1.564057   , -1.35415792 , 3.05        , 3           , 50          , 0           , 0
-9.824827   , -0.02705564 , 0.0685073137, -0.00199320982, -0.00048763692, 0.0008497054, 0.376095444 , 0.4330592   , 0.0822434947, 2.73328924  , -1.564057   , -1.354178   , 3.06        , 3           , 11          , 0.0138032045, 0.0138032194
-9.810075   , -0.0224524718, 0.0899257   , 0.00173414382, 0.00184227538, 0.0005487062, 0.37387085  , 0.432789534 , 0.08231091  , 2.73328924  , -1.56407464 , -1.35416055 , 3.07        , 3           , 12          , 0.05261963  , 0
-9.819376   , -0.024358537, 0.06497503  , -0.000949177251, -0.002503887, 0.0007553749, 0.37387085  , 0.432789534 , 0.08231091  , 2.73328924  , -1.56406581 , -1.35417008 , 3.08        , 3           , 50          , 0           , 0
-9.797706   , -0.0422635674, 0.0351558775, 0.00273046433, -0.00439973734, 0.0002497341, 0.37481463  , 0.432519883 , 0.08197384  , 2.73328924  , -1.56401289 , -1.3541429  , 3.09        , 3           , 11          , 0.0138032045, 0.0138032194
-9.788201   , -0.0173419639, 0.0585672967, 0.00105992379, -0.0002569868, 6.91053938E-05, 0.375151664 , 0.4330592   , 0.08244573  , 2.73328924  , -1.56479621 , -1.35413611 , 3.1         , 3           , 12          , 0.05361656  , 0
-9.816757   , -0.03207648 , 0.06762019  , 0.00207699742, 0.000325894071, -0.00213432172, 0.3736686   , 0.4325873   , 0.08210867  , 2.73328924  , -1.56476653 , -1.35411525 , 3.11        , 3           , 50          , 0           , 0
-9.798979   , -0.065973796, 0.06016533  , 0.00254725944, -0.00140887569, -0.00101170852, 0.37575838  , 0.432789534 , 0.0822434947, 2.73328924  , -1.56475663 , -1.35408974 , 3.12        , 3           , 11          , 0.0138127673, 0.0138127822
-9.795252   , -0.005473431, 0.0509606451, 0.00332595338, -0.000857101346, 0.0005037116, 0.3740731   , 0.432722121 , 0.08210867  , 2.73328924  , -1.56475663 , -1.35405648 , 3.13        , 3           , 12          , 0.05361656  , 0
-9.805997   , -0.0358020142, 0.06993461  , 0.000452457753, 0.00212083152, -0.000687269145, 0.3740731   , 0.432722121 , 0.08210867  , 2.73328924  , -1.56475663 , -1.354052   , 3.14        , 3           , 50          , 0           , 0
-9.787622   , -0.0294169  , 0.090503484 , -0.00148621551, 0.000845611154, -0.000145287442, 0.3742079   , 0.43245247  , 0.08197384  , 2.73328924  , -1.56481612 , -1.35406673 , 3.15        , 3           , 11          , 0.0138127673, 0.0138127822
-9.805603   , -0.006711792, 0.0485926978, -0.00244274852, -0.00222124415, -0.000696508447, 0.375488728 , 0.4330592   , 0.08244573  , 2.73328924  , -1.56475663 , -1.35409117 , 3.16        , 3           , 12          , 0.05361656  , 0
-9.806461   , -0.0278075989, 0.08176664  , 0.00183444354, -0.00175667612, -0.00137891364, 0.3730619   , 0.4325873   , 0.0822434947, 2.73328924  , -1.564737   , -1.35407281 , 3.17        , 3           , 50          , 0           , 0
-9.798766   , -0.0282574072, 0.07550849  , 0.00182940951, -0.000916775, 0.000851377845, 0.375421315 , 0.432722121 , 0.0820412561, 2.73328924  , -1.564737   , -1.35405469 , 3.18        , 3           , 11          , 0.0138127673, 0.0138127822
-9.816127   , -0.008657503, 0.07015476  , 0.000467245874, -0.00141160144, 0.0016228864, 0.375421315 , 0.432722121 , 0.0820412561, 2.73328924  , -1.564737   , -1.35405    , 3.19        , 3           , 12          , 0.05361656  , 0
-9.802192   , -0.0186070241, 0.06158589  , -0.00256658928, -0.000317635073, -6.604298E-05, 0.3746124   , 0.4330592   , 0.08210867  , 2.73328924  , -1.56469774 , -1.3540771  , 3.2         , 3           , 50          , 0           , 0
-9.812953   , -0.0202246234, 0.05288608  , -0.00310774636, -0.00354491221, 0.000814039435, 0.373736024 , 0.432722121 , 0.08217608  , 2.73328924  , -1.56467819 , -1.35410821 , 3.21        , 3           , 11          , 0.0106859235, 0.0106859189
-9.812696   , -0.0316560343, 0.06721068  , -0.000360258244, 0.000156364884, 0.000526867632, 0.375690967 , 0.432991773 , 0.0822434947, 2.73328924  , -1.564688   , -1.35411191 , 3.22        , 3           , 12          , 0.0546244122, 0
-9.817256   , -0.03748827 , 0.0680048242, 0.0016146485, 0.00437222142, -0.000330040464, 0.373331547 , 0.432722121 , 0.08217608  , 2.73328924  , -1.56471729 , -1.3540957  , 3.23        , 3           , 50          , 0           , 0
-9.813967   , -0.0203909762, 0.0691358   , 0.0008579693, 0.0002976116, -0.0006084198, 0.373331547 , 0.432722121 , 0.08217608  , 2.73328924  , -1.56471729 , -1.354087   , 3.24        , 3           , 11          , 0.0106859235, 0.0106859189
-9.809333   , -0.0304671358, 0.0378952622, -0.000152625391, -0.001123251, -0.000849907345, 0.374949455 , 0.4326547   , 0.08170419  , 2.73328924  , -1.56469774 , -1.35408854 , 3.25        , 3           , 12          , 0.0546244122, 0
-9.826456   , -0.0174306128, 0.05550431  , 0.002021581 , 0.00236631138, -0.00085747207, 0.375016838 , 0.4331266   , 0.0822434947, 2.73328924  , -1.56470752 , -1.35406828 , 3.26        , 3           , 50          , 0           , 0
-9.821768   , -0.03345866 , 0.07433355  , 0.005759675 , 2.96318376E-05, -0.000224288873, 0.3735338   , 0.432519883 , 0.08210867  , 2.73328924  , -1.564737   , -1.3540107  , 3.27        , 3           , 11          , 0.0106859235, 0.0106859189
-9.811352   , -0.0312314034, 0.06858303  , 0.00374591071, -0.00216729031, -0.000697873533, 0.3758258   , 0.4330592   , 0.0820412561, 2.73328924  , -1.56469774 , -1.35397327 , 3.28        , 3           , 12          , 0.0546244122, 0
-9.801781   , -0.02000721 , 0.06563875  , 0.00362988  , 0.000479252863, -1.62560245E-05, 0.373803437 , 0.4325873   , 0.08210867  , 2.73328924  , -1.56469774 , -1.35393691 , 3.29        , 3           , 50          , 0           , 0
-9.806906   , -0.0424851738, 0.06307372  , 0.00435761  , 0.00243623834, 0.00123427762, 0.373803437 , 0.4325873   , 0.08210867  , 2.73328924  , -1.56458151 , -1.35389388 , 3.3         , 3           , 11          , 0.0109508969, 0.0109509025
-9.8063755  , -0.0392505  , 0.05543713  , 0.00236769812, 0.00259911525, 0.00129591161, 0.374544978 , 0.4325873   , 0.08197384  , 2.73328924  , -1.56460071 , -1.35387015 , 3.31        , 3           , 12          , 0.05564235  , 0
-9.825703   , -0.0261217877, 0.06625157  , 0.00119247031, -0.0006843466, 0.00116952125, 0.375219077 , 0.4330592   , 0.08231091  , 2.73328924  , -1.56463933 , -1.35385823 , 3.32        , 3           , 50          , 0           , 0
-9.819312   , -0.03316375 , 0.0449994728, -0.00106344838, 0.0004230404, 9.834992E-05, 0.37339896  , 0.432722121 , 0.08217608  , 2.73328924  , -1.56462    , -1.35386884 , 3.33        , 3           , 11          , 0.0109508969, 0.0109509025
-9.806671   , -0.026989866, 0.0478971452, -0.00156376557, 0.0004952629, 0.000597181846, 0.37575838  , 0.432722121 , 0.08190643  , 2.73328924  , -1.56463933 , -1.35388446 , 3.34        , 3           , 12          , 0.05564235  , 0
-9.825238   , -0.0247681569, 0.06581978  , -0.00213910686, -0.000142481149, 0.000441282667, 0.37575838  , 0.432722121 , 0.08190643  , 2.73328924  , -1.56463933 , -1.35390592 , 3.35        , 3           , 50          , 0           , 0
-9.839597   , -0.0183348712, 0.06621368  , 0.00170571043, 0.0005304777, 0.0009756344, 0.374275327 , 0.432856947 , 0.08197384  , 2.73328924  , -1.564649   , -1.353889   , 3.36        , 3           , 11          , 0.0109508969, 0.0109509025
-9.824944   , -0.03702879 , 0.07335976  , -0.00151714613, -0.0003140283, 0.00287544518, 0.374005675 , 0.4326547   , 0.08190643  , 2.73328924  , -1.56465876 , -1.35390425 , 3.37        , 3           , 12          , 0.05564235  , 0
-9.798766   , -0.02558585 , 0.0787012   , -0.00121948321, -0.00114594121, -0.0005693303, 0.375488728 , 0.433194    , 0.0822434947, 2.73328924  , -1.56462967 , -1.35391629 , 3.38        , 3           , 50          , 0           , 0
-9.811627   , -0.0118191792, 0.06699778  , 0.000820543 , 0.003413979 , 8.176809E-05, 0.373264134 , 0.4326547   , 0.0822434947, 2.73328924  , -1.56469774 , -1.35390806 , 3.39        , 3           , 11          , 0.0109508969, 0.0109509025
-9.816908   , -0.004906927, 0.05754343  , -0.00148708746, 0.00111334352, 0.000919824466, 0.375421315 , 0.4326547   , 0.08217608  , 2.73328924  , -1.56465876 , -1.35392344 , 3.4         , 3           , 12          , 0.0566696227, 0
-9.818684   , -0.007078033, 0.0511783436, 0.00015603393, -0.004914478, -1.60314357E-05, 0.375421315 , 0.4326547   , 0.08217608  , 2.73328924  , -1.56462    , -1.353922   , 3.41        , 3           , 50          , 0           , 0
-9.815401   , -0.03608834 , 0.0621660277, 0.00216443278, -0.00293632969, 0.0008836692, 0.3746124   , 0.4330592   , 0.08210867  , 2.73328924  , -1.56458151 , -1.35390031 , 3.42        , 3           , 11          , 0.01033718  , 0.010337186
-9.804706   , -0.0425822  , 0.07031992  , 0.00567644648, 0.00477943  , -0.0004139048, 0.373736024 , 0.432722121 , 0.08190643  , 2.73328924  , -1.56462    , -1.35384357 , 3.43        , 3           , 12          , 0.0566696227, 0
-9.814765   , -0.0117675448, 0.06471108  , 0.0007504946, -0.00319310348, -0.000846055569, 0.37575838  , 0.432991773 , 0.0822434947, 2.73328924  , -1.56460071 , -1.353836   , 3.44        , 3           , 50          , 0           , 0
-9.825262   , -0.0207971036, 0.07399588  , 0.005627212 , 0.001327682 , 0.0009668328, 0.3736686   , 0.432856947 , 0.0822434947, 2.73328924  , -1.56462    , -1.35377979 , 3.45        , 3           , 11          , 0.01033718  , 0.010337186
-9.816857   , -0.0362362564, 0.07705682  , 0.001956711 , 0.00422336  , 0.001844786 , 0.3736686   , 0.432856947 , 0.0822434947, 2.73328924  , -1.56465876 , -1.35376012 , 3.46        , 3           , 12          , 0.0566696227, 0
-9.81175    , -0.0342628472, 0.05725205  , 0.00139527372, 0.003392438 , -0.0007466374, 0.3746124   , 0.432385057 , 0.0820412561, 2.73328924  , -1.56469774 , -1.35374618 , 3.47        , 3           , 50          , 0           , 0
-9.801471   , -0.03091029 , 0.0727428347, 0.003930207 , 0.00135781732, -0.000474267581, 0.374949455 , 0.433261424 , 0.0822434947, 2.73328924  , -1.56469774 , -1.35370684 , 3.48        , 3           , 11          , 0.01033718  , 0.010337186
-9.810051   , -0.03487944 , 0.0712630451, 0.003059833 , 0.00021505059, 7.622611E-05, 0.3736686   , 0.4326547   , 0.08210867  , 2.73328924  , -1.56470752 , -1.35367632 , 3.49        , 3           , 12          , 0.0566696227, 0
-9.791663   , -0.04405344 , 0.0708745643, 0.003604671 , -0.00239754771, -0.0008338587, 0.376028031 , 0.4330592   , 0.08210867  , 2.73328924  , -1.56458151 , -1.35364079 , 3.5         , 3           , 50          , 0           , 0
-9.811773   , -0.04141927 , 0.0517489165, 0.004271177 , 0.0059100287, -0.0009955636, 0.373938262 , 0.43292436  , 0.08197384  , 2.73328924  , -1.564649   , -1.353598   , 3.51        , 3           , 11          , 0.0105334353, 0.0105334437
-9.811125   , -0.00551042054, 0.06707522  , 0.000777301961, 0.000758124166, 0.00205655629, 0.373938262 , 0.43292436  , 0.08197384  , 2.73328924  , -1.56465876 , -1.35359025 , 3.52        , 3           , 12          , 0.05770551  , 0
-9.824786   , -0.0256593749, 0.0644585639, 0.00729275635, -0.00244791037, 0.000619235449, 0.3741405   , 0.4326547   , 0.08190643  , 2.73328924  , -1.56463933 , -1.35351741 , 3.53        , 3           , 50          , 0           , 0
-9.819619   , -0.04832428 , 0.07101987  , 0.00305200228, 0.000169527513, 0.0012034243, 0.3753539   , 0.4330592   , 0.08217608  , 2.73328924  , -1.56463933 , -1.3534869  , 3.54        , 3           , 11          , 0.0105334353, 0.0105334437
-9.81866    , -0.0375587754, 0.07566989  , -0.00209294423, -0.00178707275, 0.00142953254, 0.373331547 , 0.432722121 , 0.08217608  , 2.73328924  , -1.56462    , -1.35350788 , 3.55        , 3           , 12          , 0.05770551  , 0
-9.79744    , -0.03631773 , 0.06910396  , -0.000358242483, -0.000356157718, -0.0002563035, 0.375556141 , 0.432789534 , 0.0820412561, 2.73328924  , -1.56463933 , -1.35351145 , 3.56        , 3           , 50          , 0           , 0
-9.81452    , -0.0356791429, 0.06534071  , -0.0006404903, 0.000496231252, 0.000899159757, 0.375556141 , 0.432789534 , 0.0820412561, 2.73328924  , -1.56463933 , -1.35351777 , 3.57        , 3           , 11          , 0.0105334353, 0.0105334437
-9.812457   , -0.008141188, 0.0611605942, -0.00488370238, 0.00141722965, -0.00111716869, 0.3746798   , 0.433194    , 0.08217608  , 2.73328924  , -1.56463933 , -1.35356665 , 3.58        , 3           , 12          , 0.05770551  , 0
-9.809363   , -0.0162704177, 0.0597401373, 0.0005261504, 0.00249840529, 7.67360543E-05, 0.373803437 , 0.4325873   , 0.08190643  , 2.73328924  , -1.56465876 , -1.3535614  , 3.59        , 3           , 50          , 0           , 0
-9.804477   , -0.0302141923, 0.05239703  , -0.0008874841, 0.003076322 , -0.000187839847, 0.375690967 , 0.433194    , 0.0820412561, 2.73328924  , -1.56466842 , -1.35357058 , 3.6         , 3           , 11          , 0.01068715  , 0.0106871584
-9.828412   , -0.03412263 , 0.05755213  , 0.00220917515, 0.0007442242, 0.0006561113, 0.373331547 , 0.432789534 , 0.0820412561, 2.73328924  , -1.56467819 , -1.35354853 , 3.61        , 3           , 12          , 0.05874935  , 0
-9.813002   , -0.0198559724, 0.0605686679, 0.00161004125, -0.00154774869, 0.00119162421, 0.375151664 , 0.432722121 , 0.0817716047, 2.73328924  , -1.56466842 , -1.35353243 , 3.62        , 3           , 50          , 0           , 0
-9.792767   , -0.0289730784, 0.0534224324, -0.00119969749, 0.000502558658, -0.000513279054, 0.375151664 , 0.432722121 , 0.0817716047, 2.73328924  , -1.56467819 , -1.35354447 , 3.63        , 3           , 11          , 0.01068715  , 0.0106871584
-9.821161   , -0.0323333554, 0.0531225242, 0.00242980756, -0.00414074864, 0.00173153065, 0.375084251 , 0.432991773 , 0.08237832  , 2.73328924  , -1.564649   , -1.35352027 , 3.64        , 3           , 12          , 0.05874935  , 0
-9.852504   , -0.0215526111, 0.04031131  , 0.0019349   , 0.00245379121, 0.00211025914, 0.373736024 , 0.432856947 , 0.08197384  , 2.73328924  , -1.56467819 , -1.353501   , 3.65        , 3           , 50          , 0           , 0
-9.795277   , -0.0201984718, 0.0363362841, 0.0024677692, -0.00183275877, 4.79348346E-05, 0.375960618 , 0.43292436  , 0.08183902  , 2.73328924  , -1.56466842 , -1.35347641 , 3.66        , 3           , 11          , 0.01068715  , 0.0106871584
-9.792243   , -0.0212970823, 0.05216077  , 0.00194949645, 0.00190878753, -0.00104589213, 0.37387085  , 0.432856947 , 0.08210867  , 2.73328924  , -1.56467819 , -1.35345685 , 3.67        , 3           , 12          , 0.05874935  , 0
-9.792638   , -0.0114167873, 0.0563364141, 0.00340469647, 0.00476013171, -0.0009955898, 0.37387085  , 0.432856947 , 0.08210867  , 2.73328924  , -1.56471729 , -1.35342276 , 3.68        , 3           , 50          , 0           , 0
-9.830793   , -0.04009062 , 0.0692053661, 0.00138639729, 0.00192224525, -0.00190781092, 0.374477565 , 0.4326547   , 0.0817716047, 2.73328924  , -1.56472707 , -1.35340881 , 3.69        , 3           , 11          , 0.01068715  , 0.0106871584
-9.83349    , -0.0427289642, 0.0650848746, -0.002630277, 0.000776902656, 0.00118872721, 0.3752865   , 0.433261424 , 0.08217608  , 2.73328924  , -1.56471729 , -1.35343564 , 3.7         , 3           , 12          , 0.0598005019, 0
-9.825355   , -0.0356285945, 0.0693069   , 0.0005137135, -8.13468941E-05, -0.00252507837, 0.373331547 , 0.432789534 , 0.08197384  , 2.73328924  , -1.56470752 , -1.35343051 , 3.71        , 3           , 50          , 0           , 0
-9.834568   , -0.00490888674, 0.071835205 , 0.001624496 , -0.00012873864, 0.00148807163, 0.3758932   , 0.433194    , 0.0817716047, 2.73328924  , -1.56470752 , -1.3534143  , 3.72        , 3           , 11          , 0.0108067486, 0.010806758
-9.813596   , -0.03698647 , 0.06036549  , 0.004765717 , 0.000420312339, 0.0006567739, 0.3758932   , 0.433194    , 0.0817716047, 2.73328924  , -1.56469774 , -1.35336661 , 3.73        , 3           , 12          , 0.0598005019, 0
-9.812869   , -0.0426035747, 0.07882677  , 0.0021581843, -0.00384980859, 0.0002925864, 0.374410152 , 0.43292436  , 0.08190643  , 2.73328924  , -1.56465876 , -1.35334516 , 3.74        , 3           , 50          , 0           , 0
-9.820388   , -0.0325347371, 0.07119506  , -0.00292981975, -0.002344424, -0.002006699, 0.3741405   , 0.432856947 , 0.0817716047, 2.73328924  , -1.56462967 , -1.35337448 , 3.75        , 3           , 11          , 0.0108067486, 0.010806758
-9.798985   , -0.0172140058, 0.05530775  , 0.00305770384, 0.000153630448, 0.00035615603, 0.375556141 , 0.433194    , 0.08217608  , 2.73328924  , -1.56463933 , -1.353344   , 3.76        , 3           , 12          , 0.0598005019, 0
-9.803227   , -0.03260628 , 0.0641249344, 0.00359936454, -0.00271026185, -0.000540644571, 0.37339896  , 0.432856947 , 0.0820412561, 2.73328924  , -1.56462    , -1.353308   , 3.77        , 3           , 50          , 0           , 0
-9.821829   , -0.04111921 , 0.0737928748, 0.00114006572, 0.00506874  , -0.00216036383, 0.375488728 , 0.432722121 , 0.08183902  , 2.73328924  , -1.564649   , -1.35329652 , 3.78        , 3           , 11          , 0.0108067486, 0.010806758
-9.83027649 , -0.0346497968, 0.06611107  , -0.0009112561, 0.00134040171, 0.000348862639, 0.375488728 , 0.432722121 , 0.08183902  , 2.73328924  , -1.56466842 , -1.35330558 , 3.79        , 3           , 12          , 0.0598005019, 0
-9.807088   , -0.0122463824, 0.06116259  , 0.00104202447, -0.00212542736, 1.8105151E-05, 0.374949455 , 0.433328837 , 0.08197384  , 2.73328924  , -1.56460071 , -1.3532958  , 3.8         , 3           , 50          , 0           , 0
-9.802548   , -0.008222604, 0.0607990846, 0.006212263 , 0.0026867264, 0.0009783885, 0.3741405   , 0.432789534 , 0.08190643  , 2.73328924  , -1.56465876 , -1.35323358 , 3.81        , 3           , 11          , 0.0111248977, 0.0111249024
-9.819881   , -0.02310351 , 0.07447043  , -0.000596134865, 0.003344593 , -0.00077137 , 0.375960618 , 0.432991773 , 0.0820412561, 2.73328924  , -1.56467819 , -1.35323954 , 3.82        , 3           , 12          , 0.0608584024, 0
-9.816155   , -0.05924997 , 0.07770103  , 0.00333789829, -0.0007105294, -0.0005196481, 0.373736024 , 0.432856947 , 0.08197384  , 2.73328924  , -1.56466842 , -1.353206   , 3.83        , 3           , 50          , 0           , 0
-9.789206   , -0.0277339891, 0.06114826  , 0.00160237763, -0.00270692445, 0.0002993489, 0.373736024 , 0.432856947 , 0.08197384  , 2.73328924  , -1.56465876 , -1.35319018 , 3.84        , 3           , 11          , 0.0111248977, 0.0111249024
-9.809959   , -0.0253910553, 0.06956662  , -0.004070741, -0.001781716, -0.000580890453, 0.375084251 , 0.4326547   , 0.08170419  , 2.73328924  , -1.56462967 , -1.35323083 , 3.85        , 3           , 12          , 0.0608584024, 0
-9.832614   , -0.0423294567, 0.06916279  , 0.00653466443, 0.004991828 , -0.000703494, 0.375151664 , 0.433328837 , 0.08197384  , 2.73328924  , -1.56465876 , -1.35316527 , 3.86        , 3           , 50          , 0           , 0
-9.804541   , -0.0298649  , 0.06188605  , 0.005958631 , 0.004705909 , -0.000138766336, 0.3736686   , 0.432789534 , 0.08183902  , 2.73328924  , -1.56471729 , -1.35310578 , 3.87        , 3           , 11          , 0.0111248977, 0.0111249024
-9.810018   , -0.025036931, 0.07860404  , 0.00223121117, 0.002164261 , -0.0001986023, 0.376095444 , 0.4331266   , 0.08183902  , 2.73328924  , -1.56471729 , -1.35308337 , 3.88        , 3           , 12          , 0.0608584024, 0
-9.81321049 , -0.0455479249, 0.059366826 , 0.00299157784, -0.005587164, 0.000266180548, 0.3742079   , 0.432789534 , 0.08183902  , 2.73328924  , -1.56466842 , -1.35305357 , 3.89        , 3           , 50          , 0           , 0
-9.822222   , -0.0383566357, 0.06885252  , 0.0025225135, 0.0024437462, -0.000797502464, 0.3742079   , 0.432789534 , 0.08183902  , 2.73328924  , -1.56462    , -1.35302925 , 3.9         , 3           , 11          , 0.011435288 , 0.0114352945
-9.813096   , -0.0395845249, 0.0499511436, 0.0016686396, 0.0027338753, -0.000226141128, 0.374747217 , 0.4326547   , 0.08163678  , 2.73328924  , -1.56465876 , -1.35301244 , 3.91        , 3           , 12          , 0.06192249  , 0
-9.79854    , -0.0239040889, 0.0480075255, 0.0002156324, 0.0007320312, 0.000880733249, 0.37575838  , 0.433463663 , 0.08217608  , 2.73328924  , -1.56465876 , -1.3530103  , 3.92        , 3           , 50          , 0           , 0
-9.831803   , 0.004512411 , 0.07422783  , 0.0008001932, 0.00159366813, 3.81885766E-05, 0.3735338   , 0.432856947 , 0.0817716047, 2.73328924  , -1.56466842 , -1.35300219 , 3.93        , 3           , 11          , 0.011435288 , 0.0114352945
-9.835284   , -0.0311300755, 0.07830136  , 0.006439758 , -0.00191587151, 0.00145319419, 0.3758932   , 0.432856947 , 0.08163678  , 2.73328924  , -1.564649   , -1.35293782 , 3.94        , 3           , 12          , 0.06192249  , 0
-9.823075   , -0.0405017026, 0.0593343526, 0.00162492075, -0.00155713339, -0.00114723621, 0.3758932   , 0.432856947 , 0.08163678  , 2.73328924  , -1.56465876 , -1.35292149 , 3.95        , 3           , 50          , 0           , 0
-9.791993   , -0.0211646222, 0.0815246552, 0.00647605769, 0.00123649882, 0.001499103 , 0.374882042 , 0.4330592   , 0.08183902  , 2.73328924  , -1.56465876 , -1.35285687 , 3.96        , 3           , 11          , 0.011435288 , 0.0114352945
-9.794182   , -0.0232737437, 0.06973617  , 0.004796926 , 0.00298354984, 0.000369207817, 0.374410152 , 0.432856947 , 0.08163678  , 2.73328924  , -1.56470752 , -1.35280883 , 3.97        , 3           , 12          , 0.06192249  , 0
-9.818197   , -0.0424403958, 0.06793902  , 0.00593991252, 0.00326112984, 9.40708851E-05, 0.375623554 , 0.43339625  , 0.0820412561, 2.73328924  , -1.56471729 , -1.35274947 , 3.98        , 3           , 50          , 0           , 0
-9.809173   , -0.039372135, 0.06896081  , 0.00137485354, 0.00159556733, -0.0008168767, 0.373736024 , 0.432856947 , 0.08183902  , 2.73328924  , -1.564737   , -1.35273564 , 3.99        , 3           , 11          , 0.011435288 , 0.0114352945
-9.82197952 , -0.0197340176, 0.0564222746, 0.00188081  , -0.00389267737, -0.000921054743, 0.375488728 , 0.432722121 , 0.08170419  , 2.73328924  , -1.56456232 , -1.35271788 , 4           , 3           , 12          , 0.06299226  , 0
-9.818154   , -0.0334706679, 0.07255988  , -0.00211098464, -0.00386502035, 0.00048577768, 0.375488728 , 0.432722121 , 0.08170419  , 2.73328924  , -1.56455278 , -1.352739   , 4.01        , 3           , 50          , 0           , 0
-9.80945    , -0.0306461677, 0.0546047837, 0.00362401479, 8.929544E-05, 0.000578475 , 0.375488728 , 0.433328837 , 0.08197384  , 2.73328924  , -1.56453371 , -1.35270274 , 4.02        , 3           , 11          , 0.01159154  , 0.0115915425
-9.822318   , -0.01688918 , 0.0438045822, -0.000331456366, 0.00129398343, -0.00143196632, 0.3742079   , 0.432856947 , 0.08190643  , 2.73328924  , -1.56454325 , -1.352706   , 4.03        , 3           , 12          , 0.06299226  , 0
-9.826056   , -0.02596787 , 0.0522476   , 0.00539308926, 0.004670022 , -0.00077528815, 0.376162857 , 0.433261424 , 0.08183902  , 2.73328924  , -1.56458151 , -1.352652   , 4.04        , 3           , 50          , 0           , 0
-9.814349   , -0.0104913274, 0.07150501  , 0.00105663564, -0.001023336, -0.000312131684, 0.3742079   , 0.432991773 , 0.08190643  , 2.73328924  , -1.56456232 , -1.35264146 , 4.05        , 3           , 11          , 0.01159154  , 0.0115915425
-9.81452    , -0.0214340389, 0.08266949  , 0.001900321 , -0.00104480248, 0.00112382846, 0.3742079   , 0.432991773 , 0.08190643  , 2.73328924  , -1.56458151 , -1.35262251 , 4.06        , 3           , 12          , 0.06299226  , 0
-9.814218   , -0.033238925, 0.08976311  , 0.003314548 , -0.00191642833, 0.000833711 , 0.374882042 , 0.432789534 , 0.08150195  , 2.73328924  , -1.56455278 , -1.35258937 , 4.07        , 3           , 50          , 0           , 0
-9.805591   , -0.038545236, 0.07306852  , 0.00194158242, 0.00154976721, -0.0005555937, 0.375488728 , 0.43339625  , 0.08183902  , 2.73328924  , -1.56456232 , -1.35256994 , 4.08        , 3           , 11          , 0.01159154  , 0.0115915425
-9.817218   , -0.0165086146, 0.0881218538, 0.00107010081, 0.00096992054, 0.00114790292, 0.3740731   , 0.432789534 , 0.08183902  , 2.73328924  , -1.564591   , -1.35255933 , 4.09        , 3           , 12          , 0.06299226  , 0
-9.818454   , -0.0270040687, 0.0586292669, 0.004204165 , 0.00118263648, 0.0008997761, 0.376297683 , 0.43292436  , 0.08183902  , 2.73328924  , -1.56448638 , -1.3525182  , 4.1         , 3           , 50          , 0           , 0
-9.79738    , -0.0304414369, 0.06781725  , -0.00178227411, 9.700197E-05, 0.000847100862, 0.376297683 , 0.43292436  , 0.08183902  , 2.73328924  , -1.56448638 , -1.352536   , 4.11        , 3           , 11          , 0.0116286892, 0.0116286855
-9.797314   , -0.0205457062, 0.07019055  , -0.0003537397, -0.0001912277, -0.0005793259, 0.37481463  , 0.4330592   , 0.08183902  , 2.73328924  , -1.56451476 , -1.35253942 , 4.12        , 3           , 12          , 0.06406726  , 0
-9.822116   , -0.005701828, 0.09362184  , -6.0772807E-05, 0.000381600519, -0.000855429331, 0.3746124   , 0.432789534 , 0.08163678  , 2.73328924  , -1.5644958  , -1.35254    , 4.13        , 3           , 50          , 0           , 0
-9.825762   , -0.0319980867, 0.06753829  , 0.00339899538, 0.00323063321, -0.00279628136, 0.376095444 , 0.43339625  , 0.0820412561, 2.73328924  , -1.56454325 , -1.35250592 , 4.14        , 3           , 11          , 0.0116286892, 0.0116286855
-9.818008   , -0.0145519814, 0.0745863542, -0.00262514083, 0.000683948165, 0.0002779796, 0.373803437 , 0.432722121 , 0.08190643  , 2.73328924  , -1.56450522 , -1.35253215 , 4.15        , 3           , 12          , 0.06406726  , 0
-9.820034   , -0.03179653 , 0.08611271  , -0.0037796658, -0.001584329, -0.00119308243, 0.375623554 , 0.43292436  , 0.08163678  , 2.73328924  , -1.5644958  , -1.35256994 , 4.16        , 3           , 50          , 0           , 0
-9.828318   , -0.0201784335, 0.0608757958, 0.00047014578, -0.00193216919, 0.0008315931, 0.375623554 , 0.43292436  , 0.08163678  , 2.73328924  , -1.56446743 , -1.35256529 , 4.17        , 3           , 11          , 0.0116286892, 0.0116286855
-9.80232048 , -0.0299328938, 0.066422604 , 0.000748539751, -0.00278967735, 0.000248457945, 0.375084251 , 0.4331266   , 0.0817716047, 2.73328924  , -1.56447685 , -1.35255778 , 4.18        , 3           , 12          , 0.06406726  , 0
-9.805425   , -0.0115828365, 0.0819634348, -0.001812239, -0.00332915015, -0.000633801741, 0.3740731   , 0.43292436  , 0.08143454  , 2.73328924  , -1.56444871 , -1.3525759  , 4.19        , 3           , 50          , 0           , 0
-9.820796   , -0.02712479 , 0.07170544  , -0.0009200573, 0.000573731842, 0.000630286464, 0.376095444 , 0.433194    , 0.08170419  , 2.73328924  , -1.56428182 , -1.35258543 , 4.2         , 3           , 11          , 0.0118224276, 0.01182243
-9.834188   , -0.009470255, 0.07630298  , 0.00310281  , 0.00340930675, -0.0004486467, 0.374005675 , 0.432789534 , 0.08190643  , 2.73328924  , -1.56430018 , -1.35255432 , 4.21        , 3           , 12          , 0.06514701  , 0
-9.807646   , -0.0217550378, 0.06511295  , 0.00280268933, 0.00254478026, 0.000395611336, 0.374005675 , 0.432789534 , 0.08190643  , 2.73328924  , -1.56431854 , -1.35252631 , 4.22        , 3           , 50          , 0           , 0
-9.797219   , -0.009719127, 0.0698646754, 0.005328276 , -0.0006310373, 7.895901E-05, 0.3753539   , 0.432789534 , 0.08150195  , 2.73328924  , -1.56431854 , -1.352473   , 4.23        , 3           , 11          , 0.0118224276, 0.01182243
-9.811858   , -0.0259714462, 0.08309326  , 0.005371465 , 0.0019660918, -0.001886627, 0.375421315 , 0.43339625  , 0.0820412561, 2.73328924  , -1.56431854 , -1.35241926 , 4.24        , 3           , 12          , 0.06514701  , 0
-9.809578   , -0.0165994577, 0.09044951  , 0.00130239758, -0.00488159154, -0.000866123533, 0.374005675 , 0.43292436  , 0.08163678  , 2.73328924  , -1.56430018 , -1.35240626 , 4.25        , 3           , 50          , 0           , 0
-9.814251   , -0.0395225659, 0.08698011  , -0.0012468436, -0.00343036745, -2.18440573E-06, 0.37623027  , 0.433261424 , 0.08183902  , 2.73328924  , -1.56424534 , -1.35241878 , 4.26        , 3           , 11          , 0.0118224276, 0.01182243
-9.82153    , -0.0206300784, 0.05551269  , -9.369096E-05, -0.00144611008, 0.00117853994, 0.37434274  , 0.4330592   , 0.08197384  , 2.73328924  , -1.56424534 , -1.35241973 , 4.27        , 3           , 12          , 0.06514701  , 0
-9.797137   , -0.00692176074, 0.06131555  , -0.00181846844, -0.00399262737, -0.0005862863, 0.37434274  , 0.4330592   , 0.08197384  , 2.73328924  , -1.5642     , -1.352438   , 4.28        , 3           , 50          , 0           , 0
-9.798733   , -0.03132181 , 0.06689127  , 0.002725682 , -0.00348361977, 0.00145262317, 0.374747217 , 0.432856947 , 0.08163678  , 2.73328924  , -1.564173   , -1.35241079 , 4.29        , 3           , 11          , 0.0118224276, 0.01182243
-9.809036   , -0.0258110985, 0.06595672  , 0.00220697024, 0.001158304 , 0.002223857 , 0.375556141 , 0.43339625  , 0.08190643  , 2.73328924  , -1.56337512 , -1.35238838 , 4.3         , 3           , 12          , 0.06623113  , 0
-9.816565   , -0.0135312891, 0.062415693 , -0.00146598788, 0.002357543 , 0.000501292932, 0.373803437 , 0.43292436  , 0.0820412561, 2.73328924  , -1.56339121 , -1.35240293 , 4.31        , 3           , 50          , 0           , 0
-9.814099   , -0.0366187468, 0.06849558  , 0.00224685855, 0.003468854 , 0.00025409722, 0.376095444 , 0.432991773 , 0.08170419  , 2.73328924  , -1.5634315  , -1.35238051 , 4.32        , 3           , 11          , 0.0116152624, 0.0116152689
-9.808553   , -0.0266539324, 0.06007942  , 0.000829885947, 0.00377244083, -3.64602165E-05, 0.376095444 , 0.432991773 , 0.08170419  , 2.73328924  , -1.56348836 , -1.35237229 , 4.33        , 3           , 12          , 0.06623113  , 0
-9.801747   , -0.009718636, 0.07343659  , 0.002199286 , -0.0008272739, -9.466979E-05, 0.3752865   , 0.433261424 , 0.08190643  , 2.73328924  , -1.563472   , -1.35235023 , 4.34        , 3           , 50          , 0           , 0
-9.826924   , -0.01878909 , 0.0563877076, 0.00337801874, 0.00288413744, 0.000252603728, 0.374410152 , 0.432722121 , 0.08170419  , 2.73328924  , -1.56348836 , -1.35231638 , 4.35        , 3           , 11          , 0.0116152624, 0.0116152689
-9.824482   , -0.0370133556, 0.07155742  , 0.000769667269, -0.00195146387, -0.0009784229, 0.376095444 , 0.433261424 , 0.08190643  , 2.73328924  , -1.563472   , -1.35230863 , 4.36        , 3           , 12          , 0.06623113  , 0
-9.83728    , -0.027850708, 0.1103911   , 0.00535507966, 0.00115211343, -0.000618935737, 0.374005675 , 0.432789534 , 0.08197384  , 2.73328924  , -1.56348026 , -1.352255   , 4.37        , 3           , 50          , 0           , 0
-9.803234   , -0.02326792 , 0.07642839  , 0.005324272 , -0.0008641786, 0.0004965055, 0.375488728 , 0.432991773 , 0.08163678  , 2.73328924  , -1.563472   , -1.35220182 , 4.38        , 3           , 11          , 0.0116152624, 0.0116152689
-9.803156   , -0.0191420279, 0.07015302  , 0.001970126 , 0.00348198158, -0.0008922723, 0.375488728 , 0.432991773 , 0.08163678  , 2.73328924  , -1.5635047  , -1.352182   , 4.39        , 3           , 12          , 0.06623113  , 0
-9.807851   , -0.0425450765, 0.06938803  , -0.0008776025, 0.00322027155, -0.0009052804, 0.375623554 , 0.433261424 , 0.0820412561, 2.73328924  , -1.56352925 , -1.35219121 , 4.4         , 3           , 50          , 0           , 0
-9.832111   , -0.0337952077, 0.07197607  , 0.00393147767, 0.0008785149, -0.000909541035, 0.374410152 , 0.43292436  , 0.08163678  , 2.73328924  , -1.563521   , -1.35215175 , 4.41        , 3           , 11          , 0.00409530243, 0.004095299
-9.8260355  , -0.0210417844, 0.0554664955, -0.00119696965, 0.000354810327, -0.0006625651, 0.376297683 , 0.4331266   , 0.08183902  , 2.73328924  , -1.56352925 , -1.35216367 , 4.42        , 3           , 12          , 0.0673192143, 0
-9.799186   , -0.0397786424, 0.05685224  , -0.00604290236, -0.00017434344, -0.000127711857, 0.374477565 , 0.432856947 , 0.08183902  , 2.73328924  , -1.563521   , -1.35222411 , 4.43        , 3           , 50          , 0           , 0
-9.79187    , -0.0227553435, 0.0616329275, -0.00235233642, -0.0005036067, 0.0004627167, 0.374477565 , 0.432856947 , 0.08183902  , 2.73328924  , -1.56351292 , -1.35224771 , 4.44        , 3           , 11          , 0.00409530243, 0.004095299
-9.803219   , -0.0379349  , 0.0563847274, -0.00010680523, -0.00197753613, 0.00245870464, 0.375084251 , 0.432722121 , 0.08163678  , 2.73328924  , -1.56353748 , -1.35224891 , 4.45        , 3           , 12          , 0.0673192143, 0
-9.796339   , -0.02132954 , 0.0584464371, 0.00677505834, 0.00028413898, -0.001759246, 0.37575838  , 0.433463663 , 0.08183902  , 2.73328924  , -1.563521   , -1.35218108 , 4.46        , 3           , 50          , 0           , 0
-9.816321   , -0.0272075478, 0.07581087  , 0.00192801654, 0.000317905418, -7.13897462E-05, 0.3742079   , 0.432991773 , 0.08190643  , 2.73328924  , -1.563521   , -1.35216177 , 4.47        , 3           , 11          , 0.00409530243, 0.004095299
-9.812121   , -0.008765367, 0.07696575  , 0.005559183 , -0.005169783, 0.000443915225, 0.3764325   , 0.433261424 , 0.0817716047, 2.73328924  , -1.563472   , -1.35210633 , 4.48        , 3           , 12          , 0.0673192143, 0
-9.827897   , -0.0166670457, 0.069502376 , 0.002182203 , -0.0019827364, 0.000469263352, 0.375016838 , 0.4331266   , 0.0817716047, 2.73328924  , -1.56345582 , -1.35208452 , 4.49        , 3           , 50          , 0           , 0
-9.819804   , -0.0105217062, 0.0786816   , 0.00423397031, 0.00343897776, 0.000848386437, 0.375016838 , 0.4331266   , 0.0817716047, 2.73328924  , -1.56348836 , -1.35204268 , 4.5         , 3           , 11          , 0.00419720775, 0.004197174
-9.821141   , -0.0211719945, 0.06364049  , 0.007118258 , 0.005720632 , -0.00110423961, 0.3746124   , 0.432856947 , 0.08150195  , 2.73328924  , -1.56352925 , -1.35197139 , 4.51        , 3           , 12          , 0.0684108958, 0
-9.823124   , -0.0232163966, 0.08753841  , 0.00195021171, 0.00175797706, -0.000907346141, 0.376095444 , 0.433328837 , 0.08183902  , 2.73328924  , -1.56355393 , -1.35195184 , 4.52        , 3           , 50          , 0           , 0
-9.79796    , -0.0324153379, 0.0840501   , 0.000471358653, -0.00281796046, -0.000410361623, 0.37387085  , 0.432856947 , 0.08163678  , 2.73328924  , -1.563521   , -1.35194719 , 4.53        , 3           , 11          , 0.00419720775, 0.004197174
-9.79049    , -0.0151549252, 0.06670197  , 0.001918031 , -0.00054233463, -8.224236E-05, 0.376297683 , 0.43292436  , 0.08163678  , 2.73328924  , -1.56351292 , -1.351928   , 4.54        , 3           , 12          , 0.0684108958, 0
-9.816303   , -0.0316295  , 0.0676295161, 0.00334957731, 0.000584414753, 0.000515346765, 0.376297683 , 0.43292436  , 0.08163678  , 2.73328924  , -1.563521   , -1.3518945  , 4.55        , 3           , 50          , 0           , 0
-9.821778   , -0.0450467169, 0.0615523048, -0.000664474443, -0.00280384254, -0.0007033792, 0.375488728 , 0.433261424 , 0.08183902  , 2.73328924  , -1.56348836 , -1.35190117 , 4.56        , 3           , 11          , 0.00419720775, 0.004197174
-9.796568   , -0.0279132  , 0.0836631656, 0.00218515215, -0.00254359981, -0.0009682357, 0.3746798   , 0.432856947 , 0.0815693662, 2.73328924  , -1.56345582 , -1.35187936 , 4.57        , 3           , 12          , 0.0684108958, 0
-9.821651   , -0.0337257  , 0.0571671873, 0.000809971243, 0.002048436 , -5.1534138E-05, 0.376634747 , 0.433194    , 0.0817716047, 2.73328924  , -1.56348836 , -1.35187125 , 4.58        , 3           , 50          , 0           , 0
-9.821682   , -0.0413378552, 0.0521104224, 0.000484004617, -0.00139018358, 0.000182834076, 0.37434274  , 0.432991773 , 0.08190643  , 2.73328924  , -1.563472   , -1.35186648 , 4.59        , 3           , 11          , 0.00419720775, 0.004197174
-9.820075   , -0.04921735 , 0.07055369  , -0.0020700593, -0.000507367367, 0.0007504608, 0.37434274  , 0.432991773 , 0.08190643  , 2.73328924  , -1.56346393 , -1.35188806 , 4.6         , 3           , 12          , 0.06950584  , 0
-9.806765   , -0.0364830829, 0.050045155 , 0.0016183143, -0.00168613 , 0.000183712691, 0.375690967 , 0.432856947 , 0.08143454  , 2.73328924  , -1.56345582 , -1.35187185 , 4.61        , 3           , 50          , 0           , 0
-9.81575    , -0.03103252 , 0.0536389947, 0.00306498748, 0.0005894955, 0.000511831953, 0.375488728 , 0.433328837 , 0.0817716047, 2.73328924  , -1.56345582 , -1.35184109 , 4.62        , 3           , 11          , 0.00434647966, 0.00434646476
-9.818419   , -0.009592942, 0.0750914961, -8.172528E-05, -0.001095634, 0.000181779382, 0.374275327 , 0.43292436  , 0.08163678  , 2.73328924  , -1.56345582 , -1.35184193 , 4.63        , 3           , 12          , 0.06950584  , 0
-9.812008   , -0.005919613, 0.06390054  , 0.00133965525, -0.001675562, -0.0006764928, 0.376499921 , 0.4331266   , 0.0815693662, 2.73328924  , -1.56343961 , -1.35182858 , 4.64        , 3           , 50          , 0           , 0
-9.806511   , -0.0439095572, 0.06938461  , 0.000762248761, -0.00224550045, -0.000402102567, 0.374410152 , 0.4331266   , 0.08163678  , 2.73328924  , -1.56343961 , -1.35182083 , 4.65        , 3           , 11          , 0.00434647966, 0.00434646476
-9.814535   , -0.03970826 , 0.06258391  , 0.00306828739, 0.0008760747, 0.000516005442, 0.374410152 , 0.4331266   , 0.08163678  , 2.73328924  , -1.5634234  , -1.35179007 , 4.66        , 3           , 12          , 0.06950584  , 0
-9.820653   , -0.0215639174, 0.057768438 , 0.004203567 , 0.00114341674, 0.00138552464, 0.375016838 , 0.432789534 , 0.0812997147, 2.73328924  , -1.56345582 , -1.35174823 , 4.67        , 3           , 50          , 0           , 0
-9.82070351 , -0.0243129022, 0.06180149  , 0.000222249364, -0.000225988537, -0.00123480684, 0.37575838  , 0.43339625  , 0.0817716047, 2.73328924  , -1.56344771 , -1.351746   , 4.68        , 3           , 11          , 0.00434647966, 0.00434646476
-9.809619   , -0.0228927787, 0.08856973  , 0.00448829448, 1.21272706E-05, -0.000632604235, 0.3741405   , 0.432856947 , 0.08170419  , 2.73328924  , -1.56343961 , -1.351701   , 4.69        , 3           , 12          , 0.06950584  , 0
-9.820521   , -0.00355672464, 0.0606876537, -0.001733914, 0.00265362067, -0.00148825417, 0.376162857 , 0.4331266   , 0.08143454  , 2.73328924  , -1.5634234  , -1.35171866 , 4.7         , 3           , 50          , 0           , 0
-9.817869   , -0.016564576, 0.05197972  , 0.0008246725, 0.002343594 , -0.00176317117, 0.376162857 , 0.4331266   , 0.08143454  , 2.73328924  , -1.56345582 , -1.3517102  , 4.71        , 3           , 11          , 0.00450446876, 0.00450444454
-9.824329   , -0.0274330471, 0.0612804443, 0.00160125026, -0.002846535, 0.000742321368, 0.374949455 , 0.4330592   , 0.08170419  , 2.73328924  , -1.5634234  , -1.35169423 , 4.72        , 3           , 12          , 0.07060373  , 0
-9.815053   , -0.0380265228, 0.0743425861, 0.00361875328, -0.002549469, -0.00267547951, 0.374477565 , 0.43292436  , 0.08143454  , 2.73328924  , -1.5634073  , -1.351658   , 4.73        , 3           , 50          , 0           , 0
-9.814592   , -0.03801593 , 0.07299185  , -0.0035049154, -0.0019296651, 0.000151672808, 0.376297683 , 0.433328837 , 0.08163678  , 2.73328924  , -1.56337512 , -1.351693   , 4.74        , 3           , 11          , 0.00450446876, 0.00450444454
-9.795201   , -0.04125374 , 0.06500234  , -0.0004005485, -0.004251525, -0.00014903213, 0.3741405   , 0.432991773 , 0.0817716047, 2.73328924  , -1.563359   , -1.35169709 , 4.75        , 3           , 12          , 0.07060373  , 0
-9.81085    , -0.0160206612, 0.07960386  , -0.00124122319, -0.00281507941, 0.000439023337, 0.3758258   , 0.432991773 , 0.08143454  , 2.73328924  , -1.5633111  , -1.3517096  , 4.76        , 3           , 50          , 0           , 0
-9.79462051 , -0.02636809 , 0.0642761   , 0.002766518 , -0.00112838042, -0.000370439957, 0.3758258   , 0.432991773 , 0.08143454  , 2.73328924  , -1.56329525 , -1.351682   , 4.77        , 3           , 11          , 0.00450446876, 0.00450444454
-9.800778   , -0.0145170772, 0.0575808547, 0.00250517763, 0.0008805632, -0.000342938583, 0.375421315 , 0.433531076 , 0.08163678  , 2.73328924  , -1.56330311 , -1.35165679 , 4.78        , 3           , 12          , 0.07060373  , 0
-9.806184   , -0.0100238882, 0.0634550154, -0.00117852364, 0.0026299248, 0.0005183205, 0.37434274  , 0.43292436  , 0.08170419  , 2.73328924  , -1.56332707 , -1.3516686  , 4.79        , 3           , 50          , 0           , 0
-9.80144    , -0.0286363978, 0.07096259  , -0.00352989533, -0.00393657526, 0.000421689358, 0.376769572 , 0.43339625  , 0.08170419  , 2.73328924  , -1.5633111  , -1.35170424 , 4.8         , 3           , 11          , 0.00465957029, 0.004659567
-9.830111   , -0.0139178205, 0.06725528  , -0.00263560261, -0.000222274524, 0.000767249556, 0.374477565 , 0.432991773 , 0.0815693662, 2.73328924  , -1.56331909 , -1.35173059 , 4.81        , 3           , 12          , 0.0717042759, 0
-9.821275   , -0.0316154137, 0.07029413  , 0.004204157 , 0.000854691141, 0.00082506513, 0.374477565 , 0.432991773 , 0.0815693662, 2.73328924  , -1.56331909 , -1.3516885  , 4.82        , 3           , 50          , 0           , 0
-9.815838   , -0.027604308, 0.0703904256, 0.00306201261, -0.0008327491, -0.00149614154, 0.3752865   , 0.432856947 , 0.08116489  , 2.73328924  , -1.5633111  , -1.35165787 , 4.83        , 3           , 11          , 0.00465957029, 0.004659567
-9.801734   , -0.0154836327, 0.0643363148, 0.00105221709, -0.00111957721, 0.000777003064, 0.376028031 , 0.433328837 , 0.0817716047, 2.73328924  , -1.5633111  , -1.35164738 , 4.84        , 3           , 12          , 0.0717042759, 0
-9.823954   , -0.03645508 , 0.0611797571, 0.0004954295, 0.000595438934, 0.00194327359, 0.3742079   , 0.432991773 , 0.0815693662, 2.73328924  , -1.5633111  , -1.35164249 , 4.85        , 3           , 50          , 0           , 0
-9.81724548 , -0.0352482572, 0.06938586  , -4.317338E-05, 0.0009236306, -0.00206227577, 0.376567334 , 0.433194    , 0.08143454  , 2.73328924  , -1.56331909 , -1.35164285 , 4.86        , 3           , 11          , 0.00465957029, 0.004659567
-9.830165   , -0.0108872894, 0.07903378  , 0.00335112563, -0.000265039969, -0.0011999174, 0.374882042 , 0.433194    , 0.08163678  , 2.73328924  , -1.5633111  , -1.35160923 , 4.87        , 3           , 12          , 0.0717042759, 0
-9.817611   , -0.0168636572, 0.0795319453, 0.000184878387, -0.00282270461, -0.000111670379, 0.374882042 , 0.433194    , 0.08163678  , 2.73328924  , -1.56329525 , -1.35160756 , 4.88        , 3           , 50          , 0           , 0
-9.80498    , -0.020498421, 0.0719273537, -0.000105342457, -0.00282749347, 0.0007451083, 0.375084251 , 0.432789534 , 0.08136713  , 2.73328924  , -1.56326342 , -1.35160863 , 4.89        , 3           , 11          , 0.00465957029, 0.004659567
-9.825445   , -0.0304258056, 0.08878894  , 0.00133232458, -0.0028252257, -0.00152771955, 0.376028031 , 0.4335985   , 0.08170419  , 2.73328924  , -1.563232   , -1.35159528 , 4.9         , 3           , 12          , 0.07280717  , 0
-9.815562   , -0.0452370979, 0.07425467  , -0.000364149775, -0.00110121071, -8.213888E-05, 0.373938262 , 0.43292436  , 0.08150195  , 2.73328924  , -1.56321609 , -1.35159886 , 4.91        , 3           , 50          , 0           , 0
-9.804369   , -0.006010445, 0.06622819  , -0.00461754948, 8.845031E-05, -9.114566E-05, 0.376028031 , 0.4330592   , 0.08136713  , 2.73328924  , -1.563232   , -1.35164511 , 4.92        , 3           , 11          , 0.00480806176, 0.00480807
-9.823875   , -0.0203095712, 0.06949732  , 0.00389886135, -0.000302734174, 0.00195923052, 0.376028031 , 0.4330592   , 0.08136713  , 2.73328924  , -1.563232   , -1.35160613 , 4.93        , 3           , 12          , 0.07280717  , 0
-9.816404   , -0.0255539231, 0.089831695 , 0.003930777 , 0.00115063775, -0.0003092137, 0.375488728 , 0.433194    , 0.08150195  , 2.73328924  , -1.563232   , -1.35156679 , 4.94        , 3           , 50          , 0           , 0
-9.82437    , -0.0230449587, 0.07262305  , -0.0006557437, -0.0013900192, 0.0004843022, 0.3746798   , 0.432991773 , 0.08150195  , 2.73328924  , -1.56321609 , -1.35157335 , 4.95        , 3           , 11          , 0.00480806176, 0.00480807
-9.817343   , -0.0120013673, 0.0466169119, 0.00105282292, -0.00140479743, 0.000208418583, 0.3764325   , 0.433194    , 0.08170419  , 2.73328924  , -1.56320834 , -1.35156286 , 4.96        , 3           , 12          , 0.07280717  , 0
-9.794853   , -0.017128313, 0.0440543927, 0.00248547667, -0.0008409682, -0.000346995424, 0.374005675 , 0.432856947 , 0.08143454  , 2.73328924  , -1.56320047 , -1.35153806 , 4.97        , 3           , 50          , 0           , 0
-9.810988   , -0.0273610465, 0.0857954   , 0.000740056566, -0.00369710033, 0.000459480885, 0.3758258   , 0.432991773 , 0.08136713  , 2.73328924  , -1.56316912 , -1.35153067 , 4.98        , 3           , 11          , 0.00480806176, 0.00480807
-9.804896   , -0.0119118579, 0.07022046  , 0.007885428 , -0.0006195299, 0.000834388658, 0.3758258   , 0.432991773 , 0.08136713  , 2.73328924  , -1.56316912 , -1.35145187 , 4.99        , 3           , 12          , 0.07280717  , 0
-9.813174   , -0.0281319618, 0.07537745  , 0.0024721832, -0.000860517961, 0.00167154451, 0.375488728 , 0.433463663 , 0.0817716047, 2.73328924  , -1.56318474 , -1.35142648 , 5           , 3           , 50          , 0           , 0
-9.799058   , -0.0231144913, 0.0588525161, 0.00364378537, 0.0005838549, -0.0008762103, 0.37434274  , 0.4326547   , 0.0815693662, 2.73328924  , -1.56318474 , -1.35139012 , 5.01        , 3           , 11          , 0.00495204236, 0.00495208
-9.813936   , -0.0190092269, 0.06644187  , 0.00166809768, 0.00259989849, 0.000285666669, 0.376837    , 0.433328837 , 0.08143454  , 2.73328924  , -1.563232   , -1.35137331 , 5.02        , 3           , 12          , 0.0739121661, 0
-9.823572   , -0.035673324, 0.07203292  , 0.00364048546, 0.00029727575, -0.0008803839, 0.3746124   , 0.4331266   , 0.08163678  , 2.73328924  , -1.56320047 , -1.35133672 , 5.03        , 3           , 50          , 0           , 0
-9.795176   , -0.04521995 , 0.0563746169, 0.000213717431, 0.00031403458, 0.00110220339, 0.3746124   , 0.4331266   , 0.08163678  , 2.73328924  , -1.56321609 , -1.35133469 , 5.04        , 3           , 11          , 0.00495204236, 0.00495208
-9.81022    , -0.02509681 , 0.04246603  , 0.000515211257, 0.00146258064, 0.000548282929, 0.375151664 , 0.432856947 , 0.08136713  , 2.73328924  , -1.563232   , -1.35132957 , 5.05        , 3           , 12          , 0.0739121661, 0
-9.801803   , -0.0276096985, 0.0596787669, 0.00364378537, 0.0005838549, -0.0008762103, 0.376162857 , 0.433463663 , 0.08163678  , 2.73328924  , -1.563232   , -1.35129309 , 5.06        , 3           , 50          , 0           , 0
-9.806124   , -0.00726038776, 0.0580671355, -0.000108660555, -0.003966406, -0.000679097, 0.3740731   , 0.43292436  , 0.0815693662, 2.73328924  , -1.56319261 , -1.35129416 , 5.07        , 3           , 11          , 0.00495204236, 0.00495208
-9.797504   , -0.0103508877, 0.04501163  , 0.00217179721, -0.00257198419, 0.00107246183, 0.376567334 , 0.4330592   , 0.08143454  , 2.73328924  , -1.56316912 , -1.35127258 , 5.08        , 3           , 12          , 0.0739121661, 0
-9.8156805  , -0.02113194 , 0.0555606745, 0.00336539163, 0.001441363 , -0.000293075136, 0.376567334 , 0.4330592   , 0.08143454  , 2.73328924  , -1.56320047 , -1.35123873 , 5.09        , 3           , 50          , 0           , 0
-9.817627   , -0.0213388465, 0.0763182938, 0.00279238727, 0.0005992144, -0.00116472226, 0.375151664 , 0.433194    , 0.08150195  , 2.73328924  , -1.56321609 , -1.35121083 , 5.1         , 3           , 11          , 0.00509591447, 0.005095985
