Acc X       , Acc Y       , Acc Z       , Gyro X      , Gyro Y      , Gyro Z      , Magn X      , Magn Y      , Magn Z      , Euler X     , Euler Y     , Euler Z     , Time        , Status      , LowRate X   , LowRate Y   , LowRate Z    
0.0375557244, -9.768343   , -0.00246697664, 0.00381902978, 0.003235102 , 0.000222143834, -0.118916005, 0.342186868 , -0.419441819, 1.56928337  , 0.002831135 , -1.84455764 , 0           , 3           , 11          , 0.0346410163, 0.0346410163
0.0547168553, -9.769747   , -0.0113592464, 0.00224979268, 0.0032445963, 0.0009281302, -0.118848592, 0.341714978 , -0.419576645, 1.569306    , 0.00282186642, -1.8445251  , 0.01        , 3           , 12          , 0.0346410163, 0
0.02641675  , -9.772517   , -0.024750568, 0.0010934734, 0.0013972295, 0.000464902638, -0.118781179, 0.3423891   , -0.419239581, 1.569317    , 0.00281715766, -1.84451127 , 0.02        , 3           , 50          , 0           , 0
0.0224516168, -9.800639   , -0.0065922034, -0.001749686, 0.00128667522, 1.64359117E-05, -0.119118243, 0.340973437 , -0.4193744  , 1.56929946  , 0.00281697884, -1.8444984  , 0.03        , 3           , 11          , 0.0346410163, 0.0346410163
0.0356369242, -9.787647   , -0.009031165, -0.00145479222, 0.00186206307, -0.00054583163, -0.119118243, 0.340973437 , -0.4193744  , 1.569285    , 0.00282246247, -1.8444798  , 0.04        , 3           , 12          , 0.0346410163, 0
0.03254053  , -9.781749   , -0.009894937, -0.000482617179, -0.00100104464, -0.00201239018, -0.118983418, 0.3423891   , -0.4193744  , 1.56928015  , 0.00284254923, -1.84448981 , 0.05        , 3           , 50          , 0           , 0
0.02177381  , -9.780705   , -0.0144988261, -0.000364604784, -0.00244562328, -0.0008877452, -0.119050831, 0.342119455 , -0.419037342, 1.56927645  , 0.00285140076, -1.84451437 , 0.06        , 3           , 11          , 0.0346410163, 0.0346410163
0.0218212   , -9.780632   , -0.02127296 , 0.002632457 , -0.000910016941, 0.000297856 , -0.119118243, 0.34151274  , -0.419441819, 1.5693028   , 0.00284842052, -1.84452343 , 0.07        , 3           , 12          , 0.0346410163, 0
0.0332856737, -9.796239   , -0.00508669764, 0.00251911767, 0.00110516045, -0.000532278034, -0.118646353, 0.34245652  , -0.4193744  , 1.569328    , 0.00285381475, -1.84451246 , 0.08        , 3           , 50          , 0           , 0
0.05729104  , -9.789107   , -0.0165276583, -0.00160237146, 0.00115089922, -0.0009863683, -0.118646353, 0.34245652  , -0.4193744  , 1.56931186  , 0.00286367931, -1.8445009  , 0.09        , 3           , 11          , 0.0346410163, 0.0346410163
0.0240379386, -9.773582   , -0.007620394, 0.000519367168, -1.32266568E-05, -0.00143781537, -0.119185656, 0.340973437 , -0.419509232, 1.56924057  , 0.003999721 , -1.84450138 , 0.1         , 3           , 12          , 0.0346410163, 0
0.0231374539, -9.773574   , -0.00762859127, 0.002636444 , -0.0016085247, -0.00173408317, -0.118713766, 0.34198463  , -0.419239581, 1.56926692  , 0.004017036 , -1.84451735 , 0.11        , 3           , 50          , 0           , 0
0.04525307  , -9.785257   , -0.02924135 , 0.000330670649, -0.00388315972, -0.00120885076, -0.119118243, 0.342254281 , -0.419104755, 1.56927     , 0.004029106 , -1.84455621 , 0.12        , 3           , 11          , 0.0346410163, 0.0346410163
0.02338747  , -9.800147   , -0.0110948589, 0.00078482664, -0.00117011147, -0.0005943041, -0.118983418, 0.3413105   , -0.419441819, 1.56927788  , 0.0040349476, -1.84456778 , 0.13        , 3           , 12          , 0.0346410163, 0
0.019617863 , -9.777868   , -0.02487487 , 0.00251345849, 0.00138152507, 0.0005981941, -0.118781179, 0.342658758 , -0.419441819, 1.56930315  , 0.00402898667, -1.844554   , 0.14        , 3           , 50          , 0           , 0
0.03382716  , -9.801      , -0.0241077915, 0.0017824145, 0.000233474246, 0.00157879048, -0.118781179, 0.342658758 , -0.419441819, 1.5693208   , 0.00401322125, -1.84455156 , 0.15        , 3           , 11          , 0.0346410163, 0.0346410163
0.0341337472, -9.809236   , -0.0133593995, -0.000799958536, -0.00160456356, 0.00167932385, -0.119253069, 0.3412431   , -0.4193744  , 1.56931281  , 0.003996383 , -1.84456766 , 0.16        , 3           , 12          , 0.0346410163, 0
0.0364516824, -9.760831   , -0.02904034 , -0.002217618, -0.00144298642, 0.00124359783, -0.118983418, 0.341647565 , -0.419509232, 1.56929064  , 0.00398392556, -1.84458208 , 0.17        , 3           , 50          , 0           , 0
0.0250045527, -9.769037   , -0.01162429 , -0.005453463, 0.0003301953, -0.00104037719, -0.118848592, 0.342052042 , -0.419307   , 1.569236    , 0.00399435638, -1.84457886 , 0.18        , 3           , 11          , 0.0346410163, 0.0346410163
0.02975312  , -9.793876   , -0.012319006, -0.00588494027, 0.0003281309, -0.0003275373, -0.119118243, 0.340973437 , -0.419644058, 1.56917727  , 0.00399766443, -1.84457564 , 0.19        , 3           , 12          , 0.0346410163, 0
0.0417910442, -9.809298   , -0.0137413852, -0.00273539382, 0.0018674077, 0.000303623441, -0.119118243, 0.340973437 , -0.419644058, 1.56930065  , 0.00359404855, -1.84455633 , 0.2         , 3           , 50          , 0           , 0
0.0455445051, -9.781498   , -0.00164197572, -0.000305538735, 0.00157674274, -0.00197529839, -0.118781179, 0.342523932 , -0.419307   , 1.56929779  , 0.00361371832, -1.8445406  , 0.21        , 3           , 11          , 0.0273976866, 0.02739772
0.03469126  , -9.781477   , 0.00503386371, 0.00295658456, 0.0006850545, -0.00211119675, -0.119253069, 0.341917217 , -0.419104755, 1.56932735  , 0.00363478856, -1.84453368 , 0.22        , 3           , 12          , 0.0346698463, 0
0.0298061464, -9.78044    , -0.00358126685, 0.004936657 , 0.000368009845, -0.0009587207, -0.119050831, 0.341714978 , -0.419509232, 1.56937671  , 0.00364435534, -1.84453011 , 0.23        , 3           , 50          , 0           , 0
0.0298975427, -9.775848   , -0.0112062283, 0.003934096 , 0.0005098952, 0.000325107336, -0.118578941, 0.342119455 , -0.419239581, 1.569416    , 0.003641077 , -1.84452486 , 0.24        , 3           , 11          , 0.0273976866, 0.02739772
0.0297869556, -9.776018   , 0.004600074 , 0.0007004319, 0.004120246 , 0.0009299005, -0.118578941, 0.342119455 , -0.419239581, 1.56942308  , 0.00363180833, -1.84448361 , 0.25        , 3           , 12          , 0.0346698463, 0
0.0286346562, -9.776148   , -0.0243203938, -0.000583269342, 0.00455160066, 0.0022161887, -0.119118243, 0.34104085  , -0.419441819, 1.56941748  , 0.00360972481, -1.84443808 , 0.26        , 3           , 50          , 0           , 0
0.0182714015, -9.774734   , -0.0216892175, -0.00102615228, 0.00298230932, 0.00190450018, -0.118713766, 0.34198463  , -0.4193744  , 1.56940734  , 0.0035907405, -1.84440827 , 0.27        , 3           , 11          , 0.0273976866, 0.02739772
0.0343633927, -9.777279   , -0.00756811863, 0.000140500022, 0.00399681367, -0.000649515132, -0.118983418, 0.342186868 , -0.419037342, 1.56940889  , 0.0035972672, -1.84436834 , 0.28        , 3           , 12          , 0.0346698463, 0
0.021864932 , -9.783236   , -0.0307881739, 0.00196282752, 0.00126192777, -0.00139343669, -0.118916005, 0.3413105   , -0.419307   , 1.56942856  , 0.003611215 , -1.84435582 , 0.29        , 3           , 50          , 0           , 0
0.0173795521, -9.770706   , -0.0180373918, 0.00247366726, -0.00175941922, -0.0007040501, -0.118511528, 0.3423891   , -0.419441819, 1.56923735  , 0.00345117529, -1.84437418 , 0.3         , 3           , 11          , 0.020971179 , 0.02097118
0.019881716 , -9.778158   , 0.00177413784, 0.00147399667, -0.00161369424, 0.0001505318, -0.118511528, 0.3423891   , -0.419441819, 1.569252    , 0.00344965537, -1.84439039 , 0.31        , 3           , 12          , 0.0347559527, 0
0.00631295657, -9.799946   , -0.01621818 , 0.00147069665, -0.00190027338, 0.0001463583, -0.119253069, 0.341108263 , -0.4193744  , 1.56926668  , 0.00344813545, -1.84440947 , 0.32        , 3           , 50          , 0           , 0
0.01054478  , -9.790803   , -0.03097962 , 0.00277722068, -0.0001848434, -0.000822464353, -0.118983418, 0.3418498   , -0.419576645, 1.56929445  , 0.00345633132, -1.84441125 , 0.33        , 3           , 11          , 0.020971179 , 0.02097118
0.00871968  , -9.776135   , -0.009597508, 0.00320951734, 0.0003827007, -0.0006684652, -0.118781179, 0.342119455 , -0.419239581, 1.56932652  , 0.00346306665, -1.84440744 , 0.34        , 3           , 12          , 0.0347559527, 0
0.009608295 , -9.766368   , 0.00407420471, 0.00190642569, -0.0006226802, 0.00102620118, -0.119185656, 0.34104085  , -0.419576645, 1.56934547  , 0.00345281442, -1.84441376 , 0.35        , 3           , 50          , 0           , 0
0.00959234  , -9.775741   , -0.00506798737, 0.00251642265, 0.0025303103, 0.0003601269, -0.119185656, 0.34104085  , -0.419576645, 1.56937075  , 0.00344932755, -1.84438837 , 0.36        , 3           , 11          , 0.020971179 , 0.02097118
0.02383832  , -9.799705   , -0.0106339175, 0.005101687 , 0.004372187 , -0.000169652529, -0.118916005, 0.342523932 , -0.419576645, 1.56942189  , 0.00345102628, -1.84434462 , 0.37        , 3           , 12          , 0.0347559527, 0
0.0433400571, -9.781853   , -0.008893434, 0.00280952267, 0.00352660846, 0.0008056936, -0.119185656, 0.341580153 , -0.4193744  , 1.56945014  , 0.00344303926, -1.84430933 , 0.38        , 3           , 50          , 0           , 0
0.0568725541, -9.779706   , -0.009647593, 0.000117663672, 0.00370886712, -0.0004962347, -0.119050831, 0.34151274  , -0.419441819, 1.56945145  , 0.00344795664, -1.84427238 , 0.39        , 3           , 11          , 0.020971179 , 0.02097118
0.03217784  , -9.763805   , -0.0006572902, -0.000489035156, 0.000131184061, -0.0004377972, -0.118848592, 0.3423217   , -0.419172168, 1.5694797   , 0.00367099862, -1.844271   , 0.4         , 3           , 12          , 0.0348984972, 0
0.0324967951, -9.779145   , -0.000379716977, -0.00251985877, -0.00272333855, 0.000510047656, -0.119253069, 0.341108263 , -0.419509232, 1.56945443  , 0.00366584281, -1.84429812 , 0.41        , 3           , 50          , 0           , 0
0.032017082 , -9.796101   , -0.01684081 , -0.00167891977, -0.003312844, 0.00136533275, -0.119253069, 0.341108263 , -0.419509232, 1.5694375   , 0.00365213375, -1.84433126 , 0.42        , 3           , 11          , 0.0197842587, 0.019784268
0.0219557676, -9.767517   , -0.0247338843, 0.0006130998, -0.00190306536, 0.00139990752, -0.119118243, 0.3423217   , -0.419441819, 1.56944358  , 0.00363812642, -1.84435022 , 0.43        , 3           , 12          , 0.0348984972, 0
0.05091325  , -9.79272652 , -0.0103043765, 7.351017E-05, 0.0003991862, 0.0010006231, -0.119185656, 0.34198463  , -0.419037342, 1.56944442  , 0.00362811284, -1.844346   , 0.44        , 3           , 50          , 0           , 0
0.02380734  , -9.799308   , -0.00566098467, 0.0007848868, 0.000251232123, 0.0007166558, -0.119118243, 0.34151274  , -0.419441819, 1.56945217  , 0.00362087088, -1.84434354 , 0.45        , 3           , 11          , 0.0197842587, 0.019784268
0.03289938  , -9.786345   , -0.00226588733, 0.00293620373, 0.00138227548, 3.07903938E-05, -0.118713766, 0.342523932 , -0.419239581, 1.56948161  , 0.00362060266, -1.84432983 , 0.46        , 3           , 12          , 0.0348984972, 0
0.0337581523, -9.798434   , -0.0109797139, 0.00179047079, 0.000536656 , -0.0002747478, -0.118713766, 0.342523932 , -0.419239581, 1.56949961  , 0.00362334447, -1.84432447 , 0.47        , 3           , 50          , 0           , 0
0.0249110479, -9.78209    , -0.01403428 , 0.000616122852, -0.00147575629, 0.00169233175, -0.119185656, 0.34104085  , -0.419441819, 1.56950581  , 0.00360635715, -1.84433913 , 0.48        , 3           , 11          , 0.0197842587, 0.019784268
0.01795462  , -9.764732   , -0.0288037881, 0.0019064123, -0.0003462823, 0.00214598235, -0.118916005, 0.342052042 , -0.4193744  , 1.56952477  , 0.00358495885, -1.84434259 , 0.49        , 3           , 12          , 0.0348984972, 0
0.0370670669, -9.771069   , -0.000244461, 0.00195592  , 0.003549335 , -0.0007864992, -0.118916005, 0.342254281 , -0.419239581, 1.56945968  , 0.003504522 , -1.8443073  , 0.5         , 3           , 50          , 0           , 0
0.0242639389, -9.787729   , 0.007575976 , -0.00102699047, 0.0041489955, -0.0003668968, -0.119050831, 0.3412431   , -0.419239581, 1.56944954  , 0.00350833661, -1.8442657  , 0.51        , 3           , 11          , 0.0190561228, 0.0190561432
0.0194527488, -9.774116   , 0.00362362526, -0.001778798, 0.00128018972, 0.0007317403, -0.118646353, 0.342658758 , -0.419239581, 1.56943178  , 0.003501035 , -1.844253   , 0.52        , 3           , 12          , 0.0350963548, 0
0.0267758686, -9.769989   , -0.008457132, 0.000498926151, 0.00111890223, 0.000171032792, -0.118646353, 0.342658758 , -0.419239581, 1.56943679  , 0.00349933631, -1.84424174 , 0.53        , 3           , 50          , 0           , 0
0.0136230234, -9.775364   , -0.0014130231, 0.0009297168, 0.0009789567, -0.000686975836, -0.119118243, 0.3412431   , -0.419644058, 1.56944609  , 0.00350631  , -1.844232   , 0.54        , 3           , 11          , 0.0190561228, 0.0190561432
0.0190711785, -9.813425   , 0.0108451713, 0.00121057965, 0.0008302181, -0.0004011852, -0.118848592, 0.341647565 , -0.419509232, 1.56945837  , 0.00351036317, -1.84422362 , 0.55        , 3           , 12          , 0.0350963548, 0
0.0225627348, -9.786224   , -0.00506972149, -0.00179529784, -0.000152706067, 0.0007108728, -0.118916005, 0.342254281 , -0.419307   , 1.56944036  , 0.0035033   , -1.844225   , 0.56        , 3           , 50          , 0           , 0
0.01795866  , -9.800585   , -0.007987985, -0.00379118323, -0.00112654746, -0.0003173023, -0.119118243, 0.340906024 , -0.419509232, 1.56940234  , 0.00350648887, -1.84423625 , 0.57        , 3           , 11          , 0.0190561228, 0.0190561432
0.0262325145, -9.778139   , -0.00494265743, -0.0013405761, 0.00129121239, -0.0009826734, -0.119118243, 0.340906024 , -0.419509232, 1.5693891   , 0.003516264 , -1.8442235  , 0.58        , 3           , 12          , 0.0350963548, 0
0.00191192876, -9.781056   , -0.007910132, -0.000206404773, 0.00212147483, 0.00103984878, -0.118848592, 0.34245652  , -0.419576645, 1.56938708  , 0.00350589282, -1.844202   , 0.59        , 3           , 50          , 0           , 0
0.0358060375, -9.795401   , -0.04299611 , -0.00178148248, 0.000554733 , 0.00179069873, -0.119118243, 0.34198463  , -0.419307   , 1.569424    , 0.00318578421, -1.84419632 , 0.6         , 3           , 11          , 0.0188620575, 0.0188620742
0.0312743373, -9.791401   , -0.03395773 , -0.00247180718, 0.00129504176, -6.321707E-05, -0.118781179, 0.34151274  , -0.4193744  , 1.56939936  , 0.00318646966, -1.84418344 , 0.61        , 3           , 12          , 0.03534818  , 0
-5.957781E-05, -9.7951     , -0.00041157566, -4.87077159E-05, 0.00198308844, 0.0003910266, -0.118511528, 0.342254281 , -0.419441819, 1.569399    , 0.00318259536, -1.84416354 , 0.62        , 3           , 50          , 0           , 0
0.0215618685, -9.788151   , 0.007094559 , 0.00353525137, 0.004665631 , 0.0008813386, -0.119253069, 0.340906024 , -0.419778883, 1.56943452  , 0.003173893 , -1.84411693 , 0.63        , 3           , 11          , 0.0188620575, 0.0188620742
0.0329359174, -9.796526   , -0.01999912 , 0.003425489 , 0.006826658 , -0.000232872626, -0.119253069, 0.340906024 , -0.419778883, 1.569469    , 0.00317636668, -1.8440485  , 0.64        , 3           , 12          , 0.03534818  , 0
0.0356990136, -9.79066849 , -0.0217128731, 0.00110706931, 0.00312424568, -0.0003008357, -0.118916005, 0.342119455 , -0.419509232, 1.56948006  , 0.00317937671, -1.84401727 , 0.65        , 3           , 50          , 0           , 0
0.0399815142, -9.790154   , 0.0108543783, -0.00150431716, -0.00115099479, -9.26952562E-05, -0.119118243, 0.342119455 , -0.419172168, 1.569465    , 0.00318033039, -1.84402871 , 0.66        , 3           , 11          , 0.0188620575, 0.0188620742
0.0156920478, -9.777639   , -0.0429760665, -0.000647011, -0.000731074659, 6.178724E-05, -0.119118243, 0.3413779   , -0.419307   , 1.56945848  , 0.00317976414, -1.8440361  , 0.67        , 3           , 12          , 0.03534818  , 0
0.0262960419, -9.78471851 , -0.0221823733, 0.00110541924, 0.00298095634, -0.000302922446, -0.118916005, 0.34245652  , -0.4193744  , 1.56946957  , 0.00318289339, -1.84400618 , 0.68        , 3           , 50          , 0           , 0
0.04470571  , -9.789409   , -0.020260429, -0.00100973051, 0.00457881344, -0.000292818469, -0.118916005, 0.34245652  , -0.4193744  , 1.56945968  , 0.00318593322, -1.8439604  , 0.69        , 3           , 11          , 0.0188620575, 0.0188620742
0.03075181  , -9.786611   , -0.0176463015, -0.00146350125, 0.00458696  , -0.000781120732, -0.119118243, 0.341108263 , -0.419441819, 1.56933272  , 0.003405637 , -1.843915   , 0.7         , 3           , 12          , 0.0356524326, 0
0.03669782  , -9.785629   , -0.0297760069, -0.000472767, 0.003582778 , -0.00179130514, -0.118983418, 0.3417824   , -0.419239581, 1.56932807  , 0.00342360814, -1.84387922 , 0.71        , 3           , 50          , 0           , 0
0.0167585053, -9.791886   , -0.0191909373, -0.00107725989, 0.0005781962, -0.001695472, -0.118916005, 0.342186868 , -0.419104755, 1.56931734  , 0.003440655 , -1.8438735  , 0.72        , 3           , 11          , 0.0183492079, 0.018349221
0.0179174747, -9.798423   , 0.0006187726, -0.0009496128, -0.00085358473, -0.00200164737, -0.119185656, 0.3412431   , -0.4193744  , 1.5693078   , 0.00346068246, -1.84388208 , 0.73        , 3           , 12          , 0.0356524326, 0
0.0347229242, -9.795228   , -0.0163541511, 0.000492242165, 0.00141564209, -0.000958118064, -0.119185656, 0.3412431   , -0.4193744  , 1.56931281  , 0.00347021921, -1.84386778 , 0.74        , 3           , 50          , 0           , 0
0.034473747 , -9.816086   , -0.00575654954, 0.00162999041, 0.00239175349, 0.0007803272, -0.118916005, 0.342591345 , -0.419576645, 1.56932914  , 0.0034624408, -1.84384382 , 0.75        , 3           , 11          , 0.0183492079, 0.018349221
0.0314945169, -9.802885   , -0.0146654528, 0.00231372728, 9.061641E-05, 0.0008943044, -0.119185656, 0.34151274  , -0.419307   , 1.56935227  , 0.00345352967, -1.84384286 , 0.76        , 3           , 12          , 0.0356524326, 0
0.0140870856, -9.78603    , -0.0164377559, 0.0008748949, -0.00175130123, 0.000143199431, -0.118983418, 0.34151274  , -0.419441819, 1.569361    , 0.00345200975, -1.84386027 , 0.77        , 3           , 50          , 0           , 0
0.0270600673, -9.785381   , -0.003211867, 0.00031522807, -0.00102779421, 7.124436E-06, -0.118713766, 0.342119455 , -0.419239581, 1.56936407  , 0.00345198  , -1.84387064 , 0.78        , 3           , 11          , 0.0183492079, 0.018349221
0.0157329813, -9.793405   , -0.00295694172, 0.00247038738, 0.00109603791, 0.0004805224, -0.119050831, 0.34104085  , -0.419441819, 1.56938887  , 0.00344718178, -1.84385955 , 0.79        , 3           , 12          , 0.0356524326, 0
0.02889873  , -9.780888   , -0.00314309075, 0.00211633742, 0.001099178 , 0.0007434651, -0.119050831, 0.34104085  , -0.419441819, 1.56964779  , 0.003043835 , -1.84384787 , 0.8         , 3           , 50          , 0           , 0
0.0257817749, -9.7808075  , -0.008139456, 0.00110072072, -0.000469453254, 0.00100067782, -0.118916005, 0.3423891   , -0.4193744  , 1.56965876  , 0.00303382147, -1.84385252 , 0.81        , 3           , 11          , 0.0173046533, 0.0173046645
0.05550614  , -9.781943   , -0.0101376828, 0.00308699463, -0.00148374948, -3.509831E-06, -0.118916005, 0.3417824   , -0.419239581, 1.56968963  , 0.003033881 , -1.8438673  , 0.82        , 3           , 12          , 0.03600737  , 0
0.0304229949, -9.776182   , -0.02249758 , 0.00108986883, -0.00231814058, -0.000600352243, -0.119050831, 0.341647565 , -0.419441819, 1.56970048  , 0.00303987134, -1.84389043 , 0.83        , 3           , 50          , 0           , 0
0.0314095169, -9.821266   , -0.0248156339, -0.00229549361, -0.00027101225, -0.00130710821, -0.118646353, 0.3423891   , -0.419037342, 1.56967747  , 0.00305295456, -1.84389317 , 0.84        , 3           , 11          , 0.0173046533, 0.0173046645
0.03706531  , -9.786204   , -0.0184869356, -0.00285269087, 0.00116126391, -0.000574257341, -0.118646353, 0.3423891   , -0.419037342, 1.569649    , 0.00305864681, -1.84388161 , 0.85        , 3           , 12          , 0.03600737  , 0
0.0279064272, -9.801942   , -0.0155909527, -0.00170586212, 0.00243163342, 0.000309869181, -0.119118243, 0.341175675 , -0.4193744  , 1.569632    , 0.003055607 , -1.84385717 , 0.86        , 3           , 50          , 0           , 0
0.0140925664, -9.782015   , -0.0123261232, -0.000141851779, 0.00213300041, -0.000114126648, -0.118848592, 0.3418498   , -0.419441819, 1.56963074  , 0.00305682886, -1.84383583 , 0.87        , 3           , 11          , 0.0173046533, 0.0173046645
0.00865093153, -9.766447   , 0.012194965 , -4.33623E-05, -0.001171783, 0.0006972265, -0.119253069, 0.342119455 , -0.419239581, 1.56963038  , 0.00304982532, -1.84384763 , 0.88        , 3           , 12          , 0.03600737  , 0
0.009703081 , -9.809649   , 0.00267212652, 0.0002628045, 0.000547361851, 0.000437816983, -0.119050831, 0.3412431   , -0.4193744  , 1.569633    , 0.003045504 , -1.843842   , 0.89        , 3           , 50          , 0           , 0
0.03746013  , -9.789854   , -0.0149118863, -0.000636603858, 0.00385577744, 0.000274168677, -0.118848592, 0.342591345 , -0.419307   , 1.56978512  , 0.00281602517, -1.84380317 , 0.9         , 3           , 11          , 0.015781872 , 0.0157818813
0.0218266845, -9.776617   , -0.0171613283, 0.00206158916, 0.00339973718, 0.000141103621, -0.118848592, 0.342591345 , -0.419307   , 1.56980574  , 0.002814684 , -1.84376907 , 0.91        , 3           , 12          , 0.03641111  , 0
0.0302885529, -9.791524   , -0.02177249 , 0.00286746887, -0.000481590017, 0.0005191471, -0.119320482, 0.34104085  , -0.419239581, 1.56983447  , 0.00280943885, -1.84377384 , 0.92        , 3           , 50          , 0           , 0
0.04553436  , -9.793533   , -0.0148800863, 0.0007043251, -0.00247493014, 0.001478656 , -0.118983418, 0.341647565 , -0.4193744  , 1.56984138  , 0.0027946867, -1.84379864 , 0.93        , 3           , 11          , 0.015781872 , 0.0157818813
0.006794266 , -9.777201   , 0.00708515  , -0.000271547848, -0.00116881146, 0.0007760299, -0.118916005, 0.3423217   , -0.419239581, 1.56983864  , 0.002786908 , -1.84381044 , 0.94        , 3           , 12          , 0.03641111  , 0
0.04100415  , -9.781517   , 0.00373636722, 4.21823643E-05, 0.00112477143, 0.000381885562, -0.119050831, 0.341175675 , -0.419441819, 1.56983912  , 0.00278312317, -1.84379911 , 0.95        , 3           , 50          , 0           , 0
0.0441479422, -9.787344   , -0.002173975, 0.000332812866, 0.00141230016, -4.147355E-05, -0.119050831, 0.341175675 , -0.419441819, 1.56984258  , 0.00278357021, -1.843785   , 0.96        , 3           , 11          , 0.015781872 , 0.0157818813
0.0301217809, -9.805133   , -0.0142523237, -0.000377600663, 0.001561534 , 9.941177E-05, -0.118848592, 0.34245652  , -0.419576645, 1.56983888  , 0.00278261653, -1.84376931 , 0.97        , 3           , 12          , 0.03641111  , 0
0.0245617889, -9.779707   , -0.0257539954, 0.00345477532, 0.0009480862, 0.000257277541, -0.119118243, 0.341580153 , -0.419441819, 1.56987345  , 0.00278008333, -1.84375989 , 0.98        , 3           , 50          , 0           , 0
0.009593789 , -9.779299   , -0.009625992, 0.00600744924, 0.000206911456, 0.000119182259, -0.118916005, 0.34151274  , -0.4193744  , 1.56993353  , 0.002778921 , -1.84375787 , 0.99        , 3           , 11          , 0.015781872 , 0.0157818813
0.01788545  , -9.771516   , -0.0270759426, 0.00288909744, 0.00180842169, 0.0008809967, -0.118578941, 0.3423891   , -0.419307   , 1.56995523  , 0.002663407 , -1.84373975 , 1           , 3           , 12          , 0.0368616581, 0
0.029254226 , -9.80641    , -0.0205987468, 0.00174199149, 0.000678782468, 0.000285120943, -0.119320482, 0.340906024 , -0.419509232, 1.56997263  , 0.00266054575, -1.843733   , 1.01        , 3           , 50          , 0           , 0
0.02983613  , -9.786181   , -0.0149395978, 0.00187403464, -4.166982E-05, 0.0005617078, -0.119320482, 0.340906024 , -0.419509232, 1.56999135  , 0.002654913 , -1.84373343 , 1.02        , 3           , 11          , 0.0153942369, 0.0153942443
0.0164476633, -9.786772   , -0.03313727 , 0.00103405863, 0.000549115764, -0.00043665932, -0.118646353, 0.342186868 , -0.419711471, 1.57000184  , 0.00265920465, -1.84372783 , 1.03        , 3           , 12          , 0.0368616581, 0
0.04927706  , -9.789788   , -0.0306117069, 0.0009011964, 0.000704088132, -0.00158008537, -0.118983418, 0.341917217 , -0.419104755, 1.5700109   , 0.00267508952, -1.84372091 , 1.04        , 3           , 50          , 0           , 0
0.0440128446, -9.771277   , -0.028188007, -0.00168462086, -0.000856328756, -0.000473804219, -0.118916005, 0.34151274  , -0.419509232, 1.569994    , 0.00267979829, -1.84372938 , 1.05        , 3           , 11          , 0.0153942369, 0.0153942443
0.03089486  , -9.778824   , -0.0288474429, 0.000452244072, 0.000255518273, 0.0009865604, -0.118713766, 0.3423891   , -0.419239581, 1.5699985   , 0.00266996352, -1.84372687 , 1.06        , 3           , 12          , 0.0368616581, 0
0.0245330166, -9.773072   , -0.0134819783, 0.00628724974, 0.00062487  , 0.00117102731, -0.118713766, 0.3423891   , -0.419239581, 1.57006145  , 0.00265819137, -1.84372056 , 1.07        , 3           , 50          , 0           , 0
0.0225894116, -9.801318   , -0.02737668 , 0.00558193075, 0.0006397727, 0.0003082518, -0.119185656, 0.341108263 , -0.419509232, 1.57011724  , 0.00265521114, -1.84371424 , 1.08        , 3           , 11          , 0.0153942369, 0.0153942443
0.0353247076, -9.792774   , -0.0352914259, 0.002752381 , 0.00195827521, 0.00030989878, -0.118848592, 0.341714978 , -0.419509232, 1.57014477  , 0.0026521415, -1.84369469 , 1.09        , 3           , 12          , 0.0368616581, 0
0.0304590855, -9.777463   , -0.0292874277, 0.00337898219, 0.00108926278, 0.000232439474, -0.119050831, 0.342254281 , -0.419441819, 1.56967282  , 0.00281352177, -1.843685   , 1.1         , 3           , 50          , 0           , 0
0.0141576184, -9.769006   , -0.00585166737, 0.001804795 , 0.000668888155, 0.000932165538, -0.119118243, 0.341175675 , -0.419509232, 1.56969082  , 0.00280416384, -1.84367836 , 1.11        , 3           , 11          , 0.0155047495, 0.0155047635
0.009548297 , -9.791832   , -0.0183532424, 0.00137965276, 0.0003930422, 0.000210011887, -0.118713766, 0.342591345 , -0.419644058, 1.56970465  , 0.00280207768, -1.84367442 , 1.12        , 3           , 12          , 0.0373569429, 0
0.00448156241, -9.81066    , -0.0249408539, 0.002801997 , -0.00018560591, -0.0007913423, -0.118713766, 0.342591345 , -0.419644058, 1.56973267  , 0.002810035 , -1.84367633 , 1.13        , 3           , 50          , 0           , 0
0.03358878  , -9.77975    , -0.0288333483, 0.002129533 , 0.00325928861, -0.0006024614, -0.119118243, 0.341580153 , -0.419441819, 1.56975412  , 0.00281602517, -1.84364367 , 1.14        , 3           , 11          , 0.0155047495, 0.0155047635
0.056933403 , -9.783619   , -0.02324301 , 0.0004649738, 0.00643667625, -0.00142532482, -0.118983418, 0.341580153 , -0.419441819, 1.56975889  , 0.00283033028, -1.84357929 , 1.15        , 3           , 12          , 0.0373569429, 0
0.014010381 , -9.793714   , -0.014720385, 0.0005655227, 0.00355792115, -0.000178465416, -0.118848592, 0.342186868 , -0.419239581, 1.56976461  , 0.002832178 , -1.84354377 , 1.16        , 3           , 50          , 0           , 0
0.0347223133, -9.795674   , -0.016811002, 0.00251850858, 0.0008062333, 0.0007954538, -0.119185656, 0.340973437 , -0.419576645, 1.56978989  , 0.00282425061, -1.84353578 , 1.17        , 3           , 11          , 0.0155047495, 0.0155047635
0.008668182 , -9.769981   , 0.00537893  , -2.24706127E-05, 0.00198623561, -6.176469E-05, -0.119185656, 0.340973437 , -0.419576645, 1.56978965  , 0.00282487646, -1.843516   , 1.18        , 3           , 12          , 0.0373569429, 0
0.010924682 , -9.786908   , -0.0160252862, -0.00314278342, 0.002593739 , -0.000358428952, -0.118713766, 0.34245652  , -0.419711471, 1.5697583   , 0.00282848254, -1.84348989 , 1.19        , 3           , 50          , 0           , 0
0.0393620953, -9.787491   , -0.0266111344, -0.0006423219, -0.000442780583, -0.000175408844, -0.119050831, 0.342052042 , -0.419307   , 1.56969976  , 0.00268146722, -1.84349465 , 1.2         , 3           , 11          , 0.0147120738, 0.0147120962
0.02206727  , -9.791632   , -0.00513668731, 0.00162741693, -0.000473576161, 0.000696790346, -0.119118243, 0.3413779   , -0.419644058, 1.5697161   , 0.00267449347, -1.8434993  , 1.21        , 3           , 12          , 0.03789483  , 0
0.0253277626, -9.781254   , -0.008148786, 0.000213190157, 0.00039804983, 0.000986908 , -0.118781179, 0.34245652  , -0.4193744  , 1.56971824  , 0.002664599 , -1.84349525 , 1.22        , 3           , 50          , 0           , 0
0.03757745  , -9.773207   , -0.01155678 , 0.00109635433, 0.0024043934, 1.96888323E-05, -0.118781179, 0.34245652  , -0.4193744  , 1.56972933  , 0.00266442029, -1.84347117 , 1.23        , 3           , 11          , 0.0147120738, 0.0147120962
0.003935323 , -9.768267   , -0.02445657 , 0.00236464  , 0.00195256306, 0.00102271291, -0.119050831, 0.340973437 , -0.4193744  , 1.569753    , 0.00265419786, -1.84345174 , 1.24        , 3           , 12          , 0.03789483  , 0
0.00524471  , -9.775464   , -0.0272377655, 0.0009098499, -0.0006160405, 0.00140583015, -0.118848592, 0.34198463  , -0.419576645, 1.56976211  , 0.00264010136, -1.84345794 , 1.25        , 3           , 50          , 0           , 0
0.03286923  , -9.789951   , -0.00230780244, 0.0007973413, 0.0009769467, -0.000289056217, -0.118983418, 0.342186868 , -0.419172168, 1.5697701   , 0.00264296238, -1.84344816 , 1.26        , 3           , 11          , 0.0147120738, 0.0147120962
0.0198475961, -9.803138   , -0.02380934 , 0.00253698067, 0.00382540072, -0.000237040513, -0.119050831, 0.341445327 , -0.419441819, 1.56979561  , 0.002645287 , -1.8434099  , 1.27        , 3           , 12          , 0.03789483  , 0
0.0257591642, -9.783513   , -0.008170888, 0.00339236041, 0.00424276153, 0.000203605989, -0.118713766, 0.34245652  , -0.419441819, 1.5698297   , 0.00264334981, -1.84336746 , 1.28        , 3           , 50          , 0           , 0
0.0270327013, -9.793881   , -0.009633919, 0.00135769451, 0.000395449577, -7.81248E-06, -0.118713766, 0.34245652  , -0.419441819, 1.56984329  , 0.00264340942, -1.84336352 , 1.29        , 3           , 11          , 0.0147120738, 0.0147120962
0.0059081167, -9.810555   , -0.0357671753, -0.00463847537, -0.00154608232, -0.000512593542, -0.119253069, 0.3412431   , -0.419441819, 1.5697912   , 0.00266993372, -1.843379   , 1.3         , 3           , 12          , 0.03847317  , 0
0.02024265  , -9.811237   , -0.0257059857, -0.00532936631, 0.000463356671, -5.84162881E-05, -0.119118243, 0.341714978 , -0.419509232, 1.56973791  , 0.00267052976, -1.84337437 , 1.31        , 3           , 50          , 0           , 0
0.0142571246, -9.77464    , -0.0271453727, -0.0003614341, -2.34791969E-05, 0.0006807178, -0.119050831, 0.342254281 , -0.419172168, 1.56973433  , 0.00266379444, -1.84337449 , 1.32        , 3           , 11          , 0.0146992272, 0.0146992551
0.03005772  , -9.769371   , -0.02648756 , 0.00146969734, -0.00232337718, -0.000629271555, -0.119050831, 0.34104085  , -0.419239581, 1.569749    , 0.002670053 , -1.843398   , 1.33        , 3           , 12          , 0.03847317  , 0
0.032031972 , -9.778273   , 0.00278791972, -0.000227452, -0.00172904192, -0.00106045092, -0.119050831, 0.34104085  , -0.419239581, 1.56974661  , 0.00268063275, -1.84341526 , 1.34        , 3           , 50          , 0           , 0
0.0395798758, -9.789186   , 0.00498984754, -0.00347817014, 0.0007298735, 9.99763E-05 , -0.118983418, 0.342523932 , -0.4193744  , 1.5697118   , 0.002679679 , -1.84340787 , 1.35        , 3           , 11          , 0.0146992272, 0.0146992551
0.04535409  , -9.771304   , -0.0268208925, -0.00334034627, 1.70997737E-05, -0.0004819288, -0.119185656, 0.341714978 , -0.419239581, 1.56967843  , 0.002684507 , -1.84340763 , 1.36        , 3           , 12          , 0.03847317  , 0
0.0456097052, -9.796088   , -0.0289113782, -0.00277104485, -0.000693609531, -0.001776674, -0.118983418, 0.34151274  , -0.419239581, 1.56965077  , 0.00270220963, -1.84341455 , 1.37        , 3           , 50          , 0           , 0
0.0470882133, -9.774094   , -0.0205134284, -0.0016334292, -0.000140967968, -0.0007598993, -0.118781179, 0.3423891   , -0.419239581, 1.56963444  , 0.00270977942, -1.843416   , 1.38        , 3           , 11          , 0.0146992272, 0.0146992551
0.0158633925, -9.785637   , -0.0123516582, -0.000631433737, 0.0009862767, 0.000264365779, -0.119253069, 0.340906024 , -0.419307   , 1.56962812  , 0.00270721642, -1.84340608 , 1.39        , 3           , 12          , 0.03847317  , 0
-0.0017830102, -9.791404   , -0.007160172, -0.000475288834, 0.00199548155, -0.000539143744, -0.119253069, 0.340906024 , -0.419307   , 1.56961656  , 0.0026342005, -1.84338617 , 1.4         , 3           , 50          , 0           , 0
0.0168881956, -9.782339   , -0.0263066553, 0.00165168825, 0.00125992112, -0.0008228912, -0.118848592, 0.3423217   , -0.419441819, 1.56963313  , 0.00264245574, -1.84337366 , 1.41        , 3           , 11          , 0.0139237083, 0.0139237363
0.0277429279, -9.774346   , -0.0234044176, -0.00100227632, -0.000578034, -0.000651244947, -0.119118243, 0.342186868 , -0.419104755, 1.56962311  , 0.00264892285, -1.84337938 , 1.42        , 3           , 12          , 0.0390898027, 0
0.00674539432, -9.785288   , 0.004281193 , -0.0003178589, -0.00224332651, 0.000473696855, -0.119320482, 0.34151274  , -0.4193744  , 1.56961989  , 0.002644214 , -1.84340179 , 1.43        , 3           , 50          , 0           , 0
0.0205004327, -9.760988   , -0.00163555332, -0.000303147652, -0.0008833551, 0.000636603159, -0.118713766, 0.3423891   , -0.4193744  , 1.56961679  , 0.00263780658, -1.84341049 , 1.44        , 3           , 11          , 0.0139237083, 0.0139237363
0.00337882829, -9.779109   , -0.0223283637, 0.000508783851, -0.004403899, 0.0007336995, -0.118713766, 0.3423891   , -0.4193744  , 1.5696218   , 0.00263044541, -1.8434546  , 1.45        , 3           , 12          , 0.0390898027, 0
0.0451336838, -9.798794   , -0.0284953043, 0.005841807 , 0.00149236014, 0.0004942931, -0.119185656, 0.340906024 , -0.4193744  , 1.56968009  , 0.00262549822, -1.84343958 , 1.46        , 3           , 50          , 0           , 0
0.03879213  , -9.794346   , -0.017661646, 0.00174994557, 0.00439941231, 0.0005827252, -0.118983418, 0.3418498   , -0.419307   , 1.56969762  , 0.00261974637, -1.84339571 , 1.47        , 3           , 11          , 0.0139237083, 0.0139237363
0.0270979423, -9.796898   , -0.022767242, 0.00107564288, 0.001961672 , 0.001473428 , -0.118983418, 0.342186868 , -0.419037342, 1.56970859  , 0.00260505383, -1.84337616 , 1.48        , 3           , 12          , 0.0390898027, 0
0.03431224  , -9.777803   , -0.000799231231, -0.00041710143, 0.0007077126, -0.0008436602, -0.119185656, 0.3412431   , -0.419441819, 1.56970441  , 0.002613488 , -1.843369   , 1.49        , 3           , 50          , 0           , 0
0.02888487  , -9.781799   , -0.00225035287, -0.000603247841, 0.00162983965, 0.000434056681, -0.118781179, 0.34245652  , -0.4193744  , 1.569747    , 0.00265235  , -1.84335244 , 1.5         , 3           , 11          , 0.0140909189, 0.0140909348
0.0199082009, -9.777226   , -0.000925041735, -0.004087915, 0.00180596765, 0.0007013184, -0.118781179, 0.34245652  , -0.4193744  , 1.5697062   , 0.00264531677, -1.84333444 , 1.51        , 3           , 12          , 0.03974259  , 0
0.04250132  , -9.778188   , -0.0133757973, -0.0035887775, 0.00257876562, 0.00186045  , -0.119185656, 0.341445327 , -0.419239581, 1.56967032  , 0.00262675  , -1.84330857 , 1.52        , 3           , 50          , 0           , 0
0.01632384  , -9.787407   , -0.0159813873, -0.00173949054, 0.0013612177, -0.00029238034, -0.118916005, 0.341647565 , -0.419441819, 1.569653    , 0.00262970035, -1.843295   , 1.53        , 3           , 11          , 0.0140909189, 0.0140909348
0.0208454542, -9.791868   , -0.0241217781, -0.00263632461, -0.002779752, -0.00100190588, -0.118983418, 0.342254281 , -0.419239581, 1.56962669  , 0.002639714 , -1.84332275 , 1.54        , 3           , 12          , 0.03974259  , 0
0.009692941 , -9.778258   , -0.0227121655, -0.004726177, 0.00117982388, -0.0006712063, -0.119185656, 0.340973437 , -0.4193744  , 1.56957936  , 0.002646479 , -1.84331107 , 1.55        , 3           , 50          , 0           , 0
0.04525531  , -9.767448   , -0.007806184, 3.77111974E-05, 0.00113078277, -0.000570965931, -0.119185656, 0.340973437 , -0.4193744  , 1.56957984  , 0.0026521713, -1.84329963 , 1.56        , 3           , 11          , 0.0140909189, 0.0140909348
0.0239933152, -9.778547   , -0.007226428, -0.00249486323, -0.00264110672, -0.000641257444, -0.118781179, 0.342523932 , -0.419509232, 1.56955492  , 0.0026585192, -1.84332621 , 1.57        , 3           , 12          , 0.03974259  , 0
0.0169759858, -9.768851   , -0.022536613, -0.00369713944, -0.00156183273, 0.000225603391, -0.119050831, 0.341714978 , -0.419104755, 1.56951785  , 0.00265622442, -1.84334171 , 1.58        , 3           , 50          , 0           , 0
0.0343846232, -9.784814   , -0.0198506229, -0.00188687106, 0.001285259 , 0.00034958843, -0.118916005, 0.34151274  , -0.419307   , 1.56949925  , 0.00265276735, -1.84332883 , 1.59        , 3           , 11          , 0.0140909189, 0.0140909348
0.0277088545, -9.787751   , -0.0348517969, 0.00120375212, 0.00109926076, 0.00154916022, -0.118781179, 0.3423891   , -0.419172168, 1.569457    , 0.00270107714, -1.8433181  , 1.6         , 3           , 12          , 0.0404294468, 0
0.0233801566, -9.762074   , -0.028723212, 0.00245300843, -0.00219980441, 0.000435759837, -0.119387895, 0.3407712   , -0.419576645, 1.56948149  , 0.00269675581, -1.84334    , 1.61        , 3           , 50          , 0           , 0
0.06456226  , -9.783724   , -0.01956052 , 0.00301782973, -0.00235207262, 0.000794805 , -0.119387895, 0.3407712   , -0.419576645, 1.56951165  , 0.00268879859, -1.84336364 , 1.62        , 3           , 11          , 0.0144691076, 0.01446913
0.01536782  , -9.788818   , -0.009682776, 0.001073088 , 0.00160989771, 0.0006971152, -0.118916005, 0.342119455 , -0.4193744  , 1.56952226  , 0.00268185465, -1.84334755 , 1.63        , 3           , 12          , 0.0404294468, 0
0.03057546  , -9.798009   , -0.006035447, 0.00441209041, 0.00171283539, 0.00143474434, -0.119253069, 0.34198463  , -0.419104755, 1.56956649  , 0.00266751973, -1.84333038 , 1.64        , 3           , 50          , 0           , 0
0.057805337 , -9.781444   , -0.0164344888, 7.41147232E-07, 0.000343285181, -0.0006873699, -0.119185656, 0.3413779   , -0.4193744  , 1.56956649  , 0.00267437426, -1.843327   , 1.65        , 3           , 11          , 0.0144691076, 0.01446913
0.03922491  , -9.78636551 , -0.00536981225, -0.00105174549, 0.00150171749, -0.0008201831, -0.118713766, 0.342591345 , -0.419172168, 1.569556    , 0.00268257  , -1.843312   , 1.66        , 3           , 12          , 0.0404294468, 0
0.0128085623, -9.777004   , -0.015893653, -0.00203903555, 0.00222827913, -0.0008157462, -0.118713766, 0.342591345 , -0.419172168, 1.56953573  , 0.00269076554, -1.84328961 , 1.67        , 3           , 50          , 0           , 0
0.01817125  , -9.781119   , -0.014988441, -0.002072794, -0.0004974221, -0.000497689645, -0.119118243, 0.341175675 , -0.419239581, 1.569515    , 0.00269574253, -1.84329462 , 1.68        , 3           , 11          , 0.0144691076, 0.01446913
0.0198379755, -9.775555   , 0.011289347 , -0.0008706623, -0.0010124963, -0.000354629417, -0.118916005, 0.341714978 , -0.4193744  , 1.56950641  , 0.0026992294, -1.84330487 , 1.69        , 3           , 12          , 0.0404294468, 0
0.022201065 , -9.788311   , -0.0204547085, -0.0001860904, 0.00364070479, -0.000481415918, -0.118916005, 0.3423217   , -0.419172168, 1.56962013  , 0.00267249672, -1.843268   , 1.7         , 3           , 50          , 0           , 0
0.01843939  , -9.80365849 , -0.016149519, 0.00285416422, 0.00316313538, 0.001390809 , -0.119050831, 0.341108263 , -0.419307   , 1.56964874  , 0.0026585788, -1.84323645 , 1.71        , 3           , 11          , 0.0146677876, 0.0146677941
0.0293249916, -9.793838   , -0.0154843628, 0.00255034  , 0.00123545469, 0.000931678049, -0.119050831, 0.341108263 , -0.419307   , 1.56967425  , 0.00264928048, -1.843224   , 1.72        , 3           , 12          , 0.04114832  , 0
0.0375825539, -9.774088   , -0.0133736935, -0.0006296604, 0.00192940282, -0.000938273151, -0.118781179, 0.342591345 , -0.419509232, 1.569668    , 0.00265872781, -1.84320474 , 1.73        , 3           , 50          , 0           , 0
0.02351849  , -9.791935   , -0.0200327244, 0.000130545945, 0.0003401521, -0.0003841878, -0.119253069, 0.34151274  , -0.419239581, 1.56966937  , 0.00266254274, -1.8432014  , 1.74        , 3           , 11          , 0.0146677876, 0.0146677941
0.0300622787, -9.784499   , -0.0456332564, 0.000861046661, -0.00333447615, 0.0009981313, -0.119118243, 0.3413779   , -0.419441819, 1.569678    , 0.00265255873, -1.84323454 , 1.75        , 3           , 12          , 0.04114832  , 0
0.0296095312, -9.772481   , -0.0305928085, 0.00246637315, 0.000160865515, 0.0009871399, -0.118781179, 0.3423217   , -0.419239581, 1.56970263  , 0.00264269416, -1.84323311 , 1.76        , 3           , 50          , 0           , 0
0.0312266089, -9.784797   , -0.0189760681, 0.00107113307, 0.00169265177, -0.000430336018, -0.119253069, 0.3408386   , -0.419509232, 1.56971347  , 0.0026470155, -1.84321618 , 1.77        , 3           , 11          , 0.0146677876, 0.0146677941
0.0329486765, -9.798733   , -0.0245413985, -0.00322558242, -0.000632121169, -6.12225849E-05, -0.119253069, 0.3408386   , -0.419509232, 1.56968117  , 0.00264767115, -1.84322238 , 1.78        , 3           , 12          , 0.04114832  , 0
0.03496445  , -9.77304649 , -0.0242263936, -0.003953614, 0.00375127676, -0.000574616133, -0.118848592, 0.342254281 , -0.419711471, 1.56964171  , 0.0026533932, -1.84318483 , 1.79        , 3           , 50          , 0           , 0
0.0248967465, -9.774099   , -0.002198143, 0.00106309308, 0.00433384674, 0.0006595282, -0.118983418, 0.34198463  , -0.419307   , 1.56959224  , 0.00268885819, -1.84314156 , 1.8         , 3           , 11          , 0.0150887892, 0.0150887994
0.0137298331, -9.775644   , -0.0172245633, 0.00397544168, 0.003947284 , 0.00052879157, -0.119050831, 0.341445327 , -0.4193744  , 1.56963217  , 0.002683613 , -1.8431021  , 1.81        , 3           , 12          , 0.0418972373, 0
0.0273233987, -9.781862   , -0.0370458364, 0.00370849227, -0.00120129541, -0.000406109029, -0.118646353, 0.3423217   , -0.419239581, 1.569669    , 0.002687666 , -1.843114   , 1.82        , 3           , 50          , 0           , 0
0.00800474547, -9.771837   , -0.0312357564, -0.00117974216, 0.0005661058, -0.00019600091, -0.118646353, 0.3423217   , -0.419239581, 1.56965733  , 0.00268960325, -1.84310842 , 1.83        , 3           , 11          , 0.0150887892, 0.0150887994
0.0197062828, -9.789307   , -0.0516559929, -0.0006155352, -1.02721742E-05, -0.00048708517, -0.118916005, 0.34104085  , -0.419576645, 1.56965113  , 0.00269449083, -1.84310853 , 1.84        , 3           , 12          , 0.0418972373, 0
0.0288325716, -9.797015   , -0.0132670887, 0.00243119244, -0.0008319879, -0.000193979417, -0.119050831, 0.341917217 , -0.419441819, 1.56967545  , 0.00269636838, -1.843117   , 1.85        , 3           , 50          , 0           , 0
0.0285966359, -9.77398    , -0.0161652528, 0.0045361435, 0.00294295652, 1.68239931E-05, -0.119050831, 0.342254281 , -0.419104755, 1.56972086  , 0.00269621937, -1.84308743 , 1.86        , 3           , 11          , 0.0150887892, 0.0150887994
0.0181682035, -9.78335    , -0.0172726829, 0.004751533 , 0.003366819 , 0.000453615357, -0.119050831, 0.341175675 , -0.4193744  , 1.56976843  , 0.00269168941, -1.84305382 , 1.87        , 3           , 12          , 0.0418972373, 0
-0.00615919 , -9.788946   , -0.0225296188, 0.00208752952, 0.000739491137, 0.0007568663, -0.118781179, 0.342591345 , -0.419307   , 1.56978941  , 0.00268411962, -1.84304643 , 1.88        , 3           , 50          , 0           , 0
0.03881433  , -9.771166   , 0.00744926976, 0.000167704347, 0.0001947961, -0.000264620176, -0.118781179, 0.342591345 , -0.419307   , 1.56979108  , 0.002686772 , -1.84304452 , 1.89        , 3           , 11          , 0.0150887892, 0.0150887994
0.0382698774, -9.782434   , 0.00731418654, -0.000520597852, 0.00436532032, -0.00102544506, -0.119253069, 0.3413779   , -0.4193744  , 1.56986511  , 0.00275472156, -1.84300065 , 1.9         , 3           , 12          , 0.0426743031, 0
0.0157348868, -9.805866   , -0.0184583366, 0.00233034114, 0.00420401245, -0.002226595, -0.119253069, 0.341714978 , -0.419644058, 1.56988847  , 0.0027770435, -1.84295857 , 1.91        , 3           , 50          , 0           , 0
0.03267193  , -9.768639   , -0.0129042584, -0.00163895718, 0.000709474436, 0.000345736975, -0.118916005, 0.3423217   , -0.419239581, 1.56987214  , 0.00277355663, -1.84295142 , 1.92        , 3           , 11          , 0.0155357327, 0.0155357439
0.0345645323, -9.768515   , -0.0259845238, -0.00290118647, -0.00308821583, 0.00171397591, -0.119185656, 0.341108263 , -0.4193744  , 1.569843    , 0.00275639049, -1.84298229 , 1.93        , 3           , 12          , 0.0426743031, 0
0.0348458   , -9.7883625  , -0.0257593468, -0.0001706801, -0.0008204746, 0.00147747749, -0.119185656, 0.341108263 , -0.4193744  , 1.56984127  , 0.00274163834, -1.84299052 , 1.94        , 3           , 50          , 0           , 0
0.04333386  , -9.784088   , -0.0107260607, -0.00246187951, 0.00245169573, -0.00120826415, -0.118916005, 0.342591345 , -0.419509232, 1.56981683  , 0.00275367848, -1.842966   , 1.95        , 3           , 11          , 0.0155357327, 0.0155357439
0.0240335613, -9.774479   , -0.008082483, -0.00145112991, -0.001795781, -0.000190283346, -0.119253069, 0.3417824   , -0.419307   , 1.56980217  , 0.00275561563, -1.84298384 , 1.96        , 3           , 12          , 0.0426743031, 0
0.0124139609, -9.777805   , -0.0249403939, -0.000969245448, -0.00280962419, 0.000441976736, -0.119118243, 0.34151274  , -0.419509232, 1.56979239  , 0.00275114528, -1.843012   , 1.97        , 3           , 50          , 0           , 0
0.0428982973, -9.787177   , -0.0166377425, 0.00133246928, -0.0006814777, 0.0002723624, -0.118848592, 0.3423891   , -0.419441819, 1.56980562  , 0.00274843327, -1.84301877 , 1.98        , 3           , 11          , 0.0155357327, 0.0155357439
0.03941241  , -9.782962   , -0.0283651762, -0.00170064368, 0.00107545953, -0.0004364254, -0.119320482, 0.3408386   , -0.419576645, 1.56978869  , 0.0027527546, -1.843008   , 1.99        , 3           , 12          , 0.0426743031, 0
0.0385585949, -9.781102   , -0.03286849 , -0.00305976067, 0.0005906335, -0.0009320637, -0.119320482, 0.3408386   , -0.419576645, 1.5696075   , 0.00286364951, -1.84300244 , 2           , 3           , 50          , 0           , 0
0.0323977731, -9.76435852 , -0.03318359 , -0.004995538, -0.0011745824, -0.00168512342, -0.119118243, 0.342119455 , -0.419576645, 1.56955755  , 0.00288039842, -1.84301424 , 2.01        , 3           , 11          , 0.0159927644, 0.01599279
0.0138033768, -9.767964   , -0.0184903275, -0.00374857569, -0.00257187267, 0.000878238468, -0.118983418, 0.342119455 , -0.419172168, 1.56952012  , 0.002871577 , -1.84304    , 2.02        , 3           , 12          , 0.043477688 , 0
0.0357200652, -9.78218    , -0.0143875983, -0.00116620248, -0.000733834866, 0.000777705049, -0.119253069, 0.34151274  , -0.419441819, 1.56950843  , 0.00286376872, -1.84304714 , 2.03        , 3           , 50          , 0           , 0
0.0324818   , -9.794747   , -0.0172726084, -0.00115389971, 0.000622936932, 0.00129831629, -0.118781179, 0.342523932 , -0.419509232, 1.56949675  , 0.00285083451, -1.843041   , 2.04        , 3           , 11          , 0.0159927644, 0.01599279
0.0125315627, -9.79746    , -0.000774718763, 0.00336330454, 0.002743406 , -0.000503462157, -0.118781179, 0.342523932 , -0.419509232, 1.56953049  , 0.00285593071, -1.84301353 , 2.05        , 3           , 12          , 0.043477688 , 0
0.0171148125, -9.79604    , -0.0106534306, 0.00259765517, 0.00488981837, 0.0007393244, -0.119185656, 0.3412431   , -0.419509232, 1.56955659  , 0.00284859934, -1.84296465 , 2.06        , 3           , 50          , 0           , 0
0.0159576777, -9.788164   , -0.029092608, 0.0004995812, 0.00154730212, 0.0002486173, -0.119050831, 0.3417824   , -0.419576645, 1.56956172  , 0.002846096 , -1.84294915 , 2.07        , 3           , 11          , 0.0159927644, 0.01599279
0.01808751  , -9.787035   , -0.0100888554, -0.000773654436, 0.00156926364, -0.000760667, -0.119118243, 0.3423891   , -0.419104755, 1.569554    , 0.00285375514, -1.84293342 , 2.08        , 3           , 12          , 0.043477688 , 0
0.05231327  , -9.805126   , -0.0325676054, -0.00108904054, -0.0003737739, 0.0004971863, -0.119118243, 0.341175675 , -0.4193744  , 1.56954312  , 0.00284883776, -1.84293711 , 2.09        , 3           , 50          , 0           , 0
0.0118444674, -9.793564   , -0.0269342922, -0.000886791, -0.002681245, 0.00138251251, -0.118781179, 0.342726171 , -0.419441819, 1.56915057  , 0.003296113 , -1.84296513 , 2.1         , 3           , 11          , 0.0161476284, 0.01614765
0.0180037674, -9.79295    , -0.005189266, -0.000291511155, -0.0003943912, 0.00141932769, -0.118781179, 0.342726171 , -0.419441819, 1.56914759  , 0.003281927 , -1.842969   , 2.11        , 3           , 12          , 0.0443056524, 0
0.016785996 , -9.785612   , -0.0155047327, 0.00457436033, 0.00178387237, 0.0007653901, -0.119253069, 0.341647565 , -0.419104755, 1.56919348  , 0.00327432738, -1.8429513  , 2.12        , 3           , 50          , 0           , 0
0.0270453375, -9.793862   , -0.0114403628, 0.0008028569, 0.0009720205, -0.000342947984, -0.119118243, 0.341647565 , -0.419307   , 1.56920159  , 0.00327775464, -1.84294152 , 2.13        , 3           , 11          , 0.0161476284, 0.01614765
0.0540775955, -9.792735   , -0.0120821521, 0.0017747432, -0.000762687, 0.000210335711, -0.118646353, 0.34245652  , -0.419239581, 1.56921923  , 0.00327560888, -1.84294915 , 2.14        , 3           , 12          , 0.0443056524, 0
0.0346338749, -9.777756   , -0.0473201573, -0.0009130685, 0.0005537307, 0.000284380367, -0.119185656, 0.340906024 , -0.419441819, 1.56921017  , 0.00327277766, -1.84294355 , 2.15        , 3           , 50          , 0           , 0
0.03500841  , -9.780101   , -0.0392133  , -0.00213424116, -0.0007907602, -0.000243512841, -0.119185656, 0.340906024 , -0.419441819, 1.56918883  , 0.00327519164, -1.84295154 , 2.16        , 3           , 11          , 0.0161476284, 0.01614765
0.0451568253, -9.781845   , -0.011135092, -0.000832865946, -0.000140403892, -0.00230110087, -0.118916005, 0.34245652  , -0.419509232, 1.56918049  , 0.00329819927, -1.842953   , 2.17        , 3           , 12          , 0.0443056524, 0
0.04264209  , -9.806265   , -0.00285791233, 1.0121079E-05, 0.000683789665, 0.0007212816, -0.119387895, 0.342052042 , -0.419239581, 1.56918061  , 0.00329110632, -1.842946   , 2.18        , 3           , 50          , 0           , 0
0.0490858853, -9.795868   , -0.0103574358, -0.000454571156, 0.002778703 , -0.0006107376, -0.119185656, 0.341445327 , -0.419644058, 1.56917608  , 0.0032972754, -1.84291828 , 2.19        , 3           , 11          , 0.0161476284, 0.01614765
0.0299176   , -9.772702   , -0.0102663357, -0.000824617746, 0.0004250252, -0.00153407222, -0.118781179, 0.342523932 , -0.419172168, 1.56933153  , 0.003810713 , -1.84291363 , 2.2         , 3           , 12          , 0.0451565459, 0
0.003744994 , -9.778351   , -0.009217139, 0.0018436535, -0.00127009279, 0.0006759782, -0.118781179, 0.342523932 , -0.419172168, 1.56934988  , 0.00380394771, -1.84292638 , 2.21        , 3           , 50          , 0           , 0
0.0343233459, -9.797372   , -0.026319826, -0.000224799034, -0.00125746138, 0.0015935892, -0.119320482, 0.3408386   , -0.419509232, 1.5693475   , 0.003788063 , -1.84293878 , 2.22        , 3           , 11          , 0.0153261917, 0.0153262075
0.0297968574, -9.796479   , -0.021834217, -0.00222742744, 0.00187620847, -0.00195101753, -0.118916005, 0.342186868 , -0.419509232, 1.56932545  , 0.00380758382, -1.84292006 , 2.23        , 3           , 12          , 0.0451565459, 0
0.0289373286, -9.794184   , -0.02497747 , -0.002198055, -0.00121355848, -0.00106542162, -0.119185656, 0.342186868 , -0.419307   , 1.56930339  , 0.00381819345, -1.84293222 , 2.24        , 3           , 50          , 0           , 0
0.026614394 , -9.800505   , -0.0223616417, 0.001987457 , -0.001339983, 0.000318086531, -0.119118243, 0.341445327 , -0.419307   , 1.56932318  , 0.0038150046, -1.84294546 , 2.25        , 3           , 11          , 0.0153261917, 0.0153262075
0.0271374546, -9.79105    , -0.0213443134, 0.002531023 , 0.00189049356, -0.0009197009, -0.118848592, 0.342658758 , -0.419441819, 1.56934857  , 0.00382424332, -1.84292662 , 2.26        , 3           , 12          , 0.0451565459, 0
0.0251458157, -9.794441   , 0.00208628178, 0.000312239252, 0.00111775671, -0.000157505841, -0.118848592, 0.342658758 , -0.419441819, 1.56935167  , 0.00382585265, -1.84291542 , 2.27        , 3           , 50          , 0           , 0
0.0374904349, -9.776899   , -0.00346973375, -0.000546235533, 0.00055518694, -0.000385616062, -0.119185656, 0.3413105   , -0.4193744  , 1.56934619  , 0.00382978655, -1.84290993 , 2.28        , 3           , 11          , 0.0153261917, 0.0153262075
0.05051769  , -9.787297   , -0.0116004255, -0.001250326, 0.00141830929, 5.1867064E-05, -0.118983418, 0.34151274  , -0.419307   , 1.56933379  , 0.00382922031, -1.84289575 , 2.29        , 3           , 12          , 0.0451565459, 0
0.0150073646, -9.790013   , -0.0241540633, -0.004025351, 1.94370168E-05, -0.00067980343, -0.119050831, 0.3423891   , -0.419441819, 1.5693152   , 0.00394056272, -1.84289527 , 2.3         , 3           , 50          , 0           , 0
0.04139634  , -9.764446   , -0.0321984664, -0.00252144923, 0.000512178871, -0.00137891446, -0.119118243, 0.3408386   , -0.419644058, 1.56929     , 0.003954361 , -1.84289026 , 2.31        , 3           , 11          , 0.0135605671, 0.0135605847
0.0303505976, -9.769172   , -0.00344619527, -0.00193985633, 0.00214591133, -0.000421456847, -0.119118243, 0.3408386   , -0.419644058, 1.56927073  , 0.003958623 , -1.8428688  , 2.32        , 3           , 12          , 0.0460288152, 0
0.0113620535, -9.78248    , -0.008743068, -0.0018138655, 0.00106467539, 0.000136077186, -0.118646353, 0.342591345 , -0.419576645, 1.56925273  , 0.003957282 , -1.84285808 , 2.33        , 3           , 50          , 0           , 0
0.01600374  , -9.786758   , -0.0340445861, 0.00337338261, 0.000724720943, 0.000234714127, -0.119253069, 0.341647565 , -0.419509232, 1.56928647  , 0.00395504665, -1.8428508  , 2.34        , 3           , 11          , 0.0135605671, 0.0135605847
0.00573997851, -9.790978   , -0.0527071133, 0.001704909 , 0.00319141871, -0.001242452, -0.119050831, 0.341580153 , -0.419441819, 1.56930363  , 0.003967474 , -1.842819   , 2.35        , 3           , 12          , 0.0460288152, 0
0.03640935  , -9.773359   , -0.038219206, 0.00160829048, 0.0011828877, -0.000914390257, -0.118848592, 0.3423891   , -0.419307   , 1.56931984  , 0.003976624 , -1.842807   , 2.36        , 3           , 50          , 0           , 0
0.0366162844, -9.785309   , -0.01757734 , -0.00402040733, 0.000943140651, 0.000192252657, -0.119118243, 0.340973437 , -0.419509232, 1.56927967  , 0.00397468638, -1.84279776 , 2.37        , 3           , 11          , 0.0135605671, 0.0135605847
0.0326415151, -9.779368   , -0.0216105655, -0.00602846267, -0.000964002567, -0.000634863565, -0.119118243, 0.340973437 , -0.419509232, 1.56921935  , 0.003981005 , -1.84280741 , 2.38        , 3           , 12          , 0.0460288152, 0
0.0230830442, -9.79725    , -0.0286802519, -0.001973609, -0.001073625, -0.000969196, -0.119050831, 0.342186868 , -0.419441819, 1.56919968  , 0.003990631 , -1.84281826 , 2.39        , 3           , 50          , 0           , 0
0.0507380664, -9.771379   , -0.0240621027, 0.000424248 , -0.0011091159, 0.000184853823, -0.119050831, 0.3423217   , -0.419172168, 1.56872308  , 0.00339836534, -1.8428309  , 2.4         , 3           , 11          , 0.01366476  , 0.0136647783
0.05729868  , -9.790431   , -0.0192530211, 8.16032752E-07, -0.000536102452, 0.0006914179, -0.119455308, 0.341445327 , -0.4193744  , 1.56872308  , 0.0033914512, -1.84283614 , 2.41        , 3           , 12          , 0.0469209775, 0
0.03283212  , -9.805588   , -0.0160394274, 0.001452035 , 0.001392817 , -0.000273417885, -0.118713766, 0.342523932 , -0.419104755, 1.56873775  , 0.003394193 , -1.84282231 , 2.42        , 3           , 50          , 0           , 0
0.03624396  , -9.776728   , -0.0183851067, -0.003979826, -0.0007758279, -5.21532565E-05, -0.118713766, 0.342523932 , -0.419104755, 1.56869793  , 0.00339466985, -1.84283    , 2.43        , 3           , 11          , 0.01366476  , 0.0136647783
0.0270921532, -9.782661   , -0.00453525037, -0.00210147724, 0.0021370668, 0.0006456316, -0.118916005, 0.340906024 , -0.419441819, 1.568677    , 0.00338823255, -1.84280872 , 2.44        , 3           , 12          , 0.0469209775, 0
0.0307301469, -9.79554749 , -0.0254284218, 0.00151076424, 0.0008112578, 0.000577155442, -0.118848592, 0.3418498   , -0.419307   , 1.56869221  , 0.0033824807, -1.8428005  , 2.45        , 3           , 50          , 0           , 0
0.00126051065, -9.801391   , -0.00363389961, 0.000777871 , -0.00111528754, 0.000473159627, -0.118983418, 0.342254281 , -0.419172168, 1.5687      , 0.00337768253, -1.84281158 , 2.46        , 3           , 11          , 0.01366476  , 0.0136647783
0.0292005613, -9.794918   , 0.00121467933, -0.002705278, -0.0012193399, 2.08377351E-05, -0.118983418, 0.3413105   , -0.419711471, 1.5686729   , 0.00337753352, -1.842824   , 2.47        , 3           , 12          , 0.0469209775, 0
0.0457517654, -9.800125   , 0.0107923523, -0.00156058092, -9.290036E-05, 0.000974418537, -0.118646353, 0.342726171 , -0.419509232, 1.56865716  , 0.003367788 , -1.8428247  , 2.48        , 3           , 50          , 0           , 0
0.0251587927, -9.801099   , -0.007927693, -0.002770625, 0.000270565826, 0.00175930443, -0.118646353, 0.342726171 , -0.419509232, 1.56862938  , 0.00335020456, -1.842822   , 2.49        , 3           , 11          , 0.01366476  , 0.0136647783
0.03241085  , -9.791295   , -0.0027792193, 0.0010513009, 0.00217875279, 0.000759916438, -0.119185656, 0.34151274  , -0.4193744  , 1.56899059  , 0.00314051425, -1.84279919 , 2.5         , 3           , 12          , 0.0478316471, 0
0.02540697  , -9.785584   , -0.0249106959, 0.00203488139, 0.000882872264, 0.000317886472, -0.118983418, 0.3417824   , -0.419441819, 1.569011    , 0.0031373552, -1.84279025 , 2.51        , 3           , 50          , 0           , 0
0.0370376   , -9.788029   , -0.016701458, 0.000136522081, -0.00339703239, 0.0002441464, -0.118781179, 0.342254281 , -0.419239581, 1.56901217  , 0.00313494122, -1.8428241  , 2.52        , 3           , 11          , 0.0114579368, 0.011457935
0.0542918481, -9.781279   , -0.0291122925, -0.0008305526, -0.00116209127, -0.000158751645, -0.119185656, 0.341108263 , -0.4193744  , 1.56900382  , 0.003136491 , -1.84283578 , 2.53        , 3           , 12          , 0.0478316471, 0
0.0339471772, -9.775444   , -0.0102609154, 0.00205503637, 0.00168568187, -0.00131607929, -0.119185656, 0.341108263 , -0.4193744  , 1.56902432  , 0.003149753 , -1.842819   , 2.54        , 3           , 50          , 0           , 0
0.0270939469, -9.792897   , -0.0173007939, 3.68702349E-05, -0.000728733663, -0.00150663 , -0.118916005, 0.3423891   , -0.419441819, 1.5690248   , 0.00316480338, -1.84282637 , 2.55        , 3           , 11          , 0.0114579368, 0.011457935
0.041644495 , -9.766985   , -0.00602726266, -0.00374708045, -0.00233315746, -0.00212565879, -0.118983418, 0.34198463  , -0.419172168, 1.56898725  , 0.00318602263, -1.84284961 , 2.56        , 3           , 12          , 0.0478316471, 0
0.0527656078, -9.79667    , -0.0225285832, -0.008749747, -0.00358563266, -0.000672062743, -0.118983418, 0.341580153 , -0.419509232, 1.56889963  , 0.00319266855, -1.84288549 , 2.57        , 3           , 50          , 0           , 0
0.034402594 , -9.790128   , -0.0289456584, -0.00388369383, 0.0007093407, 0.00235389243, -0.118781179, 0.3423891   , -0.419307   , 1.56886077  , 0.00316912471, -1.84287834 , 2.58        , 3           , 11          , 0.0114579368, 0.011457935
0.0191492   , -9.800594   , -0.0499846265, 0.00247548777, 0.002872434 , 0.00170895038, -0.118983418, 0.34104085  , -0.419509232, 1.56888556  , 0.00315210735, -1.84284961 , 2.59        , 3           , 12          , 0.0478316471, 0
0.0310655572, -9.798841   , -0.0128159579, 0.000510331243, 0.00118139817, 0.0002478515, -0.118983418, 0.34104085  , -0.419509232, 1.56806087  , 0.0028379   , -1.84284043 , 2.6         , 3           , 50          , 0           , 0
0.0468312763, -9.791401   , -0.00445460156, -0.002449379, -0.00308063184, -0.0006192648, -0.118713766, 0.3417824   , -0.419576645, 1.56803632  , 0.00284397975, -1.84287131 , 2.61        , 3           , 11          , 0.0103491573, 0.0103491507
0.04868528  , -9.777982   , 0.00429951958, -0.00119711156, -0.00496471766, 0.00029135053, -0.119118243, 0.342254281 , -0.419441819, 1.56802416  , 0.00284096971, -1.8429209  , 2.62        , 3           , 12          , 0.04875951  , 0
0.0419710539, -9.795223   , -0.0226111449, 0.000116355608, -0.00260512461, -0.0005965406, -0.119320482, 0.341175675 , -0.419576645, 1.56802535  , 0.0028468112, -1.842947   , 2.63        , 3           , 50          , 0           , 0
0.028030362 , -9.803533   , -0.0354826823, -0.000287415023, -0.000242271315, 7.919004E-05, -0.119050831, 0.342591345 , -0.419441819, 1.56802237  , 0.002845947 , -1.84294939 , 2.64        , 3           , 11          , 0.0103491573, 0.0103491507
0.0337091   , -9.772443   , -0.0373300835, -0.000680177938, 0.00241739955, -0.000385561871, -0.119050831, 0.342591345 , -0.419441819, 1.56801569  , 0.00284982123, -1.84292531 , 2.65        , 3           , 12          , 0.04875951  , 0
0.0300094429, -9.777014   , -0.0288346726, 0.00117636635, 0.00438419543, 0.00194410223, -0.119320482, 0.3413105   , -0.419509232, 1.56802762  , 0.00283047929, -1.84288144 , 2.66        , 3           , 50          , 0           , 0
0.0365505479, -9.784965   , -0.007636709, 0.002628017 , 0.000504045165, 0.00146750861, -0.119118243, 0.34198463  , -0.419576645, 1.568054    , 0.00281578675, -1.84287643 , 2.67        , 3           , 11          , 0.0103491573, 0.0103491507
0.0235019   , -9.776381   , 0.00137624517, -0.00241418742, 0.0006346591, 0.0005796472, -0.119118243, 0.342119455 , -0.419172168, 1.56802988  , 0.0028099753, -1.84287    , 2.68        , 3           , 12          , 0.04875951  , 0
0.0274837818, -9.79789    , -0.0146446768, -0.004016834, -0.00250437786, 0.000810478639, -0.119118243, 0.3413105   , -0.419307   , 1.56798971  , 0.00280177966, -1.842895   , 2.69        , 3           , 50          , 0           , 0
0.03274456  , -9.823527   , -0.02528116 , -0.00378508121, -0.004151731, 0.000714863767, -0.119118243, 0.3413105   , -0.419307   , 1.5683291   , 0.00279552117, -1.84293532 , 2.7         , 3           , 11          , 0.009334017 , 0.009334008
0.0166872945, -9.795555   , -0.01336194 , -0.00118152355, -0.00129786821, -0.0008018824, -0.118848592, 0.342523932 , -0.419441819, 1.56831717  , 0.00280347839, -1.84294832 , 2.71        , 3           , 12          , 0.0497033373, 0
0.0123263467, -9.781945   , -0.017310204, -7.334122E-05, 0.00163896976, -0.00189733482, -0.119320482, 0.34151274  , -0.419307   , 1.56831646  , 0.00282249227, -1.842932   , 2.72        , 3           , 50          , 0           , 0
0.0176916234, -9.774927   , -0.00317736343, -0.000250427518, -0.0005223665, -0.0004271317, -0.119050831, 0.34151274  , -0.419441819, 1.568314    , 0.002826754 , -1.84293723 , 2.73        , 3           , 11          , 0.009334017 , 0.009334008
0.0525567345, -9.783833   , -0.0418051481, 0.0007429082, -0.00039430958, 0.000153279965, -0.118983418, 0.3423891   , -0.419037342, 1.56832135  , 0.00282520428, -1.84294116 , 2.74        , 3           , 12          , 0.0497033373, 0
0.03719926  , -9.773537   , -0.02240472 , -0.002328636, -0.00193367293, -0.0005319625, -0.119050831, 0.340906024 , -0.419307   , 1.568298    , 0.00283044949, -1.84296048 , 2.75        , 3           , 50          , 0           , 0
0.0207102187, -9.79163    , -0.004245758, -7.457757E-05, -0.00283188443, 0.0011862081, -0.119050831, 0.340906024 , -0.419307   , 1.56829715  , 0.00281858817, -1.84298873 , 2.76        , 3           , 11          , 0.009334017 , 0.009334008
-0.000199059024, -9.779931   , -0.0268876888, 0.00023729229, -0.000329125818, 0.001439063 , -0.118916005, 0.342186868 , -0.419509232, 1.56829941  , 0.00280425325, -1.842992   , 2.77        , 3           , 12          , 0.0497033373, 0
0.009925893 , -9.773894   , -0.0511163548, 0.002749181 , 0.000946074142, 0.000256638945, -0.119185656, 0.342186868 , -0.419239581, 1.568327    , 0.00280174986, -1.84298241 , 2.78        , 3           , 50          , 0           , 0
0.0424374826, -9.790305   , -0.0189365558, -0.00101867889, 0.0004918065, -0.000774941233, -0.119185656, 0.3412431   , -0.419509232, 1.56831682  , 0.00280946866, -1.84297752 , 2.79        , 3           , 11          , 0.009334017 , 0.009334008
0.03470165  , -9.799268   , -0.0182077419, -0.000932629453, -0.00383124873, 0.00170891837, -0.118781179, 0.3423891   , -0.419239581, 1.56832957  , 0.00285429158, -1.84301567 , 2.8         , 3           , 12          , 0.0506619923, 0
0.0534305349, -9.812173   , -0.00734382262, -0.000112957459, -5.034035E-05, 0.00269896258, -0.118781179, 0.3423891   , -0.419239581, 1.5683285   , 0.00282723084, -1.84301615 , 2.81        , 3           , 50          , 0           , 0
0.0572153144, -9.791448   , -0.008424891, 0.00130166847, 0.004464913 , 0.00105585007, -0.119185656, 0.3412431   , -0.419441819, 1.56834161  , 0.00281677023, -1.84297144 , 2.82        , 3           , 11          , 0.008262395 , 0.00826239
0.03897291  , -9.770478   , -0.0146743208, 0.00193768356, 0.003042152 , -0.0008212284, -0.118848592, 0.3417824   , -0.419509232, 1.568361    , 0.00282502547, -1.842941   , 2.83        , 3           , 12          , 0.0506619923, 0
0.01681748  , -9.783339   , -0.0172849633, 0.000273279147, 0.0005511997, -0.000867598865, -0.119050831, 0.342186868 , -0.419307   , 1.5683639   , 0.00283372775, -1.84293544 , 2.84        , 3           , 50          , 0           , 0
0.0347464941, -9.798753   , -0.0240734071, -0.0005435201, -0.00174436509, 0.000310498057, -0.119320482, 0.3413779   , -0.4193744  , 1.56835842  , 0.0028305985, -1.842953   , 2.85        , 3           , 11          , 0.008262395 , 0.00826239
0.0333853364, -9.792525   , -0.0149801811, 0.00579111  , -0.00109541055, 0.00071675994, -0.118848592, 0.342591345 , -0.4193744  , 1.56841624  , 0.00282341614, -1.84296381 , 2.86        , 3           , 12          , 0.0506619923, 0
0.016060032 , -9.775543   , -0.0284943059, 0.002451881 , 0.004752091 , -0.0002924018, -0.118848592, 0.342591345 , -0.4193744  , 1.56844091  , 0.00282648578, -1.84291625 , 2.87        , 3           , 50          , 0           , 0
0.0307359733, -9.798208   , -0.0295243282, 0.00163742469, 0.00224799081, 0.000167154969, -0.119320482, 0.341580153 , -0.419307   , 1.56845737  , 0.00282481685, -1.84289384 , 2.88        , 3           , 11          , 0.008262395 , 0.00826239
0.0193985775, -9.802241   , -0.0228997357, 0.0007034377, 0.00146864948, 0.0002216502, -0.118983418, 0.341580153 , -0.419441819, 1.5684644   , 0.00282264128, -1.842879   , 2.89        , 3           , 12          , 0.0506619923, 0
0.0177185722, -9.7829     , -0.0168199316, 0.00175550708, 0.000168705985, 0.000182160482, -0.118916005, 0.3423891   , -0.419104755, 1.56848145  , 0.00272894255, -1.84287751 , 2.9         , 3           , 50          , 0           , 0
0.0388448946, -9.788034   , -0.0175882913, 0.000122042911, 0.000117515745, -0.0002579809, -0.119253069, 0.340906024 , -0.4193744  , 1.56848276  , 0.00273147575, -1.84287643 , 2.91        , 3           , 11          , 0.008490338 , 0.00849034
0.0306083765, -9.79929352 , -0.0123736858, 0.000687954365, 0.000883832166, 0.00154544821, -0.119253069, 0.340906024 , -0.4193744  , 1.56848967  , 0.00271597831, -1.84286761 , 2.92        , 3           , 12          , 0.0516343862, 0
0.0216176286, -9.791182   , -0.004683938, -0.0006095493, -0.00124291 , 0.000433321344, -0.118983418, 0.3423891   , -0.4193744  , 1.56848347  , 0.00271159736, -1.84288    , 2.93        , 3           , 50          , 0           , 0
0.0195616111, -9.777509   , -0.0162890721, 0.000555164239, 0.000756704656, -0.0001029384, -0.119050831, 0.3418498   , -0.419576645, 1.56848907  , 0.0027127   , -1.84287238 , 2.94        , 3           , 11          , 0.008490338 , 0.00849034
0.02532506  , -9.790161   , -0.0186405648, -0.000335633871, 0.00257449248, -0.00201402931, -0.118848592, 0.341580153 , -0.419711471, 1.56848574  , 0.00273296586, -1.84284663 , 2.95        , 3           , 12          , 0.0516343862, 0
0.02487915  , -9.800834   , -0.03231866 , 0.00149878568, 0.00154884369, -0.00158825354, -0.118781179, 0.3423891   , -0.419307   , 1.56850076  , 0.00274894  , -1.84283113 , 2.96        , 3           , 50          , 0           , 0
0.0335506052, -9.78693    , -0.03207843 , 0.00163426122, 0.00153844035, -0.000585822971, -0.118983418, 0.340973437 , -0.4193744  , 1.56851709  , 0.00275484077, -1.84281588 , 2.97        , 3           , 11          , 0.008490338 , 0.00849034
0.04385087  , -9.767519   , -0.000141115859, -0.0009337495, 0.00148320408, 0.000470828149, -0.118983418, 0.340973437 , -0.4193744  , 1.56850779  , 0.002750132 , -1.84280109 , 2.98        , 3           , 12          , 0.0516343862, 0
0.0274496339, -9.797497   , -0.00922014 , -0.001717266, 0.001418866 , 0.000536614 , -0.118983418, 0.342052042 , -0.419509232, 1.56849062  , 0.00274476758, -1.84278679 , 2.99        , 3           , 50          , 0           , 0
0.0166455731, -9.807639   , -0.0220839586, -0.00203480781, -0.0005082724, 0.000214264859, -0.119050831, 0.342186868 , -0.419307   , 1.56873858  , 0.002753887 , -1.84279132 , 3           , 3           , 11          , 0.008412167 , 0.008412185
0.03240342  , -9.794422   , -0.00552554429, -1.31310917E-05, 0.00184025767, -0.000240096764, -0.119050831, 0.341445327 , -0.419239581, 1.56873834  , 0.00275633088, -1.84277284 , 3.01        , 3           , 12          , 0.05261952  , 0
0.0371014   , -9.787485   , -0.0252767783, 0.0009128825, 0.00176242087, -0.0005932766, -0.118983418, 0.3423891   , -0.419172168, 1.56874764  , 0.00276232115, -1.84275532 , 3.02        , 3           , 50          , 0           , 0
0.04104994  , -9.787234   , -0.009879999, -0.00180036551, 0.0007874851, -0.000695702271, -0.118983418, 0.3423891   , -0.419172168, 1.56872964  , 0.0027693545, -1.84274733 , 3.03        , 3           , 11          , 0.008412167 , 0.008412185
0.0373902842, -9.783285   , 0.00323104486, -0.000160915486, 0.0009877237, -0.000897343154, -0.119253069, 0.341175675 , -0.4193744  , 1.568728    , 0.0027783548, -1.84273744 , 3.04        , 3           , 12          , 0.05261952  , 0
0.02508974  , -9.766681   , -0.0210818741, 0.00108674541, -0.00125522644, 7.959635E-05, -0.119050831, 0.341647565 , -0.419509232, 1.56873882  , 0.00277749053, -1.84275007 , 3.05        , 3           , 50          , 0           , 0
0.028985247 , -9.779866   , -0.0144228339, -0.00281329663, -0.0009186768, -0.00108444528, -0.118916005, 0.34198463  , -0.419172168, 1.56871068  , 0.002788309 , -1.84275925 , 3.06        , 3           , 11          , 0.008412167 , 0.008412185
0.02889049  , -9.805384   , -0.0318825841, -0.00202255975, -0.000350905379, -0.00135755027, -0.119253069, 0.3412431   , -0.419307   , 1.56869042  , 0.00280192867, -1.84276283 , 3.07        , 3           , 12          , 0.05261952  , 0
0.008688491 , -9.79665852 , -0.0301608946, -0.00497423671, -0.00305018737, -0.0006993512, -0.118646353, 0.3423891   , -0.419509232, 1.56864059  , 0.00280884281, -1.84279335 , 3.08        , 3           , 50          , 0           , 0
0.005802912 , -9.804484   , -0.0131134074, -0.00554930652, -0.00333482679, -0.000277705578, -0.118646353, 0.3423891   , -0.419509232, 1.568585    , 0.00281146541, -1.84282672 , 3.09        , 3           , 11          , 0.008412167 , 0.008412185
0.03386161  , -9.782696   , -0.006731866, -0.004882793, -0.00291610463, 0.000296512677, -0.119118243, 0.341580153 , -0.4193744  , 1.5685879   , 0.00267720548, -1.842856   , 3.1         , 3           , 12          , 0.0536164567, 0
0.02572182  , -9.794699   , -0.01643082 , -0.0014813625, 0.00227873237, 0.000535894 , -0.119118243, 0.34151274  , -0.419239581, 1.56857312  , 0.00267187087, -1.84283328 , 3.11        , 3           , 50          , 0           , 0
0.0320790522, -9.796898   , -0.0267866738, -0.00173017289, -0.000305991125, 0.00135553908, -0.118848592, 0.342186868 , -0.419307   , 1.56855583  , 0.00265831058, -1.84283638 , 3.12        , 3           , 11          , 0.00791476853, 0.007914792
0.0408305936, -9.779755   , -0.03418713 , -0.00110057055, -0.0006790353, 0.00228421064, -0.119253069, 0.340973437 , -0.419509232, 1.56854486  , 0.0026354522, -1.842843   , 3.13        , 3           , 12          , 0.0536164567, 0
0.04214984  , -9.78204    , -0.0323946029, -0.0005048577, -8.478131E-05, -0.0007087377, -0.119253069, 0.340973437 , -0.419509232, 1.56853986  , 0.00264254515, -1.842844   , 3.14        , 3           , 50          , 0           , 0
0.0266736168, -9.784835   , -0.01179128 , -0.00152721349, -0.00215620571, -0.000315746729, -0.118848592, 0.342119455 , -0.419576645, 1.5685246   , 0.00264564459, -1.84286547 , 3.15        , 3           , 11          , 0.00791476853, 0.007914792
0.0174329765, -9.7958     , 0.008775068 , 0.00039982656, -0.00061424257, 0.001364216 , -0.119118243, 0.342052042 , -0.419307   , 1.56852853  , 0.00263199513, -1.84287167 , 3.16        , 3           , 12          , 0.0536164567, 0
0.0311362073, -9.784045   , -0.0049657207, -0.00302417157, -0.00200478453, 0.000464295736, -0.119050831, 0.341445327 , -0.419509232, 1.56849825  , 0.00262725656, -1.84289169 , 3.17        , 3           , 50          , 0           , 0
0.0365887322, -9.777784   , -0.00439162552, 0.00127157336, 0.0008125438, 0.00110406  , -0.118848592, 0.342523932 , -0.4193744  , 1.568511    , 0.0026162297, -1.84288335 , 3.18        , 3           , 11          , 0.00791476853, 0.007914792
0.0336266719, -9.797746   , 0.00890154  , -0.00190016662, -0.00288119959, 0.00103095674, -0.118848592, 0.342523932 , -0.4193744  , 1.56849194  , 0.00260588829, -1.8429122  , 3.19        , 3           , 12          , 0.0536164567, 0
0.0179518051, -9.81484    , -0.0244135447, -0.00267612957, -0.000284154637, 0.000404873776, -0.118983418, 0.341108263 , -0.419644058, 1.56914937  , 0.00277784816, -1.84291315 , 3.2         , 3           , 50          , 0           , 0
0.0261374265, -9.796981   , -0.0141948741, -0.00358610344, -0.004865871, 0.000905285 , -0.118916005, 0.341917217 , -0.419576645, 1.56911337  , 0.00276869885, -1.84296179 , 3.21        , 3           , 11          , 0.008058504 , 0.00805852
0.0369178951, -9.7948885  , -0.00774786854, 0.000725322752, -0.001181127, 0.000699077849, -0.119118243, 0.342119455 , -0.419307   , 1.56912053  , 0.0027616953, -1.84297347 , 3.22        , 3           , 12          , 0.0546243079, 0
0.04885782  , -9.778608   , -0.0214526579, 0.003354317 , 0.003964089 , -0.000641198, -0.119118243, 0.3413779   , -0.419509232, 1.56915426  , 0.0027681028, -1.84293389 , 3.23        , 3           , 50          , 0           , 0
0.0392985158, -9.792484   , -0.0235075057, 0.002442682 , 0.000226752381, 0.00158871792, -0.118848592, 0.342523932 , -0.419576645, 1.5691787   , 0.00275221816, -1.84293163 , 3.24        , 3           , 11          , 0.008058504 , 0.00805852
0.0248478241, -9.79376    , -0.0191381834, 0.004693729 , -0.00208643824, 0.00128287275, -0.118848592, 0.342523932 , -0.419576645, 1.56922555  , 0.00273937336, -1.84295249 , 3.25        , 3           , 12          , 0.0546243079, 0
0.04972606  , -9.790684   , -0.0315213054, -0.000378064055, 0.00198024255, 0.00102429721, -0.118983418, 0.34151274  , -0.419441819, 1.56922185  , 0.00272912136, -1.8429327  , 3.26        , 3           , 50          , 0           , 0
0.026713863 , -9.780767   , -0.0126473466, 0.000472798565, 0.000275134458, -0.00157108 , -0.118916005, 0.34151274  , -0.4193744  , 1.5692265   , 0.00274482719, -1.84293    , 3.27        , 3           , 11          , 0.008058504 , 0.00805852
0.007738115 , -9.78471    , -0.008350423, -0.0003929022, -0.000297033548, -0.000726075144, -0.118983418, 0.342254281 , -0.419104755, 1.56922257  , 0.00275206915, -1.84293294 , 3.28        , 3           , 12          , 0.0546243079, 0
0.023118943 , -9.782505   , -0.0158623289, -0.00065176154, 0.00143300963, -0.00156123936, -0.119320482, 0.340973437 , -0.419509232, 1.56921613  , 0.00276768557, -1.84291863 , 3.29        , 3           , 50          , 0           , 0
0.04257985  , -9.769166   , -0.0137226181, 0.00104296207, 0.00140029483, 0.000169500738, -0.119320482, 0.340973437 , -0.419509232, 1.56922591  , 0.00275874487, -1.84290457 , 3.3         , 3           , 11          , 0.007503125 , 0.00750312349
0.0189361125, -9.785786   , -0.00103276968, 0.00586302625, 0.00133069512, 0.00248794048, -0.118983418, 0.3423217   , -0.419576645, 1.56928456  , 0.00273380033, -1.84289134 , 3.31        , 3           , 12          , 0.05564225  , 0
0.02471593  , -9.809542   , -0.0193215478, 0.00129934051, -5.08476769E-05, 0.00186733052, -0.119320482, 0.34198463  , -0.419239581, 1.56929755  , 0.00271514384, -1.84289181 , 3.32        , 3           , 50          , 0           , 0
0.0302099083, -9.798321   , -0.018689828, 0.0005062631, 0.00370638561, -0.0006590298, -0.119050831, 0.3413105   , -0.4193744  , 1.56930268  , 0.00272173015, -1.84285474 , 3.33        , 3           , 11          , 0.007503125 , 0.00750312349
0.0316090174, -9.792917   , -0.01906628 , -0.00150406361, 0.001725678 , -0.00127256615, -0.118848592, 0.34245652  , -0.419037342, 1.56928754  , 0.00273448578, -1.84283745 , 3.34        , 3           , 12          , 0.05564225  , 0
0.04107921  , -9.791195   , -0.0189593248, -0.00269628363, -0.00200364948, 0.000383308245, -0.119050831, 0.340906024 , -0.4193744  , 1.5692606   , 0.00273061148, -1.84285748 , 3.35        , 3           , 50          , 0           , 0
0.03494013  , -9.779316   , -0.028364215, 0.00358064147, -6.62861E-05, 0.00102254562, -0.119050831, 0.340906024 , -0.4193744  , 1.56929636  , 0.00272041885, -1.84285808 , 3.36        , 3           , 11          , 0.007503125 , 0.00750312349
0.0349504426, -9.783305   , -0.034733884, -0.0029232516, 0.00315510551, 0.000742882432, -0.118713766, 0.342186868 , -0.4193744  , 1.56926727  , 0.00271302788, -1.84282649 , 3.37        , 3           , 12          , 0.05564225  , 0
0.0390061028, -9.76464    , -0.0123481629, 0.000454282621, -0.000313400815, 0.000141032753, -0.119050831, 0.34198463  , -0.419172168, 1.5692718   , 0.00271171657, -1.8428297  , 3.38        , 3           , 50          , 0           , 0
0.0210344885, -9.768876   , -0.0234029684, 0.00247617  , 0.001682664 , -0.000962414837, -0.119185656, 0.3413779   , -0.419172168, 1.5692966   , 0.002721313 , -1.84281278 , 3.39        , 3           , 11          , 0.007503125 , 0.00750312349
0.0258425251, -9.7824955  , -0.0189990178, -0.00272309734, -0.00344424788, 0.00122380839, -0.118646353, 0.34245652  , -0.419239581, 1.56925964  , 0.002703044 , -1.84284711 , 3.4         , 3           , 12          , 0.0566695221, 0
0.0522007346, -9.804408   , -0.015395999, -0.003015776, -0.00514547573, -0.000519930152, -0.118646353, 0.34245652  , -0.419239581, 1.56922925  , 0.00270814029, -1.84289861 , 3.41        , 3           , 50          , 0           , 0
0.03909579  , -9.807039   , -0.0119333323, 0.000646174769, -0.00664153229, 0.00234311633, -0.119118243, 0.341175675 , -0.4193744  , 1.56923556  , 0.00268453686, -1.842965   , 3.42        , 3           , 11          , 0.00780120166, 0.007801209
0.03339325  , -9.786727   , -0.009041166, 0.00529924873, 0.00134924776, 0.00105656963, -0.119050831, 0.3418498   , -0.419576645, 1.56928861  , 0.00267398683, -1.84295154 , 3.43        , 3           , 12          , 0.0566695221, 0
0.04572592  , -9.782557   , -0.0292058159, 0.0021508974, -0.0014668412, -0.00100716122, -0.118983418, 0.342186868 , -0.419441819, 1.56931007  , 0.00268394081, -1.84296608 , 3.44        , 3           , 50          , 0           , 0
0.0263413712, -9.781534   , -0.0248553436, 0.00332548749, 0.003367851 , 0.0019322827, -0.119185656, 0.3412431   , -0.419441819, 1.56934345  , 0.00266471831, -1.84293234 , 3.45        , 3           , 11          , 0.00780120166, 0.007801209
0.04550688  , -9.75638    , -0.0307124779, -0.00207227166, 0.003995912 , 0.00190807518, -0.118713766, 0.34245652  , -0.419509232, 1.56932271  , 0.00264567439, -1.84289241 , 3.46        , 3           , 12          , 0.0566695221, 0
0.0505981632, -9.7791605  , -0.013312554, 0.00104806409, 0.00141306827, -0.00125844323, -0.118713766, 0.34245652  , -0.419509232, 1.56933331  , 0.00265828078, -1.84287834 , 3.47        , 3           , 50          , 0           , 0
0.0240642056, -9.7682     , -0.004847873, 0.005044797 , 0.00280294986, -0.0009274243, -0.118916005, 0.34151274  , -0.419239581, 1.56938374  , 0.00266760914, -1.84285033 , 3.48        , 3           , 11          , 0.00780120166, 0.007801209
0.0177000016, -9.778031   , -0.008181736, 0.006179522 , 0.00335175218, 0.0005185965, -0.118983418, 0.341580153 , -0.419509232, 1.56944561  , 0.002662513 , -1.84281683 , 3.49        , 3           , 12          , 0.0566695221, 0
0.01908605  , -9.789117   , -0.0268163718, 0.003882683 , 0.0005192974, -0.0006749171, -0.118848592, 0.3423217   , -0.419104755, 1.569493    , 0.00265515153, -1.84281158 , 3.5         , 3           , 50          , 0           , 0
0.0142576192, -9.77197    , -0.0239526834, 0.004511228 , 0.0065188827, 0.00084697397, -0.119253069, 0.340906024 , -0.419441819, 1.56953835  , 0.00264680688, -1.84274638 , 3.51        , 3           , 11          , 0.008138163 , 0.008138182
0.0223319624, -9.777872   , -0.026656732, 0.0007882158, 0.003700894 , -0.000361691549, -0.119253069, 0.340906024 , -0.419441819, 1.56954622  , 0.00265050237, -1.8427093  , 3.52        , 3           , 12          , 0.05770541  , 0
0.0176180471, -9.794182   , -0.0160476863, 0.00412668  , -0.00151268207, 0.00187305768, -0.118983418, 0.3423891   , -0.419576645, 1.56958747  , 0.00263181631, -1.84272444 , 3.53        , 3           , 50          , 0           , 0
0.0338041373, -9.783229   , 0.0009402409, 0.000180844247, -0.000295196427, -0.00156820368, -0.119253069, 0.3418498   , -0.419441819, 1.56958926  , 0.00264743273, -1.84272742 , 3.54        , 3           , 11          , 0.008138163 , 0.008138182
0.0233685113, -9.800177   , -0.008385211, -0.000676329655, -0.000291646575, -0.00100101612, -0.119118243, 0.341580153 , -0.419576645, 1.56958246  , 0.00265744631, -1.84273028 , 3.55        , 3           , 12          , 0.05770541  , 0
0.0115858931, -9.791289   , 0.0132903019, 0.00130566908, -0.0006061316, -0.000134703761, -0.118713766, 0.3423891   , -0.419441819, 1.56959558  , 0.00265878742, -1.84273636 , 3.56        , 3           , 50          , 0           , 0
0.0266374219, -9.78133    , -0.00226558931, 0.003040636 , 0.00167172332, -0.000377199147, -0.119050831, 0.3408386   , -0.419644058, 1.56962609  , 0.00266254274, -1.84271955 , 3.57        , 3           , 11          , 0.008138163 , 0.008138182
0.0370197073, -9.796514   , -0.0244783442, -0.00180722435, 0.00114001008, 0.000443818135, -0.119050831, 0.3408386   , -0.419644058, 1.56960809  , 0.002658102 , -1.84270823 , 3.58        , 3           , 12          , 0.05770541  , 0
0.019807674 , -9.788508   , -0.0001527965, 0.004475482 , 0.00308505236, 0.000224563526, -0.118916005, 0.341917217 , -0.419576645, 1.56965292  , 0.00265586679, -1.84267735 , 3.59        , 3           , 50          , 0           , 0
0.00632990059, -9.785231   , -0.0006905962, -0.000645082851, 0.0008546701, -0.00097421126, -0.119185656, 0.342186868 , -0.4193744  , 1.56968594  , 0.00264355843, -1.84266865 , 3.6         , 3           , 11          , 0.008458802 , 0.008458838
0.0213052183, -9.780284   , -0.011336429, 0.00159907527, -0.000903278938, 0.000731438864, -0.119387895, 0.341175675 , -0.419441819, 1.56970191  , 0.00263625686, -1.84267783 , 3.61        , 3           , 12          , 0.0587492436, 0
0.0275435783, -9.793346   , -0.0177535489, 0.002487322 , 0.00195640326, 0.0004921503, -0.118713766, 0.342726171 , -0.419239581, 1.569727    , 0.00263127987, -1.84265816 , 3.62        , 3           , 50          , 0           , 0
0.0350645371, -9.79628849 , -0.00190906029, 0.00160733692, -0.001174501, -0.0009897188, -0.118713766, 0.342726171 , -0.419239581, 1.569743    , 0.00264114444, -1.84267    , 3.63        , 3           , 11          , 0.008458802 , 0.008458838
0.03220091  , -9.770002   , -0.0115692466, -0.00296516437, -0.00200336147, 0.0006873304, -0.119118243, 0.341175675 , -0.419441819, 1.56971323  , 0.00263426  , -1.84269    , 3.64        , 3           , 12          , 0.0587492436, 0
0.04192675  , -9.781491   , 0.000583300367, -0.00378300366, 0.0005921982, -0.000138740026, -0.118916005, 0.341714978 , -0.419576645, 1.56967545  , 0.002635631 , -1.842684   , 3.65        , 3           , 50          , 0           , 0
0.03733947  , -9.790485   , 0.00179239176, -0.00123761664, -0.0008641447, -0.000430351152, -0.118916005, 0.34198463  , -0.419172168, 1.569663    , 0.00263995235, -1.84269261 , 3.66        , 3           , 11          , 0.008458802 , 0.008458838
0.029688783 , -9.808664   , -0.0210724548, 0.00389550277, 0.000230158781, -0.000382815924, -0.119185656, 0.34104085  , -0.419576645, 1.56970191  , 0.00264379685, -1.84269047 , 3.67        , 3           , 12          , 0.0587492436, 0
0.004656021 , -9.7868     , -0.0210503228, 0.00477825757, 0.00195376249, -0.00178345456, -0.119185656, 0.34104085  , -0.419576645, 1.56974983  , 0.00266161864, -1.84267092 , 3.68        , 3           , 50          , 0           , 0
0.020479992 , -9.76903248 , -0.00850398652, 0.00162959425, 0.002241413 , 0.00163583981, -0.118848592, 0.3423891   , -0.419576645, 1.56976616  , 0.00264531677, -1.84264839 , 3.69        , 3           , 11          , 0.008458802 , 0.008458838
0.0258236844, -9.784749   , -0.0190252122, -0.00293478416, -0.0002711037, -0.00071520143, -0.119185656, 0.341580153 , -0.419239581, 1.56973886  , 0.00264531677, -1.84265113 , 3.7         , 3           , 12          , 0.0598003976, 0
0.03115417  , -9.789359   , -0.0140607692, -0.00234280434, 0.001729171 , -0.0006825599, -0.119320482, 0.341445327 , -0.419307   , 1.5697155   , 0.002652201 , -1.842634   , 3.71        , 3           , 50          , 0           , 0
0.0398589969, -9.785643   , -0.03110217 , 0.00133400818, 0.000535051338, 0.0004676761, -0.118713766, 0.342186868 , -0.419307   , 1.56972885  , 0.002647552 , -1.8426286  , 3.72        , 3           , 11          , 0.00870162  , 0.008701682
0.0069759083, -9.782709   , -0.0259503778, -0.00263328943, 0.0008774424, -0.00126912177, -0.119118243, 0.340973437 , -0.419441819, 1.56970251  , 0.00266024773, -1.84261978 , 3.73        , 3           , 12          , 0.0598003976, 0
0.0126507459, -9.804844   , -0.0270570759, 0.0007205667, -0.002340318, 0.002139498 , -0.119118243, 0.340973437 , -0.419441819, 1.56970978  , 0.00263887946, -1.84264314 , 3.74        , 3           , 50          , 0           , 0
0.0326310024, -9.7963     , -0.0407772139, -0.00377408485, 0.00144936168, 0.000163191609, -0.118848592, 0.34198463  , -0.4193744  , 1.56967211  , 0.0026373   , -1.8426286  , 3.75        , 3           , 11          , 0.00870162  , 0.008701682
0.0272584967, -9.785522   , -0.0321200527, 0.001617629 , -3.33180069E-05, -0.0003974496, -0.119118243, 0.342119455 , -0.419104755, 1.56968832  , 0.00264123385, -1.842629   , 3.76        , 3           , 12          , 0.0598003976, 0
0.0235610846, -9.772284   , -0.002189476, 0.0009920954, -0.00461792434, 0.0001046751, -0.119050831, 0.341445327 , -0.419509232, 1.5696981   , 0.00264010136, -1.84267509 , 3.77        , 3           , 50          , 0           , 0
0.0212615989, -9.779905   , -0.004557058, 0.00279113464, 0.00338895456, 0.0002318144, -0.118646353, 0.3423891   , -0.419239581, 1.56972611  , 0.00263777678, -1.84264112 , 3.78        , 3           , 11          , 0.00870162  , 0.008701682
0.024043113 , -9.788263   , -0.0263092443, -0.005494478, 0.000601842767, 0.00071271864, -0.118646353, 0.3423891   , -0.419239581, 1.56967115  , 0.002630654 , -1.84263515 , 3.79        , 3           , 12          , 0.0598003976, 0
0.0230795518, -9.790579   , -0.0200211089, -0.00185902207, -0.00286961929, 0.000115549439, -0.119253069, 0.340973437 , -0.419307   , 1.56959152  , 0.00262275641, -1.84266388 , 3.8         , 3           , 50          , 0           , 0
0.008814616 , -9.766642   , -0.011745533, 0.00296819583, -0.00264752074, 0.00186583458, -0.118916005, 0.341647565 , -0.419441819, 1.56962109  , 0.00260407035, -1.84269023 , 3.81        , 3           , 11          , 0.009043062 , 0.009043138
0.0185271651, -9.746743   , -0.024525661, 0.000485532219, 0.002278486 , -0.00122643972, -0.118983418, 0.342119455 , -0.419239581, 1.569626    , 0.00261640851, -1.84266746 , 3.82        , 3           , 12          , 0.06085829  , 0
0.0339669362, -9.790992   , -0.0321214944, 0.00357530313, 0.0005016302, 0.00162900635, -0.119320482, 0.34104085  , -0.419576645, 1.56966186  , 0.00260007684, -1.84266257 , 3.83        , 3           , 50          , 0           , 0
0.04748159  , -9.774183   , -0.0123803765, -0.0001845627, -0.00518726837, 0.00095093355, -0.118713766, 0.342591345 , -0.419441819, 1.56965983  , 0.00259051  , -1.84271443 , 3.84        , 3           , 11          , 0.009043062 , 0.009043138
0.0240808781, -9.760608   , 0.00201531686, -0.00414444227, -0.00370623963, 8.932168E-05, -0.118713766, 0.342591345 , -0.419441819, 1.56961834  , 0.00258955639, -1.84275138 , 3.85        , 3           , 12          , 0.06085829  , 0
0.0177551955, -9.769934   , -0.006280994, 0.00392191159, 0.00424986472, -0.00117666426, -0.119050831, 0.341580153 , -0.4193744  , 1.56965756  , 0.002601418 , -1.842709   , 3.86        , 3           , 50          , 0           , 0
0.009552937 , -9.78381252 , -0.009226767, 0.002770663 , 0.00424350658, 0.0008196301, -0.119050831, 0.341580153 , -0.419509232, 1.56968534  , 0.00259334128, -1.84266639 , 3.87        , 3           , 11          , 0.009043062 , 0.009043138
0.0490238853, -9.806645   , -0.0145476414, 0.00331177  , 0.00166107458, 0.0004993311, -0.118713766, 0.342052042 , -0.419307   , 1.56971848  , 0.0025883643, -1.84264982 , 3.88        , 3           , 12          , 0.06085829  , 0
0.03030983  , -9.787484   , -0.01991891 , 0.0009551238, -0.00519626774, 0.000671623158, -0.119050831, 0.340906024 , -0.419509232, 1.5697279   , 0.00258159917, -1.84270179 , 3.89        , 3           , 50          , 0           , 0
0.0267345235, -9.777174   , -0.0112506077, 0.00133146858, 0.00397391943, 0.0005124044, -0.119050831, 0.340906024 , -0.419509232, 1.56970441  , 0.00259623234, -1.8426621  , 3.9         , 3           , 11          , 0.009264533 , 0.009264595
0.03597374  , -9.806076   , -0.015112781, 0.005313363 , 0.003086525 , -0.000906948757, -0.118781179, 0.342119455 , -0.419644058, 1.5697577   , 0.00260541146, -1.84263122 , 3.91        , 3           , 12          , 0.0619223826, 0
0.0427701324, -9.814081   , -0.0309519526, 0.0015669628, -0.0006091178, -0.000124986749, -0.119050831, 0.34198463  , -0.419239581, 1.56977332  , 0.00260663335, -1.84263718 , 3.92        , 3           , 50          , 0           , 0
0.0289445221, -9.786605   , -0.0167594571, -0.000133076857, -1.86217949E-05, -0.000126920029, -0.119185656, 0.3413779   , -0.419576645, 1.569772    , 0.00260782545, -1.84263742 , 3.93        , 3           , 11          , 0.009264533 , 0.009264595
0.0277228318, -9.789066   , -0.03848039 , 0.00041077644, -0.00203301455, 0.000133456037, -0.118713766, 0.342254281 , -0.4193744  , 1.569776    , 0.00260651414, -1.8426578  , 3.94        , 3           , 12          , 0.0619223826, 0
0.0284865163, -9.78305149 , -0.0113023352, 0.00192785612, 0.0056978534, -0.000603783643, -0.119118243, 0.3407712   , -0.4193744  , 1.56979537  , 0.002612564 , -1.8426007  , 3.95        , 3           , 50          , 0           , 0
0.0154710058, -9.780204   , -0.0140993157, 0.0029850204, 0.000499715 , 0.0024757504, -0.119118243, 0.3407712   , -0.4193744  , 1.56982517  , 0.00258782785, -1.84259558 , 3.96        , 3           , 11          , 0.009264533 , 0.009264595
0.0271570124, -9.790575   , -0.0235971157, 0.00187286467, 0.00026308716, -0.00182773673, -0.118916005, 0.34198463  , -0.419576645, 1.56984389  , 0.002606067 , -1.84259307 , 3.97        , 3           , 12          , 0.0619223826, 0
0.0365899019, -9.7884655  , -0.0176140163, 0.000230851219, 0.005727989 , -0.00204488426, -0.119050831, 0.34198463  , -0.419239581, 1.56984639  , 0.00262666051, -1.84253585 , 3.98        , 3           , 50          , 0           , 0
-0.00377303152, -9.770955   , -0.0200415459, -0.000684083963, 0.00170407281, 0.000180858391, -0.118916005, 0.3412431   , -0.4193744  , 1.5698396   , 0.00262487237, -1.84251881 , 3.99        , 3           , 11          , 0.009264533 , 0.009264595
0.0177676789, -9.7792635  , -0.0194876678, -0.00274208048, -0.00343418447, 0.000114452487, -0.118713766, 0.34245652  , -0.419509232, 1.56979358  , 0.002573493 , -1.84255326 , 4           , 3           , 12          , 0.0629921556, 0
0.0379584879, -9.791566   , -0.0239609182, 0.00180592423, -0.00292005786, 0.00158103392, -0.118713766, 0.34245652  , -0.419509232, 1.56981158  , 0.002557668 , -1.84258246 , 4.01        , 3           , 50          , 0           , 0
0.0162598211, -9.783499   , -0.00193436816, -0.0001351021, 0.00111739663, 0.00105514168, -0.119050831, 0.3413779   , -0.419644058, 1.56981027  , 0.00254705828, -1.84257126 , 4.02        , 3           , 11          , 0.009485152 , 0.00948522
0.0130535234, -9.79112148 , -0.00340691768, 0.00043185096, 0.00110905792, 0.00134473236, -0.118983418, 0.341445327 , -0.419509232, 1.56981456  , 0.002533677 , -1.84256017 , 4.03        , 3           , 12          , 0.0629921556, 0
0.024401838 , -9.790633   , -0.0159443449, 0.00218469021, 0.005103829 , 0.00141344219, -0.118983418, 0.342119455 , -0.419037342, 1.56983662  , 0.00251961  , -1.842509   , 4.04        , 3           , 50          , 0           , 0
0.0282521416, -9.765802   , -0.0214943346, 0.0004282858, -2.4461071E-05, -0.000102781793, -0.119387895, 0.34104085  , -0.419509232, 1.56984079  , 0.002520683 , -1.84250927 , 4.05        , 3           , 11          , 0.009485152 , 0.00948522
0.04337493  , -9.784025   , -0.0165969748, -0.0007058856, -0.0008547234, -0.00212530419, -0.118983418, 0.3423891   , -0.419441819, 1.56983376  , 0.00254187267, -1.84251785 , 4.06        , 3           , 12          , 0.0629921556, 0
0.0292324964, -9.801546   , -0.0115089472, 0.00265813619, -0.00236580637, 0.00273917732, -0.118983418, 0.3423891   , -0.419441819, 1.56986034  , 0.0025144245, -1.84254146 , 4.07        , 3           , 50          , 0           , 0
0.0309092142, -9.818668   , -0.0144013138, 0.00270132464, 0.000231322541, 0.0007735908, -0.119185656, 0.341445327 , -0.419307   , 1.56988728  , 0.0025067653, -1.84253907 , 4.08        , 3           , 11          , 0.009485152 , 0.00948522
0.0176017545, -9.796878   , -0.01698234 , 0.00271946285, 0.002795178 , 0.0025281366, -0.119050831, 0.34151274  , -0.419307   , 1.56991458  , 0.00248143333, -1.84251118 , 4.09        , 3           , 12          , 0.0629921556, 0
0.0279875454, -9.781786   , -0.00271014869, 0.00408918876, 0.00251442567, 0.0002951909, -0.118848592, 0.342052042 , -0.4193744  , 1.5697943   , 0.00234893174, -1.842486   , 4.1         , 3           , 50          , 0           , 0
0.0275304485, -9.796038   , -0.0191398039, -0.00193851173, -0.00116577838, 0.00192193768, -0.119253069, 0.3407038   , -0.419307   , 1.56977487  , 0.002329739 , -1.84249771 , 4.11        , 3           , 11          , 0.009807625 , 0.009807712
0.0211993232, -9.797806   , -0.0174116679, 0.00180128869, 0.001956706 , 0.00113162876, -0.119253069, 0.3407038   , -0.419307   , 1.569793    , 0.00231838436, -1.842478   , 4.12        , 3           , 12          , 0.06406715  , 0
0.0446313322, -9.793083   , -0.0139798205, 0.00410265429, 0.00450768275, 0.0017552257, -0.119050831, 0.341917217 , -0.419576645, 1.569834    , 0.0023008904, -1.84243309 , 4.13        , 3           , 50          , 0           , 0
0.03046879  , -9.781899   , -0.0361139476, 0.002337169 , -0.000914865, 0.0010933202, -0.119320482, 0.3418498   , -0.419307   , 1.56985748  , 0.00228992314, -1.84244215 , 4.14        , 3           , 11          , 0.009807625 , 0.009807712
0.0087557165, -9.788989   , -0.0305234343, 0.0003265779, -0.00374251232, -0.000963557162, -0.119185656, 0.3412431   , -0.419509232, 1.56986058  , 0.00229951949, -1.84247959 , 4.15        , 3           , 12          , 0.06406715  , 0
0.0339880958, -9.784728   , -0.027532056, 0.001235178 , 0.000555184553, -0.00175430579, -0.118713766, 0.3423217   , -0.419239581, 1.569873    , 0.00231716246, -1.842474   , 4.16        , 3           , 50          , 0           , 0
0.0510811135, -9.776      , -0.0141750155, 0.00261033583, -0.00206151139, 0.0007921755, -0.118713766, 0.3423217   , -0.419239581, 1.56989884  , 0.00230926485, -1.84249461 , 4.17        , 3           , 11          , 0.009807625 , 0.009807712
0.02110637  , -9.796614   , -0.002492858, 0.00153419084, 0.00198263116, -0.00144556072, -0.119050831, 0.34104085  , -0.419509232, 1.56991434  , 0.002323719 , -1.8424747  , 4.18        , 3           , 12          , 0.06406715  , 0
0.0197905041, -9.798774   , -0.0102086887, -0.000497331, -2.62312242E-05, 0.00108870689, -0.118916005, 0.341445327 , -0.419576645, 1.56990921  , 0.00231278152, -1.84247494 , 4.19        , 3           , 50          , 0           , 0
0.0206792355, -9.791232   , 0.0007271748, -0.0010719311, 0.002277142 , 0.00061450433, -0.118983418, 0.342254281 , -0.419172168, 1.56980646  , 0.00213220879, -1.842452   , 4.2         , 3           , 11          , 0.009198269 , 0.009198334
0.024205545 , -9.807404   , -0.008009227, 0.000938129262, 0.00341090979, -0.000215299791, -0.119253069, 0.341175675 , -0.419441819, 1.56981587  , 0.00213435455, -1.842418   , 4.21        , 3           , 12          , 0.06514689  , 0
0.021902509 , -9.819928   , -0.0158537626, -0.002489458, 0.002862189 , 0.0009004484, -0.118848592, 0.34245652  , -0.419307   , 1.56979108  , 0.002125384 , -1.84238923 , 4.22        , 3           , 50          , 0           , 0
0.0119144619, -9.790785   , -0.0336769857, 0.00262029632, 0.00110349827, -0.0005245717, -0.118848592, 0.34245652  , -0.419307   , 1.5698173   , 0.00213062926, -1.84237814 , 4.23        , 3           , 11          , 0.009198269 , 0.009198334
0.022460483 , -9.801071   , -0.008403877, 0.00403616158, 0.0013628318, 0.000918988837, -0.119050831, 0.3412431   , -0.419239581, 1.5698576   , 0.00212142034, -1.84236467 , 4.24        , 3           , 12          , 0.06514689  , 0
0.02994266  , -9.811639   , 0.00373867876, 0.000592628 , -0.000900245155, 0.00143736775, -0.119050831, 0.341647565 , -0.419576645, 1.56986356  , 0.00210705562, -1.84237361 , 4.25        , 3           , 50          , 0           , 0
0.0159895346, -9.780993   , -0.0249443054, 0.002317141 , 0.0007993326, 0.00175885344, -0.118848592, 0.34198463  , -0.419104755, 1.5698868   , 0.00208944245, -1.84236574 , 4.26        , 3           , 11          , 0.009198269 , 0.009198334
0.009650388 , -9.786334   , -0.0264193323, -0.00221602526, 0.002562482 , 0.00204264442, -0.119050831, 0.340906024 , -0.4193744  , 1.56986475  , 0.002068968 , -1.84234011 , 4.27        , 3           , 12          , 0.06514689  , 0
0.0139393872, -9.801835   , -0.014363084, -0.004848585, -0.003716253, 0.001935406 , -0.119050831, 0.340906024 , -0.4193744  , 1.56981611  , 0.002049537 , -1.84237731 , 4.28        , 3           , 50          , 0           , 0
0.0364488065, -9.797138   , -0.00777815841, -0.0005525507, -0.0020273244, 0.000555328152, -0.118848592, 0.3423891   , -0.419509232, 1.56981051  , 0.00204390427, -1.84239769 , 4.29        , 3           , 11          , 0.009198269 , 0.009198334
0.02433938  , -9.79251    , -0.00919116847, 0.00204573129, 0.00165689166, 0.00228072237, -0.119253069, 0.341647565 , -0.419104755, 1.56984925  , 0.00217893883, -1.84238124 , 4.3         , 3           , 12          , 0.0662310049, 0
0.0452706739, -9.78389549 , -0.03012885 , -0.00138294045, -0.000304248882, 0.00108629081, -0.119118243, 0.3413105   , -0.419509232, 1.56983542  , 0.002168061 , -1.84238434 , 4.31        , 3           , 50          , 0           , 0
0.0278420784, -9.773304   , -0.0364905857, 0.00435042055, 0.00251910742, -0.00055469 , -0.118511528, 0.342186868 , -0.419307   , 1.56987894  , 0.0021735148, -1.84235907 , 4.32        , 3           , 11          , 0.006090869 , 0.00609088968
0.0231249575, -9.801191   , -0.0395660177, 8.601314E-05, 0.003411951 , 0.000576785766, -0.119050831, 0.3407038   , -0.419307   , 1.56987989  , 0.00216782256, -1.84232485 , 4.33        , 3           , 12          , 0.0662310049, 0
0.0293206088, -9.794735   , -0.0159464516, -0.0002580916, -0.002590524, -0.00094339205, -0.119050831, 0.3407038   , -0.419307   , 1.56987715  , 0.00217715069, -1.84235084 , 4.34        , 3           , 50          , 0           , 0
0.0149297556, -9.779894   , -0.000549912453, -0.001925132, 0.0008657637, -0.00090359 , -0.119050831, 0.3418498   , -0.419441819, 1.56985807  , 0.00218618079, -1.84234214 , 4.35        , 3           , 11          , 0.006090869 , 0.00609088968
0.04539205  , -9.803098   , -0.005957933, -0.003323389, 0.00147640565, -0.00347928586, -0.119050831, 0.342052042 , -0.419172168, 1.56982481  , 0.00222096033, -1.84232736 , 4.36        , 3           , 12          , 0.0662310049, 0
0.0423935875, -9.79704952 , -0.0208215788, 0.00690459926, 0.002485422 , 0.00031922257, -0.119185656, 0.3413105   , -0.419441819, 1.569894    , 0.002217831 , -1.84230256 , 4.37        , 3           , 50          , 0           , 0
0.0295919962, -9.794123   , 0.0107130334, 0.00090826  , 0.0005400501, 0.000254026556, -0.118713766, 0.3423891   , -0.419307   , 1.569903    , 0.002215268 , -1.84229732 , 4.38        , 3           , 11          , 0.006090869 , 0.00609088968
0.0289463475, -9.785267   , -0.0153889153, 0.00146008609, -0.0006171647, 0.0008130872, -0.118713766, 0.3423891   , -0.419307   , 1.56991756  , 0.002207132 , -1.84230328 , 4.39        , 3           , 12          , 0.0662310049, 0
0.04916199  , -9.788629   , -0.012531653, -0.00307647 , 1.7576298E-05, -0.0009269408, -0.118983418, 0.341175675 , -0.4193744  , 1.56987727  , 0.00222665258, -1.84230328 , 4.4         , 3           , 50          , 0           , 0
0.04985858  , -9.774456   , -0.030881092, 0.0005871422, -0.00232286 , 0.000206601078, -0.118781179, 0.341445327 , -0.4193744  , 1.56988311  , 0.00222450681, -1.84232652 , 4.41        , 3           , 11          , 0.006028103 , 0.006028115
0.03515528  , -9.803717   , -0.0241269376, -0.00310260477, -0.001428117, 0.0004830116, -0.118781179, 0.34198463  , -0.419037342, 1.56985211  , 0.002219649 , -1.84234071 , 4.42        , 3           , 12          , 0.06731909  , 0
0.0156140989, -9.80427    , 0.0009817947, -0.003339183, 0.00174250035, -0.00118977693, -0.119185656, 0.34104085  , -0.4193744  , 1.56981874  , 0.00223162957, -1.8423233  , 4.43        , 3           , 50          , 0           , 0
0.0184947811, -9.77464    , 0.0112875383, -0.0010878708, 0.000276249542, -5.22814953E-05, -0.118781179, 0.3423891   , -0.419307   , 1.56980789  , 0.0022321064, -1.84232068 , 4.44        , 3           , 11          , 0.006028103 , 0.006028115
0.0352625474, -9.775954   , -0.005737778, 0.00202198816, -0.0009095315, 0.000808363839, -0.118781179, 0.3423891   , -0.419307   , 1.56982815  , 0.00222400017, -1.84232974 , 4.45        , 3           , 12          , 0.06731909  , 0
0.0669284761, -9.771104   , -0.0207481664, 0.004913142 , 0.00279222056, 0.000307425624, -0.118983418, 0.341445327 , -0.419307   , 1.56987739  , 0.00222096033, -1.84230185 , 4.46        , 3           , 50          , 0           , 0
0.03805236  , -9.773617   , -0.0156224053, -0.0027859835, 0.000869305164, -0.000340378785, -0.118916005, 0.341445327 , -0.419307   , 1.56984961  , 0.002224328 , -1.842293   , 4.47        , 3           , 11          , 0.006028103 , 0.006028115
0.03145622  , -9.764414   , -0.0273208655, -0.001687005, -0.00201572338, 0.0004832315, -0.118916005, 0.342052042 , -0.419172168, 1.56983256  , 0.00221947022, -1.84231329 , 4.48        , 3           , 12          , 0.06731909  , 0
0.0443196781, -9.772392   , -0.008775221, 0.00289125415, 0.0007961556, 0.001410873 , -0.119118243, 0.3408386   , -0.419307   , 1.56986153  , 0.002205344 , -1.8423053  , 4.49        , 3           , 50          , 0           , 0
0.0348207951, -9.781279   , -0.0134820947, 0.0006650718, 0.00427100854, 9.68024E-06 , -0.119118243, 0.3408386   , -0.419307   , 1.56986856  , 0.002223106 , -1.84226263 , 4.5         , 3           , 11          , 0.00622319663, 0.006223233
0.0208374672, -9.783867   , -0.0131888678, 0.00068542565, 0.00570902368, -0.0005417801, -0.118848592, 0.341917217 , -0.419509232, 1.56987548  , 0.00222853012, -1.84220552 , 4.51        , 3           , 12          , 0.06841077  , 0
0.0490172319, -9.799978   , -0.00543688424, 0.00233293138, 0.00138020073, 0.0008367173, -0.119320482, 0.3418498   , -0.419104755, 1.569899    , 0.00222018547, -1.8421917  , 4.52        , 3           , 50          , 0           , 0
0.0509714819, -9.7824     , -0.0061193984, 0.00227627787, -0.00321018486, 0.00134226878, -0.118983418, 0.341175675 , -0.4193744  , 1.56992161  , 0.00220671482, -1.84222376 , 4.53        , 3           , 11          , 0.00622319663, 0.006223233
0.0173690841, -9.776065   , -0.02306795 , 0.0009618926, 0.004848956 , -0.0008387514, -0.118713766, 0.342254281 , -0.419172168, 1.56993127  , 0.00221523829, -1.84217525 , 4.54        , 3           , 12          , 0.06841077  , 0
0.0293198843, -9.792955   , -0.0136674531, 0.002660825 , 0.00482138  , 0.00031618512, -0.118983418, 0.3407712   , -0.419441819, 1.569958    , 0.00221207924, -1.84212708 , 4.55        , 3           , 50          , 0           , 0
0.0336911976, -9.798982   , -0.00195277843, 0.00261462526, 0.0008092717, 0.00025775563, -0.118983418, 0.3407712   , -0.419441819, 1.5699842   , 0.00220951624, -1.842119   , 4.56        , 3           , 11          , 0.00622319663, 0.006223233
0.0230050143, -9.760174   , -0.0372869149, 0.00174095156, -0.0006200742, 0.000804075738, -0.118983418, 0.341647565 , -0.4193744  , 1.5700016   , 0.00220143981, -1.84212518 , 4.57        , 3           , 12          , 0.06841077  , 0
0.04518671  , -9.785359   , -0.0197575726, -0.00167864 , -0.002286957, -0.001244674, -0.119253069, 0.341917217 , -0.419037342, 1.56998479  , 0.00221386738, -1.842148   , 4.58        , 3           , 50          , 0           , 0
0.047909718 , -9.774221   , -0.009215023, -0.00280953385, -0.0008553004, 0.00020015992, -0.119387895, 0.340973437 , -0.4193744  , 1.56995666  , 0.00221187063, -1.84215653 , 4.59        , 3           , 11          , 0.00622319663, 0.006223233
0.0382754356, -9.792218   , -0.00544610433, -0.0011370565, -0.004303925, -0.000706955849, -0.118983418, 0.3423217   , -0.419239581, 1.56994438  , 0.0022423882, -1.84219956 , 4.6         , 3           , 12          , 0.0695057139, 0
0.0243372358, -9.812544   , -0.0333621874, 0.000336281344, 0.0011112733, 0.00109789241, -0.118983418, 0.3423217   , -0.419239581, 1.56994772  , 0.00223136134, -1.84218848 , 4.61        , 3           , 50          , 0           , 0
0.0174168181, -9.782667   , -0.0380496234, 0.0008848073, -0.0003325207, 0.00165277952, -0.119253069, 0.3413105   , -0.419239581, 1.56995654  , 0.00221485086, -1.84219182 , 4.62        , 3           , 11          , 0.00644206256, 0.00644209655
0.0218427535, -9.769471   , -0.0107549839, -0.002515538, 1.53150177E-06, 0.000205572185, -0.118983418, 0.341445327 , -0.419307   , 1.56993139  , 0.002212854 , -1.84219182 , 4.63        , 3           , 12          , 0.0695057139, 0
0.024006797 , -9.782533   , -0.014047699, -0.000492831, 0.002563076 , -3.10362666E-05, -0.118916005, 0.34198463  , -0.419239581, 1.56992662  , 0.00221315213, -1.84216619 , 4.64        , 3           , 50          , 0           , 0
0.0150401713, -9.789072   , -0.0277564544, -0.00196096557, -0.000587644055, 0.0013453078, -0.119185656, 0.3407712   , -0.419307   , 1.569907    , 0.00219965167, -1.84217191 , 4.65        , 3           , 11          , 0.00644206256, 0.00644209655
0.03873093  , -9.783757   , 0.004141312 , -0.000839705346, -0.00203209813, 0.00133129372, -0.119185656, 0.3407712   , -0.419307   , 1.56989849  , 0.0021863596, -1.84219217 , 4.66        , 3           , 12          , 0.0695057139, 0
0.0436085835, -9.799495   , -0.00412596948, 0.007483869 , 0.00306300353, -0.0008332063, -0.118848592, 0.342186868 , -0.419441819, 1.56997335  , 0.002194764 , -1.84216166 , 4.67        , 3           , 50          , 0           , 0
0.008145188 , -9.793238   , -0.0125103388, -0.00334464968, 0.00145333423, -0.000923356449, -0.119185656, 0.34151274  , -0.419239581, 1.56994     , 0.00220400281, -1.84214711 , 4.68        , 3           , 11          , 0.00644206256, 0.00644209655
0.011645386 , -9.805443   , -0.0126190353, 0.0009521798, 0.005683082 , 0.00202658772, -0.119118243, 0.3413779   , -0.419576645, 1.56994963  , 0.0021837668, -1.84209013 , 4.69        , 3           , 12          , 0.0695057139, 0
0.0225865245, -9.794201   , -0.018260682, 0.00211775  , 0.00628052838, -0.001951438, -0.118781179, 0.342119455 , -0.419172168, 1.56995523  , 0.002167912 , -1.84202731 , 4.7         , 3           , 50          , 0           , 0
0.0388117433, -9.782298   , -0.005778361, 0.00375506678, 0.00222036685, 0.00143438077, -0.119118243, 0.3407038   , -0.4193744  , 1.56999278  , 0.002153577 , -1.84200513 , 4.71        , 3           , 11          , 0.00666134339, 0.00666139927
0.0378841124, -9.795241   , -0.017680306, 0.00142510922, -0.003472742, -0.000379781064, -0.119118243, 0.3407038   , -0.4193744  , 1.570007    , 0.00215739175, -1.84203982 , 4.72        , 3           , 12          , 0.0706036   , 0
0.00478559453, -9.775029   , -0.0254301857, 0.0008672133, -0.00119480572, 0.00193949253, -0.119050831, 0.3417824   , -0.419509232, 1.57001579  , 0.00213796063, -1.84205174 , 4.73        , 3           , 50          , 0           , 0
0.01261375  , -9.785761   , 0.001619542 , 0.002024508 , -0.0003338291, 0.0005280466, -0.118983418, 0.341917217 , -0.419037342, 1.57003593  , 0.00213259622, -1.8420552  , 4.74        , 3           , 11          , 0.00666134339, 0.00666139927
0.0167709235, -9.7874155  , -0.0155256856, 0.00114478823, -0.00261779362, 0.0004895182, -0.119253069, 0.34104085  , -0.419104755, 1.57004726  , 0.00212770863, -1.84208131 , 4.75        , 3           , 12          , 0.0706036   , 0
0.00541070942, -9.815075   , -0.0344688371, -0.00116235809, -0.00517644826, 0.0007244132, -0.118646353, 0.342254281 , -0.419172168, 1.57003558  , 0.00212034746, -1.842133   , 4.76        , 3           , 50          , 0           , 0
0.0392944068, -9.786259   , -0.0153051987, -0.00221458357, 0.0014392283, -0.000617269136, -0.118646353, 0.342254281 , -0.419172168, 1.5700134   , 0.00212651654, -1.84211862 , 4.77        , 3           , 11          , 0.00666134339, 0.00666139927
0.0234847683, -9.775071   , 0.00545643829, 0.00318069523, 0.00109006767, 0.0002696039, -0.119118243, 0.340973437 , -0.419307   , 1.57004523  , 0.00212386413, -1.84210777 , 4.78        , 3           , 12          , 0.0706036   , 0
0.0271393955, -9.791938   , -0.0227096174, 0.00177583739, 0.00112755143, -0.00231443928, -0.118781179, 0.341445327 , -0.4193744  , 1.570063    , 0.00214711  , -1.84209645 , 4.79        , 3           , 50          , 0           , 0
0.0290136375, -9.791395   , -0.03262339 , -0.00427965727, -0.003975302, -0.00186068635, -0.118848592, 0.3418498   , -0.419172168, 1.56996763  , 0.0021862702, -1.842136   , 4.8         , 3           , 11          , 0.006790137 , 0.006790188
0.0197090432, -9.812253   , -0.0148819461, 0.00338288024, -0.00407635747, 0.0007610514, -0.119050831, 0.3408386   , -0.419441819, 1.57000124  , 0.00217867061, -1.84217691 , 4.81        , 3           , 12          , 0.0717041343, 0
0.0220773984, -9.779597   , 0.008101417 , 0.00197388  , -0.002915593, 0.0007691785, -0.118713766, 0.3423217   , -0.4193744  , 1.57002091  , 0.00217098161, -1.842206   , 4.82        , 3           , 50          , 0           , 0
0.0222676769, -9.781086   , -0.0212741  , -0.000288705, -0.00259309937, -0.000671175134, -0.118713766, 0.3423217   , -0.4193744  , 1.57001793  , 0.00217765733, -1.84223187 , 4.83        , 3           , 11          , 0.006790137 , 0.006790188
0.0320112668, -9.793439   , -0.012744898, -0.00226465776, -0.00142399559, -0.00095263886, -0.119185656, 0.3412431   , -0.4193744  , 1.56999528  , 0.00218713447, -1.84224617 , 4.84        , 3           , 12          , 0.0717041343, 0
0.0286294948, -9.761465   , -0.005631555, -0.00166526 , 0.00171491725, -4.481111E-05, -0.119185656, 0.341445327 , -0.419576645, 1.56997859  , 0.0021876113, -1.84222889 , 4.85        , 3           , 50          , 0           , 0
0.00327541027, -9.783274   , -0.01244013 , -0.004507178, 0.0014649129, -0.0009246107, -0.118713766, 0.3418498   , -0.419239581, 1.56993353  , 0.00219685026, -1.84221423 , 4.86        , 3           , 11          , 0.006790137 , 0.006790188
0.03615036  , -9.787555   , -0.0180592425, -0.00111755216, -0.00029435652, -0.000356763077, -0.119253069, 0.3407038   , -0.4193744  , 1.56992245  , 0.00220045634, -1.84221721 , 4.87        , 3           , 12          , 0.0717041343, 0
0.0174641833, -9.80065    , -0.00166955788, 8.38103E-06 , -0.001168212, -7.626608E-05, -0.119253069, 0.3407038   , -0.4193744  , 1.56992245  , 0.0022012312, -1.84222877 , 4.88        , 3           , 50          , 0           , 0
0.032923393 , -9.798771   , -0.0209285263, -0.0008237661, 0.000843951362, 0.0002339725, -0.118848592, 0.341917217 , -0.419509232, 1.56991422  , 0.00219890662, -1.84222031 , 4.89        , 3           , 11          , 0.006790137 , 0.006790188
0.0213850439, -9.784167   , -0.02764148 , 5.40147339E-05, -0.00260654162, -1.31614079E-05, -0.118848592, 0.341714978 , -0.419104755, 1.5692929   , 0.00277480832, -1.84224629 , 4.9         , 3           , 12          , 0.07280703  , 0
0.0352887325, -9.79372    , -0.0312374178, 0.00119011255, -0.00177371956, 0.00172319694, -0.119118243, 0.341175675 , -0.419307   , 1.5693047   , 0.00275755278, -1.84226394 , 4.91        , 3           , 50          , 0           , 0
0.03435148  , -9.779078   , -0.008040685, -0.002756543, -0.0011217139, -0.00258490373, -0.118646353, 0.342186868 , -0.419104755, 1.56927717  , 0.00278342119, -1.84227526 , 4.92        , 3           , 11          , 0.00692544458, 0.00692551956
0.0226643272, -9.783399   , -0.01632851 , 0.00461302744, -0.00179559737, 0.00031293754, -0.119118243, 0.3407712   , -0.419307   , 1.56932318  , 0.00278023235, -1.84229314 , 4.93        , 3           , 12          , 0.07280703  , 0
0.0291729141, -9.81054    , -0.01387177 , 0.00295918714, 0.002807007 , 0.0003694337, -0.119118243, 0.3407712   , -0.419307   , 1.56935287  , 0.002776507 , -1.84226513 , 4.94        , 3           , 50          , 0           , 0
0.0305538   , -9.806945   , -0.0138175748, 0.0029383027, -0.000324887835, -0.00196578726, -0.118916005, 0.341647565 , -0.4193744  , 1.56938219  , 0.00279620662, -1.84226835 , 4.95        , 3           , 11          , 0.00692544458, 0.00692551956
0.0325532369, -9.795528   , -0.0285732951, -0.000479649927, -0.0008608112, -0.002280859, -0.119185656, 0.3418498   , -0.419307   , 1.56937742  , 0.0028190352, -1.84227693 , 4.96        , 3           , 12          , 0.07280703  , 0
0.0451830924, -9.776462   , -0.0083625745, -0.000807013, -0.00260811066, 0.00112635433, -0.119253069, 0.340973437 , -0.4193744  , 1.56936932  , 0.00280771032, -1.84230292 , 4.97        , 3           , 50          , 0           , 0
0.03392834  , -9.777698   , -0.0102871116, -0.001628129, -0.00227446971, -0.003167072, -0.118713766, 0.342186868 , -0.419307   , 1.569353    , 0.00283930078, -1.84232569 , 4.98        , 3           , 11          , 0.00692544458, 0.00692551956
0.010050755 , -9.799768   , -0.03560458 , 0.004904067 , -0.00122532889, 0.000322997977, -0.118713766, 0.342186868 , -0.419307   , 1.5694021   , 0.00283605233, -1.842338   , 4.99        , 3           , 12          , 0.07280703  , 0
0.013961466 , -9.813374   , -0.0316604152, -0.00230869232, 0.001979156 , 0.00271461555, -0.119185656, 0.34104085  , -0.4193744  , 1.56903064  , 0.00252718013, -1.84231448 , 5           , 3           , 50          , 0           , 0
0.01782953  , -9.777834   , -0.0266976859, 0.00282582385, 0.00138213916, -0.000410694716, -0.119118243, 0.341175675 , -0.419576645, 1.569059    , 0.00253138226, -1.84230077 , 5.01        , 3           , 11          , 0.00509757455, 0.00509760855
0.02895011  , -9.784816   , -0.0153836738, 0.00311163673, 0.00166326924, -0.00011864378, -0.118983418, 0.34198463  , -0.419104755, 1.56909013  , 0.00253254455, -1.8422842  , 5.02        , 3           , 12          , 0.07391201  , 0
0.0275989976, -9.78970051 , -0.0213245  , 0.00654279  , 0.003345509 , 0.00021312217, -0.119185656, 0.34056896  , -0.4193744  , 1.56915569  , 0.00253045838, -1.84225082 , 5.03        , 3           , 50          , 0           , 0
0.0433490351, -9.78451    , -0.0134409536, -0.00145289116, 0.00169158657, 0.00185709  , -0.118916005, 0.342254281 , -0.419644058, 1.56914127  , 0.002511951 , -1.84223366 , 5.04        , 3           , 11          , 0.00509757455, 0.00509760855
0.0264919773, -9.779326   , 0.0212442577, -0.00374132232, -0.0005600131, -0.000193153537, -0.118916005, 0.342254281 , -0.419644058, 1.56910384  , 0.00251382845, -1.84223938 , 5.05        , 3           , 12          , 0.07391201  , 0
0.02438742  , -9.780418   , -0.00137237087, -0.00141025684, 0.004570176 , 0.000468005281, -0.118983418, 0.3413105   , -0.419172168, 1.56908977  , 0.0025092985, -1.8421936  , 5.06        , 3           , 50          , 0           , 0
0.0225124322, -9.772699   , -0.0464698821, 0.000511258142, -0.00231515383, -0.00105098588, -0.119050831, 0.3412431   , -0.419307   , 1.56909478  , 0.002519789 , -1.84221673 , 5.07        , 3           , 11          , 0.00509757455, 0.00509760855
0.04424983  , -9.802767   , -0.0357763767, 0.00167074485, -0.0006046778, -0.00130525487, -0.118983418, 0.341917217 , -0.419239581, 1.56911147  , 0.00253287237, -1.84222281 , 5.08        , 3           , 12          , 0.07391201  , 0
0.04240383  , -9.787241   , -0.0103193186, 0.001401697 , 0.00139402773, -0.0001330977, -0.119118243, 0.340636373 , -0.4193744  , 1.56912553  , 0.00253433269, -1.842209   , 5.09        , 3           , 50          , 0           , 0
