Acc X       , Acc Y       , Acc Z       , Gyro X      , Gyro Y      , Gyro Z      , Magn X      , Magn Y      , Magn Z      , Euler X     , Euler Y     , Euler Z     , Time        , Status      , LowRate X   , LowRate Y   , LowRate Z    
0.138939843 , -0.0136342  , -9.80768    , 0.003091295 , 0.00179471576, -0.000237549611, 0.108534448 , 0.16212754  , 0.709316432 , 0.00230713282, 0.0146426577, -0.9332371  , 0           , 3           , 11          , 0.0346410163, 0.0346410163
0.116428643 , -0.008095063, -9.8015     , -6.848462E-05, -0.000613260549, 0.000137374038, 0.108332209 , 0.162262365 , 0.7095187   , 0.00230646739, 0.0146365212, -0.933235645, 0.01        , 3           , 12          , 0.0346410163, 0
0.142650783 , -0.0257656034, -9.773006   , -0.00175009773, 0.00141269062, -0.000129855616, 0.1082648   , 0.161992714 , 0.7095187   , 0.00228894828, 0.0146506522, -0.933236837, 0.02        , 3           , 50          , 0           , 0
0.146075115 , -0.00623474643, -9.788558   , -0.00102084794, 0.002981652 , -0.000102617661, 0.1082648   , 0.161992714 , 0.7095187   , 0.00227872562, 0.01468047  , -0.933238   , 0.03        , 3           , 11          , 0.0346410163, 0.0346410163
0.144126445 , -0.0220249537, -9.786501   , 0.00251374417, 0.00178897718, 0.00104676164, 0.1082648   , 0.16212754  , 0.7097209   , 0.00230401731, 0.0146983359, -0.9332273  , 0.04        , 3           , 12          , 0.0346410163, 0
0.157671213 , -0.0131825218, -9.780853   , -0.000639436243, -4.584099E-05, 0.00143003243, 0.108399622 , 0.162262365 , 0.7097209   , 0.0022978324, 0.0146978442, -0.933213   , 0.05        , 3           , 50          , 0           , 0
0.166596383 , -0.0116024688, -9.767203   , -0.00274550566, 0.00184627424, 0.000585817848, 0.108332209 , 0.16212754  , 0.7097883   , 0.002270464 , 0.0147162937, -0.9332073  , 0.06        , 3           , 11          , 0.0346410163, 0.0346410163
0.153575346 , -0.0243424624, -9.788246   , 0.000681937847, 0.002959195 , 0.000479990762, 0.108669274 , 0.1619253   , 0.7096535   , 0.00227735541, 0.0147458753, -0.9332025  , 0.07        , 3           , 12          , 0.0346410163, 0
0.137277067 , -0.0412534848, -9.79627    , 0.0015215039, 0.00208567013, 0.00104493846, 0.108669274 , 0.1619253   , 0.7096535   , 0.00229272433, 0.0147667108, -0.933192   , 0.08        , 3           , 50          , 0           , 0
0.154268757 , -0.0282285325, -9.76299    , 0.00223164051, 0.00207716622, 0.00119230384, 0.108534448 , 0.161992714 , 0.7095861   , 0.00231521716, 0.014787457 , -0.933179855, 0.09        , 3           , 11          , 0.0346410163, 0.0346410163
0.1452664   , -0.04016488 , -9.778117   , 0.00449902657, 0.00147943664, 0.0016269245, 0.108534448 , 0.162060127 , 0.7095187   , 0.00244337181, 0.0149479369, -0.933162451, 0.1         , 3           , 12          , 0.0346410163, 0
0.12825036  , -0.0340864062, -9.784527   , 0.00504480675, -0.0005323967, 0.00160113652, 0.108332209 , 0.16212754  , 0.709855735 , 0.00249405974, 0.0149425725, -0.9331465  , 0.11        , 3           , 50          , 0           , 0
0.138256148 , -0.02066483 , -9.782474   , 0.001913221 , -0.00106865016, 0.001001614 , 0.108399622 , 0.162194952 , 0.7096535   , 0.00251334044, 0.0149318594, -0.933136463, 0.12        , 3           , 11          , 0.0346410163, 0.0346410163
0.14716959  , -0.0369080976, -9.788903   , -0.000202892144, 0.000527927652, 0.00115480018, 0.108601861 , 0.16212754  , 0.7095861   , 0.00251148525, 0.0149371093, -0.9331248  , 0.13        , 3           , 12          , 0.0346410163, 0
0.137221038 , -0.04534551 , -9.793157   , 0.00133980066, -0.00120999955, 0.00142534659, 0.108601861 , 0.16212754  , 0.7095861   , 0.00252509466, 0.0149249742, -0.9331107  , 0.14        , 3           , 50          , 0           , 0
0.139695033 , -0.0457174219, -9.760616   , 0.00362343783, -0.0009401386, 0.0007278172, 0.108601861 , 0.1619253   , 0.7097209   , 0.00256143743, 0.0149155548, -0.9331033  , 0.15        , 3           , 11          , 0.0346410163, 0.0346410163
0.142061323 , -0.04689619 , -9.778676   , 0.00208432227, 0.0009436377, 0.000173193534, 0.1082648   , 0.162194952 , 0.7097883   , 0.00258230721, 0.0149249872, -0.933101654, 0.16        , 3           , 12          , 0.0346410163, 0
0.143945664 , -0.0458939336, -9.789488   , 0.0028154985, 0.00251515862, -8.57325649E-05, 0.108534448 , 0.16212754  , 0.7096535   , 0.00261045038, 0.0149501376, -0.933102369, 0.17        , 3           , 50          , 0           , 0
0.141276225 , -0.0293514151, -9.773964   , 0.001107895 , 0.00253121648, 4.706908E-05, 0.108467035 , 0.16212754  , 0.7095861   , 0.00262153731, 0.0149754491, -0.933101654, 0.18        , 3           , 11          , 0.0346410163, 0.0346410163
0.112808675 , -0.0143231526, -9.806574   , -0.003035598, 0.000995651 , 0.000142352437, 0.108467035 , 0.16212754  , 0.7095861   , 0.0025912032, 0.0149854012, -0.933100462, 0.19        , 3           , 12          , 0.0346410163, 0
0.123031065 , -0.0288616531, -9.804841   , -0.001633472, 0.000363151863, -0.000143703961, 0.108399622 , 0.161992714 , 0.7095861   , 0.00214012153, 0.0136500429, -0.9331076  , 0.2         , 3           , 50          , 0           , 0
0.127430692 , -0.0326193869, -9.794456   , 0.0003694348, 0.00120522152, -0.0004053536, 0.1082648   , 0.162262365 , 0.7095861   , 0.00214376184, 0.0136621045, -0.9331119  , 0.21        , 3           , 11          , 0.0320699625, 0.0320699662
0.141311467 , -0.026626626, -9.775739   , 8.664449E-05, 0.00135140063, -0.0004049802, 0.108332209 , 0.162194952 , 0.7096535   , 0.002144573 , 0.0136756282, -0.9331157  , 0.22        , 3           , 12          , 0.0346698463, 0
0.155124515 , -0.0309756678, -9.759853   , -0.0003679327, -0.0006567178, 0.000278644933, 0.108534448 , 0.162060127 , 0.7095861   , 0.002140932 , 0.013669054 , -0.93311286 , 0.23        , 3           , 50          , 0           , 0
0.171215326 , -0.0163596962, -9.7898     , -8.239629E-05, -0.0002348578, 0.000858946645, 0.1082648   , 0.162194952 , 0.709451258 , 0.00214022631, 0.0136666913, -0.9331045  , 0.24        , 3           , 11          , 0.0320699625, 0.0320699662
0.138445362 , -0.0136980256, -9.801363   , -0.0009166028, 0.00135127618, 0.0007336789, 0.1082648   , 0.162194952 , 0.709451258 , 0.00213115988, 0.0136801843, -0.9330971  , 0.25        , 3           , 12          , 0.0346698463, 0
0.145936012 , -0.0295947548, -9.796959   , -0.001491119, 0.000785177 , 0.000578823034, 0.108197384 , 0.162194952 , 0.7095187   , 0.0021163288, 0.0136880223, -0.933091164, 0.26        , 3           , 50          , 0           , 0
0.1340998   , -0.0230147261, -9.770344   , -0.00208241213, -0.001073088, 0.0006913503, 0.108332209 , 0.162262365 , 0.7095861   , 0.00209559849, 0.0136772776, -0.933084249, 0.27        , 3           , 11          , 0.0320699625, 0.0320699662
0.130490914 , 0.0199872479, -9.782076   , -0.001813786, -0.00236686366, 0.000817364838, 0.108197384 , 0.16212754  , 0.7097209   , 0.00207757135, 0.01365359  , -0.933076143, 0.28        , 3           , 12          , 0.0346698463, 0
0.154660612 , -0.004481416, -9.790719   , -0.0003827825, -0.001946324, 0.000259864057, 0.108332209 , 0.161857888 , 0.7097209   , 0.00207377831, 0.0136341229, -0.9330735  , 0.29        , 3           , 50          , 0           , 0
0.167581633 , -0.0257247631, -9.796716   , 0.0001940864, 0.00110804837, -0.0005519434, 0.108332209 , 0.161857888 , 0.7097209   , 0.00158119248, 0.0143064763, -0.933086157, 0.3         , 3           , 11          , 0.02523104  , 0.0252309348
0.159339532 , -0.0387740061, -9.792878   , -0.00109414349, 0.000404603838, -0.000570087461, 0.1082648   , 0.162060127 , 0.7097209   , 0.00157016935, 0.01431053  , -0.9330919  , 0.31        , 3           , 12          , 0.0347559564, 0
0.145468369 , -0.0354042239, -9.801548   , -0.000110153451, -0.000608536939, -0.000578697945, 0.1082648   , 0.16212754  , 0.7097209   , 0.00156898471, 0.0143044591, -0.9330976  , 0.32        , 3           , 50          , 0           , 0
0.1343441   , -0.005725473, -9.78459549 , 0.00176964665, 0.00181244256, -0.0009613318, 0.108399622 , 0.16212754  , 0.7096535   , 0.00158654351, 0.0143225957, -0.933107138, 0.33        , 3           , 11          , 0.02523104  , 0.0252309348
0.1262903   , 0.005996065 , -9.777759   , 0.002874395 , -7.723766E-05, 0.0007353779, 0.108601861 , 0.1619253   , 0.7095861   , 0.00161539367, 0.0143218115, -0.933099747, 0.34        , 3           , 12          , 0.0347559564, 0
0.119804852 , -0.0302837063, -9.795854   , 0.00483645  , -0.00154699758, 0.00258656987, 0.108601861 , 0.1619253   , 0.7095861   , 0.00166412839, 0.0143062994, -0.933074   , 0.35        , 3           , 50          , 0           , 0
0.132510051 , -0.013772863, -9.789674   , 0.00387790753, 0.0007698267, 0.00104005926, 0.108534448 , 0.162262365 , 0.7097209   , 0.00170305639, 0.0143139781, -0.933063745, 0.36        , 3           , 11          , 0.02523104  , 0.0252309348
0.138031691 , -0.0123026809, -9.804964   , 0.00389455212, 0.0016385226, 5.10058526E-05, 0.108467035 , 0.161992714 , 0.7097883   , 0.00174200931, 0.014330362 , -0.93306303 , 0.37        , 3           , 12          , 0.0347559564, 0
0.162624657 , -0.00343153044, -9.768951   , 0.00203565974, 0.000374097785, -0.000694322167, 0.108399622 , 0.162194952 , 0.7097883   , 0.00176226569, 0.0143341152, -0.933069944, 0.38        , 3           , 50          , 0           , 0
0.158894911 , -0.0254074372, -9.77737    , -0.0006584025, 0.0006945271, -0.001421836, 0.108332209 , 0.16212754  , 0.709855735 , 0.00175547751, 0.0143410852, -0.933084249, 0.39        , 3           , 11          , 0.02523104  , 0.0252309348
0.1406115   , -0.0182992574, -9.79462051 , 0.00148500258, 0.00154117553, -0.000108642365, 0.108197384 , 0.161992714 , 0.7095861   , 0.00185305427, 0.0145438211, -0.933084   , 0.4         , 3           , 12          , 0.0348984972, 0
0.150967836 , -0.0201688539, -9.796804   , 0.001353092 , 0.002685098 , 0.000336441124, 0.108197384 , 0.161992714 , 0.7095861   , 0.00186663528, 0.0145706665, -0.9330807  , 0.41        , 3           , 50          , 0           , 0
0.123859257 , -0.0240837149, -9.788517   , 0.001905195 , 0.00138715294, 0.0006072511, 0.108534448 , 0.161992714 , 0.7097883   , 0.00188577652, 0.0145845255, -0.9330745  , 0.42        , 3           , 11          , 0.0211254787, 0.021125393
0.135588318 , -0.0237057023, -9.791116   , 0.00457244832, -0.00150864979, 0.000867957 , 0.108399622 , 0.161992714 , 0.7096535   , 0.00193162716, 0.0145694222, -0.9330659  , 0.43        , 3           , 12          , 0.0348984972, 0
0.141270518 , -0.0289150234, -9.772604   , 0.002873239 , -0.00134034385, 1.27133717E-06, 0.1082648   , 0.162194952 , 0.709855735 , 0.00196035835, 0.0145560205, -0.9330659  , 0.44        , 3           , 50          , 0           , 0
0.136523649 , -0.0005132407, -9.767803   , 0.00262441277, 0.0016729068, -9.970195E-05, 0.108467035 , 0.16212754  , 0.7097209   , 0.00198658858, 0.0145727508, -0.933066845, 0.45        , 3           , 11          , 0.0211254787, 0.021125393
0.147907838 , 0.00314600579, -9.781658   , 0.00376230525, 0.00208481844, 0.000628822 , 0.108467035 , 0.16212754  , 0.7097209   , 0.00202430459, 0.0145935854, -0.9330604  , 0.46        , 3           , 12          , 0.0348984972, 0
0.159506992 , -0.0269440264, -9.802677   , 0.00290086772, 0.00180050929, 0.00133491831, 0.108534448 , 0.161992714 , 0.7095861   , 0.002053509 , 0.0146115636, -0.933047056, 0.47        , 3           , 50          , 0           , 0
0.150504827 , -0.0179587919, -9.792267   , 0.00260817772, 0.001086951 , 0.00132277107, 0.1082648   , 0.162060127 , 0.7096535   , 0.002079784 , 0.0146224061, -0.933033943, 0.48        , 3           , 11          , 0.0211254787, 0.021125393
0.140971959 , -0.0171052981, -9.78014851 , 0.000326334819, 0.000396179443, 0.00101246615, 0.1082648   , 0.162060127 , 0.7095861   , 0.002083195 , 0.0146263447, -0.9330237  , 0.49        , 3           , 12          , 0.0348984972, 0
0.140905991 , -0.0123098586, -9.764736   , -0.0006362831, 0.00313445157, 4.447561E-05, 0.108467035 , 0.16212754  , 0.7097209   , 0.002042437 , 0.0146357389, -0.9330237  , 0.5         , 3           , 50          , 0           , 0
0.1710936   , -0.008533714, -9.762608   , -0.000222269067, 0.00170234055, -0.00054615 , 0.1082648   , 0.16212754  , 0.709451258 , 0.00204013381, 0.0146527756, -0.9330292  , 0.51        , 3           , 11          , 0.0202363338, 0.02023627
0.165105566 , -0.04029382 , -9.782001   , 0.00159674673, -0.000331454474, 0.000437346462, 0.1082648   , 0.16212754  , 0.709451258 , 0.002056165 , 0.0146494508, -0.9330249  , 0.52        , 3           , 12          , 0.03509635  , 0
0.166670173 , -0.0337461345, -9.804947   , 0.00175134744, 0.0002479376, -0.000411941728, 0.108332209 , 0.162194952 , 0.7095861   , 0.00207361742, 0.0146519411, -0.933028936, 0.53        , 3           , 50          , 0           , 0
0.155530691 , -0.0152190654, -9.799416   , -0.0005116474, 0.000287691451, -0.002285715, 0.108332209 , 0.162329778 , 0.7096535   , 0.00206816522, 0.0146548627, -0.9330518  , 0.54        , 3           , 11          , 0.0202363338, 0.02023627
0.12954849  , -0.0310627837, -9.773189   , 0.00104822032, 0.00111233955, -0.000117540825, 0.108399622 , 0.162060127 , 0.709855735 , 0.0020786298, 0.0146659864, -0.9330528  , 0.55        , 3           , 12          , 0.03509635  , 0
0.122656234 , -0.0516924337, -9.778458   , 0.00244001043, 0.000352009025, 0.0031714784, 0.108467035 , 0.162060127 , 0.7095861   , 0.00210349518, 0.0146694407, -0.9330213  , 0.56        , 3           , 50          , 0           , 0
0.146351889 , -0.0247548334, -9.78606    , 0.00144076091, -0.000207196339, 0.00272788852, 0.108467035 , 0.162060127 , 0.7095861   , 0.00211830181, 0.0146673108, -0.9329941  , 0.57        , 3           , 11          , 0.0202363338, 0.02023627
0.148184344 , -0.02249663 , -9.787824   , 0.00161653466, 0.0023756905, 0.00219397922, 0.108601861 , 0.162194952 , 0.7097209   , 0.00213479041, 0.0146910194, -0.932971954, 0.58        , 3           , 12          , 0.03509635  , 0
0.1287791   , -0.0366409235, -9.79900551 , 0.00148257625, 0.00210591312, 0.000471964828, 0.1082648   , 0.162329778 , 0.7097209   , 0.002149687 , 0.01471207  , -0.9329672  , 0.59        , 3           , 50          , 0           , 0
0.13185586  , -0.0292158574, -9.779017   , -0.000176083631, -0.00136741716, -0.00144366338, 0.108669274 , 0.161992714 , 0.7097883   , 0.00325907371, 0.01360016  , -0.9329665  , 0.6         , 3           , 11          , 0.01941583  , 0.0194157772
0.135922283 , -0.0234426111, -9.773945   , -0.00131521677, -0.00163987826, -0.00174085458, 0.108332209 , 0.162262365 , 0.7096535   , 0.00324568362, 0.0135838175, -0.9329841  , 0.61        , 3           , 12          , 0.03534818  , 0
0.136448517 , -0.0139823463, -9.773378   , 0.00112026371, -0.000370994356, -0.00213675573, 0.108332209 , 0.162262365 , 0.7096535   , 0.00325659686, 0.013580177 , -0.933005333, 0.62        , 3           , 50          , 0           , 0
0.160113752 , -0.04120092 , -9.777541   , 0.00483860262, 0.00187639531, -0.00122260116, 0.108467035 , 0.161992714 , 0.709383845 , 0.003304817 , 0.0135989822, -0.9330175  , 0.63        , 3           , 11          , 0.01941583  , 0.0194157772
0.174896151 , -0.0574709438, -9.786175   , 0.00372916926, 0.00418314664, -0.00148223061, 0.108534448 , 0.162194952 , 0.7096535   , 0.003341909 , 0.013640861 , -0.9330323  , 0.64        , 3           , 12          , 0.03534818  , 0
0.146636933 , -0.0441525355, -9.785829   , -0.00129033392, 0.0009329357, -0.0009878826, 0.108332209 , 0.162262365 , 0.7096535   , 0.00332887028, 0.0136502236, -0.933042049, 0.65        , 3           , 50          , 0           , 0
0.146625876 , -0.0383827053, -9.777181   , -0.00329296384, -4.986432E-05, -0.00101448374, 0.108534448 , 0.162060127 , 0.7096535   , 0.003295803 , 0.013649758 , -0.933052063, 0.66        , 3           , 11          , 0.01941583  , 0.0194157772
0.15668267  , -0.03378569 , -9.793296   , -0.002433321, 0.000655355165, -0.0007127457, 0.108534448 , 0.162060127 , 0.7095861   , 0.00327137276, 0.013656335 , -0.9330592  , 0.67        , 3           , 12          , 0.03534818  , 0
0.138621345 , -0.05062298 , -9.806755   , -0.000320928579, -0.0005228715, 0.0004280667, 0.108534448 , 0.162060127 , 0.7095861   , 0.00326822116, 0.0136510953, -0.933055162, 0.68        , 3           , 50          , 0           , 0
0.167530581 , -0.02847375 , -9.792683   , 0.000259368826, 5.09063648E-05, -0.000275569531, 0.108467035 , 0.162060127 , 0.7095861   , 0.00327077718, 0.01365161  , -0.9330578  , 0.69        , 3           , 11          , 0.01941583  , 0.0194157772
0.178055435 , -0.00159667234, -9.784146   , -0.00345860142, -7.861011E-05, 0.000269795943, 0.108399622 , 0.16212754  , 0.7097883   , 0.00319644832, 0.0140292328, -0.933055639, 0.7         , 3           , 12          , 0.03565243  , 0
0.149307668 , -0.0366558358, -9.772168   , -0.0030462374, -0.00165401073, -0.00032291637, 0.108399622 , 0.162194952 , 0.7095861   , 0.00316594052, 0.0140127018, -0.933059   , 0.71        , 3           , 50          , 0           , 0
0.140855625 , -0.02841182 , -9.777119   , -0.00303550647, -0.00121646351, -0.00117514818, 0.108601861 , 0.161992714 , 0.7096535   , 0.00313542061, 0.0140005723, -0.93307066 , 0.72        , 3           , 11          , 0.0108395815, 0.0108396411
0.149665251 , -0.05371675 , -9.779588   , -0.00346203428, -0.0007886591, -0.000456047885, 0.108601861 , 0.161992714 , 0.7096535   , 0.00310073583, 0.0139927026, -0.9330752  , 0.73        , 3           , 12          , 0.03565243  , 0
0.1604802   , -0.0152670247, -9.798919   , 0.0009543493, -0.000259010179, -0.000564225251, 0.108534448 , 0.16212754  , 0.7096535   , 0.00311020017, 0.0139901275, -0.9330809  , 0.74        , 3           , 50          , 0           , 0
0.163598031 , -0.007779071, -9.78480148 , 0.003518982 , 0.000285581918, -0.000254293642, 0.1082648   , 0.162194952 , 0.7097883   , 0.00314535433, 0.0139929913, -0.933083534, 0.75        , 3           , 11          , 0.0108395815, 0.0108396411
0.16249077  , -0.0298994742, -9.781905   , 0.00394482352, -0.000284232257, -0.00111856265, 0.1082648   , 0.162194952 , 0.709855735 , 0.00318464567, 0.0139901843, -0.93309474 , 0.76        , 3           , 12          , 0.03565243  , 0
0.147539556 , -0.0241260733, -9.76165    , 0.00309934327, 0.0001581446, -0.00154668849, 0.108399622 , 0.162262365 , 0.7095861   , 0.003215422 , 0.013991815 , -0.93311    , 0.77        , 3           , 50          , 0           , 0
0.123265862 , -0.02964067 , -9.774585   , 7.971203E-05, -0.001689636, 0.000125176943, 0.108467035 , 0.162194952 , 0.7095861   , 0.00321623427, 0.0139749143, -0.933109045, 0.78        , 3           , 11          , 0.0108395815, 0.0108396411
0.137339815 , -0.0322547331, -9.794359   , 0.0020872918, -0.00027696733, 0.000158038383, 0.108467035 , 0.162194952 , 0.7095861   , 0.00323712942, 0.013972139 , -0.9331074  , 0.79        , 3           , 12          , 0.03565243  , 0
0.1378893   , -0.008069426, -9.77917    , 0.004236965 , 0.0009914363, 0.000475873559, 0.108534448 , 0.16212754  , 0.7097209   , 0.00328718848, 0.0139887286, -0.933102369, 0.8         , 3           , 50          , 0           , 0
0.150853038 , -0.0118871219, -9.770061   , 0.00195209892, -0.000126644416, -0.000126855681, 0.108399622 , 0.162194952 , 0.7097209   , 0.00330668967, 0.0139874667, -0.9331038  , 0.81        , 3           , 11          , 0.0105045214, 0.0105045736
0.1610466   , -0.0313662477, -9.770191   , 0.00255095563, 0.00230605854, -0.000374117837, 0.108601861 , 0.16212754  , 0.709855735 , 0.003332149 , 0.0140105393, -0.9331074  , 0.82        , 3           , 12          , 0.0360073559, 0
0.123732723 , -0.033625342, -9.781854   , 0.00225193123, 0.00186628173, 0.00104872836, 0.108534448 , 0.16212754  , 0.7097883   , 0.003354817 , 0.0140291676, -0.9330969  , 0.83        , 3           , 50          , 0           , 0
0.12410821  , -0.0422012955, -9.781498   , -0.000597274164, 0.000901109364, 1.54131612E-05, 0.108534448 , 0.16212754  , 0.7097883   , 0.00334884622, 0.0140381763, -0.933096647, 0.84        , 3           , 11          , 0.0105045214, 0.0105045736
0.150773168 , -0.0195767153, -9.767892   , -0.00299946568, 0.00136961718, -0.00156679237, 0.108399622 , 0.1619253   , 0.7096535   , 0.00331863179, 0.0140519245, -0.933112144, 0.85        , 3           , 12          , 0.0360073559, 0
0.15357779  , -0.0225581881, -9.786419   , -0.00185386545, 0.00179176684, -0.00198292453, 0.108399622 , 0.162194952 , 0.7097209   , 0.00329981442, 0.0140699074, -0.933131933, 0.86        , 3           , 50          , 0           , 0
0.159852877 , -0.0248821173, -9.785034   , -0.00174108031, 5.804959E-05, -0.0005762891, 0.108467035 , 0.16212754  , 0.7097209   , 0.003282323 , 0.0140705062, -0.933137655, 0.87        , 3           , 11          , 0.0105045214, 0.0105045736
0.162652165 , -0.0225301348, -9.796272   , -0.00262314826, -0.00152354431, 0.000969518442, 0.108399622 , 0.162060127 , 0.7097209   , 0.003256227 , 0.01405524  , -0.9331281  , 0.88        , 3           , 12          , 0.0360073559, 0
0.160500109 , -0.0214684047, -9.80938    , -0.004198022, -0.00208592881, 0.00152407563, 0.108736686 , 0.162194952 , 0.7095861   , 0.0032144594, 0.01403433  , -0.93311286 , 0.89        , 3           , 50          , 0           , 0
0.149623185 , -0.0156964231, -9.792249   , -0.005644768, -0.00200888026, 0.00122879434, 0.108736686 , 0.162194952 , 0.7095861   , 0.00311089586, 0.0141214281, -0.9331012  , 0.9         , 3           , 11          , 0.0101593351, 0.0101593779
0.1360613   , -0.0232296977, -9.793816   , -0.003474747, 0.000416888361, -1.06181687E-05, 0.108534448 , 0.16212754  , 0.7096535   , 0.00307614729, 0.0141255949, -0.9331014  , 0.91        , 3           , 12          , 0.03641109  , 0
0.160201922 , -0.0228153728, -9.767842   , -0.000210973943, -0.00033151047, -0.000144429985, 0.108399622 , 0.162262365 , 0.7097209   , 0.003074016 , 0.0141222831, -0.933102846, 0.92        , 3           , 50          , 0           , 0
0.163839951 , -0.02412687 , -9.7746     , -0.000233531508, -0.00163135491, 0.0009814452, 0.108601861 , 0.16212754  , 0.7097209   , 0.003071819 , 0.0141059393, -0.9330931  , 0.93        , 3           , 11          , 0.0101593351, 0.0101593779
0.14193818  , -0.017457597, -9.790081   , -0.00177691143, -3.54372569E-05, 0.0005657299, 0.108669274 , 0.162060127 , 0.7095861   , 0.00305412943, 0.0141055677, -0.9330876  , 0.94        , 3           , 12          , 0.03641109  , 0
0.1203104   , -0.0244161766, -9.796684   , -0.000469423685, 0.00168127252, -0.0005461746, 0.108669274 , 0.162060127 , 0.7095861   , 0.00304935826, 0.0141223986, -0.933092833, 0.95        , 3           , 50          , 0           , 0
0.115869477 , -0.0162703488, -9.795727   , -5.720376E-05, 0.0006700718, -0.000128965868, 0.108399622 , 0.162194952 , 0.7095861   , 0.00304876687, 0.0141291013, -0.933094   , 0.96        , 3           , 11          , 0.0101593351, 0.0101593779
0.139733016 , -0.01603205 , -9.79505348 , 0.000366433 , 0.000238428183, -0.000418820127, 0.108534448 , 0.16212754  , 0.7097209   , 0.00305237365, 0.0141314985, -0.9330983  , 0.97        , 3           , 12          , 0.03641109  , 0
0.141999528 , -0.01869902 , -9.800484   , 0.00136141886, 0.0005097746, 0.000163678167, 0.108399622 , 0.162060127 , 0.709855735 , 0.003066011 , 0.014136591 , -0.933096647, 0.98        , 3           , 50          , 0           , 0
0.125504345 , -0.0528267175, -9.80103    , 0.002619251 , -0.0005203331, 0.00173068314, 0.108736686 , 0.16212754  , 0.7095861   , 0.003092447 , 0.0141313327, -0.9330795  , 0.99        , 3           , 11          , 0.0101593351, 0.0101593779
0.1541209   , -0.009956116, -9.784462   , 0.0014673461, 0.000358696532, 0.0008822289, 0.108736686 , 0.16212754  , 0.7095861   , 0.00350592518, 0.0139046134, -0.9330652  , 1           , 3           , 12          , 0.0368616357, 0
0.160849631 , -0.0167301185, -9.788996   , -0.00223366171, -0.000877987361, -0.0008758101, 0.108399622 , 0.162194952 , 0.7095861   , 0.003483466 , 0.0138958655, -0.933073759, 1.01        , 3           , 50          , 0           , 0
0.1503892   , -0.0426182672, -9.805653   , -0.00195733877, -0.001173855, -0.000162860291, 0.108399622 , 0.162194952 , 0.7097883   , 0.00346387038, 0.01388413  , -0.933075666, 1.02        , 3           , 11          , 0.0104445247, 0.010444562
0.1275593   , -0.0146170314, -9.791084   , -8.38735359E-05, 0.00152090611, 0.0008894994, 0.108534448 , 0.162262365 , 0.7096535   , 0.003463157 , 0.0138993086, -0.9330666  , 1.03        , 3           , 12          , 0.0368616357, 0
0.154411823 , -0.0204421431, -9.774193   , -0.0008043197, 0.0003869326, 0.000296193728, 0.108467035 , 0.1619253   , 0.7097209   , 0.003455154 , 0.013903168 , -0.9330635  , 1.04        , 3           , 50          , 0           , 0
0.140136138 , -0.008986006, -9.779612   , -0.00138020923, -0.000463186385, -0.0001489997, 0.108534448 , 0.16212754  , 0.7096535   , 0.00344133074, 0.01389854  , -0.9330652  , 1.05        , 3           , 11          , 0.0104445247, 0.010444562
0.1371367   , -0.008280225, -9.80086    , 0.000479237147, 0.0005197784, 1.982674E-05, 0.108534448 , 0.16212754  , 0.7096535   , 0.00344612636, 0.013903738 , -0.933064938, 1.06        , 3           , 12          , 0.0368616357, 0
0.137210011 , -0.03957568 , -9.784509   , 0.00261020032, 0.0002128068, -0.000114578324, 0.108534448 , 0.16212754  , 0.7097209   , 0.0034722127, 0.01390587  , -0.9330659  , 1.07        , 3           , 50          , 0           , 0
0.146240771 , -0.0391693078, -9.787582   , 0.00175041321, 7.178726E-05, 0.000593604753, 0.108399622 , 0.162194952 , 0.709855735 , 0.00348980026, 0.0139065664, -0.933059931, 1.08        , 3           , 11          , 0.0104445247, 0.010444562
0.134758562 , -0.0226992816, -9.800145   , -0.0010829902, 0.00138517062, 0.00116757967, 0.108669274 , 0.16212754  , 0.709990561 , 0.00347913359, 0.0139203807, -0.9330485  , 1.09        , 3           , 12          , 0.0368616357, 0
0.155736014 , -0.03295829 , -9.785617   , -0.000270671822, 0.00106092694, 0.00131006027, 0.108467035 , 0.16212754  , 0.709855735 , 0.00321839936, 0.013893066 , -0.9330387  , 1.1         , 3           , 50          , 0           , 0
0.128890932 , -0.024005888, -9.799762   , 2.77213985E-06, -0.000226449731, 0.000720664742, 0.108467035 , 0.16212754  , 0.709855735 , 0.00321852649, 0.0138907777, -0.933031559, 1.11        , 3           , 11          , 0.01008634  , 0.0100863744
0.16720669  , -0.00290369242, -9.779743   , 0.0008697133, 0.000206267941, -0.000555672741, 0.108467035 , 0.162194952 , 0.7097883   , 0.00322714588, 0.0138928583, -0.933037043, 1.12        , 3           , 12          , 0.03735692  , 0
0.155837491 , -0.027906416, -9.794138   , 0.00400997  , 0.0007540392, -0.0012438884, 0.108467035 , 0.161992714 , 0.709923148 , 0.00326707377, 0.0139004393, -0.93304944 , 1.13        , 3           , 50          , 0           , 0
0.115948021 , -0.007247394, -9.796074   , 0.00259588775, 0.00106146536, -0.00196369179, 0.108399622 , 0.16212754  , 0.709855735 , 0.00329275988, 0.0139111187, -0.933069   , 1.14        , 3           , 11          , 0.01008634  , 0.0100863744
0.14605999  , -0.0196119118, -9.802716   , 0.00118537026, 0.00250241044, -0.001235981, 0.108601861 , 0.162194952 , 0.7097883   , 0.003304443 , 0.0139361825, -0.9330814  , 1.15        , 3           , 12          , 0.03735692  , 0
0.155743957 , -0.01558589 , -9.765541   , 0.00188298151, 0.00247726962, 0.0007714504, 0.1088041   , 0.162060127 , 0.7097883   , 0.003323381 , 0.01396093  , -0.9330735  , 1.16        , 3           , 50          , 0           , 0
0.141562134 , 0.00224585086, -9.776758   , 0.00341164414, 1.52157554E-05, 0.00189005514, 0.1088041   , 0.162060127 , 0.7097883   , 0.00335776084, 0.0139610181, -0.9330547  , 1.17        , 3           , 11          , 0.01008634  , 0.0100863744
0.151730642 , -0.02172296 , -9.778748   , 0.00114162837, 0.000186741323, 0.00130610669, 0.108332209 , 0.162194952 , 0.7097883   , 0.00336935953, 0.0139628416, -0.9330416  , 1.18        , 3           , 12          , 0.03735692  , 0
0.1325856   , -0.0207792837, -9.809177   , 0.000150219144, 6.124401E-05, 0.000439531024, 0.108399622 , 0.162194952 , 0.709855735 , 0.003370924 , 0.0139634376, -0.933037043, 1.19        , 3           , 50          , 0           , 0
0.127839565 , -0.0144361854, -9.766236   , 0.004356595 , -0.00171509711, 0.000296578539, 0.108669274 , 0.161992714 , 0.709990561 , 0.00335866143, 0.0139263039, -0.9330349  , 1.2         , 3           , 11          , 0.009513851 , 0.009513865
0.131331    , -0.0284359455, -9.767269   , 0.00451160548, -0.000852965051, -0.000119290169, 0.108534448 , 0.162060127 , 0.7095861   , 0.00340376119, 0.01391778  , -0.9330361  , 1.21        , 3           , 12          , 0.037894804 , 0
0.1486057   , -0.0136421164, -9.772812   , 0.00183734309, 0.00118693919, -0.00082176266, 0.108534448 , 0.162060127 , 0.7095861   , 0.00342202024, 0.0139296781, -0.933044434, 1.22        , 3           , 50          , 0           , 0
0.131981939 , -0.01077228 , -9.774738   , -0.0007292168, 0.0006397875, -0.0008455303, 0.108332209 , 0.162194952 , 0.7095861   , 0.00341461087, 0.0139361024, -0.9330528  , 1.23        , 3           , 11          , 0.009513851 , 0.009513865
0.149915084 , -0.0208393484, -9.775593   , 0.000258205837, 0.0003366958, -0.000128296946, 0.108332209 , 0.162329778 , 0.7097209   , 0.003417174 , 0.0139394747, -0.9330542  , 1.24        , 3           , 12          , 0.037894804 , 0
0.154639557 , -0.0563975535, -9.785896   , -0.000154146081, 0.0009244266, -0.00126717589, 0.108534448 , 0.162060127 , 0.7097883   , 0.00341545814, 0.0139487609, -0.933066845, 1.25        , 3           , 50          , 0           , 0
0.144932821 , -0.0355309471, -9.789359   , -0.00184551463, 0.00152644049, -0.00255684764, 0.108467035 , 0.162060127 , 0.7097209   , 0.00339664659, 0.0139641119, -0.933092356, 1.26        , 3           , 11          , 0.009513851 , 0.009513865
0.153054848 , -0.0342391133, -9.790172   , 0.00130242633, 0.00405978924, -0.0009265363, 0.108467035 , 0.162060127 , 0.7097209   , 0.00340954424, 0.0140047427, -0.9331014  , 1.27        , 3           , 12          , 0.037894804 , 0
0.157751024 , -0.0170664769, -9.797158   , 0.0002818595, 0.00206129  , -0.0006755838, 0.108467035 , 0.162060127 , 0.709451258 , 0.00341226836, 0.014025379 , -0.9331081  , 1.28        , 3           , 50          , 0           , 0
0.129986212 , -0.033311557, -9.774114   , -0.00231425557, -0.00162927434, -0.00174683437, 0.108534448 , 0.16212754  , 0.709923148 , 0.00338888052, 0.0140091451, -0.933125734, 1.29        , 3           , 11          , 0.009513851 , 0.009513865
0.1575676   , -0.0447489358, -9.739211   , -0.00160956336, -0.00165791507, -0.0007409311, 0.108534448 , 0.162262365 , 0.7097883   , 0.003373122 , 0.0139762145, -0.9331331  , 1.3         , 3           , 12          , 0.0384731442, 0
0.141882181 , -0.00997608 , -9.772831   , 0.000267478579, 0.00118269527, 2.735137E-05, 0.108332209 , 0.162060127 , 0.709990561 , 0.00337580149, 0.01398804  , -0.9331329  , 1.31        , 3           , 50          , 0           , 0
0.154445618 , -0.0141585106, -9.771409   , 0.002110004 , 0.00143769418, 0.001473482 , 0.108601861 , 0.162194952 , 0.709855735 , 0.00339710875, 0.0140023706, -0.9331181  , 1.32        , 3           , 11          , 0.009996664 , 0.009996677
0.144483387 , -0.0141593646, -9.76337051 , 0.0002245677, -0.001555164, 0.00170468667, 0.108601861 , 0.162194952 , 0.709855735 , 0.003399593 , 0.013986758 , -0.933100939, 1.33        , 3           , 12          , 0.0384731442, 0
0.155391172 , -0.0181035139, -9.782739   , -0.00175207178, -0.000528070144, 0.00127805443, 0.108534448 , 0.16212754  , 0.7095861   , 0.00338225067, 0.0139814327, -0.9330883  , 1.34        , 3           , 50          , 0           , 0
0.126481652 , -0.04737531 , -9.805474   , -0.00244982773, 6.127057E-05, 0.000280544016, 0.1082648   , 0.162262365 , 0.709990561 , 0.003357792 , 0.013982038 , -0.933085442, 1.35        , 3           , 11          , 0.009996664 , 0.009996677
0.134559363 , -0.03235217 , -9.783094   , -0.002319977, -0.0015086811, -0.0006000458, 0.108601861 , 0.162060127 , 0.709855735 , 0.003334508 , 0.0139669692, -0.9330914  , 1.36        , 3           , 12          , 0.0384731442, 0
0.147138864 , -0.0293878634, -9.775265   , -0.0007792109, -0.00324916816, -4.3335287E-05, 0.108399622 , 0.162194952 , 0.7097883   , 0.00332670752, 0.01393448  , -0.9330921  , 1.37        , 3           , 50          , 0           , 0
0.150785312 , -0.0222289264, -9.772891   , -0.0009200576, -0.00296370359, 0.00024614553, 0.108399622 , 0.162194952 , 0.7097883   , 0.00331753935, 0.0139048342, -0.933089733, 1.38        , 3           , 11          , 0.009996664 , 0.009996677
0.15383023  , -0.0219748262, -9.75705051 , -0.00174299092, -0.000233812447, 0.000423735852, 0.108601861 , 0.16212754  , 0.7096535   , 0.00330016785, 0.0139024826, -0.933085442, 1.39        , 3           , 12          , 0.0384731442, 0
0.1581822   , -0.01487393 , -9.791709   , 0.0006640423, -9.31224859E-05, 0.000440140779, 0.108399622 , 0.16212754  , 0.709855735 , 0.00329060527, 0.0139304381, -0.9330814  , 1.4         , 3           , 50          , 0           , 0
0.138263285 , -0.0246600714, -9.788391   , 0.00194278173, 3.332457E-05, 0.0008791838, 0.108601861 , 0.16212754  , 0.7097209   , 0.003310155 , 0.0139307454, -0.933072567, 1.41        , 3           , 11          , 0.0106560215, 0.0106560327
0.141885191 , -0.0193192884, -9.784683   , -0.00231638737, 0.000227637021, -2.92229743E-06, 0.108534448 , 0.161992714 , 0.709855735 , 0.00328699057, 0.0139330178, -0.933072567, 1.42        , 3           , 12          , 0.03908977  , 0
0.150077969 , -0.005455319, -9.780383   , -0.00387860322, 0.000105359395, -0.000586760754, 0.108399622 , 0.162194952 , 0.7096535   , 0.003248124 , 0.0139340907, -0.9330783  , 1.43        , 3           , 50          , 0           , 0
0.133731321 , -0.0277820565, -9.788017   , -0.0008915738, 0.0003577582, -0.000135350565, 0.108399622 , 0.162194952 , 0.7096535   , 0.00323919021, 0.0139376726, -0.9330797  , 1.44        , 3           , 11          , 0.0106560215, 0.0106560327
0.145435989 , -0.0198741276, -9.777882   , 0.00264563179, -0.000690347457, 0.0008730334, 0.1082648   , 0.16212754  , 0.709855735 , 0.00326576829, 0.0139307408, -0.933071136, 1.45        , 3           , 12          , 0.03908977  , 0
0.160242826 , -0.03210055 , -9.785113   , 0.002354038 , -0.0009791561, 0.00143947441, 0.108534448 , 0.162262365 , 0.709855735 , 0.00328950863, 0.0139209041, -0.9330566  , 1.46        , 3           , 50          , 0           , 0
0.165334076 , -0.023028763, -9.793996   , 0.00221539452, -0.0008318621, 0.00115454069, 0.108332209 , 0.162060127 , 0.709990561 , 0.00331182266, 0.0139125464, -0.933045149, 1.47        , 3           , 11          , 0.0106560215, 0.0106560327
0.141859725 , -0.00333345681, -9.761462   , 0.00438183825, 0.00144805782, 0.0001992054, 0.108601861 , 0.1619253   , 0.7097883   , 0.00335566816, 0.0139270192, -0.933043242, 1.48        , 3           , 12          , 0.03908977  , 0
0.140798643 , -0.0262734219, -9.766253   , 0.0008226291, 0.000914858945, -0.000259805151, 0.108601861 , 0.1619253   , 0.7097883   , 0.00336385937, 0.013936175 , -0.9330456  , 1.49        , 3           , 50          , 0           , 0
0.157048836 , -0.0330281369, -9.780185   , -0.00105906569, -0.00092101685, -0.0002982555, 0.108601861 , 0.16212754  , 0.709923148 , 0.00333794532, 0.0139378579, -0.933048964, 1.5         , 3           , 11          , 0.0114119519, 0.0114119593
0.141232446 , -0.0383211374, -9.778585   , 0.002784174 , -0.000673447445, -0.000270951161, 0.108399622 , 0.161992714 , 0.7097883   , 0.003365748 , 0.0139311291, -0.9330518  , 1.51        , 3           , 12          , 0.03974256  , 0
0.1309701   , -0.0207279157, -9.770797   , 0.0005041136, -0.0007974593, 0.00014250091, 0.108399622 , 0.16212754  , 0.709923148 , 0.00337080867, 0.0139231505, -0.9330504  , 1.52        , 3           , 50          , 0           , 0
0.142595589 , -0.03386257 , -9.774907   , -0.002753746, 0.000382087921, 0.000139491021, 0.108601861 , 0.161992714 , 0.709855735 , 0.00334328949, 0.0139269652, -0.933048964, 1.53        , 3           , 11          , 0.0114119519, 0.0114119593
0.14399758  , -0.0355763324, -9.7844     , -0.0008058427, -0.003222938, 0.000385479652, 0.108601861 , 0.161992714 , 0.709855735 , 0.0033352836, 0.0138947265, -0.933045149, 1.54        , 3           , 12          , 0.03974256  , 0
0.137947455 , -0.0208892375, -9.803257   , -0.0011081557, -0.004936964, 7.256104E-05, 0.108534448 , 0.162060127 , 0.7097209   , 0.00332420948, 0.0138453515, -0.9330447  , 1.55        , 3           , 50          , 0           , 0
0.143713564 , -0.0362080745, -9.809253   , -0.000218403511, -0.00136979239, 0.0008452804, 0.108332209 , 0.162060127 , 0.7097883   , 0.00332214171, 0.0138316266, -0.9330363  , 1.56        , 3           , 11          , 0.0114119519, 0.0114119593
0.138588578 , -0.03998994 , -9.789017   , -0.00035993653, -0.00122633786, 0.0009895924, 0.108332209 , 0.162262365 , 0.7095861   , 0.00331867859, 0.0138193294, -0.933026552, 1.57        , 3           , 12          , 0.03974256  , 0
0.137384027 , -0.03218699 , -9.800682   , -0.002477411, -0.0009014496, -0.0008791505, 0.108669274 , 0.162060127 , 0.709923148 , 0.0032937834, 0.0138103431, -0.933035135, 1.58        , 3           , 50          , 0           , 0
0.14476788  , -0.00437581539, -9.792615   , -0.00287368521, 0.001824107 , -0.00069899 , 0.108534448 , 0.16212754  , 0.7095187   , 0.00326494966, 0.0138286063, -0.9330423  , 1.59        , 3           , 11          , 0.0114119519, 0.0114119593
0.152365491 , -0.0112060476, -9.79262352 , -0.00101827353, 0.002030692 , 0.000170316329, 0.108534448 , 0.16212754  , 0.7095187   , 0.002875857 , 0.0139771579, -0.9330456  , 1.6         , 3           , 12          , 0.0404294133, 0
0.148673266 , -0.0126483738, -9.781382   , 0.002241923 , 0.00113644416, 0.000320581777, 0.108399622 , 0.162060127 , 0.709855735 , 0.00289832056, 0.01398851  , -0.9330425  , 1.61        , 3           , 50          , 0           , 0
0.125237748 , -0.0106989592, -9.77615452 , 0.001956387 , 0.0007145842, -0.000259719964, 0.1082648   , 0.162329778 , 0.709923148 , 0.0029178476, 0.0139956633, -0.933045149, 1.62        , 3           , 11          , 0.0121664256, 0.012166433
0.1233939   , -0.0374569669, -9.802678   , 0.0003850902, 0.000298048835, 1.07600954E-05, 0.1082648   , 0.161992714 , 0.709990561 , 0.00292170048, 0.0139986435, -0.933045149, 1.63        , 3           , 12          , 0.0404294133, 0
0.1333778   , -0.02852027 , -9.802936   , 0.00177813275, -0.00158940174, 0.00113685511, 0.108669274 , 0.16212754  , 0.7097209   , 0.00293964  , 0.013982716 , -0.9330337  , 1.64        , 3           , 50          , 0           , 0
0.145218357 , -0.008830732, -9.798082   , -0.0009300935, -0.00241656881, 0.0005357291, 0.108669274 , 0.16212754  , 0.7097209   , 0.00293041184, 0.0139585352, -0.93302846 , 1.65        , 3           , 11          , 0.0121664256, 0.012166433
0.162334159 , -0.01342102 , -9.804301   , -0.00488062669, 0.000205657678, 0.000263139518, 0.108467035 , 0.162194952 , 0.7097209   , 0.00288164266, 0.0139605841, -0.933025837, 1.66        , 3           , 12          , 0.0404294133, 0
0.155278042 , -0.0178316571, -9.766024   , -0.00358937378, 0.00133641157, 0.000573708 , 0.1082648   , 0.162194952 , 0.709855735 , 0.002845829 , 0.0139739346, -0.9330201  , 1.67        , 3           , 50          , 0           , 0
0.138156489 , -0.0243785232, -9.77258    , -0.00109887356, 0.001454417 , 0.0005907869, 0.108467035 , 0.162194952 , 0.709923148 , 0.00283492333, 0.01398846  , -0.933014154, 1.68        , 3           , 11          , 0.0121664256, 0.012166433
0.136480436 , -0.02061044 , -9.786102   , 0.00166355865, 7.139095E-05, -0.00012774179, 0.108669274 , 0.16212754  , 0.7097883   , 0.00285154022, 0.01398918  , -0.9330156  , 1.69        , 3           , 12          , 0.0404294133, 0
0.140605077 , -0.0160834361, -9.790981   , 0.004508545 , 0.00213227537, -0.00165471924, 0.108399622 , 0.161992714 , 0.7097209   , 0.00284781842, 0.014007695 , -0.933032751, 1.7         , 3           , 50          , 0           , 0
0.152324826 , -0.0317444839, -9.811831   , 0.00245603826, 0.00385926268, -0.00013973903, 0.108399622 , 0.161992714 , 0.7097209   , 0.00287236134, 0.0140462928, -0.933033943, 1.71        , 3           , 11          , 0.0121838357, 0.0121838348
0.149354845 , -0.0321322531, -9.77347    , -0.000640267448, 0.0011582257, 0.0008753085, 0.108467035 , 0.162194952 , 0.7097883   , 0.00286608329, 0.0140578514, -0.9330251  , 1.72        , 3           , 12          , 0.0411482863, 0
0.13171646  , -0.0343258381, -9.765076   , -0.0018053907, -0.0011241287, 0.0009781487, 0.108332209 , 0.162194952 , 0.7097209   , 0.00284816558, 0.0140465805, -0.9330156  , 1.73        , 3           , 50          , 0           , 0
0.149064049 , -0.0238717124, -9.786476   , -0.00172663957, -0.00132634817, -0.0005269142, 0.108467035 , 0.162194952 , 0.709855735 , 0.00283082528, 0.0140333334, -0.9330206  , 1.74        , 3           , 11          , 0.0121838357, 0.0121838348
0.148178175 , -0.0131582581, -9.77552    , -0.00124138244, -0.00233571185, -0.0003954411, 0.108601861 , 0.161992714 , 0.709855735 , 0.00281835464, 0.0140099861, -0.933024645, 1.75        , 3           , 12          , 0.0411482863, 0
0.137539387 , -0.017704783, -9.805482   , 0.00017627691, -0.00249728863, 4.02851256E-05, 0.108601861 , 0.161992714 , 0.709855735 , 0.00282012066, 0.0139850127, -0.9330244  , 1.76        , 3           , 50          , 0           , 0
0.166208237 , -0.03999199 , -9.810897   , 0.00189316017, -0.00158388412, 0.000135670489, 0.108399622 , 0.16212754  , 0.7096535   , 0.00283907  , 0.0139691718, -0.9330232  , 1.77        , 3           , 11          , 0.0121838357, 0.0121838348
0.13594839  , -0.0274088178, -9.782572   , -0.000665975153, -0.00148623262, 0.00012129332, 0.1082648   , 0.162262365 , 0.709855735 , 0.00283242669, 0.0139543042, -0.9330218  , 1.78        , 3           , 12          , 0.0411482863, 0
0.135052785 , -0.0238324385, -9.778926   , -0.00423384365, -0.003018619, -0.0007815707, 0.108399622 , 0.162194952 , 0.709923148 , 0.00278997771, 0.01392414  , -0.9330299  , 1.79        , 3           , 50          , 0           , 0
0.1392386   , -0.00452232733, -9.774599   , -0.00209849025, -0.00161595223, -0.000175661466, 0.108534448 , 0.1619253   , 0.709923148 , 0.002753222 , 0.0139028765, -0.9330318  , 1.8         , 3           , 11          , 0.0126500567, 0.012650053
0.1420791   , 0.007240599 , -9.78031    , -0.00259323767, -0.00118358631, 0.000113764458, 0.108332209 , 0.161992714 , 0.7095187   , 0.00272730622, 0.0138910385, -0.933030844, 1.81        , 3           , 12          , 0.0418972075, 0
0.152561471 , -0.0311853085, -9.780205   , -8.210709E-05, 0.000231703787, -0.000708867738, 0.108332209 , 0.161992714 , 0.7095187   , 0.00272638653, 0.0138933752, -0.933037758, 1.82        , 3           , 50          , 0           , 0
0.1558095   , -0.0368519425, -9.801018   , 0.000273919053, 0.000722566561, 8.75287151E-05, 0.108399622 , 0.162194952 , 0.7097883   , 0.00272913836, 0.0139005976, -0.9330368  , 1.83        , 3           , 11          , 0.0126500567, 0.012650053
0.14868921  , -0.0402222574, -9.817384   , -0.000380854384, -0.000348802976, 0.0004257279, 0.108467035 , 0.162194952 , 0.709990561 , 0.002725389 , 0.0138970977, -0.933032751, 1.84        , 3           , 12          , 0.0418972075, 0
0.154689327 , -0.0407416672, -9.77397251 , 0.00293290545, 0.002708291 , -0.000582817651, 0.108399622 , 0.162060127 , 0.709923148 , 0.002754638 , 0.0139241973, -0.9330385  , 1.85        , 3           , 50          , 0           , 0
0.167312816 , -0.0332586281, -9.76699352 , 6.132723E-07, 0.00193957845, 0.0005327989, 0.108332209 , 0.162060127 , 0.7097209   , 0.00275471876, 0.0139435781, -0.933033   , 1.86        , 3           , 11          , 0.0126500567, 0.012650053
0.144903064 , -0.0342411324, -9.783472   , -0.0009585323, -0.00127184635, 0.00012257311, 0.108332209 , 0.162060127 , 0.7097209   , 0.00274515036, 0.0139308572, -0.9330318  , 1.87        , 3           , 12          , 0.0418972075, 0
0.16354017  , -0.0132092843, -9.783058   , -0.00103514036, -0.00191336754, -0.0001734097, 0.108332209 , 0.162060127 , 0.7096535   , 0.00273477426, 0.0139117278, -0.9330337  , 1.88        , 3           , 50          , 0           , 0
0.15386565  , -0.03527457 , -9.778434   , -0.00130782567, -0.000766081, 5.619404E-05, 0.108332209 , 0.162262365 , 0.709855735 , 0.002721703 , 0.0139040668, -0.9330332  , 1.89        , 3           , 11          , 0.0126500567, 0.012650053
0.139056638 , -0.0177098755, -9.764364   , -0.00158261345, -0.00122393144, 0.00183590059, 0.108332209 , 0.162194952 , 0.709990561 , 0.002748669 , 0.01397965  , -0.933014154, 1.9         , 3           , 12          , 0.0426742658, 0
0.145942867 , -0.0153399669, -9.780534   , -0.000329320261, 0.00171530119, 0.000312059274, 0.108534448 , 0.161992714 , 0.7097209   , 0.00274542021, 0.0139967958, -0.933011055, 1.91        , 3           , 50          , 0           , 0
0.15385811  , -0.0361763872, -9.778444   , -0.005497427, -0.002952923, -0.0007176781, 0.108534448 , 0.161992714 , 0.7097209   , 0.002690344 , 0.0139672868, -0.933018446, 1.92        , 3           , 11          , 0.013244126 , 0.0132441232
0.170186251 , -0.0227806661, -9.779043   , -0.00653230166, -0.00553481933, 0.0006695831, 0.108534448 , 0.161992714 , 0.7096535   , 0.00262511126, 0.01391192  , -0.9330118  , 1.93        , 3           , 12          , 0.0426742658, 0
0.1582006   , -0.00371742435, -9.78074    , 0.001284001 , -2.39882866E-05, 0.0006545752, 0.108197384 , 0.162194952 , 0.709855735 , 0.002638043 , 0.0139116645, -0.933005333, 1.94        , 3           , 50          , 0           , 0
0.146549076 , -0.000415610179, -9.784874   , 0.00270269625, -0.000466385478, 0.0004422588, 0.108467035 , 0.16212754  , 0.709990561 , 0.00266513112, 0.0139069874, -0.9330008  , 1.95        , 3           , 11          , 0.013244126 , 0.0132441232
0.119494595 , 0.000648837537, -9.778335   , -0.00234178337, 8.44992E-05 , 0.0006337727, 0.108601861 , 0.162262365 , 0.710058    , 0.00264180172, 0.0139078163, -0.9329946  , 1.96        , 3           , 12          , 0.0426742658, 0
0.1319013   , -0.02825599 , -9.784426   , -0.004350669, -0.001400454, 0.0006714089, 0.108534448 , 0.1619253   , 0.709855735 , 0.002598388 , 0.0138937952, -0.9329879  , 1.97        , 3           , 50          , 0           , 0
0.125283808 , -0.009293025, -9.781106   , 0.0014640548, -0.00275121722, 0.0009023757, 0.108534448 , 0.1619253   , 0.709855735 , 0.00261315214, 0.0138662588, -0.932978868, 1.98        , 3           , 11          , 0.013244126 , 0.0132441232
0.153043911 , -0.03069476 , -9.784261   , 0.003716055 , 4.10113462E-05, -0.00133296568, 0.108534448 , 0.162194952 , 0.7096535   , 0.00265012821, 0.0138667049, -0.9329922  , 1.99        , 3           , 12          , 0.0426742658, 0
0.15962106  , -0.008073727, -9.796134   , 0.001465125 , 0.0009232563, -0.00040511 , 0.108467035 , 0.162194952 , 0.709923148 , 0.00269991346, 0.01400412  , -0.932995558, 2           , 3           , 50          , 0           , 0
0.129794732 , -0.01466083 , -9.788805   , 3.494032E-05, 0.00106819638, 0.00101922976, 0.108129971 , 0.162329778 , 0.709855735 , 0.00270040659, 0.014014774 , -0.932985544, 2.01        , 3           , 11          , 0.0138045065, 0.0138045037
0.151118234 , -0.0388824865, -9.776242   , -0.00169424538, -0.00120198 , 0.000403233222, 0.1082648   , 0.162060127 , 0.709923148 , 0.00268351869, 0.0140027432, -0.9329815  , 2.02        , 3           , 12          , 0.043477647 , 0
0.148977712 , -0.0409190245, -9.794805   , -0.0013462588, -0.0017800302, 0.0005401099, 0.1082648   , 0.162060127 , 0.709923148 , 0.00267013162, 0.0139849279, -0.932976   , 2.03        , 3           , 50          , 0           , 0
0.142071679 , -0.039313063, -9.77091    , -0.003835663, -0.00147328584, 0.00110161921, 0.108467035 , 0.161992714 , 0.7095861   , 0.00263192854, 0.0139701664, -0.9329653  , 2.04        , 3           , 11          , 0.0138045065, 0.0138045037
0.131751329 , -0.0364981145, -9.772779   , 0.000129033564, -0.002947916, 0.001247821 , 0.1082648   , 0.162060127 , 0.7097883   , 0.00263339165, 0.0139406547, -0.932952642, 2.05        , 3           , 12          , 0.043477647 , 0
0.136359856 , -0.03503942 , -9.786271   , 0.00307486346, -0.000468047452, 0.00108727883, 0.108534448 , 0.162060127 , 0.709855735 , 0.002664293 , 0.0139359478, -0.9329419  , 2.06        , 3           , 50          , 0           , 0
0.127987951 , -0.0373558551, -9.815734   , 0.00353707583, 0.00183240883, -0.000236041873, 0.108467035 , 0.162060127 , 0.709855735 , 0.002699631 , 0.0139542762, -0.932944059, 2.07        , 3           , 11          , 0.0138045065, 0.0138045037
0.15457122  , -0.02375906 , -9.801331   , 0.0009843424, 0.001868014 , -0.00132457737, 0.108332209 , 0.161992714 , 0.709923148 , 0.00270929  , 0.01397299  , -0.9329574  , 2.08        , 3           , 12          , 0.043477647 , 0
0.167503744 , -0.0227280948, -9.781776   , -0.002237473, 0.000248852681, -0.000938604935, 0.108332209 , 0.161992714 , 0.709923148 , 0.00268678484, 0.0139755048, -0.9329667  , 2.09        , 3           , 50          , 0           , 0
0.131447077 , -0.0242519788, -9.778964   , 0.000144317208, -0.0008116447, 0.0003464327, 0.108669274 , 0.162194952 , 0.709855735 , 0.0026645523, 0.0141728958, -0.9329636  , 2.1         , 3           , 11          , 0.0141659845, 0.0141659835
0.141713843 , -0.0113209151, -9.815308   , -0.00264953682, -0.00186902075, 0.00153027324, 0.108399622 , 0.16212754  , 0.709923148 , 0.00263827248, 0.0141541651, -0.932948351, 2.11        , 3           , 12          , 0.04430562  , 0
0.153631985 , -0.0198043734, -9.790905   , 0.00186559663, 0.000813088671, 0.00102458  , 0.108399622 , 0.16212754  , 0.709855735 , 0.00265707262, 0.0141622685, -0.9329381  , 2.12        , 3           , 50          , 0           , 0
0.1485382   , -0.0284349062, -9.781114   , 0.0009783136, -0.00204531359, 0.0011207863, 0.1088041   , 0.162060127 , 0.710058    , 0.00266701356, 0.014141785 , -0.9329269  , 2.13        , 3           , 11          , 0.0141659845, 0.0141659835
0.160605937 , -0.0335732922, -9.774287   , -0.000326083275, 0.00099349  , -0.0006320551, 0.1088041   , 0.162060127 , 0.710058    , 0.00266366312, 0.014151738 , -0.9329331  , 2.14        , 3           , 12          , 0.04430562  , 0
0.154862046 , -0.0384998322, -9.731033   , 0.000781350536, -0.00103372056, 0.0004186987, 0.108399622 , 0.1619253   , 0.7097883   , 0.002671535 , 0.0141413892, -0.932929039, 2.15        , 3           , 50          , 0           , 0
0.113841    , -0.0281766  , -9.777365   , 0.00249301246, -0.0009032897, -6.97211944E-05, 0.108534448 , 0.162194952 , 0.709855735 , 0.00269645569, 0.01413236  , -0.932929754, 2.16        , 3           , 11          , 0.0141659845, 0.0141659835
0.144546986 , -0.0345381163, -9.797482   , 0.0010462458, 0.00319499429, 5.2297346E-05, 0.108467035 , 0.162060127 , 0.709923148 , 0.00270692515, 0.0141643053, -0.9329293  , 2.17        , 3           , 12          , 0.04430562  , 0
0.173080474 , -0.0109354723, -9.792429   , 0.0010450714, 0.00354617951, 0.0008444653, 0.108534448 , 0.162060127 , 0.7096535   , 0.00271749636, 0.0141997412, -0.9329207  , 2.18        , 3           , 50          , 0           , 0
0.141286463 , -0.0195427835, -9.763461   , -0.00174430851, 0.002424197 , 0.00124031166, 0.108534448 , 0.162060127 , 0.7096535   , 0.00270023034, 0.0142239509, -0.9329083  , 2.19        , 3           , 11          , 0.0141659845, 0.0141659835
0.1192129   , -0.0393995047, -9.786479   , 0.00128956616, 0.0006193391, -0.000198366077, 0.108601861 , 0.161857888 , 0.7097883   , 0.00269045657, 0.0142381182, -0.932910442, 2.2         , 3           , 12          , 0.0451565124, 0
0.15976359  , -0.0210126787, -9.767374   , 0.005598877 , -0.00143782038, 0.000585499569, 0.108534448 , 0.162262365 , 0.7097209   , 0.00274652732, 0.0142237237, -0.9329047  , 2.21        , 3           , 50          , 0           , 0
0.137962192 , -0.012409118, -9.795029   , 0.00364451227, 0.00152368273, 0.000187038444, 0.108399622 , 0.16212754  , 0.709855735 , 0.00278300047, 0.0142389564, -0.9329026  , 2.22        , 3           , 11          , 0.0145525057, 0.0145525057
0.139418781 , -0.00647201762, -9.803077   , -0.00225650962, 0.001020722 , -0.00100151752, 0.108399622 , 0.16212754  , 0.7097883   , 0.00276029273, 0.0142491888, -0.9329126  , 2.23        , 3           , 12          , 0.0451565124, 0
0.144241065 , -0.0142821446, -9.793637   , -0.00478984835, -0.00211724266, 0.000153778412, 0.108669274 , 0.1619253   , 0.7097209   , 0.00271241553, 0.0142280115, -0.932911158, 2.24        , 3           , 50          , 0           , 0
0.156008214 , -0.0363508277, -9.763971   , -0.0016619059, -0.00193857308, 0.00067654287, 0.108669274 , 0.1619253   , 0.7097209   , 0.002695892 , 0.0142086046, -0.9329045  , 2.25        , 3           , 11          , 0.0145525057, 0.0145525057
0.140375122 , -0.0297896434, -9.774428   , -0.000950402347, -0.00116922217, 0.00198004139, 0.108669274 , 0.162060127 , 0.709855735 , 0.00268666935, 0.0141968606, -0.932884455, 2.26        , 3           , 12          , 0.0451565124, 0
0.145359784 , -0.0248873122, -9.772972   , -0.00128242525, -0.000358321151, -0.000156853057, 0.108534448 , 0.162194952 , 0.710058    , 0.00267382246, 0.0141932806, -0.9328861  , 2.27        , 3           , 50          , 0           , 0
0.130871281 , -0.0284465328, -9.765919   , 0.000564374961, -0.0008031331, -0.0005812223, 0.1082648   , 0.16212754  , 0.709923148 , 0.002679382 , 0.0141852638, -0.9328921  , 2.28        , 3           , 11          , 0.0145525057, 0.0145525057
0.1445743   , -0.0122396089, -9.774188   , 0.00144437177, 0.001340101 , -0.000830944569, 0.108467035 , 0.1619253   , 0.7097883   , 0.00269370875, 0.01419869  , -0.9329002  , 2.29        , 3           , 12          , 0.0451565124, 0
0.16133973  , -0.017563263, -9.795775   , -0.0025798243, 0.00132247212, -0.00057040836, 0.108467035 , 0.1619253   , 0.7097883   , 0.00259565841, 0.0142415529, -0.9329071  , 2.3         , 3           , 50          , 0           , 0
0.161548942 , -0.03707709 , -9.784708   , -0.00245135231, -3.76642347E-05, -0.00087554 , 0.108467035 , 0.16212754  , 0.7097209   , 0.00257101934, 0.0142411971, -0.9329159  , 2.31        , 3           , 11          , 0.015171363 , 0.015171363
0.153386861 , -0.0330887139, -9.771637   , 0.00147447526, 0.00149430963, -0.000328239315, 0.108467035 , 0.16212754  , 0.7097883   , 0.00258571771, 0.0142561495, -0.932919264, 2.32        , 3           , 12          , 0.04602878  , 0
0.1324754   , -0.0160515867, -9.787441   , -0.000188911334, 0.000204041964, 0.00157473481, 0.108332209 , 0.162060127 , 0.7097209   , 0.002584053 , 0.0142581491, -0.9329035  , 2.33        , 3           , 50          , 0           , 0
0.123868667 , -0.0102701746, -9.773      , 0.0037755745, -0.000918123347, 0.0023700227, 0.108467035 , 0.161992714 , 0.7097883   , 0.002622146 , 0.0142489057, -0.9328797  , 2.34        , 3           , 11          , 0.015171363 , 0.015171363
0.135000244 , -0.0345961079, -9.784471   , -0.0005617746, -0.00228455663, -0.000180909454, 0.108332209 , 0.161857888 , 0.7097209   , 0.00261650281, 0.0142260669, -0.9328816  , 2.35        , 3           , 12          , 0.04602878  , 0
0.129937485 , -0.03205078 , -9.765517   , -0.000409654429, -0.001426264, -0.000167532111, 0.108332209 , 0.161857888 , 0.7097209   , 0.00261238171, 0.0142118074, -0.932883263, 2.36        , 3           , 50          , 0           , 0
0.126168951 , -0.0182270352, -9.78978348 , -0.003083845, 0.000331540534, -0.00137496507, 0.108399622 , 0.162060127 , 0.7095861   , 0.00258134818, 0.0142151611, -0.9328971  , 2.37        , 3           , 11          , 0.015171363 , 0.015171363
0.142497718 , -0.047811605, -9.77778    , -0.00229848 , 0.0011743732, -0.000356158649, 0.1082648   , 0.162262365 , 0.709990561 , 0.00255831261, 0.0142269125, -0.932900667, 2.38        , 3           , 12          , 0.04602878  , 0
0.150805071 , -0.0377783626, -9.794751   , 0.001091634 , -0.00107809145, -0.0007256479, 0.108601861 , 0.161992714 , 0.709923148 , 0.002569126 , 0.0142161492, -0.9329078  , 2.39        , 3           , 50          , 0           , 0
0.148923278 , -0.03922186 , -9.784847   , 0.00309545  , 0.00130808  , -0.000537236, 0.108399622 , 0.162060127 , 0.7097209   , 0.002986226 , 0.0145828417, -0.9329078  , 2.4         , 3           , 11          , 0.0156332962, 0.0156332944
0.135160238 , -0.0120943822, -9.780145   , -0.00261268 , 0.0006347075, 0.0010635053, 0.108399622 , 0.162060127 , 0.7097209   , 0.00296025374, 0.0145891551, -0.9328971  , 2.41        , 3           , 12          , 0.046920944 , 0
0.162405133 , -0.0233536381, -9.761505   , -0.00289739086, 0.0002844922, 0.000484247 , 0.108399622 , 0.162060127 , 0.7097883   , 0.002931351 , 0.0145919845, -0.9328921  , 2.42        , 3           , 50          , 0           , 0
0.147675782 , -0.0190209523, -9.775142   , -0.00108820258, -0.00289114029, 0.0009502623, 0.108467035 , 0.161992714 , 0.709855735 , 0.002920606 , 0.0145630483, -0.9328828  , 2.43        , 3           , 11          , 0.0156332962, 0.0156332944
0.1390781   , -0.0296956263, -9.782119   , -0.00150730507, -0.00181853271, 0.00167875283, 0.108467035 , 0.161992714 , 0.7097883   , 0.00290577626, 0.014544812 , -0.9328661  , 2.44        , 3           , 12          , 0.046920944 , 0
0.152737111 , -0.0180074275, -9.789537   , -0.0004925015, -0.00130921637, -0.000311094656, 0.108534448 , 0.162262365 , 0.7097209   , 0.00290080486, 0.0145317288, -0.9328692  , 2.45        , 3           , 50          , 0           , 0
0.148264587 , -0.009909991, -9.784063   , 0.000602475 , 0.0009751405, -0.000557445164, 0.108399622 , 0.161992714 , 0.7095861   , 0.00290674972, 0.0145414965, -0.9328747  , 2.46        , 3           , 11          , 0.0156332962, 0.0156332944
0.1518687   , -0.0152796339, -9.790868   , 0.00293617067, 0.0006519243, 0.000883336936, 0.108399622 , 0.161992714 , 0.7095861   , 0.00293623982, 0.0145479906, -0.932865858, 2.47        , 3           , 12          , 0.046920944 , 0
0.153600171 , -0.0154017694, -9.780916   , 0.0044614   , -0.00252017821, 0.00127609773, 0.108467035 , 0.162262365 , 0.7097883   , 0.00298103713, 0.01452275  , -0.932853   , 2.48        , 3           , 50          , 0           , 0
0.142484426 , -0.0598505549, -9.79056549 , 0.004561601 , -0.0008596333, -0.000201837116, 0.1082648   , 0.162060127 , 0.7097883   , 0.00302662258, 0.0145141622, -0.932855368, 2.49        , 3           , 11          , 0.0156332962, 0.0156332944
0.139805675 , -0.0339745246, -9.762286   , 0.00296863238, -0.00127224752, 0.00014159792, 0.108534448 , 0.161992714 , 0.709923148 , 0.00343880779, 0.01450612  , -0.9328482  , 2.5         , 3           , 12          , 0.0478316136, 0
0.130724162 , -0.0119535588, -9.789669   , -0.000572499353, 5.28391865E-05, 0.000210502374, 0.108534448 , 0.162060127 , 0.7097209   , 0.00343311415, 0.0145066418, -0.9328463  , 2.51        , 3           , 50          , 0           , 0
0.142493516 , -0.0213067569, -9.809996   , 0.000547176867, -0.00132316956, 0.0005552367, 0.108534448 , 0.162060127 , 0.7097209   , 0.00343866576, 0.0144933918, -0.9328406  , 2.52        , 3           , 11          , 0.013799428 , 0.0137994541
0.143748641 , -0.01745876 , -9.79142    , -0.00107838633, -0.000235081869, 0.000918740348, 0.108534448 , 0.162060127 , 0.7096535   , 0.003428015 , 0.0144910086, -0.9328315  , 2.53        , 3           , 12          , 0.0478316136, 0
0.15459311  , -0.0192742124, -9.79902    , 0.00175748032, -0.000345860957, 0.00207948685, 0.108332209 , 0.162329778 , 0.709923148 , 0.00344589166, 0.0144874807, -0.9328108  , 2.54        , 3           , 50          , 0           , 0
0.15684095  , -0.0148476567, -9.79307652 , 0.00104438746, -0.0005529314, 0.00200053235, 0.108467035 , 0.161992714 , 0.7097883   , 0.003456624 , 0.01448188  , -0.932791   , 2.55        , 3           , 11          , 0.013799428 , 0.0137994541
0.150698259 , -0.0374968126, -9.77894    , -0.00134024641, -0.00502415653, -0.000154025387, 0.108669274 , 0.161992714 , 0.709855735 , 0.00344319735, 0.0144316442, -0.9327924  , 2.56        , 3           , 12          , 0.0478316136, 0
0.125276148 , -0.007969337, -9.778381   , -0.00063225365, -0.00418892037, 0.001794386 , 0.108669274 , 0.161992714 , 0.709855735 , 0.00343713118, 0.0143896928, -0.9327748  , 2.57        , 3           , 50          , 0           , 0
0.1280933   , -0.008705961, -9.79598    , 4.28072381E-05, -0.00189127121, 0.000543891161, 0.108332209 , 0.161992714 , 0.7096535   , 0.00343763712, 0.0143707627, -0.9327693  , 2.58        , 3           , 11          , 0.013799428 , 0.0137994541
0.156337112 , -0.0171514936, -9.788138   , 0.00100402429, 0.0007585132, -0.000341968174, 0.108332209 , 0.16212754  , 0.7097209   , 0.003447628 , 0.0143783577, -0.9327729  , 2.59        , 3           , 12          , 0.0478316136, 0
0.164294183 , -0.0281308871, -9.780062   , -0.000111756395, -0.00210950873, 0.00103877671, 0.108534448 , 0.162060127 , 0.709923148 , 0.003288182 , 0.0145060811, -0.932764769, 2.6         , 3           , 50          , 0           , 0
0.1518808   , -0.02950538 , -9.810004   , 0.000139872587, 0.000761154457, 0.0002948461, 0.108601861 , 0.161992714 , 0.7097209   , 0.00328962412, 0.0145136835, -0.932761669, 2.61        , 3           , 11          , 0.0135959582, 0.0135959918
0.1368879   , -0.0242409669, -9.784335   , 0.00294574676, 0.00380986766, 0.0007856632, 0.108467035 , 0.162194952 , 0.7097883   , 0.00331919757, 0.014551755 , -0.9327538  , 2.62        , 3           , 12          , 0.0487594754, 0
0.159053758 , -0.01759689 , -9.790829   , 0.00122976094, 0.00268600765, 0.000186360674, 0.108467035 , 0.162194952 , 0.7097883   , 0.003331524 , 0.01457861  , -0.932751656, 2.63        , 3           , 50          , 0           , 0
0.142833352 , -0.0121319909, -9.782784   , 0.004452678 , 0.004236084 , -0.000486819132, 0.108534448 , 0.16212754  , 0.7097883   , 0.003375982 , 0.0146209877, -0.9327564  , 2.64        , 3           , 11          , 0.0135959582, 0.0135959918
0.149576753 , -0.0219994243, -9.793225   , 0.00278201047, 0.00173681276, 0.000396843418, 0.1082648   , 0.162194952 , 0.7097209   , 0.00340386061, 0.014638341 , -0.9327524  , 2.65        , 3           , 12          , 0.0487594754, 0
0.15275754  , -0.009963706, -9.782669   , 0.00346884225, -0.000419115357, 0.000298284373, 0.108534448 , 0.16212754  , 0.709855735 , 0.00343859219, 0.0146341389, -0.9327495  , 2.66        , 3           , 50          , 0           , 0
0.153492108 , -0.0275858939, -9.780154   , 0.0006060158, -0.0018256742, 0.000546446769, 0.108534448 , 0.1619253   , 0.7096535   , 0.00344473054, 0.0146158626, -0.932744   , 2.67        , 3           , 11          , 0.0135959582, 0.0135959918
0.1562767   , -0.0221404918, -9.785486   , -0.0005151722, -0.000663320068, 5.55003135E-05, 0.108534448 , 0.1619253   , 0.7096535   , 0.00343958568, 0.014609227 , -0.932743549, 2.68        , 3           , 12          , 0.0487594754, 0
0.157376155 , -0.008044444, -9.797058   , -0.00304975617, 0.0009484702, -0.0010100808, 0.108332209 , 0.16212754  , 0.7097209   , 0.00340894121, 0.014618746 , -0.932753563, 2.69        , 3           , 50          , 0           , 0
0.1205245   , -0.0403614752, -9.78196049 , -0.00375226815, -0.00131315435, -0.002204187, 0.108332209 , 0.162262365 , 0.709855735 , 0.00191713951, 0.0154166622, -0.9327984  , 2.7         , 3           , 11          , 0.013600654 , 0.0136006866
0.130619958 , -0.02591228 , -9.791637   , -0.00240070256, -0.0008324053, -0.00140179379, 0.108534448 , 0.161992714 , 0.709855735 , 0.00189291721, 0.0154083651, -0.932812452, 2.71        , 3           , 12          , 0.0497033074, 0
0.1322869   , -0.024797827, -9.770832   , -0.00306079676, 0.004180996 , -0.0003314663, 0.108467035 , 0.162060127 , 0.709855735 , 0.00186225888, 0.0154501833, -0.9328158  , 2.72        , 3           , 50          , 0           , 0
0.138146132 , -0.0319616646, -9.780346   , -0.00493090134, 0.002478384 , -0.000153021523, 0.108399622 , 0.1619253   , 0.7095187   , 0.00181292661, 0.0154749686, -0.9328172  , 2.73        , 3           , 11          , 0.013600654 , 0.0136006866
0.15543206  , -0.002016088, -9.769001   , -0.000931832532, 0.004153565 , 0.000325253233, 0.108399622 , 0.1619253   , 0.7095187   , 0.0018036603, 0.0155164981, -0.9328139  , 2.74        , 3           , 12          , 0.0497033074, 0
0.140999511 , -0.0246303771, -9.793335   , -0.00118304021, 0.000577971863, -0.000228988036, 0.108399622 , 0.162262365 , 0.7097883   , 0.0017917949, 0.0155222807, -0.932816267, 2.75        , 3           , 50          , 0           , 0
0.157598227 , -0.0319899134, -9.793267   , -0.0035361154, -0.005639686, 0.000525022566, 0.1082648   , 0.162060127 , 0.709855735 , 0.00175651314, 0.0154658761, -0.932811   , 2.76        , 3           , 11          , 0.013600654 , 0.0136006866
0.148885354 , -0.03927993 , -9.77942848 , -0.00302403723, -0.005061346, -0.000608288159, 0.108332209 , 0.16212754  , 0.7097883   , 0.00172617729, 0.0154152727, -0.9328172  , 2.77        , 3           , 12          , 0.0497033074, 0
0.145561188 , -0.008999173, -9.782723   , -0.001775092, -0.00114020286, 0.000243331015, 0.108669274 , 0.162060127 , 0.7097883   , 0.00170846388, 0.0154038668, -0.932814837, 2.78        , 3           , 50          , 0           , 0
0.153526962 , -0.02975817 , -9.787858   , -0.00169388333, 0.0003540168, 0.00133878551, 0.108669274 , 0.162060127 , 0.7097883   , 0.00169173069, 0.0154073825, -0.932801247, 2.79        , 3           , 11          , 0.013600654 , 0.0136006866
0.1258505   , -0.0436422676, -9.774722   , 0.00252803648, 3.25469155E-05, 0.00114566414, 0.108534448 , 0.162194952 , 0.7097209   , 0.00177896977, 0.0154203651, -0.932788849, 2.8         , 3           , 12          , 0.0506619662, 0
0.133732587 , -0.0153163783, -9.772967   , 0.00351732527, -0.000973555143, 0.000350102637, 0.108467035 , 0.16212754  , 0.709855735 , 0.00181419577, 0.0154106235, -0.9327853  , 2.81        , 3           , 50          , 0           , 0
0.152921468 , -0.0210893732, -9.75479    , 0.00276502012, 0.00175497355, 0.000599662366, 0.108669274 , 0.161992714 , 0.709923148 , 0.00184193871, 0.0154281594, -0.9327793  , 2.82        , 3           , 11          , 0.009446191 , 0.009446111
0.140774712 , -0.0276454855, -9.764462   , 0.00152821653, 0.005352776 , 0.000357957237, 0.108467035 , 0.16212754  , 0.7096535   , 0.00185727736, 0.0154816806, -0.9327755  , 2.83        , 3           , 12          , 0.0506619662, 0
0.14858076  , -0.0203573164, -9.777407   , -0.000126149665, 0.00365119614, 0.000179982031, 0.108467035 , 0.16212754  , 0.7096535   , 0.0018560451, 0.0155181894, -0.9327736  , 2.84        , 3           , 50          , 0           , 0
0.1585407   , -0.0127926879, -9.775872   , 0.0005062163, 0.00236468622, -0.0009080586, 0.108534448 , 0.16212754  , 0.7097209   , 0.00186096656, 0.0155418534, -0.93278265 , 2.85        , 3           , 11          , 0.009446191 , 0.009446111
0.138795391 , -0.006288158, -9.777786   , 0.005534124 , 0.000663006038, -0.000615479832, 0.108332209 , 0.16212754  , 0.7097209   , 0.00191621331, 0.0155484956, -0.932788849, 2.86        , 3           , 12          , 0.0506619662, 0
0.150323838 , -0.03737677 , -9.789782   , 0.00156515837, 0.00234361249, 0.000243022485, 0.108399622 , 0.16212754  , 0.709923148 , 0.00193190167, 0.0155719267, -0.9327862  , 2.87        , 3           , 50          , 0           , 0
0.163072988 , -0.0279207379, -9.798591   , 0.00160614762, 0.000468607526, 0.00150406093, 0.108601861 , 0.161992714 , 0.709855735 , 0.00194819737, 0.0155765833, -0.9327712  , 2.88        , 3           , 11          , 0.009446191 , 0.009446111
0.135204047 , -0.0284972377, -9.806532   , 0.00115583371, -0.00125165191, 0.00204877765, 0.108601861 , 0.1619253   , 0.7096535   , 0.00196007523, 0.0155640254, -0.9327507  , 2.89        , 3           , 12          , 0.0506619662, 0
0.154708669 , 0.00761077926, -9.782899   , -0.00215014163, -0.000893466058, 0.000818134053, 0.108601861 , 0.1619253   , 0.7096535   , 0.00199204567, 0.0154548092, -0.9327419  , 2.9         , 3           , 50          , 0           , 0
0.143463582 , 0.00193894468, -9.79165    , -0.00141633407, -0.0006588808, -0.00217917422, 0.108534448 , 0.162060127 , 0.7097209   , 0.00197754544, 0.0154482638, -0.9327636  , 2.91        , 3           , 11          , 0.009665261 , 0.009665179
0.145115539 , -0.0125492681, -9.787737   , 0.000438903138, 0.0012356299, 0.000220987073, 0.108534448 , 0.162194952 , 0.709923148 , 0.001981969 , 0.015460615 , -0.932761431, 2.92        , 3           , 12          , 0.0516343676, 0
0.145415574 , -0.0163442958, -9.770614   , 2.81405974E-05, 0.00126108027, -0.00214243634, 0.108467035 , 0.16212754  , 0.709990561 , 0.0019819187, 0.0154732717, -0.9327829  , 2.93        , 3           , 50          , 0           , 0
0.1518566   , -0.00105388463, -9.771732   , 0.000209195525, 0.005332511 , -0.000865909562, 0.108534448 , 0.161992714 , 0.709923148 , 0.00198387774, 0.0155266151, -0.9327915  , 2.94        , 3           , 11          , 0.009665261 , 0.009665179
0.144742608 , -0.00441452675, -9.789001   , -0.0011581172, 0.00377261057, -0.0011831664, 0.108534448 , 0.161992714 , 0.709923148 , 0.00197211374, 0.0155643644, -0.932803154, 2.95        , 3           , 12          , 0.0516343676, 0
0.1413757   , -0.0349857658, -9.795258   , 0.000424733851, 0.000581868459, 0.00121317059, 0.108601861 , 0.1619253   , 0.7097209   , 0.00197655  , 0.0155701572, -0.932791   , 2.96        , 3           , 50          , 0           , 0
0.1480578   , -0.0320382379, -9.78116    , 6.00369967E-05, 7.9487836E-05, 0.0017045124, 0.108467035 , 0.16212754  , 0.709855735 , 0.001977416 , 0.01557092  , -0.932774067, 2.97        , 3           , 11          , 0.009665261 , 0.009665179
0.151212782 , -0.03428633 , -9.784319   , 0.002053736 , -0.000290005177, 0.0007097151, 0.108467035 , 0.162060127 , 0.709923148 , 0.001998064 , 0.015568004 , -0.9327667  , 2.98        , 3           , 12          , 0.0516343676, 0
0.1398648   , -0.04145121 , -9.779988   , -0.00251971651, -0.00210781512, 0.000798254856, 0.108601861 , 0.161992714 , 0.7097883   , 0.00197299034, 0.0155469095, -0.932759047, 2.99        , 3           , 50          , 0           , 0
0.145752    , -0.0396695063, -9.782624   , -0.0044700033, -0.000744683, 0.00116425636, 0.108467035 , 0.161857888 , 0.7096535   , 0.00199149875, 0.0155047514, -0.9327462  , 3           , 3           , 11          , 0.009825038 , 0.009824968
0.160080671 , -0.00583763234, -9.794748   , -0.000877643644, 0.00159627234, -0.000210714512, 0.108467035 , 0.161857888 , 0.7096535   , 0.00198268984, 0.015520717 , -0.9327483  , 3.01        , 3           , 12          , 0.0526195019, 0
0.135244489 , -0.00350781158, -9.781851   , -0.0007636059, -0.00126456551, -0.0009670032, 0.108534448 , 0.162060127 , 0.7097883   , 0.00197490375, 0.015508092 , -0.9327581  , 3.02        , 3           , 50          , 0           , 0
0.127873763 , -0.0286280625, -9.788533   , -0.000239170709, 0.001869951 , 0.0005127242, 0.1082648   , 0.162060127 , 0.709923148 , 0.00197259174, 0.0155267809, -0.932752848, 3.03        , 3           , 11          , 0.009825038 , 0.009824968
0.151779637 , -0.0158611871, -9.77868    , 0.00199507736, 0.00435640337, 0.000419439457, 0.1082648   , 0.162262365 , 0.709923148 , 0.00199260819, 0.015570337 , -0.932748556, 3.04        , 3           , 12          , 0.0526195019, 0
0.149591    , -0.0161908716, -9.78819    , 0.00347002037, 0.00361134741, 0.00192036177, 0.108601861 , 0.162194952 , 0.709855735 , 0.00202760915, 0.0156064127, -0.932729244, 3.05        , 3           , 50          , 0           , 0
0.144056886 , -0.03370496 , -9.790701   , 0.0005442736, 0.00221638917, 0.0009518989, 0.108601861 , 0.162194952 , 0.709855735 , 0.00203320268, 0.0156285577, -0.9327197  , 3.06        , 3           , 11          , 0.009825038 , 0.009824968
0.139807448 , -0.0442098677, -9.775052   , -0.0005540575, -0.00155395141, -0.0008983505, 0.108399622 , 0.162060127 , 0.7097209   , 0.002027521 , 0.0156130353, -0.9327285  , 3.07        , 3           , 12          , 0.0526195019, 0
0.145771384 , -0.0231698751, -9.765268   , 0.00241378043, -0.00210308284, 0.00104394346, 0.108332209 , 0.16212754  , 0.7097883   , 0.00205182051, 0.0155919828, -0.9327183  , 3.08        , 3           , 50          , 0           , 0
0.131892815 , -0.0229273736, -9.776687   , 0.00147395243, -0.00359567255, 0.0007302998, 0.108534448 , 0.162194952 , 0.709923148 , 0.002066673 , 0.0155560132, -0.9327111  , 3.09        , 3           , 11          , 0.009825038 , 0.009824968
0.133071974 , -0.0104897954, -9.80182648 , -0.0029795873, -0.00198873272, -6.059564E-05, 0.108534448 , 0.162060127 , 0.709855735 , 0.00204376737, 0.0154849216, -0.9327116  , 3.1         , 3           , 12          , 0.0536164381, 0
0.156510577 , 0.00136467069, -9.790633   , -0.000389385445, 0.00127068278, 0.00114747661, 0.108534448 , 0.162060127 , 0.709855735 , 0.00204005139, 0.01549761  , -0.932700157, 3.11        , 3           , 50          , 0           , 0
0.158464953 , -0.026707856, -9.781906   , 0.00112083415, 0.00297114835, 0.001610759 , 0.108399622 , 0.162194952 , 0.7097883   , 0.00205151062, 0.0155272866, -0.932683945, 3.12        , 3           , 11          , 0.0101261921, 0.0101261213
0.142429948 , -0.026300583, -9.806891   , 0.00458769361, 0.00128983974, 0.00139312726, 0.108534448 , 0.162194952 , 0.7097883   , 0.00209760363, 0.0155401565, -0.9326701  , 3.13        , 3           , 12          , 0.0536164381, 0
0.173729181 , -0.0175608378, -9.764044   , -0.00193392776, 0.0022301157, -0.0002076622, 0.108399622 , 0.16212754  , 0.709923148 , 0.00207823352, 0.0155624617, -0.932672   , 3.14        , 3           , 50          , 0           , 0
0.134501785 , -0.0306598432, -9.772686   , -0.0009014516, -0.000295326638, 0.0005491957, 0.108467035 , 0.162194952 , 0.709855735 , 0.00206930446, 0.0155594973, -0.93266654 , 3.15        , 3           , 11          , 0.0101261921, 0.0101261213
0.138537973 , -0.008214565, -9.808074   , -0.0009956728, -0.00131298858, 0.00225114427, 0.108467035 , 0.161857888 , 0.7097883   , 0.00205969741, 0.0155463209, -0.9326441  , 3.16        , 3           , 12          , 0.0536164381, 0
0.155101478 , -0.00672535645, -9.792095   , -0.000316281919, 0.00148425484, 0.00122257613, 0.108467035 , 0.161857888 , 0.7097883   , 0.00205672532, 0.0155611373, -0.932631731, 3.17        , 3           , 50          , 0           , 0
0.129612565 , -0.02339739 , -9.773099   , -0.00209951843, -0.000127598512, -0.000815278443, 0.108669274 , 0.16212754  , 0.709923148 , 0.00203560223, 0.0155598782, -0.9326401  , 3.18        , 3           , 11          , 0.0101261921, 0.0101261213
0.141470581 , -0.0116935167, -9.780534   , 0.00101948774, -0.0008073868, -0.0004481166, 0.108399622 , 0.162194952 , 0.7101254   , 0.00204572757, 0.0155518129, -0.9326446  , 3.19        , 3           , 12          , 0.0536164381, 0
0.139627486 , -0.02865741 , -9.7952     , -0.00155821035, -0.0009455094, 0.000249619421, 0.108197384 , 0.162194952 , 0.709923148 , 0.00200296426, 0.015507509 , -0.9326427  , 3.2         , 3           , 50          , 0           , 0
0.134938389 , -0.03602626 , -9.777262   , -0.00389054953, 0.00114323117, 0.001696562 , 0.108399622 , 0.1619253   , 0.7097209   , 0.00196432136, 0.0155189084, -0.9326258  , 3.21        , 3           , 11          , 0.0104413563, 0.0104412893
0.164776012 , -0.0280864276, -9.784574   , 0.000709585845, 0.00461911038, 0.0004873641, 0.108399622 , 0.1619253   , 0.7097209   , 0.00197149348, 0.0155650927, -0.932620764, 3.22        , 3           , 12          , 0.0546242781, 0
0.164778069 , -0.0311992075, -9.788675   , -3.99397322E-05, 0.0008361988, -0.000359169644, 0.108399622 , 0.162060127 , 0.7096535   , 0.00197103852, 0.0155734606, -0.93262434 , 3.23        , 3           , 50          , 0           , 0
0.151372135 , -0.023804212, -9.794584   , 0.00104013667, -0.00397876 , -6.451778E-05, 0.1082648   , 0.162194952 , 0.710058    , 0.00198142813, 0.0155336736, -0.932625055, 3.24        , 3           , 11          , 0.0104413563, 0.0104412893
0.152357578 , -0.0170049183, -9.798562   , 0.000882767839, 0.00096561783, 0.000149272615, 0.1082648   , 0.16212754  , 0.710058    , 0.00199027848, 0.0155433267, -0.9326236  , 3.25        , 3           , 12          , 0.0546242781, 0
0.150504455 , -0.0228558481, -9.798194   , 0.00469594263, 0.00465477956, 1.16080328E-05, 0.108467035 , 0.162060127 , 0.710058    , 0.00203724043, 0.015589877 , -0.9326234  , 3.26        , 3           , 50          , 0           , 0
0.148937017 , -0.036084868, -9.783005   , 0.000275434577, 0.00376690621, 0.000114568436, 0.108467035 , 0.16212754  , 0.7096535   , 0.002040014 , 0.0156275425, -0.9326222  , 3.27        , 3           , 11          , 0.0104413563, 0.0104412893
0.144154042 , -0.0179764889, -9.785551   , -0.0008271718, 0.000696376548, 0.000134818722, 0.108467035 , 0.16212754  , 0.7096535   , 0.00203176355, 0.0156345032, -0.932620764, 3.28        , 3           , 12          , 0.0546242781, 0
0.16189526  , -0.000490829349, -9.790154   , 0.002461628 , 0.00195659138, -0.000255942374, 0.108399622 , 0.1619253   , 0.709990561 , 0.00205634022, 0.015654074 , -0.9326234  , 3.29        , 3           , 50          , 0           , 0
0.148878828 , -0.03483861 , -9.773054   , 0.004035543 , 0.00224653119, 0.0004724491, 0.108399622 , 0.161992714 , 0.709855735 , 0.00194762694, 0.01574202  , -0.932621241, 3.3         , 3           , 11          , 0.0107141891, 0.010714124
0.160907835 , -0.01797637 , -9.798946   , 0.002969038 , 0.00169316737, -0.000543897331, 0.108399622 , 0.1619253   , 0.709923148 , 0.001977232 , 0.0157589614, -0.9326267  , 3.31        , 3           , 12          , 0.0556422248, 0
0.144928843 , -0.03153085 , -9.783893   , 0.00083367253, 0.00178264489, -0.000126458326, 0.108669274 , 0.161992714 , 0.709990561 , 0.00198554946, 0.01577679  , -0.9326279  , 3.32        , 3           , 50          , 0           , 0
0.142219335 , -0.035080716, -9.78712    , -0.0011964147, 0.004879842 , 0.00040677216, 0.108669274 , 0.161992714 , 0.709990561 , 0.00197365042, 0.0158255864, -0.932623863, 3.33        , 3           , 11          , 0.0107141891, 0.010714124
0.1409227   , -0.0300896335, -9.788881   , -0.00110046635, 0.0011483886, 0.00085416  , 0.108399622 , 0.162194952 , 0.709923148 , 0.00196278142, 0.015837051 , -0.9326155  , 3.34        , 3           , 12          , 0.0556422248, 0
0.143140882 , -0.0265987627, -9.779786   , -0.00261494913, -0.000839935557, 0.0005297859, 0.108197384 , 0.162060127 , 0.709855735 , 0.00193671673, 0.0158286411, -0.932610035, 3.35        , 3           , 50          , 0           , 0
0.149934769 , -0.02258973 , -9.78058052 , -6.42535269E-06, -0.00315417862, -6.008156E-05, 0.108332209 , 0.16212754  , 0.709990561 , 0.0019366421, 0.0157971028, -0.93261075 , 3.36        , 3           , 11          , 0.0107141891, 0.010714124
0.14941591  , -0.0404962264, -9.792537   , -0.000197956353, -0.0017120773, -0.000827450131, 0.108601861 , 0.16212754  , 0.709990561 , 0.00193453091, 0.0157799982, -0.9326191  , 3.37        , 3           , 12          , 0.0556422248, 0
0.137062132 , -0.0393570364, -9.762825   , -0.00165373238, 0.00180984871, -0.000356073549, 0.108332209 , 0.162060127 , 0.7097209   , 0.00191793812, 0.0157981012, -0.932622433, 3.38        , 3           , 50          , 0           , 0
0.1475207   , -0.0263806023, -9.761676   , -0.00158139935, 0.003151181 , 0.00181040925, 0.108332209 , 0.162060127 , 0.7097209   , 0.00190241088, 0.015829578 , -0.9326043  , 3.39        , 3           , 11          , 0.0107141891, 0.010714124
0.16365245  , -0.00947623 , -9.794758   , 0.0007145647, 0.00370809576, 0.0005448222, 0.1082648   , 0.162060127 , 0.709855735 , 0.00192283816, 0.0158548   , -0.9325986  , 3.4         , 3           , 12          , 0.0566695   , 0
0.168463588 , -0.009291032, -9.773934   , -0.00686908932, -8.606742E-05, 0.000657697557, 0.1082648   , 0.162262365 , 0.709855735 , 0.0018542516, 0.0158539247, -0.9325919  , 3.41        , 3           , 50          , 0           , 0
0.169227526 , -0.0331001058, -9.783235   , -0.0003649313, -0.00246051932, 0.00238070148, 0.108399622 , 0.162060127 , 0.709855735 , 0.00185097731, 0.0158292744, -0.9325683  , 3.42        , 3           , 11          , 0.0107390126, 0.0107389512
0.167345867 , -0.0367691033, -9.776068   , 0.0005304689, 0.0006908613, 0.00157325855, 0.108467035 , 0.162060127 , 0.709990561 , 0.0018565316, 0.015836155 , -0.9325526  , 3.43        , 3           , 12          , 0.0566695   , 0
0.142803267 , -0.02953826 , -9.799698   , 0.00252899155, -0.0001660678, -0.00100274454, 0.108467035 , 0.162060127 , 0.709990561 , 0.00188166194, 0.0158345122, -0.9325626  , 3.44        , 3           , 50          , 0           , 0
0.161426559 , 0.00215562433, -9.784255   , 8.342788E-06, 0.00442728866, 0.0010517597, 0.108534448 , 0.162194952 , 0.709855735 , 0.00188191363, 0.0158787668, -0.932551861, 3.45        , 3           , 11          , 0.0107390126, 0.0107389512
0.156305283 , -0.012748885, -9.778151   , -0.00316009647, 0.00102012453, 0.0009828298, 0.108399622 , 0.162262365 , 0.709855735 , 0.00185046857, 0.015888948 , -0.9325421  , 3.46        , 3           , 12          , 0.0566695   , 0
0.155597836 , 0.00625021942, -9.782907   , 0.00304615614, -0.00334469369, 0.00124408549, 0.108601861 , 0.162194952 , 0.709855735 , 0.00188112631, 0.0158554781, -0.9325297  , 3.47        , 3           , 50          , 0           , 0
0.1564407   , -0.003638841, -9.786627   , 0.00111146434, 0.000418979063, -0.000716800336, 0.108467035 , 0.162194952 , 0.7097883   , 0.0018921278, 0.0158596821, -0.93253684 , 3.48        , 3           , 11          , 0.0107390126, 0.0107389512
0.1644415   , -0.0172220469, -9.788065   , 0.00368736964, 0.00210732827, -0.0001040106, 0.108467035 , 0.162194952 , 0.7097883   , 0.00192898558, 0.0158807542, -0.932537556, 3.49        , 3           , 12          , 0.0566695   , 0
0.145219415 , -0.017286649, -9.808569   , -0.00315592624, 0.0007710208, -0.0007384081, 0.108601861 , 0.162060127 , 0.709855735 , 0.00188659586, 0.0159465056, -0.932544947, 3.5         , 3           , 50          , 0           , 0
0.156767637 , -0.0269785579, -9.797281   , -0.00314766448, 0.000499798742, -0.00245956564, 0.108197384 , 0.162262365 , 0.709923148 , 0.00185472716, 0.01595155  , -0.932569742, 3.51        , 3           , 11          , 0.0110825468, 0.0110824825
0.153588369 , -0.0194260385, -9.784124   , -0.00349894725, -0.00381903443, 5.15939828E-05, 0.108467035 , 0.162262365 , 0.7101928   , 0.00181974482, 0.015913358 , -0.932569265, 3.52        , 3           , 12          , 0.0577053837, 0
0.139985025 , -0.03191929 , -9.785749   , -0.0006273281, -0.0009898178, 0.0009689553, 0.108534448 , 0.162262365 , 0.709923148 , 0.00181362533, 0.0159034431, -0.9325595  , 3.53        , 3           , 50          , 0           , 0
0.1410361   , -0.0232389532, -9.796931   , -0.000328580383, -0.000409311178, -0.000165640289, 0.108399622 , 0.161857888 , 0.710058    , 0.00181031344, 0.0158993527, -0.932561159, 3.54        , 3           , 11          , 0.0110825468, 0.0110824825
0.146042526 , -0.01162626 , -9.790428   , 0.00140720536, 0.00243402366, 0.0004587035, 0.108399622 , 0.161857888 , 0.710058    , 0.00182445871, 0.0159236826, -0.9325566  , 3.55        , 3           , 12          , 0.0577053837, 0
0.133372575 , -0.0254123155, -9.798382   , -2.0598527E-06, 0.0027478484, -0.00097651023, 0.108399622 , 0.16212754  , 0.709990561 , 0.00182428269, 0.0159511827, -0.9325664  , 3.56        , 3           , 50          , 0           , 0
0.138263375 , -0.0384591222, -9.80526352 , -0.00320241461, -0.00211268757, 0.00122300442, 0.108399622 , 0.162060127 , 0.709923148 , 0.00179245218, 0.0159300324, -0.932554   , 3.57        , 3           , 11          , 0.0110825468, 0.0110824825
0.1389642   , -0.0392178632, -9.777261   , -0.00198516739, 0.003625254 , -0.000689819164, 0.108332209 , 0.162194952 , 0.709855735 , 0.00177249149, 0.0159662962, -0.9325609  , 3.58        , 3           , 12          , 0.0577053837, 0
0.155803621 , -0.0203910116, -9.78005    , -0.000855379854, 0.00275651738, -0.0009816504, 0.108601861 , 0.1619253   , 0.709923148 , 0.00176378037, 0.0159938782, -0.9325707  , 3.59        , 3           , 50          , 0           , 0
0.157248363 , -0.0300517231, -9.805444   , -0.000596408034, 0.000173566747, -0.00101741357, 0.108601861 , 0.1619253   , 0.709923148 , 0.00176907086, 0.0159933418, -0.9325807  , 3.6         , 3           , 11          , 0.0111499913, 0.0111499345
0.161853537 , -0.0125733484, -9.798876   , -0.00261884928, -0.00154103781, 0.000662535662, 0.108129971 , 0.162262365 , 0.709923148 , 0.00174298766, 0.01597792  , -0.932574034, 3.61        , 3           , 12          , 0.0587492175, 0
0.16251184  , -0.02140969 , -9.77458    , 0.00309249642, 0.000688683765, 0.0013025197, 0.108399622 , 0.16212754  , 0.709990561 , 0.00177412014, 0.01598478  , -0.9325609  , 3.62        , 3           , 50          , 0           , 0
0.132150263 , -0.0463735461, -9.777407   , -0.005477822, -0.00294247782, 0.000338370039, 0.108332209 , 0.162194952 , 0.710058    , 0.00171939412, 0.01595535  , -0.9325576  , 3.63        , 3           , 11          , 0.0111499913, 0.0111499345
0.146741837 , -0.0319732539, -9.786139   , 0.0005110979, -0.002135744, -0.00047162018, 0.108467035 , 0.162194952 , 0.709990561 , 0.00172442989, 0.015934    , -0.932562351, 3.64        , 3           , 12          , 0.0587492175, 0
0.16379267  , -0.0264249612, -9.770561   , -0.0003375487, -0.00155647635, -0.000182249234, 0.108467035 , 0.162060127 , 0.7097883   , 0.00172102556, 0.01591844  , -0.932564259, 3.65        , 3           , 50          , 0           , 0
0.141875118 , -0.019779861, -9.783785   , 0.0007762918, -0.004139568, -0.0010714496, 0.108467035 , 0.162060127 , 0.7097883   , 0.00172861747, 0.0158770625, -0.932575   , 3.66        , 3           , 11          , 0.0111499913, 0.0111499345
0.1168086   , -0.0360533148, -9.760264   , 0.00108766207, -0.000155945367, 0.00185033341, 0.108534448 , 0.162194952 , 0.7097883   , 0.00173978822, 0.0158754718, -0.9325564  , 3.67        , 3           , 12          , 0.0587492175, 0
0.155744165 , -0.03161042 , -9.785149   , -0.00139418244, 0.005335542 , -0.000375102, 0.108534448 , 0.162329778 , 0.7102602   , 0.00172578823, 0.0159288328, -0.9325602  , 3.68        , 3           , 50          , 0           , 0
0.145416722 , -0.03859926 , -9.797972   , 0.000278638268, 0.00188693218, -0.001273396, 0.108399622 , 0.161992714 , 0.7101254   , 0.00172837113, 0.0159477238, -0.932572842, 3.69        , 3           , 11          , 0.0111499913, 0.0111499345
0.135426059 , -0.0386436619, -9.78587    , 0.00327770622, -0.00139480457, -0.000142499761, 0.108399622 , 0.161992714 , 0.7101254   , 0.00388098764, 0.0148720266, -0.932534456, 3.7         , 3           , 12          , 0.0598003641, 0
0.1449622   , -0.0417178236, -9.801174   , -0.00182845932, -0.0004779349, -0.000733148248, 0.108399622 , 0.161992714 , 0.7101254   , 0.00386259379, 0.014867276 , -0.932541847, 3.71        , 3           , 50          , 0           , 0
0.179779381 , -0.0279932115, -9.805212   , 0.00161451951, 0.002066602 , -0.0006750257, 0.108332209 , 0.162262365 , 0.710058    , 0.00387863978, 0.014887969 , -0.9325485  , 3.72        , 3           , 11          , 0.0113700712, 0.0113700107
0.144522429 , -0.0363562629, -9.796148   , 0.002756399 , 0.00290710246, 0.000202840485, 0.108399622 , 0.16212754  , 0.7101254   , 0.00390623533, 0.0149170291, -0.9325464  , 3.73        , 3           , 12          , 0.0598003641, 0
0.141301483 , -0.0293127056, -9.777576   , 0.000460260228, 0.00064526475, -0.000702746969, 0.108534448 , 0.162194952 , 0.710058    , 0.00391073432, 0.01492351  , -0.9325533  , 3.74        , 3           , 50          , 0           , 0
0.138124183 , -0.0226474945, -9.765785   , -0.000681353733, 0.000651704147, -0.000137272553, 0.108601861 , 0.161992714 , 0.7097883   , 0.00390389981, 0.0149300322, -0.9325545  , 3.75        , 3           , 11          , 0.0113700712, 0.0113700107
0.1185459   , -0.0207835715, -9.797563   , 0.0010225398, 6.632719E-05, -0.000707667263, 0.108601861 , 0.161992714 , 0.7097883   , 0.00391402  , 0.0149307232, -0.932561636, 3.76        , 3           , 12          , 0.0598003641, 0
0.149150684 , -0.0250744149, -9.800491   , 0.00327797141, -0.0005478647, 0.00130084075, 0.108467035 , 0.161992714 , 0.7097883   , 0.00394699257, 0.014925194 , -0.932548761, 3.77        , 3           , 50          , 0           , 0
0.159528747 , -0.0318072  , -9.811767   , -0.00127966888, -0.00107478921, 0.00126507937, 0.108332209 , 0.162194952 , 0.710058    , 0.00393438432, 0.0149143953, -0.9325361  , 3.78        , 3           , 11          , 0.0113700712, 0.0113700107
0.166721433 , -0.03544813 , -9.814452   , -0.0064017796, -0.00187227526, 7.706177E-05, 0.108332209 , 0.16212754  , 0.7102602   , 0.00387037639, 0.0148956673, -0.9325354  , 3.79        , 3           , 12          , 0.0598003641, 0
0.1418743   , -0.04114752 , -9.809778   , 0.00128008809, -0.00109915552, 0.00128049194, 0.108467035 , 0.162060127 , 0.7101254   , 0.003882893 , 0.0148884552, -0.932522535, 3.8         , 3           , 50          , 0           , 0
0.134378478 , -0.0105692912, -9.795491   , 0.00274877623, 0.00177010463, -0.0006723538, 0.108399622 , 0.162060127 , 0.710058    , 0.003910281 , 0.0149061829, -0.9325292  , 3.81        , 3           , 11          , 0.00240995339, 0.00240999926
0.151310444 , -0.0158862937, -9.775975   , -0.000139630691, -0.00136360782, 0.0004092595, 0.108399622 , 0.162060127 , 0.710058    , 0.00390894432, 0.0148925306, -0.932525158, 3.82        , 3           , 12          , 0.060858205 , 0
0.165733978 , -0.0275611  , -9.792238   , -0.000142376754, -0.00193164707, -0.000171415624, 0.108534448 , 0.162060127 , 0.709990561 , 0.00390749425, 0.0148732206, -0.9325268  , 3.83        , 3           , 50          , 0           , 0
0.137270421 , -0.03458668 , -9.78716    , 0.0038678213, 0.0014514908, 0.00161963841, 0.108332209 , 0.162262365 , 0.710058    , 0.00394641329, 0.014887671 , -0.9325106  , 3.84        , 3           , 11          , 0.00240995339, 0.00240999926
0.157081813 , -0.0227395557, -9.7723875  , 0.000208881873, 0.004362526 , 0.0007806075, 0.1082648   , 0.16212754  , 0.709990561 , 0.003948621 , 0.0149312653, -0.932502747, 3.85        , 3           , 12          , 0.060858205 , 0
0.155909374 , -0.0122166369, -9.785376   , 0.004806675 , 0.00804694  , 0.000289949763, 0.108534448 , 0.162060127 , 0.709990561 , 0.00399673637, 0.0150117232, -0.9324994  , 3.86        , 3           , 50          , 0           , 0
0.1435199   , -0.03027283 , -9.773953   , 0.005018804 , 0.000610909134, -0.00181999675, 0.108534448 , 0.162060127 , 0.709990561 , 0.004046652 , 0.0150179053, -0.932517767, 3.87        , 3           , 11          , 0.00240995339, 0.00240999926
0.135133624 , -0.0107997265, -9.77471    , 0.000394057424, -0.0050846776, -0.0007862257, 0.108332209 , 0.162060127 , 0.710058    , 0.00405046949, 0.0149670942, -0.9325259  , 3.88        , 3           , 12          , 0.060858205 , 0
0.13255927  , -0.0123620862, -9.795077   , 0.00210893527, -0.00339789782, 0.000966079941, 0.108399622 , 0.162262365 , 0.710058    , 0.004071703 , 0.0149330739, -0.932516336, 3.89        , 3           , 50          , 0           , 0
0.153183386 , -0.00243771262, -9.769931   , 0.00133967819, 0.005482431 , 0.00166247471, 0.108197384 , 0.162194952 , 0.710058    , 0.00405523647, 0.0149728181, -0.932499647, 3.9         , 3           , 11          , 0.00250629429, 0.00250635
0.1440087   , -0.0181990769, -9.764776   , 0.000451166678, 0.0017758084, 0.000458422524, 0.108467035 , 0.162194952 , 0.709990561 , 0.004059817 , 0.014990557 , -0.9324949  , 3.91        , 3           , 12          , 0.06192229  , 0
0.150113627 , -0.0232060645, -9.807236   , -9.129009E-05, 0.00209888117, -0.00297479867, 0.108601861 , 0.162060127 , 0.7101928   , 0.00405845931, 0.0150116663, -0.9325247  , 3.92        , 3           , 50          , 0           , 0
0.154387325 , -0.0360593423, -9.78973    , 0.00328099355, 0.000316576043, 0.000168524828, 0.108601861 , 0.162060127 , 0.7101928   , 0.004091294 , 0.0150148254, -0.932523   , 3.93        , 3           , 11          , 0.00250629429, 0.00250635
0.147729874 , -0.0140416333, -9.77689    , 0.00383778149, -0.0013984401, -0.0009977457, 0.108534448 , 0.162194952 , 0.709923148 , 0.004129522 , 0.0150008816, -0.932533   , 3.94        , 3           , 12          , 0.06192229  , 0
0.13777867  , -0.0198123232, -9.7775     , -0.00183755276, 0.000652608869, 0.000428021274, 0.108534448 , 0.162397191 , 0.710058    , 0.004111211 , 0.0150073916, -0.932528734, 3.95        , 3           , 50          , 0           , 0
0.160992384 , -0.0341200642, -9.765707   , -0.000157866947, -0.00137590186, 0.0009814149, 0.108534448 , 0.16212754  , 0.7101254   , 0.00410977844, 0.0149935912, -0.932518959, 3.96        , 3           , 11          , 0.00250629429, 0.00250635
0.129239455 , -0.0246106964, -9.785764   , 0.00245433836, 0.003464818 , 0.00164011365, 0.108467035 , 0.162060127 , 0.710058    , 0.00413457025, 0.0150281722, -0.9325025  , 3.97        , 3           , 12          , 0.06192229  , 0
0.139952138 , -0.0190607626, -9.765274   , 0.0004467589, 0.0020521495, 0.00160725217, 0.108467035 , 0.162060127 , 0.710058    , 0.004139281 , 0.0150486287, -0.9324863  , 3.98        , 3           , 50          , 0           , 0
0.164791256 , -0.016934745, -9.773153   , 0.00217156019, 0.002623327 , -9.11045E-05, 0.108601861 , 0.162060127 , 0.709990561 , 0.004160984 , 0.0150748622, -0.932487   , 3.99        , 3           , 11          , 0.00250629429, 0.00250635
0.142618567 , -0.0262600724, -9.768947   , -0.0009860881, 0.000645303458, 0.0004331075, 0.108467035 , 0.162329778 , 0.709990561 , 0.00414755754, 0.01508397  , -0.932482958, 4           , 3           , 12          , 0.06299206  , 0
0.14445968  , -0.0199824125, -9.767052   , -0.00130215543, -0.00193357863, 0.0006799963, 0.108467035 , 0.162262365 , 0.7101928   , 0.004134637 , 0.0150646027, -0.9324763  , 4.01        , 3           , 50          , 0           , 0
0.1400798   , -0.03177411 , -9.799297   , 0.00215265178, 0.00147325511, 0.0004644754, 0.108534448 , 0.16212754  , 0.7101254   , 0.00415623467, 0.0150793176, -0.9324713  , 4.02        , 3           , 11          , 0.00261000963, 0.00261009438
0.138249323 , -0.02334607 , -9.784763   , -0.00155056024, 0.000374741678, -0.0007191489, 0.108197384 , 0.16212754  , 0.7097883   , 0.00414062152, 0.0150830951, -0.932478666, 4.03        , 3           , 12          , 0.06299206  , 0
0.16666384  , -0.008383226, -9.773036   , 0.00584432576, 0.0005810716, -9.809909E-05, 0.108197384 , 0.16212754  , 0.7097883   , 0.00419905037, 0.01508891  , -0.9324796  , 4.04        , 3           , 50          , 0           , 0
0.142976314 , -0.03397292 , -9.764967   , 0.00333331153, 0.005187226 , 0.0005255849, 0.108467035 , 0.161992714 , 0.709990561 , 0.004232466 , 0.01514076  , -0.932474136, 4.05        , 3           , 11          , 0.00261000963, 0.00261009438
0.132212415 , -0.026247317, -9.761816   , 0.00219225162, 0.00491220551, 0.0005145578, 0.108467035 , 0.162262365 , 0.710058    , 0.00425447058, 0.01518986  , -0.932468653, 4.06        , 3           , 12          , 0.06299206  , 0
0.155875772 , -0.0229512714, -9.793631   , 0.000403112354, -0.00223493623, 0.0003999391, 0.108467035 , 0.16212754  , 0.710058    , 0.004258561 , 0.0151674934, -0.932464838, 4.07        , 3           , 50          , 0           , 0
0.144490764 , -0.0226056036, -9.77476    , -0.00158522162, -0.00164666947, 0.0009686204, 0.108534448 , 0.162060127 , 0.709990561 , 0.004242854 , 0.0151509847, -0.932455063, 4.08        , 3           , 11          , 0.00261000963, 0.00261009438
0.126131043 , -0.0182851  , -9.784365   , 0.00273391255, 0.00204831269, -0.000382242753, 0.108534448 , 0.162060127 , 0.709990561 , 0.00427013729, 0.0151714822, -0.9324589  , 4.09        , 3           , 12          , 0.06299206  , 0
0.131507546 , -0.0330620222, -9.798488   , -0.0004132324, 0.000646215747, -0.000708108651, 0.108332209 , 0.16212754  , 0.709923148 , 0.004258861 , 0.0151712885, -0.9324658  , 4.1         , 3           , 50          , 0           , 0
0.150742918 , -0.0209584683, -9.765198   , 0.00239101355, -0.00254017045, -0.00016455556, 0.108399622 , 0.162194952 , 0.7101254   , 0.0042827446, 0.0151458951, -0.932467461, 4.11        , 3           , 11          , 0.00274179573, 0.00274188165
0.154020458 , -0.0350374654, -9.800562   , 0.0007039086, -0.00165029767, -0.0015931353, 0.1082648   , 0.161992714 , 0.7101928   , 0.004289541 , 0.01512946  , -0.932483435, 4.12        , 3           , 12          , 0.06406704  , 0
0.156570613 , -0.04196973 , -9.787068   , 0.0007404736, 0.002349013 , -0.000103885832, 0.108669274 , 0.161992714 , 0.709855735 , 0.004296932 , 0.0151529545, -0.9324844  , 4.13        , 3           , 50          , 0           , 0
0.130951479 , -0.0274334457, -9.776295   , 0.00217038114, 0.002344803 , -0.00123997475, 0.108669274 , 0.161992714 , 0.709855735 , 0.00431844871, 0.0151764564, -0.9324968  , 4.14        , 3           , 11          , 0.00274179573, 0.00274188165
0.1383405   , -0.0143037587, -9.786917   , -9.249266E-05, 0.00379569666, -0.000660486345, 0.108601861 , 0.161992714 , 0.710058    , 0.004317427 , 0.0152144413, -0.932503   , 4.15        , 3           , 12          , 0.06406704  , 0
0.157618031 , -0.0359658077, -9.800991   , -0.0013135717, -0.00392270274, -0.00163851737, 0.108601861 , 0.161992714 , 0.7101254   , 0.00430403976, 0.0151752857, -0.9325197  , 4.16        , 3           , 50          , 0           , 0
0.145831436 , -0.048450537, -9.804858   , 0.00153574336, -0.000558721, 0.00357965124, 0.108601861 , 0.162194952 , 0.710058    , 0.0043199393, 0.0151695432, -0.9324839  , 4.17        , 3           , 11          , 0.00274179573, 0.00274188165
0.146336764 , -0.0381320156, -9.800217   , 0.00325394468, -0.00056070165, 0.00187294744, 0.108534448 , 0.162060127 , 0.7101254   , 0.004352762 , 0.0151638556, -0.9324651  , 4.18        , 3           , 12          , 0.06406704  , 0
0.160229087 , -0.03523753 , -9.786957   , 0.000111905378, -0.00167523231, 0.001837406 , 0.108467035 , 0.162194952 , 0.7101254   , 0.00435415842, 0.0151470229, -0.932446957, 4.19        , 3           , 50          , 0           , 0
0.1506932   , -0.0250408165, -9.762987   , 0.000673033 , -0.0025328605, 0.00125588686, 0.108467035 , 0.162194952 , 0.7101254   , 0.00435791025, 0.0151267778, -0.9324348  , 4.2         , 3           , 11          , 0.00288554281, 0.00288563734
0.158510149 , -0.0328705423, -9.795979   , -0.00210204441, 0.00153885828, -0.00213678554, 0.108534448 , 0.162060127 , 0.709990561 , 0.00433656666, 0.0151422592, -0.932456255, 4.21        , 3           , 12          , 0.0651468039, 0
0.161539957 , -0.03442005 , -9.78016    , -0.000360766135, 0.00551827252, -0.00035109173, 0.108534448 , 0.162262365 , 0.710058    , 0.004332909 , 0.0151974559, -0.932459354, 4.22        , 3           , 50          , 0           , 0
0.133613974 , -0.01905911 , -9.760365   , -0.000165979349, -0.001940795, 0.000114437818, 0.108399622 , 0.162060127 , 0.709923148 , 0.00433126558, 0.0151780453, -0.9324584  , 4.23        , 3           , 11          , 0.00288554281, 0.00288563734
0.145087376 , -0.005470274, -9.775007   , 0.000680740748, -0.00252262247, 0.00011123094, 0.108534448 , 0.16212754  , 0.710058    , 0.00433808845, 0.0151528129, -0.9324572  , 4.24        , 3           , 12          , 0.0651468039, 0
0.1437918   , -0.008935103, -9.787256   , 0.00213071331, 3.958252E-05, 0.00044352375, 0.108534448 , 0.16212754  , 0.710058    , 0.0043594623, 0.0151531892, -0.9324529  , 4.25        , 3           , 50          , 0           , 0
0.141270518 , -0.0289150234, -9.772603   , -0.00103112624, -0.00279442337, 0.000382941 , 0.108332209 , 0.161992714 , 0.709990561 , 0.004349206 , 0.0151252309, -0.9324491  , 4.26        , 3           , 11          , 0.00288554281, 0.00288563734
0.158400178 , -0.03259382 , -9.77971649 , 0.000378427823, -0.00423664739, -0.000201687668, 0.108399622 , 0.162194952 , 0.7101254   , 0.00435295748, 0.0150828715, -0.9324515  , 4.27        , 3           , 12          , 0.0651468039, 0
0.153857782 , -0.0294998884, -9.770237   , -0.0004465655, -0.00193278631, -0.000459603558, 0.1082648   , 0.162060127 , 0.709990561 , 0.00434842147, 0.0150635634, -0.932456255, 4.28        , 3           , 50          , 0           , 0
0.176039726 , -0.0410816669, -9.801332   , 0.00586969452, 0.00259658671, -0.00121362426, 0.108534448 , 0.161992714 , 0.710058    , 0.004406937 , 0.0150895817, -0.9324682  , 4.29        , 3           , 11          , 0.00288554281, 0.00288563734
0.152879044 , -0.0133386841, -9.804387   , 0.00413102843, 0.001464387 , 0.00133428315, 0.108467035 , 0.162194952 , 0.709855735 , 0.004445691 , 0.015140879 , -0.9324572  , 4.3         , 3           , 12          , 0.06623091  , 0
0.1365213   , -0.0160965435, -9.786502   , -0.000146290433, 8.251428E-05, 0.000429222564, 0.108467035 , 0.162194952 , 0.709855735 , 0.00444429368, 0.0151416827, -0.9324529  , 4.31        , 3           , 50          , 0           , 0
0.146234125 , -0.0325024836, -9.778472   , -0.00245399075, -0.00219468051, 0.00124061911, 0.108332209 , 0.16212754  , 0.7102602   , 0.00441994  , 0.0151196821, -0.9324405  , 4.32        , 3           , 11          , 0.003038946 , 0.003039059
0.132513285 , -0.0275670681, -9.806997   , -0.005537981, -0.000410145934, -0.00247331918, 0.108467035 , 0.162262365 , 0.7103276   , 0.0043641855, 0.0151156895, -0.9324653  , 4.33        , 3           , 12          , 0.06623091  , 0
0.148660123 , -0.0153392889, -9.782768   , 0.00210282952, -0.00223323586, 0.000409541419, 0.108399622 , 0.16212754  , 0.7101254   , 0.004385274 , 0.0150933405, -0.932461262, 4.34        , 3           , 50          , 0           , 0
0.150901526 , -0.008696917, -9.773185   , 0.002438431 , 0.00121818134, -0.0012556467, 0.108534448 , 0.161992714 , 0.709990561 , 0.004409469 , 0.0151055763, -0.9324739  , 4.35        , 3           , 11          , 0.003038946 , 0.003039059
0.141488075 , -0.00810562447, -9.778686   , 0.00356241362, 0.00231710635, 0.00277419714, 0.108534448 , 0.161992714 , 0.709990561 , 0.00444551324, 0.0151286237, -0.932446   , 4.36        , 3           , 12          , 0.06623091  , 0
0.140829816 , -0.04269562 , -9.790834   , 0.006143569 , 0.00231925445, -0.000358186546, 0.108467035 , 0.162262365 , 0.709923148 , 0.00450689532, 0.0151518313, -0.9324496  , 4.37        , 3           , 50          , 0           , 0
0.13505967  , -0.03495024 , -9.793509   , 0.008476297 , 0.00660506357, -0.00142653228, 0.1082648   , 0.162262365 , 0.710058    , 0.004591447 , 0.0152179478, -0.9324634  , 4.38        , 3           , 11          , 0.003038946 , 0.003039059
0.1671173   , -0.022181334, -9.790357   , 0.007821328 , 0.000288184 , 0.000481371128, 0.108467035 , 0.162329778 , 0.710058    , 0.004669733 , 0.015220806 , -0.932458639, 4.39        , 3           , 12          , 0.06623091  , 0
0.155151144 , -0.03227031 , -9.765288   , -0.00412770873, 0.000708710053, -0.000159193354, 0.108399622 , 0.161992714 , 0.709923148 , 0.004610261 , 0.01524186  , -0.932461739, 4.4         , 3           , 50          , 0           , 0
0.146775514 , -0.0234641135, -9.780621   , 0.00043515797, 0.00152477308, -0.00040542247, 0.108399622 , 0.161992714 , 0.709923148 , 0.004614552 , 0.0152571276, -0.9324658  , 4.41        , 3           , 11          , 0.003188003 , 0.00318813231
0.1433767   , -0.003980899, -9.786299   , -0.00184366154, 0.00126131088, -0.000423303136, 0.108534448 , 0.162060127 , 0.709923148 , 0.004596052 , 0.0152697591, -0.932469845, 4.42        , 3           , 12          , 0.06731898  , 0
0.147223    , -0.0185758062, -9.774237   , 0.000698159856, -0.00132855086, -0.00216242834, 0.1082648   , 0.162060127 , 0.709923148 , 0.00460270233, 0.0152565734, -0.932491541, 4.43        , 3           , 50          , 0           , 0
0.149807692 , -0.04637644 , -9.791246   , -0.0009818152, 0.00182836  , -0.000695979863, 0.108534448 , 0.16212754  , 0.709990561 , 0.004592779 , 0.01527489  , -0.932498455, 4.44        , 3           , 11          , 0.003188003 , 0.00318813231
0.162538543 , -0.0249298476, -9.782751   , 0.00297257164, -0.000788747857, -0.0009957183, 0.108467035 , 0.1619253   , 0.710058    , 0.00462235138, 0.0152670471, -0.9325087  , 4.45        , 3           , 12          , 0.06731898  , 0
0.142770275 , -0.0144542605, -9.776489   , 0.00156687154, 0.000658596167, -0.0009834176, 0.108399622 , 0.162060127 , 0.709855735 , 0.004637871 , 0.01527368  , -0.932518244, 4.46        , 3           , 50          , 0           , 0
0.150984019 , -0.015247602, -9.793135   , 0.000743251643, 0.00324647734, -0.0009509959, 0.108399622 , 0.162060127 , 0.709855735 , 0.00464515947, 0.0153061915, -0.9325278  , 4.47        , 3           , 11          , 0.003188003 , 0.00318813231
0.152431667 , 0.00492010452, -9.782499   , 0.00157043675, 0.00179211528, 0.000464096753, 0.108332209 , 0.162060127 , 0.709855735 , 0.004660938 , 0.0153240878, -0.932523   , 4.48        , 3           , 12          , 0.06731898  , 0
0.153234288 , -0.009036774, -9.785363   , 0.006107169 , 0.00116248487, 0.00162782008, 0.108399622 , 0.162194952 , 0.709990561 , 0.00472225947, 0.0153356353, -0.9325068  , 4.49        , 3           , 50          , 0           , 0
0.1502551   , -0.027689103, -9.76799    , 0.003875318 , 0.003514892 , -0.002359038, 0.108534448 , 0.162060127 , 0.7101928   , 0.004742183 , 0.0153724672, -0.9325309  , 4.5         , 3           , 11          , 0.00335242227, 0.003352573
0.162907973 , -0.02639293 , -9.772827   , -0.00159781089, -0.0007544878, 0.000407444575, 0.108534448 , 0.162060127 , 0.710058    , 0.004726266 , 0.0153649   , -0.9325268  , 4.51        , 3           , 12          , 0.0684106648, 0
0.1450567   , -0.0233226214, -9.792378   , -0.000449308369, -0.00131616893, -0.002169525, 0.108534448 , 0.162060127 , 0.710058    , 0.00472144037, 0.01535184  , -0.9325485  , 4.52        , 3           , 50          , 0           , 0
0.153081477 , -0.0239602141, -9.781471   , 0.00269436953, 0.000929321453, -0.000400305318, 0.108534448 , 0.16212754  , 0.709855735 , 0.004748322 , 0.0153611545, -0.9325526  , 4.53        , 3           , 11          , 0.00335242227, 0.003352573
0.149589539 , -0.0126320263, -9.783631   , -0.00209353771, 0.005274573 , -8.06659955E-05, 0.108467035 , 0.16212754  , 0.709923148 , 0.00472737849, 0.0154139036, -0.932553053, 4.54        , 3           , 12          , 0.0684106648, 0
0.1490701   , -0.0309845768, -9.796044   , -0.004442476, -0.00157253142, -0.00105303014, 0.108399622 , 0.162060127 , 0.709923148 , 0.00468278863, 0.0153982276, -0.9325638  , 4.55        , 3           , 50          , 0           , 0
0.152278334 , -0.0242484342, -9.795938   , -0.00185830821, -0.000155404123, -0.00216139783, 0.108467035 , 0.162060127 , 0.710058    , 0.004663873 , 0.0153967729, -0.9325855  , 4.56        , 3           , 11          , 0.00335242227, 0.003352573
0.164057821 , -0.0215675216, -9.803024   , -0.001818178, 0.00497742556, 0.0007753659, 0.108399622 , 0.162060127 , 0.7097883   , 0.004645815 , 0.0154465111, -0.9325774  , 4.57        , 3           , 12          , 0.0684106648, 0
0.153587148 , -0.02031817 , -9.785038   , -0.00241813064, 0.0021199726, 0.000444039732, 0.108399622 , 0.162060127 , 0.7097883   , 0.004621704 , 0.01546769  , -0.932572842, 4.58        , 3           , 50          , 0           , 0
0.138622865 , -0.0310347453, -9.783042   , -0.00132905226, -0.0016247934, 0.00125512923, 0.1082648   , 0.162060127 , 0.7097883   , 0.004608606 , 0.0154513847, -0.9325602  , 4.59        , 3           , 11          , 0.00335242227, 0.003352573
0.1274984   , -0.02227759 , -9.791624   , -0.003038999, -0.00161040924, 0.00124488864, 0.108129971 , 0.16212754  , 0.709990561 , 0.00457197428, 0.0154294828, -0.932547569, 4.6         , 3           , 12          , 0.0695055947, 0
0.119556628 , -0.0139455646, -9.805153   , 0.00351082836, -0.00166663236, 0.000139640732, 0.108399622 , 0.16212754  , 0.709990561 , 0.0046071033, 0.0154128084, -0.9325464  , 4.61        , 3           , 50          , 0           , 0
0.144272238 , -0.0371845849, -9.760928   , 0.000944533444, -0.00136684428, 0.00155921374, 0.1082648   , 0.16212754  , 0.709923148 , 0.004616788 , 0.0153990677, -0.932530642, 4.62        , 3           , 11          , 0.00352748483, 0.00352763687
0.1389442   , -0.0307909884, -9.764065   , 0.000436715141, 0.00295297941, -9.859408E-05, 0.1082648   , 0.16212754  , 0.709923148 , 0.004621141 , 0.0154286   , -0.9325316  , 4.63        , 3           , 12          , 0.0695055947, 0
0.127857864 , -0.0264267568, -9.783539   , 0.00214443915, 0.00434806151, 0.002221866 , 0.108197384 , 0.162060127 , 0.7097883   , 0.00464293268, 0.0154719781, -0.9325092  , 4.64        , 3           , 50          , 0           , 0
0.1478942   , -0.00221647322, -9.786238   , 0.0012482194, 0.000631201139, 0.00216247  , 0.108129971 , 0.162329778 , 0.709923148 , 0.00465575  , 0.015478191 , -0.9324875  , 4.65        , 3           , 11          , 0.00352748483, 0.00352763687
0.150032669 , -0.03401328 , -9.808718   , 0.00181353407, -0.000508097059, 0.000718382536, 0.108332209 , 0.162060127 , 0.709923148 , 0.00467399461, 0.0154730752, -0.932480335, 4.66        , 3           , 12          , 0.0695055947, 0
0.162445813 , -0.0281877946, -9.773304   , 0.00127160782, 0.00150885526, 0.000171842446, 0.108332209 , 0.162060127 , 0.7097883   , 0.004686739 , 0.0154881543, -0.932478666, 4.67        , 3           , 50          , 0           , 0
0.169157416 , -0.0336526223, -9.773756   , -0.00381063926, 0.00499725947, 0.0004772478, 0.108332209 , 0.162060127 , 0.7097883   , 0.0046487106, 0.0155381029, -0.93247366 , 4.68        , 3           , 11          , 0.00352748483, 0.00352763687
0.159323841 , -0.04102371 , -9.793355   , -0.0018448506, 0.00212147785, -0.000697149837, 0.1082648   , 0.161992714 , 0.709923148 , 0.004630155 , 0.015559352 , -0.9324806  , 4.69        , 3           , 12          , 0.0695055947, 0
0.149010554 , -0.0284049585, -9.78427    , 0.00303340121, 0.004962027 , -0.00262974063, 0.108062558 , 0.161992714 , 0.7097883   , 0.00465265336, 0.0156210065, -0.932507753, 4.7         , 3           , 50          , 0           , 0
0.144566864 , -0.0153669156, -9.776934   , -0.0009773739, 0.00383568765, -0.0003811104, 0.1082648   , 0.162194952 , 0.709923148 , 0.00464282231, 0.0156593826, -0.9325113  , 4.71        , 3           , 11          , 0.00370842125, 0.003708558
0.129261956 , -0.0196797829, -9.782996   , -0.004154075, 0.000699746248, 0.00127111736, 0.108467035 , 0.162060127 , 0.710058    , 0.004601481 , 0.01566632  , -0.9324987  , 4.72        , 3           , 12          , 0.07060347  , 0
0.1648233   , -0.0257883463, -9.788612   , -0.001328368, -0.0016115451, 0.000110207082, 0.108399622 , 0.16212754  , 0.7097209   , 0.00458821328, 0.0156502   , -0.93249774 , 4.73        , 3           , 50          , 0           , 0
0.158128232 , -0.0220787488, -9.792696   , 0.00067261263, -0.000772035, 0.000134721457, 0.108399622 , 0.16212754  , 0.7097209   , 0.00459496072, 0.0156424716, -0.9324963  , 4.74        , 3           , 11          , 0.00370842125, 0.003708558
0.147669151 , -0.0377267376, -9.797038   , -0.00102988491, -0.00187797833, -0.00246772915, 0.1082648   , 0.162060127 , 0.7097209   , 0.004584273 , 0.0156238051, -0.9325211  , 4.75        , 3           , 12          , 0.07060347  , 0
0.151221469 , -0.0186933484, -9.766522   , -0.00272498676, 0.000130056462, -0.0007318107, 0.108467035 , 0.162194952 , 0.709855735 , 0.00455690874, 0.0156251378, -0.932528257, 4.76        , 3           , 50          , 0           , 0
0.142686978 , -0.0292712413, -9.782532   , -0.004438227, -0.0004257641, -0.000750438136, 0.108399622 , 0.16212754  , 0.709855735 , 0.00451240828, 0.01562092  , -0.9325359  , 4.77        , 3           , 11          , 0.00370842125, 0.003708558
0.141397864 , -0.0233783573, -9.784283   , -0.0007523335, -0.00132562616, -0.000454520632, 0.108534448 , 0.161992714 , 0.7097883   , 0.00450481335, 0.0156076821, -0.932540655, 4.78        , 3           , 12          , 0.07060347  , 0
0.165386826 , -0.0167160816, -9.793922   , -0.0006516725, 0.00642736861, -0.0020588194, 0.108534448 , 0.161992714 , 0.7097883   , 0.004497979 , 0.0156720467, -0.9325609  , 4.79        , 3           , 50          , 0           , 0
0.14320989  , -0.0291638728, -9.792914   , -0.0007633199, -0.000443219848, -0.00158790138, 0.108467035 , 0.161992714 , 0.7097883   , 0.004431263 , 0.0156932585, -0.932581663, 4.8         , 3           , 11          , 0.0038694106, 0.003869544
0.14205505  , -0.035332337, -9.763637   , 0.0003422361, -0.0007797504, 0.00270723877, 0.1082648   , 0.161992714 , 0.709923148 , 0.00443510944, 0.0156853385, -0.9325547  , 4.81        , 3           , 12          , 0.0717039853, 0
0.150424749 , -0.0211973917, -9.784626   , -0.00193711394, -0.00273709232, -0.000197323272, 0.108129971 , 0.162194952 , 0.709923148 , 0.00441570533, 0.0156579781, -0.932556868, 4.82        , 3           , 50          , 0           , 0
0.150442988 , -0.0193889234, -9.785057   , 0.00011584608, 0.00212220452, -0.0009728716, 0.1082648   , 0.161992714 , 0.709923148 , 0.004416712 , 0.015679244 , -0.9325664  , 4.83        , 3           , 11          , 0.0038694106, 0.003869544
0.1377401   , -0.0318900123, -9.786673   , 0.00349282613, -0.00106484164, -0.0009982197, 0.108129971 , 0.1619253   , 0.7097209   , 0.004451484 , 0.0156686381, -0.9325764  , 4.84        , 3           , 12          , 0.0717039853, 0
0.160020575 , -0.01750311 , -9.800304   , -0.00190411438, 0.000128699321, -0.000155587928, 0.108129971 , 0.1619253   , 0.7097209   , 0.00443241838, 0.01566993  , -0.932577848, 4.85        , 3           , 50          , 0           , 0
0.123386137 , -0.0339077935, -9.797217   , -0.000773508451, -0.000174557354, 0.0004194202, 0.108332209 , 0.16212754  , 0.7096535   , 0.004424747 , 0.0156681724, -0.9325738  , 4.86        , 3           , 11          , 0.0038694106, 0.003869544
0.13492237  , -0.03159946 , -9.769532   , 0.00378386583, -0.0004945728, -0.0009881592, 0.108129971 , 0.162194952 , 0.709855735 , 0.00446243072, 0.015663268 , -0.9325838  , 4.87        , 3           , 12          , 0.0717039853, 0
0.148619279 , -0.01985319 , -9.782369   , 0.0008786933, -0.005908121, -0.00137075409, 0.108197384 , 0.161992714 , 0.709923148 , 0.004471    , 0.0156042483, -0.932597637, 4.88        , 3           , 50          , 0           , 0
0.110700719 , -0.02902194 , -9.780113   , 0.00375305838, -0.00251086522, 0.000127282168, 0.108534448 , 0.162060127 , 0.7096535   , 0.004508547 , 0.0155791352, -0.932596445, 4.89        , 3           , 11          , 0.0038694106, 0.003869544
0.151266426 , -0.0204050187, -9.775124   , 0.000956086151, 0.00209122687, 0.0004633962, 0.108534448 , 0.162060127 , 0.7096535   , 0.00451088557, 0.0155798579, -0.932590246, 4.9         , 3           , 12          , 0.07280686  , 0
0.1409412   , -0.0211586077, -9.780647   , -0.00106606632, -0.0007517777, 0.0001235031, 0.108399622 , 0.161857888 , 0.7095861   , 0.00450024474, 0.0155723356, -0.932589054, 4.91        , 3           , 50          , 0           , 0
0.13502796  , -0.0327731371, -9.786257   , 0.0009404055, 0.001223811 , 0.0013093676, 0.108332209 , 0.16212754  , 0.709855735 , 0.004509853 , 0.0155845135, -0.932575941, 4.92        , 3           , 11          , 0.00402296428, 0.004023084
0.14411819  , -0.0211473424, -9.784232   , 0.00384367467, 0.00465946039, -0.001485056, 0.108332209 , 0.161992714 , 0.709855735 , 0.00454806164, 0.0156311765, -0.9325905  , 4.93        , 3           , 12          , 0.07280686  , 0
0.156897366 , -0.005858574, -9.790262   , 0.00352127315, 0.002354359 , 0.00019682628, 0.108467035 , 0.161992714 , 0.709923148 , 0.004583305 , 0.0156547129, -0.9325886  , 4.94        , 3           , 50          , 0           , 0
0.14704299  , -0.03265065 , -9.76536751 , 0.00264374563, 0.0009198941, 0.00131547439, 0.1082648   , 0.162060127 , 0.7096535   , 0.00460994942, 0.01566385  , -0.9325752  , 4.95        , 3           , 11          , 0.00402296428, 0.004023084
0.1512258   , -0.0293699242, -9.780195   , 0.00292572821, -0.000779435, -0.00128332921, 0.1082648   , 0.162060127 , 0.7096535   , 0.00463900529, 0.0156561136, -0.9325881  , 4.96        , 3           , 12          , 0.07280686  , 0
0.159009635 , -0.0198901184, -9.787242   , -0.0004760134, 0.00124593754, 0.000442308665, 0.108534448 , 0.162194952 , 0.709855735 , 0.00463431561, 0.0156685542, -0.9325836  , 4.97        , 3           , 50          , 0           , 0
0.143342942 , 0.00130900554, -9.774945   , -0.00191608584, -0.00045652964, 0.000122536439, 0.1082648   , 0.162060127 , 0.709990561 , 0.004615173 , 0.0156639833, -0.9325824  , 4.98        , 3           , 11          , 0.00402296428, 0.004023084
0.151337653 , -0.0167348851, -9.780953   , 0.00209933845, 0.003215747 , 0.00163159985, 0.108467035 , 0.16212754  , 0.709855735 , 0.00463642459, 0.0156960636, -0.9325659  , 4.99        , 3           , 12          , 0.07280686  , 0
0.145110428 , -0.011666812, -9.785919   , 0.0017766346, 0.0012017712, 0.00274515781, 0.108467035 , 0.162194952 , 0.709990561 , 0.00463829  , 0.0157067   , -0.932539   , 5           , 3           , 50          , 0           , 0
0.160453022 , -0.00284489058, -9.779805   , -0.00188420771, 0.002134907 , -0.00127089187, 0.108467035 , 0.162194952 , 0.709990561 , 0.00461924961, 0.0157281049, -0.9325516  , 5.01        , 3           , 11          , 0.00421113661, 0.00421128143
0.147659212 , -0.0288392827, -9.78473949 , -0.0007970554, -0.00161241868, -0.0001736383, 0.1082648   , 0.1619253   , 0.709855735 , 0.00461124955, 0.0157119948, -0.9325535  , 5.02        , 3           , 12          , 0.07391185  , 0
0.133151948 , -0.0484520644, -9.794584   , 0.00441225152, 0.004944806 , -0.002049954, 0.108197384 , 0.162060127 , 0.709990561 , 0.004655054 , 0.0157615319, -0.932573557, 5.03        , 3           , 50          , 0           , 0
0.154983342 , -0.0193700641, -9.790435   , 0.00263655465, 0.00176626071, 0.00275864522, 0.108399622 , 0.162060127 , 0.709990561 , 0.004681855 , 0.0157790687, -0.932546139, 5.04        , 3           , 11          , 0.00421113661, 0.00421128143
0.143381685 , -0.00263785571, -9.785379   , -0.00135548215, -0.001028362, -0.000741046038, 0.108467035 , 0.161992714 , 0.7097883   , 0.00466818176, 0.0157688167, -0.9325535  , 5.05        , 3           , 12          , 0.07391185  , 0
0.160453916 , 0.004723739 , -9.770684   , 0.00154887151, 0.00381970638, -0.00122528989, 0.108467035 , 0.161992714 , 0.7097883   , 0.00468348  , 0.01580707  , -0.932565451, 5.06        , 3           , 50          , 0           , 0
0.1503951   , -0.0221330728, -9.781475   , -0.000455142756, 0.00354055734, 0.0001893627, 0.108332209 , 0.1619253   , 0.7096535   , 0.00467896136, 0.0158424713, -0.932563543, 5.07        , 3           , 11          , 0.00421113661, 0.00421128143
0.135078669 , -0.02334766 , -9.782082   , 0.00350777083, 0.00149916741, -0.000388192537, 0.108332209 , 0.161790475 , 0.7097209   , 0.00471397769, 0.01585748  , -0.932567358, 5.08        , 3           , 12          , 0.07391185  , 0
