Acc X       , Acc Y       , Acc Z       , Gyro X      , Gyro Y      , Gyro Z      , Magn X      , Magn Y      , Magn Z      , Euler X     , Euler Y     , Euler Z     , Time        , Status      , LowRate X   , LowRate Y   , LowRate Z    
-0.002044693, -0.009569751, -9.80503    , 0.001263323 , 0.006839903 , 0.00314169819, 0.4373968   , 0.8065084   , 0.743440747 , 0.00123338657, 0.000895412755, -1.07276416 , 0           , 23          , 11          , 0.0346410163, 0.0346410163
0.00414076727, -0.0203961637, -9.821368   , 0.001263323 , 0.006839903 , 0.00314169819, 0.437123269 , 0.8063715   , 0.7435801   , 0.001246049 , 0.0009637728, -1.07273269 , 0.01        , 23          , 12          , 0.0346410163, 0
0.004063989 , -0.0240702834, -9.814628   , 0.001263323 , 0.006839903 , 0.00314169819, 0.4369794   , 0.806788862 , 0.7425974   , 0.00125871366, 0.00103213231, -1.07270122 , 0.02        , 23          , 50          , 0           , 0
0.00632771943, -0.0206547938, -9.794263   , 0.001263323 , 0.006839903 , 0.00314169819, 0.436995447 , 0.8059566   , 0.745544255 , 0.00127138046, 0.0011004915, -1.07266974 , 0.03        , 23          , 11          , 0.0346410163, 0.0346410163
0.0117650982, 0.0069193244, -9.801665   , 0.001263323 , 0.006839903 , 0.00314169819, 0.437259763 , 0.806509435 , 0.743580639 , 0.00128404947, 0.00116885023, -1.072638   , 0.04        , 23          , 12          , 0.0346410163, 0
0.00148710189, 0.0121424394, -9.811139   , 0.001263323 , 0.006839903 , 0.00314169819, 0.436852723 , 0.805957    , 0.744       , 0.00129672047, 0.00123720884, -1.07260633 , 0.05        , 23          , 50          , 0           , 0
0.00690942351, 0.00906484947, -9.832828   , 0.001263323 , 0.006839903 , 0.00314169819, 0.436852723 , 0.805957    , 0.744       , 0.00130939379, 0.00130556652, -1.07257485 , 0.06        , 23          , 11          , 0.0346410163, 0.0346410163
0.0211973116, 0.00146187842, -9.817038   , 0.001263323 , 0.006839903 , 0.00314169819, 0.437679678 , 0.8059512   , 0.744564235 , 0.00132206921, 0.00137392431, -1.07254338 , 0.07        , 23          , 12          , 0.0346410163, 0
0.0299360063, 0.0129825594, -9.804706   , 0.001263323 , 0.006839903 , 0.00314169819, 0.436984479 , 0.8060944   , 0.742597163 , 0.00133474683, 0.00144228106, -1.07251191 , 0.08        , 23          , 50          , 0           , 0
0.0230928026, 0.006433906 , -9.82014751 , 0.001263323 , 0.006839903 , 0.00314169819, 0.436993539 , 0.805956364 , 0.7449829   , 0.00134742679, 0.00151063793, -1.0724802  , 0.09        , 23          , 11          , 0.0346410163, 0.0346410163
0.00621563662, 0.000586532056, -9.790904   , 0.00125615229, 0.006842914 , 0.00314168329, 0.437810868 , 0.8062275   , 0.743301749 , 0.0009219277, 0.00176301191, -1.07244945 , 0.1         , 23          , 12          , 0.0346410163, 0
0.0138056558, -0.00195216562, -9.772382   , 0.00125615229, 0.006842914 , 0.00314168329, 0.4369863   , 0.806233644 , 0.7434392   , 0.0009345459, 0.001831412 , -1.072418   , 0.11        , 23          , 50          , 0           , 0
0.0167282782, -0.0220596828, -9.809143   , 0.00125615229, 0.006842914 , 0.00314168329, 0.4369863   , 0.806233644 , 0.7434392   , 0.0009471663, 0.00189981132, -1.0723865  , 0.12        , 23          , 11          , 0.0346410163, 0.0346410163
-5.84870577E-05, -0.0276225191, -9.814675   , 0.00125615229, 0.006842914 , 0.00314168329, 0.437131643 , 0.8058164   , 0.744842947 , 0.0009597887, 0.00196821033, -1.07235479 , 0.13        , 23          , 12          , 0.0346410163, 0
-0.00265395222, -0.02207259 , -9.824118   , 0.00125615229, 0.006842914 , 0.00314168329, 0.43739295  , 0.806646943 , 0.7425988   , 0.0009724132, 0.002036609 , -1.07232308 , 0.14        , 23          , 50          , 0           , 0
0.01873283  , -0.0111666266, -9.817164   , 0.00125615229, 0.006842914 , 0.00314168329, 0.4369942   , 0.8056785   , 0.744561732 , 0.0009850399, 0.00210500765, -1.07229161 , 0.15        , 23          , 11          , 0.0346410163, 0.0346410163
0.009693162 , -0.00761828 , -9.790516   , 0.00125615229, 0.006842914 , 0.00314168329, 0.43794778  , 0.8065044   , 0.743723333 , 0.0009976688, 0.002173405 , -1.07226014 , 0.16        , 23          , 12          , 0.0346410163, 0
0.00205864571, -0.006506808, -9.80047    , 0.00125615229, 0.006842914 , 0.00314168329, 0.43794778  , 0.8065044   , 0.743723333 , 0.00101029989, 0.0022418024, -1.07222867 , 0.17        , 23          , 50          , 0           , 0
0.0186951421, -0.009998072, -9.794119   , 0.00125615229, 0.006842914 , 0.00314168329, 0.4375335   , 0.806229234 , 0.74259907  , 0.00102293293, 0.00231019943, -1.072197   , 0.18        , 23          , 11          , 0.0346410163, 0.0346410163
0.0188058522, -0.00492998958, -9.805363   , 0.00125615229, 0.006842914 , 0.00314168329, 0.437267959 , 0.806232333 , 0.7454049   , 0.0010355683, 0.00237859553, -1.07216525 , 0.19        , 23          , 12          , 0.0346410163, 0
0.00585358543, -0.0254383441, -9.816892   , 0.00124772033, 0.00683562132, 0.00314167514, 0.437395364 , 0.806508243 , 0.74301976  , 0.0008217148, 0.00225116336, -1.07213426 , 0.2         , 23          , 50          , 0           , 0
0.0155114327, -0.0113070887, -9.793691   , 0.00124772033, 0.00683562132, 0.00314167514, 0.4368532   , 0.8059571   , 0.7441404   , 0.000834264036, 0.00231949356, -1.07210279 , 0.21        , 23          , 11          , 0.0306510348, 0.0306510236
0.02494133  , 0.011258129 , -9.805191   , 0.00124772033, 0.00683562132, 0.00314167514, 0.4368532   , 0.8059571   , 0.7441404   , 0.0008468155, 0.00238782354, -1.07207131 , 0.22        , 23          , 12          , 0.0346698575, 0
0.0204744115, -0.0139729921, -9.809506   , 0.00124772033, 0.00683562132, 0.00314167514, 0.437956274 , 0.805671334 , 0.74442476  , 0.000859368942, 0.00245615258, -1.0720396  , 0.23        , 23          , 50          , 0           , 0
0.0252860636, -0.0269835144, -9.832644   , 0.00124772033, 0.00683562132, 0.00314167514, 0.437395841 , 0.8065083   , 0.743160069 , 0.000871924742, 0.00252448115, -1.07200813 , 0.24        , 23          , 11          , 0.0306510348, 0.0306510236
-0.00116134109, -0.01350774 , -9.823131   , 0.00124772033, 0.00683562132, 0.00314167514, 0.437266618 , 0.8060932   , 0.744703233 , 0.0008844826, 0.00259281  , -1.07197642 , 0.25        , 23          , 12          , 0.0346698575, 0
0.0256417785, -0.004411038, -9.827014   , 0.00124772033, 0.00683562132, 0.00314167514, 0.437809378 , 0.8063663   , 0.74316144  , 0.00089704257, 0.002661138 , -1.071945   , 0.26        , 23          , 50          , 0           , 0
0.041690737 , -0.0139009356, -9.805364   , 0.00124772033, 0.00683562132, 0.00314167514, 0.43726334  , 0.8059538   , 0.7434401   , 0.0009096045, 0.00272946618, -1.07191348 , 0.27        , 23          , 11          , 0.0306510348, 0.0306510236
0.007208284 , 0.0042865295, -9.802609   , 0.00124772033, 0.00683562132, 0.00314167514, 0.43726334  , 0.8059538   , 0.7434401   , 0.0009221687, 0.00279779313, -1.071882   , 0.28        , 23          , 12          , 0.0346698575, 0
0.0012536007, -0.00275139883, -9.815343   , 0.00124772033, 0.00683562132, 0.00314167514, 0.437406659 , 0.8058144   , 0.7448439   , 0.0009347352, 0.00286612031, -1.07185054 , 0.29        , 23          , 50          , 0           , 0
0.03457661  , -0.008718422, -9.816181   , 0.00124096  , 0.006807304 , 0.00314168865, 0.4373939   , 0.806647062 , 0.74287945  , 0.000853995152, 0.00254405383, -1.07181931 , 0.3         , 23          , 11          , 0.0233104657, 0.023310449
0.01866157  , -0.0152524328, -9.815395   , 0.00124096  , 0.006807304 , 0.00314168865, 0.4368562   , 0.80567944  , 0.744420946 , 0.000866486051, 0.00261210022, -1.0717876  , 0.31        , 23          , 12          , 0.034755975 , 0
0.01699454  , -0.00577556528, -9.808991   , 0.00124096  , 0.006807304 , 0.00314168865, 0.437951356 , 0.805948734 , 0.7435828   , 0.0008789791, 0.00268014567, -1.07175636 , 0.32        , 23          , 50          , 0           , 0
0.0240170918, -0.0155368792, -9.791441   , 0.00124096  , 0.006807304 , 0.00314168865, 0.437951356 , 0.805948734 , 0.7435828   , 0.000891473959, 0.00274819112, -1.07172465 , 0.33        , 23          , 11          , 0.0233104657, 0.023310449
-0.000762457959, -0.0119644441, -9.791497   , 0.00124096  , 0.006807304 , 0.00314168865, 0.437259436 , 0.8062314   , 0.7428788   , 0.000903971144, 0.002816236 , -1.07169318 , 0.34        , 23          , 12          , 0.034755975 , 0
0.008792202 , -0.0123168575, -9.822632   , 0.00124096  , 0.006807304 , 0.00314168865, 0.437541544 , 0.8062301   , 0.744984865 , 0.000916470366, 0.0028842804, -1.071662   , 0.35        , 23          , 50          , 0           , 0
-0.009276804, -0.0111944471, -9.813201   , 0.00124096  , 0.006807304 , 0.00314168865, 0.43808338  , 0.806503236 , 0.743162453 , 0.000928972 , 0.00295232446, -1.07163024 , 0.36        , 23          , 11          , 0.0233104657, 0.023310449
-0.0105868625, -0.008458279, -9.81318    , 0.00124096  , 0.006807304 , 0.00314168865, 0.4372663   , 0.8058151   , 0.7440014   , 0.000941475562, 0.00302036828, -1.071599   , 0.37        , 23          , 12          , 0.034755975 , 0
-0.0003624824, 0.006027717 , -9.834238   , 0.00124096  , 0.006807304 , 0.00314168865, 0.4372663   , 0.8058151   , 0.7440014   , 0.000953981245, 0.00308841071, -1.0715673  , 0.38        , 23          , 50          , 0           , 0
-0.00112389075, -0.0121026933, -9.828988   , 0.00124096  , 0.006807304 , 0.00314168865, 0.437678248 , 0.805951    , 0.744143248 , 0.0009664892, 0.0031564536, -1.07153583 , 0.39        , 23          , 11          , 0.0233104657, 0.023310449
0.0110678775, -0.0394680873, -9.826941   , 0.00124313287, 0.006780582 , 0.00314172218, 0.437531948 , 0.8065071   , 0.742739558 , 0.0009983671, 0.00298520527, -1.07150435 , 0.4         , 23          , 12          , 0.0348985232, 0
0.01696519  , -0.0101585146, -9.826195   , 0.00124313287, 0.006780582 , 0.00314172218, 0.4369916   , 0.806095243 , 0.7447023   , 0.00101089326, 0.00305297971, -1.07147288 , 0.41        , 23          , 50          , 0           , 0
0.00202002283, -0.007915536, -9.794161   , 0.00124313287, 0.006780582 , 0.00314172218, 0.437949926 , 0.8059486   , 0.743161738 , 0.00102342153, 0.003120753 , -1.07144141 , 0.42        , 23          , 11          , 0.0217095111, 0.0217094831
0.0184691884, 0.002303686 , -9.803942   , 0.00124313287, 0.006780582 , 0.00314172218, 0.4376743   , 0.8062286   , 0.743581951 , 0.00103595236, 0.00318852626, -1.07141    , 0.43        , 23          , 12          , 0.0348985232, 0
0.0120422412, -0.00436321646, -9.805834   , 0.00124313287, 0.006780582 , 0.00314172218, 0.4376743   , 0.8062286   , 0.743581951 , 0.00104848493, 0.0032562993, -1.07137847 , 0.44        , 23          , 50          , 0           , 0
0.0146239735, -0.0138178868, -9.816752   , 0.00124313287, 0.006780582 , 0.00314172218, 0.437819541 , 0.8059504   , 0.7452664   , 0.0010610196, 0.00332407188, -1.071347   , 0.45        , 23          , 11          , 0.0217095111, 0.0217094831
0.0120779313, -0.005108986, -9.825263   , 0.00124313287, 0.006780582 , 0.00314172218, 0.437671    , 0.8062282   , 0.742599547 , 0.00107355672, 0.00339184375, -1.07131553 , 0.46        , 23          , 12          , 0.0348985232, 0
0.007882435 , -0.0106072929, -9.808617   , 0.00124313287, 0.006780582 , 0.00314172218, 0.436853141 , 0.806096137 , 0.7444211   , 0.001086096 , 0.003459616 , -1.071284   , 0.47        , 23          , 50          , 0           , 0
-0.00332751637, -0.0050316304, -9.804089   , 0.00124313287, 0.006780582 , 0.00314172218, 0.4380888   , 0.8060868   , 0.743864    , 0.00109863759, 0.00352738728, -1.07125258 , 0.48        , 23          , 11          , 0.0217095111, 0.0217094831
0.0115819592, -0.00652882224, -9.816696   , 0.00124313287, 0.006780582 , 0.00314172218, 0.4380888   , 0.8060868   , 0.743864    , 0.00111118075, 0.003595158 , -1.07122111 , 0.49        , 23          , 12          , 0.0348985232, 0
0.03229362  , -0.007045833, -9.794945   , 0.00123553141, 0.006739316 , 0.00314174336, 0.437673032 , 0.8059504   , 0.7425995   , 0.00107319478, 0.00338938739, -1.07118964 , 0.5         , 23          , 50          , 0           , 0
0.008118524 , 0.00172033347, -9.822504   , 0.00123553141, 0.006739316 , 0.00314174336, 0.4376851   , 0.8055347   , 0.7452658   , 0.001085658 , 0.00345674669, -1.07115817 , 0.51        , 23          , 11          , 0.0210992675, 0.0210992247
0.025600573 , -0.0075441394, -9.831107   , 0.00123553141, 0.006739316 , 0.00314174336, 0.437809318 , 0.8065054   , 0.7434422   , 0.0010981228, 0.00352410553, -1.0711267  , 0.52        , 23          , 12          , 0.035096392 , 0
0.0122416709, -0.0218971577, -9.819999   , 0.00123553141, 0.006739316 , 0.00314174336, 0.437540829 , 0.805813    , 0.743862033 , 0.00111059006, 0.003591464 , -1.07109523 , 0.53        , 23          , 50          , 0           , 0
0.0242650323, -0.000168532133, -9.789942   , 0.00123553141, 0.006739316 , 0.00314174336, 0.437540829 , 0.805813    , 0.743862033 , 0.00112305966, 0.0036588225, -1.071064   , 0.54        , 23          , 11          , 0.0210992675, 0.0210992247
0.01286012  , 0.0169483367, -9.81286049 , 0.00123553141, 0.006739316 , 0.00314174336, 0.43795225  , 0.8060879   , 0.7441442   , 0.00113553123, 0.00372617948, -1.07103252 , 0.55        , 23          , 12          , 0.035096392 , 0
-0.00600316375, -0.00445369445, -9.81403    , 0.00123553141, 0.006739316 , 0.00314174336, 0.4373939   , 0.806647062 , 0.74287945  , 0.001148005 , 0.003793537 , -1.071001   , 0.56        , 23          , 50          , 0           , 0
0.009277374 , -0.008356677, -9.809946   , 0.00123553141, 0.006739316 , 0.00314174336, 0.4375446   , 0.805813432 , 0.744984746 , 0.00116048113, 0.00386089459, -1.07096958 , 0.57        , 23          , 11          , 0.0210992675, 0.0210992247
-0.0005463292, 0.00030037947, -9.797707   , 0.00123553141, 0.006739316 , 0.00314174336, 0.438084751 , 0.806642354 , 0.743864238 , 0.00117295876, 0.00392825063, -1.07093835 , 0.58        , 23          , 12          , 0.035096392 , 0
-0.00410368666, 0.00396334752, -9.795879   , 0.00123553141, 0.006739316 , 0.00314174336, 0.437261373 , 0.8060926   , 0.7431595   , 0.00118543883, 0.00399560668, -1.07090688 , 0.59        , 23          , 50          , 0           , 0
0.0185970347, 0.008283831 , -9.816082   , 0.00111699186, 0.00640958128, 0.00314172031, 0.437261373 , 0.8060926   , 0.7431595   , 0.000576119637, 0.00233676867, -1.0708766  , 0.6         , 23          , 11          , 0.0201379247, 0.0201378763
0.0108791338, -0.0231876746, -9.825434   , 0.00111699186, 0.00640958128, 0.00314172031, 0.43781805  , 0.8060893   , 0.745126069 , 0.000587364135, 0.00240084622, -1.07084513 , 0.61        , 23          , 12          , 0.03534823  , 0
0.02596858  , -0.0108176414, -9.818942   , 0.00111699186, 0.00640958128, 0.00314172031, 0.437809855 , 0.8063664   , 0.7433018   , 0.0005986105, 0.00246492331, -1.07081389 , 0.62        , 23          , 50          , 0           , 0
0.01203743  , -0.00309119164, -9.795434   , 0.00111699186, 0.00640958128, 0.00314172031, 0.4372681   , 0.8059543   , 0.7448435   , 0.000609859 , 0.0025290004, -1.07078242 , 0.63        , 23          , 11          , 0.0201379247, 0.0201378763
0.004366608 , -0.0314111263, -9.80295    , 0.00111699186, 0.00640958128, 0.00314172031, 0.437951833 , 0.8059488   , 0.7437231   , 0.0006211097, 0.00259307725, -1.070751   , 0.64        , 23          , 12          , 0.03534823  , 0
-0.008834482, -0.009514429, -9.798279   , 0.00111699186, 0.00640958128, 0.00314172031, 0.437951833 , 0.8059488   , 0.7437231   , 0.000632362033, 0.00265715318, -1.07071948 , 0.65        , 23          , 50          , 0           , 0
5.055219E-06, 0.0036108417, -9.816192   , 0.00111699186, 0.00640958128, 0.00314172031, 0.437396944 , 0.806230366 , 0.7428793   , 0.000643616368, 0.00272122887, -1.070688   , 0.66        , 23          , 11          , 0.0201379247, 0.0201378763
-0.006017134, -0.00149426982, -9.78871    , 0.00111699186, 0.00640958128, 0.00314172031, 0.437406063 , 0.8059533   , 0.7449843   , 0.0006548729, 0.00278530386, -1.07065654 , 0.67        , 23          , 12          , 0.03534823  , 0
-0.001498945, -0.00456078537, -9.80995    , 0.00111699186, 0.00640958128, 0.00314172031, 0.438220829 , 0.8066412   , 0.743443668 , 0.0006661316, 0.00284938  , -1.07062507 , 0.68        , 23          , 50          , 0           , 0
-0.00198669964, -0.005954759, -9.804544   , 0.00111699186, 0.00640958128, 0.00314172031, 0.4374002   , 0.8063697   , 0.7441424   , 0.000677391945, 0.00291345455, -1.07059383 , 0.69        , 23          , 11          , 0.0201379247, 0.0201378763
0.0279482435, 0.002571404 , -9.800292   , 0.00111366494, 0.00625705533, 0.00314185675, 0.4374002   , 0.8063697   , 0.7441424   , 0.000674979645, 0.00236998964, -1.07056236 , 0.7         , 23          , 12          , 0.0356524847, 0
0.0181464925, 0.0108685065, -9.799347   , 0.00111366494, 0.00625705533, 0.00314185675, 0.438227683 , 0.806224942 , 0.7445662   , 0.0006861919, 0.00243253866, -1.07053089 , 0.71        , 23          , 50          , 0           , 0
0.000958961842, 0.0114794746, -9.784499   , 0.00111366494, 0.00625705533, 0.00314185675, 0.437805474 , 0.8066439   , 0.7426002   , 0.000697406067, 0.00249508768, -1.07049942 , 0.72        , 23          , 11          , 0.0159985088, 0.0159984529
0.0065304637, -0.007573986, -9.789623   , 0.00111366494, 0.00625705533, 0.00314185675, 0.4372656   , 0.8062321   , 0.744703233 , 0.000708622159, 0.002557636 , -1.070468   , 0.73        , 23          , 12          , 0.0356524847, 0
0.0145358061, -0.0170987938, -9.802782   , 0.00111366494, 0.00625705533, 0.00314185675, 0.438219815 , 0.8067801   , 0.7434437   , 0.0007198401, 0.002620184 , -1.07043648 , 0.74        , 23          , 50          , 0           , 0
0.00351873972, -0.001905812, -9.812616   , 0.00111366494, 0.00625705533, 0.00314185675, 0.437260777 , 0.8063705   , 0.7435806   , 0.000731060165, 0.002682732 , -1.070405   , 0.75        , 23          , 11          , 0.0159985088, 0.0159984529
0.000896156242, 0.00484592468, -9.803079   , 0.00111366494, 0.00625705533, 0.00314185675, 0.437260777 , 0.8063705   , 0.7435806   , 0.000742282369, 0.00274527934, -1.07037377 , 0.76        , 23          , 12          , 0.0356524847, 0
0.006686724 , -0.004078772, -9.829789   , 0.00111366494, 0.00625705533, 0.00314185675, 0.437955081 , 0.8060882   , 0.744986236 , 0.0007535062, 0.002807827 , -1.0703423  , 0.77        , 23          , 50          , 0           , 0
-0.00209282665, -0.0140118226, -9.815007   , 0.00111366494, 0.00625705533, 0.00314185675, 0.4375288   , 0.8070628   , 0.7430205   , 0.0007647323, 0.00287037273, -1.07031083 , 0.78        , 23          , 11          , 0.0159985088, 0.0159984529
0.007918475 , -0.006632354, -9.796837   , 0.00111366494, 0.00625705533, 0.00314185675, 0.4371317   , 0.8056775   , 0.7445622   , 0.0007759602, 0.00293291965, -1.07027936 , 0.79        , 23          , 12          , 0.0356524847, 0
0.0131675173, -0.0196945872, -9.814553   , 0.00110344717, 0.00603417633, 0.00314202881, 0.437949866 , 0.8060877   , 0.7434425   , 0.0007542445, 0.002288642 , -1.07024789 , 0.8         , 23          , 50          , 0           , 0
0.00606947625, -0.0105999336, -9.805913   , 0.00110344717, 0.00603417633, 0.00314202881, 0.437949866 , 0.8060877   , 0.7434425   , 0.0007653518, 0.00234896  , -1.07021642 , 0.81        , 23          , 11          , 0.0146848345, 0.0146847758
-0.00178973842, -0.0222093  , -9.809211   , 0.00110344717, 0.00603417633, 0.00314202881, 0.437532961 , 0.8063682   , 0.7427395   , 0.000776461267, 0.00240927748, -1.070185   , 0.82        , 23          , 12          , 0.0360074267, 0
-0.008030493, -0.01456032 , -9.791548   , 0.00110344717, 0.00603417633, 0.00314202881, 0.437266618 , 0.8060932   , 0.744703233 , 0.000787572353, 0.00246959482, -1.07015347 , 0.83        , 23          , 50          , 0           , 0
-0.002939431, -0.00952911749, -9.808195   , 0.00110344717, 0.00603417633, 0.00314202881, 0.437945873 , 0.80650425  , 0.743162    , 0.0007986854, 0.0025299117, -1.070122   , 0.84        , 23          , 11          , 0.0146848345, 0.0146847758
0.0230442   , 0.00284847058, -9.824245   , 0.00110344717, 0.00603417633, 0.00314202881, 0.436989367 , 0.805816948 , 0.7434391   , 0.000809800462, 0.00259022741, -1.07009053 , 0.85        , 23          , 12          , 0.0360074267, 0
0.0244218484, -0.0225562416, -9.81905651 , 0.00110344717, 0.00603417633, 0.00314202881, 0.436989367 , 0.805816948 , 0.7434391   , 0.000820917 , 0.00265054335, -1.07005906 , 0.86        , 23          , 50          , 0           , 0
0.007440787 , -0.0351664871, -9.792586   , 0.00110344717, 0.00603417633, 0.00314202881, 0.437674254 , 0.8063676   , 0.7438627   , 0.000832036 , 0.00271085929, -1.07002759 , 0.87        , 23          , 11          , 0.0146848345, 0.0146847758
-0.0120626874, -0.0122506637, -9.789283   , 0.00110344717, 0.00603417633, 0.00314202881, 0.4373895   , 0.806924641 , 0.7421779   , 0.000843156537, 0.002771175 , -1.06999612 , 0.88        , 23          , 12          , 0.0360074267, 0
0.006175168 , 0.02205326  , -9.815096   , 0.00110344717, 0.00603417633, 0.00314202881, 0.43712464  , 0.806510746 , 0.7442818   , 0.000854279147, 0.00283149  , -1.06996465 , 0.89        , 23          , 50          , 0           , 0
0.007285854 , -0.0204958878, -9.815486   , 0.00104430143, 0.005992104 , 0.00314188818, 0.438082457 , 0.8065031   , 0.7428818   , 0.00071637315, 0.002785972 , -1.06993365 , 0.9         , 23          , 11          , 0.0123553183, 0.01235527
0.0144455293, -0.02296069 , -9.805094   , 0.00104430143, 0.005992104 , 0.00314188818, 0.437125    , 0.8058157   , 0.7428782   , 0.0007269048, 0.00284587033, -1.06990218 , 0.91        , 23          , 12          , 0.0364111736, 0
0.03221356  , -0.0133046359, -9.804037   , 0.00104430143, 0.005992104 , 0.00314188818, 0.437125    , 0.8058157   , 0.7428782   , 0.000737438 , 0.00290576881, -1.06987071 , 0.92        , 23          , 50          , 0           , 0
0.0171949342, 0.00729784044, -9.803449   , 0.00104430143, 0.005992104 , 0.00314188818, 0.4375437   , 0.8058134   , 0.744704068 , 0.000747973449, 0.00296566659, -1.06983924 , 0.93        , 23          , 11          , 0.0123553183, 0.01235527
0.00139506487, 0.0041297134, -9.827023   , 0.00104430143, 0.005992104 , 0.00314188818, 0.4373905   , 0.8067857   , 0.742177844 , 0.000758510432, 0.003025564 , -1.06980777 , 0.94        , 23          , 12          , 0.0364111736, 0
0.005723336 , 0.0216304865, -9.817811   , 0.00104430143, 0.005992104 , 0.00314188818, 0.43685627  , 0.8055404   , 0.7441402   , 0.0007690496, 0.00308546168, -1.06977654 , 0.95        , 23          , 50          , 0           , 0
0.0007629078, -0.00200932659, -9.79456    , 0.00104430143, 0.005992104 , 0.00314188818, 0.437945    , 0.8063651   , 0.74260056  , 0.000779590744, 0.00314535759, -1.06974506 , 0.96        , 23          , 11          , 0.0123553183, 0.01235527
0.0214923024, -0.008048264, -9.816674   , 0.00104430143, 0.005992104 , 0.00314188818, 0.437945    , 0.8063651   , 0.74260056  , 0.0007901336, 0.00320525421, -1.06971383 , 0.97        , 23          , 12          , 0.0364111736, 0
-0.00835717749, -0.009440521, -9.808213   , 0.00104430143, 0.005992104 , 0.00314188818, 0.43698     , 0.806511    , 0.7421763   , 0.0008006782, 0.00326515059, -1.06968236 , 0.98        , 23          , 50          , 0           , 0
0.00419582473, -0.0146451266, -9.805507   , 0.00104430143, 0.005992104 , 0.00314188818, 0.437267721 , 0.8058153   , 0.744422436 , 0.0008112249, 0.00332504651, -1.06965089 , 0.99        , 23          , 11          , 0.0123553183, 0.01235527
0.0414768681, -0.00113205612, -9.81699    , 0.00108100777, 0.0058368477, 0.00314213545, 0.437532961 , 0.8063682   , 0.7427395   , 0.0009008641, 0.00304908026, -1.06961918 , 1           , 23          , 12          , 0.03686173  , 0
0.0134767434, 0.0018734429, -9.796737   , 0.00108100777, 0.0058368477, 0.00314213545, 0.4369899   , 0.805678    , 0.7432987   , 0.0009117711, 0.00310742087, -1.069588   , 1.01        , 23          , 50          , 0           , 0
0.00448157033, 0.00255844183, -9.807152   , 0.00108100777, 0.0058368477, 0.00314213545, 0.4369899   , 0.805678    , 0.7432987   , 0.0009226799, 0.00316575984, -1.06955647 , 1.02        , 23          , 11          , 0.0125000272, 0.0124999573
0.0146949971, -0.00715847872, -9.801333   , 0.00108100777, 0.0058368477, 0.00314213545, 0.437538445 , 0.8058128   , 0.7431603   , 0.0009335905, 0.0032241   , -1.069525   , 1.03        , 23          , 12          , 0.03686173  , 0
0.0180834532, 0.002518    , -9.829235   , 0.00108100777, 0.0058368477, 0.00314213545, 0.437113583 , 0.8067875   , 0.741615534 , 0.0009445031, 0.00328243873, -1.06949353 , 1.04        , 23          , 50          , 0           , 0
-0.00974225253, -0.0125182085, -9.816378   , 0.00108100777, 0.0058368477, 0.00314213545, 0.437125236 , 0.80623275  , 0.7438607   , 0.000955417 , 0.00334077748, -1.06946206 , 1.05        , 23          , 11          , 0.0125000272, 0.0124999573
0.0111716874, -0.00338834338, -9.812603   , 0.00108100777, 0.0058368477, 0.00314213545, 0.437808573 , 0.8060882   , 0.7423193   , 0.0009663333, 0.00339911552, -1.06943059 , 1.06        , 23          , 12          , 0.03686173  , 0
0.003339154 , 0.01697775  , -9.797538   , 0.00108100777, 0.0058368477, 0.00314213545, 0.437124521 , 0.805815637 , 0.7427379   , 0.0009772511, 0.00345745357, -1.06939936 , 1.07        , 23          , 50          , 0           , 0
0.00259746937, -0.00280680321, -9.811275   , 0.00108100777, 0.0058368477, 0.00314213545, 0.437124521 , 0.805815637 , 0.7427379   , 0.0009881706, 0.00351579161, -1.06936789 , 1.08        , 23          , 11          , 0.0125000272, 0.0124999573
0.0198132936, -0.000325322151, -9.81705952 , 0.00108100777, 0.0058368477, 0.00314213545, 0.4369908   , 0.805817068 , 0.7438601   , 0.0009990922, 0.00357412826, -1.06933641 , 1.09        , 23          , 12          , 0.03686173  , 0
0.011824267 , 0.0105380155, -9.801631   , 0.00105924672, 0.005801723 , 0.003142096 , 0.4372536   , 0.8065088   , 0.7417562   , 0.000967799569, 0.00356446952, -1.06930518 , 1.1         , 23          , 50          , 0           , 0
0.019295251 , -0.00438896753, -9.817099   , 0.00105924672, 0.005801723 , 0.003142096 , 0.436713874 , 0.8058189   , 0.7432978   , 0.0009785051, 0.003622456 , -1.06927371 , 1.11        , 23          , 11          , 0.0122807343, 0.012280656
0.007962618 , -0.00563529134, -9.808119   , 0.00105924672, 0.005801723 , 0.003142096 , 0.4373966   , 0.8059523   , 0.742177546 , 0.0009892125, 0.003680443 , -1.06924224 , 1.12        , 23          , 12          , 0.0373570248, 0
0.005344142 , -0.001015896, -9.814409   , 0.00105924672, 0.005801723 , 0.003142096 , 0.4373966   , 0.8059523   , 0.742177546 , 0.0009999219, 0.00373842823, -1.06921077 , 1.13        , 23          , 50          , 0           , 0
0.0215792917, -0.000480491668, -9.801699   , 0.00105924672, 0.005801723 , 0.003142096 , 0.437116623 , 0.8063708   , 0.741615355 , 0.00101063284, 0.00379641424, -1.06917953 , 1.14        , 23          , 11          , 0.0122807343, 0.012280656
0.00338420365, -0.0117685292, -9.823548   , 0.00105924672, 0.005801723 , 0.003142096 , 0.436989218 , 0.806094944 , 0.744000554 , 0.0010213455, 0.00385440025, -1.06914806 , 1.15        , 23          , 12          , 0.0373570248, 0
0.0201194342, -0.00765507668, -9.806738   , 0.00105924672, 0.005801723 , 0.003142096 , 0.4373926   , 0.8063689   , 0.741897    , 0.00103206036, 0.003912384 , -1.06911659 , 1.16        , 23          , 50          , 0           , 0
0.0361065529, 0.00253827684, -9.812457   , 0.00105924672, 0.005801723 , 0.003142096 , 0.437125444 , 0.805815756 , 0.743018568 , 0.00104277686, 0.00397036877, -1.06908512 , 1.17        , 23          , 11          , 0.0122807343, 0.012280656
0.0308091436, 0.009441482 , -9.816027   , 0.00105924672, 0.005801723 , 0.003142096 , 0.437125444 , 0.805815756 , 0.743018568 , 0.0010534951, 0.00402835337, -1.06905365 , 1.18        , 23          , 12          , 0.0373570248, 0
0.0176580064, -0.0237064175, -9.830835   , 0.00105924672, 0.005801723 , 0.003142096 , 0.437674433 , 0.8059506   , 0.743020535 , 0.0010642152, 0.004086337 , -1.06902242 , 1.19        , 23          , 50          , 0           , 0
0.0229506344, -0.00130754709, -9.813896   , 0.00107926526, 0.005767775 , 0.00314219319, 0.436977237 , 0.80637157  , 0.7410535   , 0.00111106411, 0.004082904 , -1.06899047 , 1.2         , 23          , 11          , 0.0126215592, 0.0126214651
0.030946    , -0.008718472, -9.808968   , 0.00107926526, 0.005767775 , 0.00314219319, 0.436577857 , 0.8056811   , 0.7434376   , 0.00112198631, 0.00414054655, -1.06895924 , 1.21        , 23          , 12          , 0.03789492  , 0
0.0440334752, -0.009807702, -9.812544   , 0.00107926526, 0.005767775 , 0.00314219319, 0.437804639 , 0.8063658   , 0.741758049 , 0.00113290991, 0.004198189 , -1.06892776 , 1.22        , 23          , 50          , 0           , 0
0.0141775431, -0.0133655528, -9.815846   , 0.00107926526, 0.005767775 , 0.00314219319, 0.4372571   , 0.806092143 , 0.741896451 , 0.001143836 , 0.00425583264, -1.06889653 , 1.23        , 23          , 11          , 0.0126215592, 0.0126214651
0.0274272636, 0.000643810257, -9.784954   , 0.00107926526, 0.005767775 , 0.00314219319, 0.4372571   , 0.806092143 , 0.741896451 , 0.00115476339, 0.00431347359, -1.06886506 , 1.24        , 23          , 12          , 0.03789492  , 0
0.0172740612, 0.0109793507, -9.811092   , 0.00107926526, 0.005767775 , 0.00314219319, 0.4369888   , 0.8059558   , 0.7435795   , 0.00116569269, 0.004371115 , -1.06883359 , 1.25        , 23          , 50          , 0           , 0
0.0213999078, -0.01220059 , -9.806775   , 0.00107926526, 0.005767775 , 0.00314219319, 0.4369787   , 0.80623275  , 0.7411938   , 0.00117662386, 0.00442875549, -1.06880212 , 1.26        , 23          , 11          , 0.0126215592, 0.0126214651
0.0274027288, -0.00501116 , -9.812559   , 0.00107926526, 0.005767775 , 0.00314219319, 0.436573833 , 0.8060977   , 0.7431571   , 0.00118755689, 0.00448639644, -1.06877065 , 1.27        , 23          , 12          , 0.03789492  , 0
-0.004256768, -0.008532092, -9.816772   , 0.00107926526, 0.005767775 , 0.00314219319, 0.437667549 , 0.8065059   , 0.7421787   , 0.00119849155, 0.004544037 , -1.06873918 , 1.28        , 23          , 50          , 0           , 0
-0.00639844174, -0.0267216451, -9.801592   , 0.00107926526, 0.005767775 , 0.00314219319, 0.437667549 , 0.8065059   , 0.7421787   , 0.001209428 , 0.00460167648, -1.0687077  , 1.29        , 23          , 11          , 0.0126215592, 0.0126214651
-0.000416402239, -0.0191685576, -9.796532   , 0.00131946837, 0.004939339 , 0.0031438556, 0.43683964  , 0.806511641 , 0.7413338   , 0.001636743 , 0.00321678119, -1.0686748  , 1.3         , 23          , 12          , 0.03847326  , 0
0.0155351479, -0.01380679 , -9.81991    , 0.00131946837, 0.004939339 , 0.0031438556, 0.436987847 , 0.805955768 , 0.7432988   , 0.00165003969, 0.00326612242, -1.06864333 , 1.31        , 23          , 50          , 0           , 0
0.008455537 , -0.00508317351, -9.821211   , 0.00131946837, 0.004939339 , 0.0031438556, 0.4375291   , 0.8065068   , 0.7418975   , 0.00166333793, 0.00331546366, -1.06861186 , 1.32        , 23          , 11          , 0.013144942 , 0.0131448321
0.0431474261, -0.006307276, -9.796255   , 0.00131946837, 0.004939339 , 0.0031438556, 0.436574966 , 0.80581975  , 0.7428763   , 0.001676638 , 0.00336480443, -1.06858039 , 1.33        , 23          , 12          , 0.03847326  , 0
0.0176961571, -0.01715048 , -9.802771   , 0.00131946837, 0.004939339 , 0.0031438556, 0.436574966 , 0.80581975  , 0.7428763   , 0.00168993964, 0.00341414474, -1.06854868 , 1.34        , 23          , 50          , 0           , 0
-0.01041667 , -0.0230808426, -9.796152   , 0.00131946837, 0.004939339 , 0.0031438556, 0.43739295  , 0.806646943 , 0.7425988   , 0.001703243 , 0.00346348481, -1.068517   , 1.35        , 23          , 11          , 0.013144942 , 0.0131448321
0.00192786346, -0.0146414638, -9.801449   , 0.00131946837, 0.004939339 , 0.0031438556, 0.436976135 , 0.8066495   , 0.7413343   , 0.00171654753, 0.00351282419, -1.0684855  , 1.36        , 23          , 12          , 0.03847326  , 0
0.00314365583, -0.02668454 , -9.825043   , 0.00131946837, 0.004939339 , 0.0031438556, 0.4368509   , 0.805817842 , 0.7431579   , 0.0017298538, 0.00356216356, -1.068454   , 1.37        , 23          , 50          , 0           , 0
0.0165782459, -0.0336873978, -9.825512   , 0.00131946837, 0.004939339 , 0.0031438556, 0.437662452 , 0.8072004   , 0.742179    , 0.0017431617, 0.00361150224, -1.06842232 , 1.38        , 23          , 11          , 0.013144942 , 0.0131448321
0.003625338 , 0.00529461727, -9.808033   , 0.00131946837, 0.004939339 , 0.0031438556, 0.436706483 , 0.8063741   , 0.7423156   , 0.00175647123, 0.00366084045, -1.06839061 , 1.39        , 23          , 12          , 0.03847326  , 0
0.0178838763, -0.00669131428, -9.809448   , 0.00120896869, 0.00478053559, 0.00314363255, 0.436706483 , 0.8063741   , 0.7423156   , 0.00158461288, 0.00344478735, -1.06835961 , 1.4         , 23          , 50          , 0           , 0
0.000640112 , -0.011835089, -9.81001    , 0.00120896869, 0.00478053559, 0.00314363255, 0.4369863   , 0.806233644 , 0.7434392   , 0.00159681181, 0.00349254254, -1.06832814 , 1.41        , 23          , 11          , 0.0118678259, 0.0118677374
-0.014486867, -0.0005838629, -9.827574   , 0.00120896869, 0.00478053559, 0.00314363255, 0.436978042 , 0.806649745 , 0.7418957   , 0.00160901214, 0.003540297 , -1.06829667 , 1.42        , 23          , 12          , 0.0390898958, 0
-0.009030502, 0.000736271963, -9.833866   , 0.00120896869, 0.00478053559, 0.00314363255, 0.4368498   , 0.8060958   , 0.7434387   , 0.00162121374, 0.00358805177, -1.0682652  , 1.43        , 23          , 50          , 0           , 0
0.00767737534, 0.00433457829, -9.809383   , 0.00120896869, 0.00478053559, 0.00314363255, 0.4376675   , 0.806644857 , 0.7424594   , 0.00163341768, 0.00363580557, -1.06823373 , 1.44        , 23          , 11          , 0.0118678259, 0.0118677374
-0.008325359, -0.0106275454, -9.829001   , 0.00120896869, 0.00478053559, 0.00314363255, 0.4376675   , 0.806644857 , 0.7424594   , 0.00164562289, 0.0036835596, -1.06820226 , 1.45        , 23          , 12          , 0.0390898958, 0
0.0242994353, -0.0039217677, -9.828821   , 0.00120896869, 0.00478053559, 0.00314363255, 0.436838567 , 0.8067895   , 0.7416146   , 0.00165782939, 0.003731313 , -1.06817055 , 1.46        , 23          , 50          , 0           , 0
0.0303687826, -0.01640081 , -9.809041   , 0.00120896869, 0.00478053559, 0.00314363255, 0.436987072 , 0.806650758 , 0.7445621   , 0.00167003763, 0.003779066 , -1.06813884 , 1.47        , 23          , 11          , 0.0118678259, 0.0118677374
0.020601321 , -0.00627958355, -9.809885   , 0.00120896869, 0.00478053559, 0.00314363255, 0.437530518 , 0.806506932 , 0.7423185   , 0.00168224727, 0.0038268175, -1.06810737 , 1.48        , 23          , 12          , 0.0390898958, 0
0.006594093 , -0.005657483, -9.802705   , 0.00120896869, 0.00478053559, 0.00314363255, 0.436708242 , 0.806652367 , 0.7434384   , 0.00169445854, 0.00387457  , -1.06807566 , 1.49        , 23          , 50          , 0           , 0
-0.0144644808, -0.02124939 , -9.79073    , 0.00108382653, 0.004420335 , 0.00314361462, 0.436708242 , 0.806652367 , 0.7434384   , 0.0015007481, 0.003332241 , -1.0680449  , 1.5         , 23          , 11          , 0.0120783187, 0.012078221
-0.01237634 , -0.008377014, -9.81950951 , 0.00108382653, 0.004420335 , 0.00314361462, 0.43766883  , 0.806784034 , 0.743161142 , 0.00151169207, 0.0033763973, -1.06801343 , 1.51        , 23          , 12          , 0.0397426933, 0
0.00964972749, -0.0163361374, -9.830796   , 0.00108382653, 0.004420335 , 0.00314361462, 0.436837465 , 0.807067454 , 0.7418954   , 0.00152263732, 0.003420553 , -1.067982   , 1.52        , 23          , 50          , 0           , 0
0.00541795557, -0.0232357979, -9.808743   , 0.00108382653, 0.004420335 , 0.00314361462, 0.4368501   , 0.806512833 , 0.744421244 , 0.00153358385, 0.003464708 , -1.06795049 , 1.53        , 23          , 11          , 0.0120783187, 0.012078221
0.0159703046, -0.0108621381, -9.793686   , 0.00108382653, 0.004420335 , 0.00314361462, 0.437394917 , 0.8065082   , 0.7428794   , 0.00154453213, 0.00350886281, -1.067919   , 1.54        , 23          , 12          , 0.0397426933, 0
0.00560805341, 0.0152608212, -9.813353   , 0.00108382653, 0.004420335 , 0.00314361462, 0.436572343 , 0.8062365   , 0.743016839 , 0.00155548123, 0.00355301751, -1.06788731 , 1.55        , 23          , 50          , 0           , 0
0.0129261818, -0.006154058, -9.809913   , 0.00108382653, 0.004420335 , 0.00314361462, 0.436572343 , 0.8062365   , 0.743016839 , 0.00156643207, 0.003597171 , -1.06785583 , 1.56        , 23          , 11          , 0.0120783187, 0.012078221
0.0108817182, -0.0214633159, -9.81503    , 0.00108382653, 0.004420335 , 0.00314361462, 0.4369891   , 0.806372941 , 0.744562    , 0.00157738442, 0.00364132528, -1.0678246  , 1.57        , 23          , 12          , 0.0397426933, 0
0.0192094315, -0.00766247837, -9.804032   , 0.00108382653, 0.004420335 , 0.00314361462, 0.437119    , 0.806371033 , 0.742317    , 0.00158833817, 0.00368547812, -1.06779289 , 1.58        , 23          , 50          , 0           , 0
0.0165444687, -0.008338099, -9.826631   , 0.00108382653, 0.004420335 , 0.00314361462, 0.436298162 , 0.8065167   , 0.743858    , 0.00159929309, 0.00372963143, -1.06776142 , 1.59        , 23          , 11          , 0.0120783187, 0.012078221
0.01900892  , -0.023739662, -9.829475   , 0.0010715205, 0.004386646 , 0.00314361  , 0.437121361 , 0.806371331 , 0.743018746 , 0.001590279 , 0.00371936313, -1.06773    , 1.6         , 23          , 12          , 0.04042955  , 0
0.0195358843, -0.0144992508, -9.798675   , 0.0010715205, 0.004386646 , 0.00314361  , 0.437121361 , 0.806371331 , 0.743018746 , 0.00160111219, 0.003763179 , -1.06769824 , 1.61        , 23          , 50          , 0           , 0
0.0182489511, -0.0121193416, -9.8104     , 0.0010715205, 0.004386646 , 0.00314361  , 0.4367059   , 0.806652069 , 0.742736757 , 0.0016119472, 0.0038069943, -1.06766677 , 1.62        , 23          , 11          , 0.0116049331, 0.0116048446
0.0215457175, -0.00573485531, -9.822976   , 0.0010715205, 0.004386646 , 0.00314361  , 0.4367104   , 0.8070696   , 0.744982362 , 0.0016227829, 0.00385081  , -1.0676353  , 1.63        , 23          , 12          , 0.04042955  , 0
0.0238177851, -0.003580289, -9.814365   , 0.0010715205, 0.004386646 , 0.00314361  , 0.437390834 , 0.807063758 , 0.7428796   , 0.00163362012, 0.003894625 , -1.06760335 , 1.64        , 23          , 50          , 0           , 0
0.0275157839, 6.431341E-05, -9.824707   , 0.0010715205, 0.004386646 , 0.00314361  , 0.436574131 , 0.80651474  , 0.7441396   , 0.00164445885, 0.00393844023, -1.06757188 , 1.65        , 23          , 11          , 0.0116049331, 0.0116048446
0.02403145  , 0.00996393  , -9.811077   , 0.0010715205, 0.004386646 , 0.00314361  , 0.436574131 , 0.80651474  , 0.7441396   , 0.00165529887, 0.003982255 , -1.06754041 , 1.66        , 23          , 12          , 0.04042955  , 0
-0.000173037872, -0.005101785, -9.80182    , 0.0010715205, 0.004386646 , 0.00314361  , 0.437128216 , 0.805955052 , 0.74414134  , 0.00166614074, 0.00402606837, -1.06750894 , 1.67        , 23          , 50          , 0           , 0
0.0103500858, 0.00160212256, -9.812559   , 0.0010715205, 0.004386646 , 0.00314361  , 0.436700374 , 0.807207465 , 0.742315948 , 0.00167698378, 0.00406988245, -1.06747723 , 1.68        , 23          , 11          , 0.0116049331, 0.0116048446
0.0283797663, -0.001789363, -9.821108   , 0.0010715205, 0.004386646 , 0.00314361  , 0.436712533 , 0.806652844 , 0.7447015   , 0.001687828 , 0.004113696 , -1.06744552 , 1.69        , 23          , 12          , 0.04042955  , 0
0.007675698 , -0.0228425488, -9.806021   , 0.00103783654, 0.004359174 , 0.003143517 , 0.4376683   , 0.806923032 , 0.7433016   , 0.00164401892, 0.00411307625, -1.067414   , 1.7         , 23          , 50          , 0           , 0
0.00645345356, -0.01725564 , -9.822686   , 0.00103783654, 0.004359174 , 0.003143517 , 0.436985821 , 0.8062336   , 0.7432989   , 0.00165452762, 0.00415661652, -1.06738257 , 1.71        , 23          , 11          , 0.0121847009, 0.0121845976
0.02221435  , -0.0202169921, -9.824012   , 0.00103783654, 0.004359174 , 0.003143517 , 0.436985821 , 0.8062336   , 0.7432989   , 0.00166503771, 0.004200156 , -1.0673511  , 1.72        , 23          , 12          , 0.04114843  , 0
0.02461802  , -0.00606367 , -9.789093   , 0.00103783654, 0.004359174 , 0.003143517 , 0.437128633 , 0.80609417  , 0.7445624   , 0.00167554943, 0.00424369564, -1.06731963 , 1.73        , 23          , 50          , 0           , 0
0.02960471  , -0.006938711, -9.802633   , 0.00103783654, 0.004359174 , 0.003143517 , 0.436841846 , 0.806928933 , 0.742877662 , 0.00168606231, 0.00428723451, -1.06728816 , 1.74        , 23          , 11          , 0.0121847009, 0.0121845976
0.0133052263, -0.0102509521, -9.807691   , 0.00103783654, 0.004359174 , 0.003143517 , 0.436439127 , 0.806238    , 0.7442794   , 0.00169657671, 0.00433077244, -1.06725669 , 1.75        , 23          , 12          , 0.04114843  , 0
0.0140074659, 0.00426077656, -9.812974   , 0.00103783654, 0.004359174 , 0.003143517 , 0.437394768 , 0.8067862   , 0.743440866 , 0.00170709181, 0.004374312 , -1.067225   , 1.76        , 23          , 50          , 0           , 0
0.0302992817, -0.0183358  , -9.793703   , 0.00103783654, 0.004359174 , 0.003143517 , 0.437394768 , 0.8067862   , 0.743440866 , 0.00171760912, 0.00441784924, -1.06719327 , 1.77        , 23          , 11          , 0.0121847009, 0.0121845976
0.0126696685, -0.0219784472, -9.810964   , 0.00103783654, 0.004359174 , 0.003143517 , 0.4365654   , 0.8069308   , 0.7424557   , 0.00172812759, 0.004461387 , -1.0671618  , 1.78        , 23          , 12          , 0.04114843  , 0
0.008838222 , -0.0104557816, -9.828937   , 0.00103783654, 0.004359174 , 0.003143517 , 0.4367149   , 0.8066531   , 0.7454032   , 0.00173864712, 0.004504924 , -1.06713033 , 1.79        , 23          , 50          , 0           , 0
-0.001992099, -0.006829869, -9.808166   , 0.00102584541, 0.00429450534, 0.003143561 , 0.4372553   , 0.806926    , 0.7431598   , 0.00172928756, 0.004442249 , -1.06709886 , 1.8         , 23          , 11          , 0.0127339186, 0.0127338031
0.009190617 , -0.0142074879, -9.813615   , 0.00102584541, 0.00429450534, 0.003143561 , 0.436571628 , 0.806792438 , 0.743999362 , 0.00173968682, 0.004485141 , -1.06706738 , 1.81        , 23          , 12          , 0.0418973565, 0
0.00620472152, -0.00416745245, -9.81804848 , 0.00102584541, 0.00429450534, 0.003143561 , 0.436571628 , 0.806792438 , 0.743999362 , 0.00175008737, 0.00452803075, -1.06703591 , 1.82        , 23          , 50          , 0           , 0
0.02198616  , -0.00491885655, -9.81303    , 0.00102584541, 0.00429450534, 0.003143561 , 0.437122136 , 0.806788445 , 0.744141638 , 0.00176048942, 0.00457092049, -1.0670042  , 1.83        , 23          , 11          , 0.0127339186, 0.0127338031
0.004046526 , 0.00261754729, -9.813477   , 0.00102584541, 0.00429450534, 0.003143561 , 0.436562747 , 0.807486534 , 0.742876947 , 0.00177089253, 0.00461381068, -1.06697249 , 1.84        , 23          , 12          , 0.0418973565, 0
0.02426492  , -0.00317229331, -9.809844   , 0.00102584541, 0.00429450534, 0.003143561 , 0.436299384 , 0.8069339   , 0.7451212   , 0.0017812975, 0.00465669949, -1.066941   , 1.85        , 23          , 50          , 0           , 0
0.025074549 , -0.00991668552, -9.816678   , 0.00102584541, 0.00429450534, 0.003143561 , 0.4371177   , 0.807066    , 0.743440032 , 0.00179170351, 0.004699589 , -1.06690955 , 1.86        , 23          , 11          , 0.0127339186, 0.0127338031
0.0162490085, 0.006319251 , -9.792622   , 0.00102584541, 0.00429450534, 0.003143561 , 0.4362981   , 0.8066557   , 0.7441387   , 0.00180211081, 0.004742477 , -1.06687808 , 1.87        , 23          , 12          , 0.0418973565, 0
0.0168156233, -0.0140617359, -9.791453   , 0.00102584541, 0.00429450534, 0.003143561 , 0.4362981   , 0.8066557   , 0.7441387   , 0.00181251974, 0.00478536636, -1.06684661 , 1.88        , 23          , 50          , 0           , 0
0.011874835 , -0.0186199527, -9.832615   , 0.00102584541, 0.00429450534, 0.003143561 , 0.436986446 , 0.8069287   , 0.744983256 , 0.0018229296, 0.00482825376, -1.0668149  , 1.89        , 23          , 11          , 0.0127339186, 0.0127338031
0.007812586 , -0.0172630064, -9.824488   , 0.00102716917, 0.00423251465, 0.003143658 , 0.437118262 , 0.8069271   , 0.743299663 , 0.00183537311, 0.00476704352, -1.06678319 , 1.9         , 23          , 12          , 0.042674426 , 0
0.0067234356, -0.0272735469, -9.815552   , 0.00102716917, 0.00423251465, 0.003143658 , 0.436436981 , 0.806793749 , 0.7448409   , 0.001845796 , 0.00480931066, -1.06675172 , 1.91        , 23          , 50          , 0           , 0
0.02029186  , -0.0252740122, -9.810515   , 0.00102716917, 0.00423251465, 0.003143658 , 0.436846167 , 0.806790352 , 0.74386     , 0.00185622007, 0.00485157827, -1.06672025 , 1.92        , 23          , 11          , 0.0133474953, 0.01334737
-7.63004646E-05, -0.00136484951, -9.816238   , 0.00102716917, 0.00423251465, 0.003143658 , 0.436846167 , 0.806790352 , 0.74386     , 0.0018666446, 0.004893844 , -1.06668878 , 1.93        , 23          , 12          , 0.042674426 , 0
-0.0284167249, 0.00585947931, -9.813113   , 0.00102716917, 0.00423251465, 0.003143658 , 0.436426163 , 0.807487667 , 0.743157148 , 0.00187707145, 0.004936111 , -1.0666573  , 1.94        , 23          , 50          , 0           , 0
0.00339664845, -0.0108712446, -9.822638   , 0.00102716917, 0.00423251465, 0.003143658 , 0.436439872 , 0.8066551   , 0.7454022   , 0.00188749947, 0.004978377 , -1.0666256  , 1.95        , 23          , 11          , 0.0133474953, 0.01334737
0.0213560015, -0.01577124 , -9.812681   , 0.00102716917, 0.00423251465, 0.003143658 , 0.437120229 , 0.8067882   , 0.7435803   , 0.00189792865, 0.005020642 , -1.06659412 , 1.96        , 23          , 12          , 0.042674426 , 0
0.02633506  , -0.0145250149, -9.809038   , 0.00102716917, 0.00423251465, 0.003143658 , 0.4362981   , 0.8066557   , 0.7441387   , 0.00190835935, 0.00506290747, -1.06656241 , 1.97        , 23          , 50          , 0           , 0
-0.0006879084, -0.0138750784, -9.834422   , 0.00102716917, 0.00423251465, 0.003143658 , 0.4362981   , 0.8066557   , 0.7441387   , 0.001918791 , 0.00510517228, -1.066531   , 1.98        , 23          , 11          , 0.0133474953, 0.01334737
-0.00367877143, -0.0250157211, -9.794338   , 0.00102716917, 0.00423251465, 0.003143658 , 0.437260538 , 0.8069266   , 0.744703531 , 0.00192922412, 0.005147436 , -1.06649947 , 1.99        , 23          , 12          , 0.042674426 , 0
0.02158795  , -0.02934133 , -9.81371    , 0.00109599682, 0.00363453338, 0.00314492034, 0.436291218 , 0.807072    , 0.7430162   , 0.002056434 , 0.004157369 , -1.06646681 , 2           , 23          , 50          , 0           , 0
0.0253280923, -0.019986324, -9.803221   , 0.00109599682, 0.00363453338, 0.00314492034, 0.436164379 , 0.806657135 , 0.745260954 , 0.00206752541, 0.00419364963, -1.06643534 , 2.01        , 23          , 11          , 0.0139800254, 0.0139798895
0.01935172  , -0.00120782107, -9.818877   , 0.00109599682, 0.00363453338, 0.00314492034, 0.4371197   , 0.8069272   , 0.743720651 , 0.00207861816, 0.004229929 , -1.06640363 , 2.02        , 23          , 12          , 0.04347781  , 0
0.008793728 , -0.0118829925, -9.820369   , 0.00109599682, 0.00363453338, 0.00314492034, 0.436157137 , 0.806934357 , 0.7437173   , 0.002089712 , 0.0042662085, -1.06637216 , 2.03        , 23          , 50          , 0           , 0
-0.007956293, -0.01261056 , -9.808692   , 0.00109599682, 0.00363453338, 0.00314492034, 0.436157137 , 0.806934357 , 0.7437173   , 0.00210080715, 0.004302488 , -1.06634045 , 2.04        , 23          , 11          , 0.0139800254, 0.0139798895
0.0132048521, -0.0170027334, -9.811819   , 0.00109599682, 0.00363453338, 0.00314492034, 0.436299384 , 0.8069339   , 0.7451212   , 0.00211190339, 0.004338767 , -1.06630874 , 2.05        , 23          , 12          , 0.04347781  , 0
0.00815761648, 0.00656300643, -9.806198   , 0.00109599682, 0.00363453338, 0.00314492034, 0.4365651   , 0.8074868   , 0.7435787   , 0.0021230008, 0.004375045 , -1.06627727 , 2.06        , 23          , 50          , 0           , 0
-0.00209220825, 0.0161653757, -9.798017   , 0.00109599682, 0.00363453338, 0.00314492034, 0.4360239   , 0.806935847 , 0.7449799   , 0.00213409984, 0.00441132346, -1.06624556 , 2.07        , 23          , 11          , 0.0139800254, 0.0139798895
0.0174783   , -0.00353605114, -9.807161   , 0.00109599682, 0.00363453338, 0.00314492034, 0.436985642 , 0.8066506   , 0.7441411   , 0.0021451998, 0.00444760127, -1.06621408 , 2.08        , 23          , 12          , 0.04347781  , 0
0.004216957 , -0.0145786107, -9.813635   , 0.00109599682, 0.00363453338, 0.00314492034, 0.436985642 , 0.8066506   , 0.7441411   , 0.00215630117, 0.00448387861, -1.06618237 , 2.09        , 23          , 50          , 0           , 0
-0.00163383456, -0.01485367 , -9.823595   , 0.00107210875, 0.00348828454, 0.00314506376, 0.436019272 , 0.8066573   , 0.743015051 , 0.002124545 , 0.00426113838, -1.0661509  , 2.1         , 23          , 11          , 0.0133847622, 0.0133846477
0.008809578 , -0.00968783 , -9.812218   , 0.00107210875, 0.00348828454, 0.00314506376, 0.436579764 , 0.8066544   , 0.7461044   , 0.002135401 , 0.00429595355, -1.06611943 , 2.11        , 23          , 12          , 0.04430578  , 0
0.005944568 , -0.018716123, -9.809151   , 0.00107210875, 0.00348828454, 0.00314506376, 0.436567545 , 0.8073481   , 0.7439996   , 0.002146258 , 0.00433076825, -1.06608748 , 2.12        , 23          , 50          , 0           , 0
0.0111894142, -0.0003291499, -9.799476   , 0.00107210875, 0.00348828454, 0.00314506376, 0.435886383 , 0.80693686  , 0.744979441 , 0.00215711584, 0.00436558342, -1.066056   , 2.13        , 23          , 11          , 0.0133847622, 0.0133846477
0.0107771475, -0.00105645135, -9.820261   , 0.00107210875, 0.00348828454, 0.00314506376, 0.435886383 , 0.80693686  , 0.744979441 , 0.0021679746, 0.00440039765, -1.06602454 , 2.14        , 23          , 12          , 0.04430578  , 0
0.00315542729, 0.00138247386, -9.82659    , 0.00107210875, 0.00348828454, 0.00314506376, 0.43671456  , 0.806375    , 0.7447014   , 0.00217883522, 0.004435212 , -1.06599283 , 2.15        , 23          , 50          , 0           , 0
0.00290982984, -0.009687923, -9.800496   , 0.00107210875, 0.00348828454, 0.00314506376, 0.436288178 , 0.8074887   , 0.743016362 , 0.00218969677, 0.00447002565, -1.06596112 , 2.16        , 23          , 11          , 0.0133847622, 0.0133846477
0.007927163 , -0.00746312 , -9.805878   , 0.00107210875, 0.00348828454, 0.00314506376, 0.435613662 , 0.8070782   , 0.7459609   , 0.00220055925, 0.00450483942, -1.06592965 , 2.17        , 23          , 12          , 0.04430578  , 0
0.0258724336, -0.0166980159, -9.818997   , 0.00107210875, 0.00348828454, 0.00314506376, 0.4369806   , 0.807206035 , 0.743860662 , 0.002211423 , 0.00453965226, -1.06589818 , 2.18        , 23          , 50          , 0           , 0
0.0145014115, -0.0219266862, -9.820894   , 0.00107210875, 0.00348828454, 0.00314506376, 0.436022073 , 0.8067966   , 0.7441378   , 0.00222228747, 0.00457446557, -1.06586647 , 2.19        , 23          , 11          , 0.0133847622, 0.0133846477
0.0128314439, -0.0146043375, -9.827606   , 0.00107253517, 0.00341106858, 0.0031452002, 0.436022073 , 0.8067966   , 0.7441378   , 0.00223362213, 0.00446845824, -1.06583476 , 2.2         , 23          , 12          , 0.04515668  , 0
0.0312799625, -0.0206802785, -9.840694   , 0.00107253517, 0.00341106858, 0.0031452002, 0.4360258   , 0.8069361   , 0.7455413   , 0.00224448927, 0.00450249761, -1.06580329 , 2.21        , 23          , 50          , 0           , 0
0.009138728 , -0.016087044, -9.80505    , 0.00107253517, 0.00341106858, 0.0031452002, 0.436428666 , 0.8072099   , 0.7432974   , 0.00225535734, 0.004536537 , -1.06577182 , 2.22        , 23          , 11          , 0.013722403 , 0.0137222856
0.0181272421, 0.00737545639, -9.814736   , 0.00107253517, 0.00341106858, 0.0031452002, 0.435749829 , 0.806938    , 0.745259643 , 0.002266226 , 0.004570577 , -1.06573987 , 2.23        , 23          , 12          , 0.04515668  , 0
0.0107421633, -0.0037409158, -9.8239     , 0.00107253517, 0.00341106858, 0.0031452002, 0.43712008  , 0.807066262 , 0.744141757 , 0.0022770965, 0.00460461574, -1.0657084  , 2.24        , 23          , 50          , 0           , 0
0.026726203 , -0.0181547832, -9.808619   , 0.00107253517, 0.00341106858, 0.0031452002, 0.43712008  , 0.807066262 , 0.744141757 , 0.00228796783, 0.004638654 , -1.06567693 , 2.25        , 23          , 11          , 0.013722403 , 0.0137222856
0.00519868545, -0.0070514637, -9.795495   , 0.00107253517, 0.00341106858, 0.0031452002, 0.436014742 , 0.8072128   , 0.7428749   , 0.00229884  , 0.00467269262, -1.06564522 , 2.26        , 23          , 12          , 0.04515668  , 0
0.0161113031, -0.003124388, -9.799484   , 0.00107253517, 0.00341106858, 0.0031452002, 0.4358882   , 0.8070761   , 0.745821536 , 0.00230971328, 0.0047067306, -1.06561375 , 2.27        , 23          , 50          , 0           , 0
2.44053081E-06, -0.0218530111, -9.801071   , 0.00107253517, 0.00341106858, 0.0031452002, 0.4367031   , 0.8074858   , 0.743719459 , 0.00232058787, 0.004740768 , -1.065582   , 2.28        , 23          , 11          , 0.013722403 , 0.0137222856
0.01119728  , -0.000733444467, -9.805351   , 0.00107253517, 0.00341106858, 0.0031452002, 0.436160475 , 0.8069348   , 0.7446997   , 0.00233146339, 0.00477480562, -1.06555057 , 2.29        , 23          , 12          , 0.04515668  , 0
-0.005121926, -0.00668210955, -9.81992    , 0.000892763 , 0.00312017486, 0.00314494618, 0.436160475 , 0.8069348   , 0.7446997   , 0.00200278941, 0.004262235 , -1.06552    , 2.3         , 23          , 50          , 0           , 0
-0.017148817, -0.0198406912, -9.79163    , 0.000892763 , 0.00312017486, 0.00314494618, 0.436436027 , 0.8067937   , 0.744560242 , 0.00201185187, 0.004293373 , -1.06548858 , 2.31        , 23          , 11          , 0.0141829466, 0.0141828246
0.0138679976, -0.00304312631, -9.804911   , 0.000892763 , 0.00312017486, 0.00314494618, 0.436150223 , 0.807489634 , 0.7428755   , 0.00202091527, 0.004324511 , -1.06545711 , 2.32        , 23          , 12          , 0.04602895  , 0
0.0310841743, -0.000131471083, -9.807983   , 0.000892763 , 0.00312017486, 0.00314494618, 0.4356143   , 0.8068002   , 0.7455398   , 0.00202997983, 0.00435564946, -1.06542563 , 2.33        , 23          , 50          , 0           , 0
0.00738845952, -0.0124499071, -9.803667   , 0.000892763 , 0.00312017486, 0.00314494618, 0.436565042 , 0.8076258   , 0.7438594   , 0.002039045 , 0.004386787 , -1.06539369 , 2.34        , 23          , 11          , 0.0141829466, 0.0141828246
0.0209312886, -0.0131052732, -9.805883   , 0.000892763 , 0.00312017486, 0.00314494618, 0.43560648  , 0.807216346 , 0.7441366   , 0.00204811152, 0.00441792468, -1.06536222 , 2.35        , 23          , 12          , 0.04602895  , 0
0.0183199774, -0.009750497, -9.823476   , 0.000892763 , 0.00312017486, 0.00314494618, 0.43560648  , 0.807216346 , 0.7441366   , 0.00205717888, 0.00444906065, -1.06533074 , 2.36        , 23          , 50          , 0           , 0
-0.0102103148, -0.03930582 , -9.804432   , 0.000892763 , 0.00312017486, 0.00314494618, 0.4360232   , 0.807352841 , 0.745681763 , 0.002066247 , 0.004480197 , -1.065299   , 2.37        , 23          , 11          , 0.0141829466, 0.0141828246
-0.01859549 , -0.0015181601, -9.815855   , 0.000892763 , 0.00312017486, 0.00314494618, 0.436289549 , 0.8076278   , 0.7437181   , 0.00207531638, 0.00451133354, -1.06526732 , 2.38        , 23          , 12          , 0.04602895  , 0
0.0161165874, -0.00525303744, -9.815764   , 0.000892763 , 0.00312017486, 0.00314494618, 0.435612857 , 0.8068      , 0.745118737 , 0.00208438723, 0.00454246951, -1.06523585 , 2.39        , 23          , 50          , 0           , 0
0.0377472937, -0.0061632446, -9.803047   , 0.000845842354, 0.00303181238, 0.00314490078, 0.4367085   , 0.8070694   , 0.744421    , 0.002002028 , 0.00440242747, -1.06520462 , 2.4         , 23          , 11          , 0.0138112316, 0.0138111217
0.0277400147, 0.0136418   , -9.825483   , 0.000845842354, 0.00303181238, 0.00314490078, 0.4367085   , 0.8070694   , 0.744421    , 0.00201062532, 0.00443268241, -1.06517291 , 2.41        , 23          , 12          , 0.0469211154, 0
0.0067809606, -0.0228019133, -9.809186   , 0.000845842354, 0.00303181238, 0.00314490078, 0.4358796   , 0.8072141   , 0.743576169 , 0.00201922376, 0.004462937 , -1.06514144 , 2.42        , 23          , 50          , 0           , 0
0.0109877549, 0.01591061  , -9.793003   , 0.000845842354, 0.00303181238, 0.00314490078, 0.436026752 , 0.8069362   , 0.745821953 , 0.00202782336, 0.004493191 , -1.06511    , 2.43        , 23          , 11          , 0.0138112316, 0.0138111217
0.00488832034, -0.0005931258, -9.80989    , 0.000845842354, 0.00303181238, 0.00314490078, 0.4361574   , 0.80735147  , 0.7446999   , 0.00203642435, 0.004523445 , -1.06507826 , 2.44        , 23          , 12          , 0.0469211154, 0
-0.000196162146, -0.0090361  , -9.818568   , 0.000845842354, 0.00303181238, 0.00314490078, 0.4360239   , 0.806935847 , 0.7449799   , 0.00204502628, 0.004553699 , -1.06504655 , 2.45        , 23          , 50          , 0           , 0
0.008634099 , 0.00706338463, -9.812967   , 0.000845842354, 0.00303181238, 0.00314490078, 0.4360239   , 0.806935847 , 0.7449799   , 0.00205362844, 0.00458395248, -1.06501508 , 2.46        , 23          , 11          , 0.0138112316, 0.0138111217
0.0157599635, 0.00191781856, -9.806665   , 0.000845842354, 0.00303181238, 0.00314490078, 0.436438441 , 0.80665493  , 0.7449812   , 0.00206223154, 0.004614205 , -1.06498361 , 2.47        , 23          , 12          , 0.0469211154, 0
0.0142495064, -0.008419421, -9.812187   , 0.000845842354, 0.00303181238, 0.00314490078, 0.436016679 , 0.80707407  , 0.743155539 , 0.002070836 , 0.004644458 , -1.0649519  , 2.48        , 23          , 50          , 0           , 0
0.0414312035, -0.00256297 , -9.807969   , 0.000845842354, 0.00303181238, 0.00314490078, 0.435748249 , 0.8072158   , 0.7454001   , 0.00207944144, 0.00467471126, -1.06492019 , 2.49        , 23          , 11          , 0.0138112316, 0.0138111217
0.0187409315, -0.009853957, -9.811732   , 0.0007472543, 0.00300711719, 0.0031444768, 0.436564565 , 0.8076257   , 0.743719041 , 0.00189055945, 0.00465603173, -1.06488991 , 2.5         , 23          , 12          , 0.0478317849, 0
0.0192148313, -0.006787369, -9.80041    , 0.0007472543, 0.00300711719, 0.0031444768, 0.4356101   , 0.8066607   , 0.743996    , 0.0018981793, 0.0046860436, -1.0648582  , 2.51        , 23          , 50          , 0           , 0
0.0132552143, -0.0112664755, -9.794149   , 0.0007472543, 0.00300711719, 0.0031444768, 0.4356101   , 0.8066607   , 0.743996    , 0.00190579984, 0.00471605547, -1.06482673 , 2.52        , 23          , 11          , 0.0141261956, 0.014126081
0.006492429 , -0.0111261681, -9.797787   , 0.0007472543, 0.00300711719, 0.0031444768, 0.4361658   , 0.8066573   , 0.745681942 , 0.00191342167, 0.00474606548, -1.06479526 , 2.53        , 23          , 12          , 0.0478317849, 0
0.006017939 , -0.0120493267, -9.794636   , 0.0007472543, 0.00300711719, 0.0031444768, 0.436012149 , 0.8076296   , 0.743015468 , 0.00192104443, 0.004776076 , -1.06476355 , 2.54        , 23          , 50          , 0           , 0
0.00751724327, -0.00389246643, -9.79907    , 0.0007472543, 0.00300711719, 0.0031444768, 0.4358914   , 0.806381345 , 0.745259941 , 0.00192866812, 0.004806087 , -1.06473184 , 2.55        , 23          , 11          , 0.0141261956, 0.014126081
0.0009842031, 0.0094136335, -9.808456   , 0.0007472543, 0.00300711719, 0.0031444768, 0.436571568 , 0.8069315   , 0.7442801   , 0.00193629251, 0.004836097 , -1.06470037 , 2.56        , 23          , 12          , 0.0478317849, 0
0.0156431533, -0.004885696, -9.804471   , 0.0007472543, 0.00300711719, 0.0031444768, 0.436571568 , 0.8069315   , 0.7442801   , 0.00194391829, 0.00486610644, -1.06466889 , 2.57        , 23          , 50          , 0           , 0
0.0142814405, -0.006602682, -9.813073   , 0.0007472543, 0.00300711719, 0.0031444768, 0.4361537   , 0.807073    , 0.7430157   , 0.00195154478, 0.00489611644, -1.06463718 , 2.58        , 23          , 11          , 0.0141261956, 0.014126081
0.00506335963, 0.0115423575, -9.800292   , 0.0007472543, 0.00300711719, 0.0031444768, 0.435890734 , 0.806798339 , 0.7459617   , 0.00195917231, 0.004926126 , -1.06460547 , 2.59        , 23          , 12          , 0.0478317849, 0
-0.000656093471, -0.006480977, -9.798221   , 3.237254E-05, 0.00199655257, 0.00314320019, 0.436293125 , 0.807072163 , 0.74357754  , 0.000484675926, 0.00287281722, -1.06457829 , 2.6         , 23          , 50          , 0           , 0
-0.0149150174, -0.0229552761, -9.80249    , 3.237254E-05, 0.00199655257, 0.00314320019, 0.435752    , 0.8063822   , 0.7446981   , 0.000485090422, 0.002892767 , -1.06454682 , 2.61        , 23          , 11          , 0.0140418448, 0.0140417339
0.0145633109, 0.0101596229, -9.816078   , 3.237254E-05, 0.00199655257, 0.00314320019, 0.435752    , 0.8063822   , 0.7446981   , 0.0004855052, 0.00291271741, -1.06451535 , 2.62        , 23          , 12          , 0.0487596542, 0
0.01242035  , -0.0110373888, -9.820348   , 3.237254E-05, 0.00199655257, 0.00314320019, 0.436437517 , 0.8066549   , 0.744700551 , 0.000485920842, 0.00293266773, -1.06448412 , 2.63        , 23          , 50          , 0           , 0
0.012520574 , -0.0310288668, -9.81059551 , 3.237254E-05, 0.00199655257, 0.00314320019, 0.436289132 , 0.8074888   , 0.74329704  , 0.000486337172, 0.00295261759, -1.06445241 , 2.64        , 23          , 11          , 0.0140418448, 0.0140417339
0.0189674776, -0.0242991522, -9.816382   , 3.237254E-05, 0.00199655257, 0.00314320019, 0.435886383 , 0.80693686  , 0.744979441 , 0.000486753968, 0.002972568 , -1.06442118 , 2.65        , 23          , 12          , 0.0487596542, 0
0.0105476342, -0.01250528 , -9.803205   , 3.237254E-05, 0.00199655257, 0.00314320019, 0.436431527 , 0.8072102   , 0.744139433 , 0.000487171521, 0.00299251755, -1.06438971 , 2.66        , 23          , 50          , 0           , 0
0.00307712215, 0.00156506523, -9.793616   , 3.237254E-05, 0.00199655257, 0.00314320019, 0.4357511   , 0.806243062 , 0.7441367   , 0.000487589656, 0.003012468 , -1.06435823 , 2.67        , 23          , 11          , 0.0140418448, 0.0140417339
0.0116097815, -0.00257974118, -9.801753   , 3.237254E-05, 0.00199655257, 0.00314320019, 0.4357511   , 0.806243062 , 0.7441367   , 0.0004880085, 0.00303241774, -1.06432676 , 2.68        , 23          , 12          , 0.0487596542, 0
0.00683742948, -0.0196207762, -9.810963   , 3.237254E-05, 0.00199655257, 0.00314320019, 0.436302781 , 0.806795239 , 0.745822847 , 0.0004884277, 0.00305236829, -1.06429553 , 2.69        , 23          , 50          , 0           , 0
0.0188350827, -0.00355081074, -9.808061   , 6.855698E-05, 0.0019405029, 0.00314344722, 0.4357401   , 0.807354    , 0.7432951   , 0.0005646235, 0.00295422086, -1.06426358 , 2.7         , 23          , 11          , 0.0107433069, 0.0107432324
0.0238299929, -0.00439997949, -9.824761   , 6.855698E-05, 0.0019405029, 0.00314344722, 0.43561396  , 0.806522131 , 0.744838    , 0.000565402152, 0.00297360844, -1.06423211 , 2.71        , 23          , 12          , 0.0497034937, 0
-0.007478401, -0.0146800857, -9.8331     , 6.855698E-05, 0.0019405029, 0.00314344722, 0.4362981   , 0.8066557   , 0.7441387   , 0.0005661813, 0.00299299532, -1.06420064 , 2.72        , 23          , 50          , 0           , 0
-0.00750751747, -0.0130555  , -9.810503   , 6.855698E-05, 0.0019405029, 0.00314344722, 0.4362981   , 0.8066557   , 0.7441387   , 0.0005669613, 0.00301238243, -1.06416917 , 2.73        , 23          , 11          , 0.0107433069, 0.0107432324
0.0113463439, -0.0197130889, -9.808689   , 6.855698E-05, 0.0019405029, 0.00314344722, 0.435880125 , 0.8070752   , 0.74343574  , 0.0005677418, 0.0030317693, -1.0641377  , 2.74        , 23          , 12          , 0.0497034937, 0
0.004390701 , -0.00116002 , -9.794992   , 6.855698E-05, 0.0019405029, 0.00314344722, 0.436028361 , 0.8065193   , 0.7454008   , 0.000568522955, 0.00305115641, -1.06410623 , 2.75        , 23          , 50          , 0           , 0
0.0115925251, -0.006495567, -9.82076    , 6.855698E-05, 0.0019405029, 0.00314344722, 0.436293542 , 0.8072112   , 0.7439986   , 0.0005693049, 0.00307054282, -1.06407475 , 2.76        , 23          , 11          , 0.0107433069, 0.0107432324
0.003965407 , -0.00493175 , -9.830709   , 6.855698E-05, 0.0019405029, 0.00314344722, 0.435883939 , 0.8070756   , 0.744558454 , 0.00057008717, 0.0030899297, -1.06404328 , 2.77        , 23          , 12          , 0.0497034937, 0
0.00048726052, -0.0226135589, -9.819595   , 6.855698E-05, 0.0019405029, 0.00314344722, 0.435883939 , 0.8070756   , 0.744558454 , 0.000570870237, 0.00310931727, -1.064012   , 2.78        , 23          , 50          , 0           , 0
0.01661068  , -0.00469723344, -9.829308   , 6.855698E-05, 0.0019405029, 0.00314344722, 0.436300546 , 0.806517    , 0.744559646 , 0.000571654 , 0.00312870368, -1.06398058 , 2.79        , 23          , 11          , 0.0107433069, 0.0107432324
0.009834392 , -0.002454128, -9.813502   , 6.767176E-05, 0.00192629686, 0.00314344629, 0.4358742   , 0.807630539 , 0.7428746   , 0.0005704493, 0.00311758369, -1.06394935 , 2.8         , 23          , 12          , 0.0506621525, 0
0.0295114964, -0.0149551332, -9.818064   , 6.767176E-05, 0.00192629686, 0.00314344629, 0.435752332 , 0.806660235 , 0.7453999   , 0.0005712243, 0.00313682854, -1.06391788 , 2.81        , 23          , 50          , 0           , 0
0.0337944254, -0.0307757463, -9.828583   , 6.767176E-05, 0.00192629686, 0.00314344629, 0.436569571 , 0.807070255 , 0.7439995   , 0.0005719999, 0.003156074 , -1.0638864  , 2.82        , 23          , 11          , 0.0109909512, 0.0109908581
0.0160684511, -0.00540454127, -9.797247   , 6.767176E-05, 0.00192629686, 0.00314344629, 0.435609668 , 0.806521654 , 0.743575    , 0.0005727762, 0.00317531824, -1.06385493 , 2.83        , 23          , 12          , 0.0506621525, 0
-0.023086207, 0.000776709931, -9.810883   , 6.767176E-05, 0.00192629686, 0.00314344629, 0.435609668 , 0.806521654 , 0.743575    , 0.00057355297, 0.003194563 , -1.06382346 , 2.84        , 23          , 50          , 0           , 0
-0.0140638025, 0.006184235 , -9.771052   , 6.767176E-05, 0.00192629686, 0.00314344629, 0.436164856 , 0.8066572   , 0.745401263 , 0.0005743303, 0.00321380817, -1.063792   , 2.85        , 23          , 11          , 0.0109909512, 0.0109908581
0.009598688 , 0.0136784734, -9.793932   , 6.767176E-05, 0.00192629686, 0.00314344629, 0.4361537   , 0.807073    , 0.7430157   , 0.000575108454, 0.00323305256, -1.06376052 , 2.86        , 23          , 12          , 0.0506621525, 0
0.0152196158, -0.00650659576, -9.826619   , 6.767176E-05, 0.00192629686, 0.00314344629, 0.4357495   , 0.806659937 , 0.744557858 , 0.000575887156, 0.003252297 , -1.063729   , 2.87        , 23          , 50          , 0           , 0
-0.002070285, -0.0122246463, -9.812282   , 6.767176E-05, 0.00192629686, 0.00314344629, 0.436569661 , 0.806931257 , 0.743718743 , 0.0005766665, 0.00327154179, -1.06369758 , 2.88        , 23          , 11          , 0.0109909512, 0.0109908581
-0.00477739843, -0.0100295208, -9.798721   , 6.767176E-05, 0.00192629686, 0.00314344629, 0.436569661 , 0.806931257 , 0.743718743 , 0.000577446539, 0.00329078687, -1.06366611 , 2.89        , 23          , 12          , 0.0506621525, 0
0.00723846  , 0.00395244174, -9.817066   , 0.000203249292, 0.0008062655, 0.00314540975, 0.435602754 , 0.807076931 , 0.7427331   , 0.0008691936, 0.0008452588, -1.06363463 , 2.9         , 23          , 50          , 0           , 0
0.0125261219, -0.00341049023, -9.812598   , 0.000203249292, 0.0008062655, 0.00314540975, 0.436163843 , 0.8067961   , 0.7454013   , 0.0008712529, 0.000853294157, -1.06360316 , 2.91        , 23          , 11          , 0.0114025157, 0.0114024011
-0.000776428264, -0.0132955816, -9.794672   , 0.000203249292, 0.0008062655, 0.00314540975, 0.436707079 , 0.807069242 , 0.743999958 , 0.000873312471, 0.0008613295, -1.06357193 , 2.92        , 23          , 12          , 0.0516345575, 0
-0.0105696032, -0.008833015, -9.82267    , 0.000203249292, 0.0008062655, 0.00314540975, 0.435889572 , 0.806242168 , 0.744417846 , 0.000875372032, 0.000869364652, -1.06354046 , 2.93        , 23          , 50          , 0           , 0
0.0156776682, -0.0056351684, -9.823447   , 0.000203249292, 0.0008062655, 0.00314540975, 0.435889572 , 0.806242168 , 0.744417846 , 0.000877432 , 0.000877399638, -1.063509   , 2.94        , 23          , 11          , 0.0114025157, 0.0114024011
0.012223823 , -0.0193789862, -9.796036   , 0.000203249292, 0.0008062655, 0.00314540975, 0.43671158  , 0.8066527   , 0.7444208   , 0.0008794921, 0.0008854347, -1.06347752 , 2.95        , 23          , 12          , 0.0516345575, 0
0.008205246 , -0.0161683485, -9.79331    , 0.000203249292, 0.0008062655, 0.00314540975, 0.436014652 , 0.8073519   , 0.743155658 , 0.000881552638, 0.0008934695, -1.063446   , 2.96        , 23          , 50          , 0           , 0
0.00859911647, 0.0043789316, -9.816606   , 0.000203249292, 0.0008062655, 0.00314540975, 0.4361629   , 0.806795955 , 0.745120645 , 0.0008836133, 0.0009015044, -1.06341481 , 2.97        , 23          , 11          , 0.0114025157, 0.0114024011
0.02161416  , -0.00079979375, -9.817961   , 0.000203249292, 0.0008062655, 0.00314540975, 0.436979175 , 0.8072059   , 0.7434396   , 0.000885674148, 0.0009095393, -1.06338334 , 2.98        , 23          , 12          , 0.0516345575, 0
0.007080442 , -0.005984176, -9.818965   , 0.000203249292, 0.0008062655, 0.00314540975, 0.4360192   , 0.8067963   , 0.7432958   , 0.0008877354, 0.000917574042, -1.06335187 , 2.99        , 23          , 50          , 0           , 0
0.0115677537, -0.00528636761, -9.802682   , 0.000201534931, 0.000805047341, 0.003145384 , 0.4360192   , 0.8067963   , 0.7432958   , 0.0008860562, 0.0009229678, -1.0633204  , 3           , 23          , 11          , 0.00707605667, 0.00707601476
0.0224417131, -0.0307980925, -9.803331   , 0.000201534931, 0.000805047341, 0.003145384 , 0.436576426 , 0.806654    , 0.745122    , 0.0008881007, 0.0009309902, -1.06328893 , 3.01        , 23          , 12          , 0.0526196957, 0
0.0219873   , -0.0286546629, -9.787957   , 0.000201534931, 0.000805047341, 0.003145384 , 0.436289668 , 0.807349861 , 0.7431566   , 0.000890145369, 0.000939012738, -1.06325746 , 3.02        , 23          , 50          , 0           , 0
0.0414841473, 0.0006070789, -9.808392   , 0.000201534931, 0.000805047341, 0.003145384 , 0.435753018 , 0.8062433   , 0.744698048 , 0.0008921904, 0.000947035034, -1.063226   , 3.03        , 23          , 11          , 0.00707605667, 0.00707601476
0.0175119955, -0.00385905057, -9.822973   , 0.000201534931, 0.000805047341, 0.003145384 , 0.43684724  , 0.8065125   , 0.7435792   , 0.000894235447, 0.000955057447, -1.06319475 , 3.04        , 23          , 12          , 0.0526196957, 0
0.00523696  , -0.00607288629, -9.804519   , 0.000201534931, 0.000805047341, 0.003145384 , 0.43684724  , 0.8065125   , 0.7435792   , 0.0008962809, 0.0009630798, -1.06316328 , 3.05        , 23          , 50          , 0           , 0
0.008377586 , -0.00447042659, -9.785522   , 0.000201534931, 0.000805047341, 0.003145384 , 0.436153829 , 0.806934    , 0.742734969 , 0.0008983268, 0.000971102 , -1.06313181 , 3.06        , 23          , 11          , 0.00707605667, 0.00707601476
0.002465163 , -0.0113753323, -9.814514   , 0.000201534931, 0.000805047341, 0.003145384 , 0.436300874 , 0.806795    , 0.7452615   , 0.0009003729, 0.0009791242, -1.06310058 , 3.07        , 23          , 12          , 0.0526196957, 0
-0.0006104284, -0.005050065, -9.807241   , 0.000201534931, 0.000805047341, 0.003145384 , 0.436705172 , 0.807069063 , 0.7434386   , 0.0009024191, 0.0009871464, -1.06306911 , 3.08        , 23          , 50          , 0           , 0
0.0191647038, -0.0108066667, -9.806771   , 0.000201534931, 0.000805047341, 0.003145384 , 0.436303169 , 0.8059612   , 0.7441385   , 0.0009044656, 0.0009951682, -1.06303763 , 3.09        , 23          , 11          , 0.00707605667, 0.00707601476
0.0228009522, -0.008214528, -9.799055   , 0.000204817843, 0.000821230467, 0.00314535154, 0.436303169 , 0.8059612   , 0.7441385   , 0.000913761847, 0.00103839464, -1.06300616 , 3.1         , 23          , 12          , 0.0536166281, 0
0.0229808055, 0.00264893286, -9.799857   , 0.000204817843, 0.000821230467, 0.00314535154, 0.436712176 , 0.8063747   , 0.74399966  , 0.0009158428, 0.00104657828, -1.06297469 , 3.11        , 23          , 50          , 0           , 0
0.006856447 , -0.0178446881, -9.806881   , 0.000204817843, 0.000821230467, 0.00314535154, 0.4365653   , 0.8070698   , 0.742736459 , 0.0009179239, 0.00105476158, -1.06294322 , 3.12        , 23          , 11          , 0.00736025441, 0.00736016873
0.0320639946, -0.0257889945, -9.826284   , 0.000204817843, 0.000821230467, 0.00314535154, 0.43629992  , 0.8067949   , 0.7449808   , 0.0009200053, 0.001062945 , -1.062912   , 3.13        , 23          , 12          , 0.0536166281, 0
0.0236663446, -0.0126381088, -9.813096   , 0.000204817843, 0.000821230467, 0.00314535154, 0.43725577  , 0.8069261   , 0.74330014  , 0.000922087231, 0.0010711283, -1.06288028 , 3.14        , 23          , 50          , 0           , 0
-0.00119362585, -0.0114640743, -9.796462   , 0.000204817843, 0.000821230467, 0.00314535154, 0.436024755 , 0.8061019   , 0.74343586  , 0.000924169261, 0.00107931159, -1.06284881 , 3.15        , 23          , 11          , 0.00736025441, 0.00736016873
-0.01373747 , -0.0079468675, -9.814091   , 0.000204817843, 0.000821230467, 0.00314535154, 0.436024755 , 0.8061019   , 0.74343586  , 0.0009262515, 0.00108749478, -1.06281734 , 3.16        , 23          , 12          , 0.0536166281, 0
-0.00436277967, -0.0135853905, -9.807333   , 0.000204817843, 0.000821230467, 0.00314535154, 0.436853    , 0.8063741   , 0.744982541 , 0.0009283341, 0.00109567784, -1.06278586 , 3.17        , 23          , 50          , 0           , 0
0.009287938 , -0.004032852, -9.785515   , 0.000204817843, 0.000821230467, 0.00314535154, 0.436703742 , 0.8070689   , 0.7430176   , 0.000930416863, 0.001103861 , -1.06275439 , 3.18        , 23          , 11          , 0.00736025441, 0.00736016873
0.0120673645, -0.0008516796, -9.792702   , 0.000204817843, 0.000821230467, 0.00314535154, 0.436441571 , 0.8060993   , 0.7447004   , 0.0009325001, 0.001112044 , -1.06272268 , 3.19        , 23          , 12          , 0.0536166281, 0
-0.00142651 , -0.0004712846, -9.81217    , 0.000186978839, 0.0008237129, 0.003145348 , 0.437121242 , 0.8066493   , 0.7435802   , 0.000895525969, 0.001125782 , -1.062691   , 3.2         , 23          , 50          , 0           , 0
0.0161022618, -0.007014349, -9.821652   , 0.000186978839, 0.0008237129, 0.003145348 , 0.437121242 , 0.8066493   , 0.7435802   , 0.0008974312, 0.00113399094, -1.0626595  , 3.21        , 23          , 11          , 0.00756724272, 0.00756712072
0.0152710332, 0.000520158559, -9.800808   , 0.000186978839, 0.0008237129, 0.003145348 , 0.436842442 , 0.806650937 , 0.742456555 , 0.000899337 , 0.00114219973, -1.062628   , 3.22        , 23          , 12          , 0.05462447  , 0
0.0219855718, -0.00277542323, -9.798556   , 0.000186978839, 0.0008237129, 0.003145348 , 0.4367134   , 0.8067919   , 0.7452629   , 0.0009012428, 0.00115040853, -1.06259656 , 3.23        , 23          , 50          , 0           , 0
0.0182166658, -0.014366243, -9.812227   , 0.000186978839, 0.0008237129, 0.003145348 , 0.4372593   , 0.806509435 , 0.7434403   , 0.000903148844, 0.0011586172, -1.06256509 , 3.24        , 23          , 11          , 0.00756724272, 0.00756712072
-0.002917245, -0.008172106, -9.808182   , 0.000186978839, 0.0008237129, 0.003145348 , 0.436575621 , 0.806375861 , 0.7442799   , 0.0009050553, 0.00116682576, -1.06253338 , 3.25        , 23          , 12          , 0.05462447  , 0
0.00271345628, 0.00442318246, -9.810303   , 0.000186978839, 0.0008237129, 0.003145348 , 0.436575621 , 0.806375861 , 0.7442799   , 0.000906962 , 0.00117503433, -1.06250191 , 3.26        , 23          , 50          , 0           , 0
0.0317407474, 0.0129493363, -9.804247   , 0.000186978839, 0.0008237129, 0.003145348 , 0.4369891   , 0.806372941 , 0.744562    , 0.000908868969, 0.001183243 , -1.06247044 , 3.27        , 23          , 11          , 0.00756724272, 0.00756712072
0.007006244 , -0.007933939, -9.801821   , 0.000186978839, 0.0008237129, 0.003145348 , 0.436842442 , 0.806650937 , 0.742456555 , 0.0009107762, 0.00119145145, -1.06243873 , 3.28        , 23          , 12          , 0.05462447  , 0
-0.0023434693, -0.0298177283, -9.818317   , 0.000186978839, 0.0008237129, 0.003145348 , 0.436437517 , 0.8066549   , 0.744700551 , 0.000912683667, 0.00119965989, -1.06240726 , 3.29        , 23          , 50          , 0           , 0
0.0265686512, -0.0289480388, -9.816398   , 0.000202861382, 0.0008130288, 0.00314528635, 0.437255681 , 0.807065    , 0.7435809   , 0.0009496961, 0.00118409563, -1.06237626 , 3.3         , 23          , 11          , 0.00774042727, 0.00774027547
0.019093208 , -0.0166094378, -9.816311   , 0.000202861382, 0.0008130288, 0.00314528635, 0.4362932   , 0.8069332   , 0.7432968   , 0.000951762137, 0.00119219592, -1.06234455 , 3.31        , 23          , 12          , 0.05564241  , 0
0.03458166  , -0.008273467, -9.815274   , 0.000202861382, 0.0008130288, 0.00314528635, 0.4362932   , 0.8069332   , 0.7432968   , 0.00095382845, 0.00120029622, -1.06231308 , 3.32        , 23          , 50          , 0           , 0
0.0112083172, -0.00155681919, -9.815296   , 0.000202861382, 0.0008130288, 0.00314528635, 0.436852455 , 0.8065131   , 0.7451229   , 0.0009558951, 0.00120839651, -1.06228161 , 3.33        , 23          , 11          , 0.00774042727, 0.00774027547
-0.0130835949, 0.000405816361, -9.840659   , 0.000202861382, 0.0008130288, 0.00314528635, 0.436841846 , 0.806928933 , 0.742877662 , 0.000957961835, 0.00121649669, -1.0622499  , 3.34        , 23          , 12          , 0.05564241  , 0
-0.00308559067, -0.0207155887, -9.823204   , 0.000202861382, 0.0008130288, 0.00314528635, 0.436437577 , 0.8065159   , 0.7444198   , 0.0009600289, 0.00122459675, -1.06221843 , 3.35        , 23          , 50          , 0           , 0
0.00649794564, -0.0115378629, -9.802758   , 0.000202861382, 0.0008130288, 0.00314528635, 0.437534779 , 0.8065074   , 0.7435816   , 0.0009620962, 0.00123269658, -1.062187   , 3.36        , 23          , 11          , 0.00774042727, 0.00774027547
0.02380217  , 0.0002320688, -9.782714   , 0.000202861382, 0.0008130288, 0.00314528635, 0.437534779 , 0.8065074   , 0.7435816   , 0.0009641638, 0.00124079653, -1.06215549 , 3.37        , 23          , 12          , 0.05564241  , 0
0.018431738 , -0.003391927, -9.826578   , 0.000202861382, 0.0008130288, 0.00314528635, 0.436428428 , 0.8067928   , 0.7423148   , 0.00096623163, 0.00124889647, -1.062124   , 3.38        , 23          , 50          , 0           , 0
0.009932654 , 0.00171667151, -9.825659   , 0.000202861382, 0.0008130288, 0.00314528635, 0.4367144   , 0.806653    , 0.745262861 , 0.000968299748, 0.0012569963, -1.06209254 , 3.39        , 23          , 11          , 0.00774042727, 0.00774027547
-0.009461469, -0.0207858924, -9.801999   , 0.000196291352, 0.000811592734, 0.00314528169, 0.437117219 , 0.807065964 , 0.7432997   , 0.0009555739, 0.00126191066, -1.06206083 , 3.4         , 23          , 12          , 0.056669686 , 0
0.00543582859, 0.00656666234, -9.801239   , 0.000196291352, 0.000811592734, 0.00314528169, 0.436576158 , 0.8062369   , 0.744139552 , 0.0009575767, 0.0012699964, -1.06202912 , 3.41        , 23          , 50          , 0           , 0
0.012774067 , 0.0119578615, -9.8111     , 0.000196291352, 0.000811592734, 0.00314528169, 0.436576158 , 0.8062369   , 0.744139552 , 0.000959579542, 0.00127808214, -1.06199765 , 3.42        , 23          , 11          , 0.008036037 , 0.00803585
0.0139339771, -0.00111922249, -9.818895   , 0.000196291352, 0.000811592734, 0.00314528169, 0.437122136 , 0.806788445 , 0.744141638 , 0.0009615828, 0.00128616777, -1.06196618 , 3.43        , 23          , 12          , 0.056669686 , 0
0.03404941  , -0.01109466 , -9.8013     , 0.000196291352, 0.000811592734, 0.00314528169, 0.436975271 , 0.8074835   , 0.7428784   , 0.0009635865, 0.00129425351, -1.06193471 , 3.44        , 23          , 50          , 0           , 0
0.009767124 , -0.00309492275, -9.790474   , 0.000196291352, 0.000811592734, 0.00314528169, 0.436575085 , 0.806514859 , 0.7444203   , 0.0009655903, 0.00130233914, -1.06190324 , 3.45        , 23          , 11          , 0.008036037 , 0.00803585
0.009805513 , -0.00340314419, -9.808092   , 0.000196291352, 0.000811592734, 0.00314528169, 0.437529743 , 0.8070629   , 0.743301153 , 0.000967594446, 0.00131042453, -1.06187177 , 3.46        , 23          , 12          , 0.056669686 , 0
0.0224691015, -0.002252873, -9.808035   , 0.000196291352, 0.000811592734, 0.00314528169, 0.4369873   , 0.806094766 , 0.7434392   , 0.0009695988, 0.00131851  , -1.0618403  , 3.47        , 23          , 50          , 0           , 0
0.007998189 , -0.000803697854, -9.790459   , 0.000196291352, 0.000811592734, 0.00314528169, 0.4369873   , 0.806094766 , 0.7434392   , 0.0009716033, 0.00132659508, -1.06180835 , 3.48        , 23          , 11          , 0.008036037 , 0.00803585
0.025920568 , -0.0122559452, -9.809019   , 0.000196291352, 0.000811592734, 0.00314528169, 0.436851978 , 0.806513    , 0.7449826   , 0.00097360817, 0.00133468036, -1.06177688 , 3.49        , 23          , 12          , 0.056669686 , 0
0.00327478955, -0.0181197133, -9.821351   , 0.000200598384, 0.0008323402, 0.003145239 , 0.436704785 , 0.80693     , 0.743017554 , 0.0009856484, 0.00139034481, -1.06174564 , 3.5         , 23          , 50          , 0           , 0
8.790754E-05, -0.01900966 , -9.816853   , 0.000200598384, 0.0008323402, 0.003145239 , 0.436577052 , 0.80637604  , 0.744700968 , 0.0009876983, 0.00139863719, -1.06171417 , 3.51        , 23          , 11          , 0.00835281  , 0.00835259
0.00335685117, -0.0122836819, -9.815875   , 0.000200598384, 0.0008323402, 0.003145239 , 0.43725875  , 0.8066483   , 0.7435807   , 0.0009897483, 0.00140692946, -1.06168246 , 3.52        , 23          , 12          , 0.0577055737, 0
0.0199895911, -0.0132124368, -9.790982   , 0.000200598384, 0.0008323402, 0.003145239 , 0.43725875  , 0.8066483   , 0.7435807   , 0.0009917987, 0.00141522125, -1.061651   , 3.53        , 23          , 50          , 0           , 0
0.0340137258, -0.0146394456, -9.810368   , 0.000200598384, 0.0008323402, 0.003145239 , 0.4368434   , 0.806651056 , 0.742737234 , 0.0009938494, 0.00142351352, -1.06161952 , 3.54        , 23          , 11          , 0.00835281  , 0.00835259
0.0116715366, -0.00152724423, -9.819811   , 0.000200598384, 0.0008323402, 0.003145239 , 0.436853945 , 0.8063742   , 0.7452632   , 0.0009959004, 0.00143180555, -1.061588   , 3.55        , 23          , 12          , 0.0577055737, 0
-0.000296889339, -0.0162180457, -9.825411   , 0.000200598384, 0.0008323402, 0.003145239 , 0.4372537   , 0.8072038   , 0.743300259 , 0.0009979515, 0.00144009758, -1.06155658 , 3.56        , 23          , 50          , 0           , 0
0.03450582  , -0.0136608584, -9.820292   , 0.000200598384, 0.0008323402, 0.003145239 , 0.436301678 , 0.8061001   , 0.74399817  , 0.001000003 , 0.00144838938, -1.06152487 , 3.57        , 23          , 11          , 0.00835281  , 0.00835259
0.0200259853, -0.0130978953, -9.804983   , 0.000200598384, 0.0008323402, 0.003145239 , 0.436301678 , 0.8061001   , 0.74399817  , 0.00100205455, 0.00145668141, -1.06149316 , 3.58        , 23          , 12          , 0.0577055737, 0
0.0185368955, -0.0216516573, -9.807326   , 0.000200598384, 0.0008323402, 0.003145239 , 0.437259644 , 0.806787431 , 0.7441421   , 0.0010041066, 0.0014649732, -1.06146169 , 3.59        , 23          , 50          , 0           , 0
0.135971367 , -0.2170493  , -9.829941   , 0.000223994139, 0.00084069  , 0.00314509752, 0.4367003   , 0.8073465   , 0.7425967   , 0.00106108538, 0.00149266713, -1.06143117 , 3.6         , 23          , 11          , 0.008572022 , 0.008571782
0.382068    , -0.84932977 , -9.805105   , 0.000223994139, 0.00084069  , 0.00314509752, 0.436576575 , 0.806376    , 0.7445606   , 0.00106337247, 0.00150104042, -1.06139946 , 3.61        , 23          , 12          , 0.0587494   , 0
0.4929616   , -1.02672648 , -9.802735   , 0.000223994139, 0.00084069  , 0.00314509752, 0.4376733   , 0.806367457 , 0.743582    , 0.00106565969, 0.00150941371, -1.061368   , 3.62        , 23          , 50          , 0           , 0
0.2706348   , -0.7032367  , -9.796475   , 0.000223994139, 0.00084069  , 0.00314509752, 0.436708242 , 0.806652367 , 0.7434384   , 0.00106794748, 0.00151778723, -1.06133628 , 3.63        , 23          , 11          , 0.008572022 , 0.008571782
-0.0611482263, -0.201253414, -9.818765   , 0.000223994139, 0.00084069  , 0.00314509752, 0.436708242 , 0.806652367 , 0.7434384   , 0.00107023539, 0.00152616028, -1.06130481 , 3.64        , 23          , 12          , 0.0587494   , 0
-0.479538828, 0.999275267 , -9.821791   , 0.000223994139, 0.00084069  , 0.00314509752, 0.436719477 , 0.8059585   , 0.7452626   , 0.00107252365, 0.00153453357, -1.06127334 , 3.65        , 23          , 50          , 0           , 0
-0.665199041, 1.71360409  , -9.819451   , 0.000223994139, 0.00084069  , 0.00314509752, 0.435608178 , 0.806660533 , 0.743434668 , 0.00107481179, 0.00154290663, -1.06124187 , 3.66        , 23          , 11          , 0.008572022 , 0.008571782
-0.1634168  , 0.422484726 , -9.805672   , 0.000223994139, 0.00084069  , 0.00314509752, 0.434789449 , 0.8063893   , 0.744694769 , 0.00107710052, 0.00155127968, -1.06121039 , 3.67        , 23          , 12          , 0.0587494   , 0
0.02293883  , -0.0574046224, -9.81532    , 0.000223994139, 0.00084069  , 0.00314509752, 0.435612053 , 0.806521952 , 0.744276643 , 0.00107938948, 0.00155965239, -1.06117868 , 3.68        , 23          , 50          , 0           , 0
-0.03690493 , 0.287011445 , -9.815052   , 0.000223994139, 0.00084069  , 0.00314509752, 0.435612053 , 0.806521952 , 0.744276643 , 0.00108167867, 0.00156802544, -1.061147   , 3.69        , 23          , 11          , 0.008572022 , 0.008571782
0.004483291 , 0.5796086   , -9.822125   , -2.715236E-05, 0.0007956922, 0.00314640719, 0.435059756 , 0.8062477   , 0.7430116   , 0.0004808528, 0.00147042738, -1.06110859 , 3.7         , 23          , 12          , 0.0598005466, 0
-0.0104823681, 0.105277635 , -9.832901   , -2.715236E-05, 0.0007956922, 0.00314640719, 0.43631348  , 0.805267334 , 0.7456819   , 0.0004806277, 0.00147836923, -1.06107688 , 3.71        , 23          , 50          , 0           , 0
0.0687445253, -0.6815953  , -9.826364   , -2.715236E-05, 0.0007956922, 0.00314640719, 0.4380899   , 0.805808842 , 0.743583262 , 0.000480402756, 0.001486311 , -1.06104541 , 3.72        , 23          , 11          , 0.008746823 , 0.008746567
0.04276802  , -0.8323841  , -9.816565   , -2.715236E-05, 0.0007956922, 0.00314640719, 0.438791573 , 0.8041372   , 0.744146347 , 0.000480178132, 0.00149425271, -1.06101394 , 3.73        , 23          , 12          , 0.0598005466, 0
0.01665158  , -0.168457747, -9.834439   , -2.715236E-05, 0.0007956922, 0.00314640719, 0.438791573 , 0.8041372   , 0.744146347 , 0.000479953858, 0.00150219456, -1.06098247 , 3.74        , 23          , 50          , 0           , 0
-0.00319752959, -0.389748037, -9.84740448 , -2.715236E-05, 0.0007956922, 0.00314640719, 0.440029085 , 0.804267049 , 0.7444313   , 0.0004797297, 0.00151013618, -1.060951   , 3.75        , 23          , 11          , 0.008746823 , 0.008746567
-0.05917264 , -0.4698931  , -9.839768   , -2.715236E-05, 0.0007956922, 0.00314640719, 0.4394667   , 0.805242836 , 0.742886066 , 0.000479505776, 0.001518078 , -1.06091952 , 3.76        , 23          , 12          , 0.0598005466, 0
-0.04812435 , -0.289636165, -9.826765   , -2.715236E-05, 0.0007956922, 0.00314640719, 0.438509315 , 0.8053895   , 0.7447072   , 0.000479282142, 0.00152601977, -1.06088781 , 3.77        , 23          , 50          , 0           , 0
0.0215319674, -0.2364537  , -9.884285   , -2.715236E-05, 0.0007956922, 0.00314640719, 0.438085347 , 0.8063644   , 0.7434431   , 0.000479058741, 0.00153396174, -1.06085634 , 3.78        , 23          , 11          , 0.008746823 , 0.008746567
0.148137674 , -0.160692751, -9.994234   , -2.715236E-05, 0.0007956922, 0.00314640719, 0.43546924  , 0.806661367 , 0.7430132   , 0.0004788356, 0.00154190348, -1.06082463 , 3.79        , 23          , 12          , 0.0598005466, 0
0.313320249 , -0.100942455, -10.1046429 , -2.713839E-05, 0.000795703847, 0.00314637087, 0.43546924  , 0.806661367 , 0.7430132   , 0.000478646951, 0.00154987408, -1.06079364 , 3.8         , 23          , 50          , 0           , 0
0.358649    , -0.0423306078, -9.783703   , -2.713839E-05, 0.000795703847, 0.00314637087, 0.4335394   , 0.8076481   , 0.743708551 , 0.000478424452, 0.001557816 , -1.06076193 , 3.81        , 23          , 11          , 0.00903535448, 0.009035073
0.33677873  , 0.241986826 , -9.648806   , -2.713839E-05, 0.000795703847, 0.00314637087, 0.431454271 , 0.810024142 , 0.742158651 , 0.000478202332, 0.00156575779, -1.06073022 , 3.82        , 23          , 12          , 0.06085844  , 0
0.2879057   , 0.391153127 , -10.0830078 , -2.713839E-05, 0.000795703847, 0.00314637087, 0.428844839 , 0.8101828   , 0.743412733 , 0.000477980415, 0.00157369988, -1.06069875 , 3.83        , 23          , 50          , 0           , 0
0.0141717568, 0.277637    , -10.2621059 , -2.713839E-05, 0.000795703847, 0.00314637087, 0.4282869   , 0.810881    , 0.742569    , 0.0004777587, 0.00158164185, -1.06066728 , 3.84        , 23          , 11          , 0.00903535448, 0.009035073
-0.09205355 , -0.19082132 , -10.5857153 , -2.713839E-05, 0.000795703847, 0.00314637087, 0.4282869   , 0.810881    , 0.742569    , 0.00047753728, 0.00158958393, -1.06063581 , 3.85        , 23          , 12          , 0.06085844  , 0
-0.0618419722, -0.755465746, -10.6536255 , -2.713839E-05, 0.000795703847, 0.00314637087, 0.426903039 , 0.8114463   , 0.7411611   , 0.000477316062, 0.0015975259, -1.06060433 , 3.86        , 23          , 50          , 0           , 0
0.02619237  , -0.912372768, -10.9515085 , -2.713839E-05, 0.000795703847, 0.00314637087, 0.42606926  , 0.812841535 , 0.741579831 , 0.000477095076, 0.00160546787, -1.06057286 , 3.87        , 23          , 11          , 0.00903535448, 0.009035073
0.210789412 , -1.00423717 , -10.6016483 , -2.713839E-05, 0.000795703847, 0.00314637087, 0.4257438   , 0.8170083   , 0.7356862   , 0.000476874382, 0.00161341019, -1.06054139 , 3.88        , 23          , 12          , 0.06085844  , 0
0.5231308   , -1.02204657 , -10.651721  , -2.713839E-05, 0.000795703847, 0.00314637087, 0.4241827   , 0.821045458 , 0.730069    , 0.000476653862, 0.00162135193, -1.06050992 , 3.89        , 23          , 50          , 0           , 0
0.381816149 , -0.9173434  , -10.3378029 , -2.704293E-05, 0.000795751752, 0.0031462824, 0.4241827   , 0.821045458 , 0.730069    , 0.0004766742, 0.00162941357, -1.06047893 , 3.9         , 23          , 11          , 0.00941746  , 0.00941715
0.0690515861, -0.7019405  , -10.269187  , -2.704293E-05, 0.000795751752, 0.0031462824, 0.423698246 , 0.827435    , 0.722632051 , 0.000476455083, 0.00163735647, -1.06044745 , 3.91        , 23          , 12          , 0.06192253  , 0
-0.0493010469, -0.563923061, -10.2552376 , -2.704293E-05, 0.000795751752, 0.0031462824, 0.42209956  , 0.8346652   , 0.7128058   , 0.000476236281, 0.00164529891, -1.060416   , 3.92        , 23          , 50          , 0           , 0
-0.04050734 , -0.6795073  , -10.1934958 , -2.704293E-05, 0.000795751752, 0.0031462824, 0.420380354 , 0.8410643   , 0.7062066   , 0.0004760178, 0.00165324146, -1.06038451 , 3.93        , 23          , 11          , 0.00941746  , 0.00941715
0.05404001  , -1.04885    , -10.1477995 , -2.704293E-05, 0.000795751752, 0.0031462824, 0.4198742   , 0.849119544 , 0.6959636   , 0.000475799432, 0.00166118413, -1.060353   , 3.94        , 23          , 12          , 0.06192253  , 0
0.096177645 , -1.37512636 , -10.1728048 , -2.704293E-05, 0.000795751752, 0.0031462824, 0.417443931 , 0.85705     , 0.6857138   , 0.0004755814, 0.00166912668, -1.06032157 , 3.95        , 23          , 50          , 0           , 0
0.110738538 , -1.55047894 , -10.2827787 , -2.704293E-05, 0.000795751752, 0.0031462824, 0.417443931 , 0.85705     , 0.6857138   , 0.0004753636, 0.0016770697, -1.0602901  , 3.96        , 23          , 11          , 0.00941746  , 0.00941715
0.09912935  , -1.52971458 , -10.1986179 , -2.704293E-05, 0.000795751752, 0.0031462824, 0.416121453 , 0.8646954   , 0.67715174  , 0.000475146051, 0.00168501225, -1.06025863 , 3.97        , 23          , 12          , 0.06192253  , 0
0.115806833 , -1.28781319 , -10.0445528 , -2.704293E-05, 0.000795751752, 0.0031462824, 0.4139451   , 0.874011755 , 0.663675666 , 0.0004749288, 0.0016929548, -1.06022716 , 3.98        , 23          , 50          , 0           , 0
0.133727312 , -1.23191476 , -10.1645651 , -2.704293E-05, 0.000795751752, 0.0031462824, 0.410815924 , 0.8829194   , 0.652160764 , 0.0004747117, 0.00170089735, -1.06019568 , 3.99        , 23          , 11          , 0.00941746  , 0.00941715
0.063447006 , -1.25531626 , -10.2056885 , -2.6921276E-05, 0.0007957634, 0.00314605935, 0.4093217   , 0.892647    , 0.637985647 , 0.000474809029, 0.00170886994, -1.06016564 , 4           , 23          , 12          , 0.0629923046, 0
-0.08548011 , -1.41457343 , -10.0225191 , -2.6921276E-05, 0.0007957634, 0.00314605935, 0.4093217   , 0.892647    , 0.637985647 , 0.000474593835, 0.00171681249, -1.06013417 , 4.01        , 23          , 50          , 0           , 0
-0.23172906 , -1.53907681 , -9.778948   , -2.6921276E-05, 0.0007957634, 0.00314605935, 0.4058894   , 0.903638661 , 0.622681439 , 0.0004743787, 0.00172475528, -1.0601027  , 4.02        , 23          , 11          , 0.009805402 , 0.009805062
-0.28097403 , -1.664945   , -10.0571661 , -2.6921276E-05, 0.0007957634, 0.00314605935, 0.403446257 , 0.9126798   , 0.6110287   , 0.000474163971, 0.00173269806, -1.06007123 , 4.03        , 23          , 12          , 0.0629923046, 0
-0.230693981, -1.96613634 , -10.28742   , -2.6921276E-05, 0.0007957634, 0.00314605935, 0.401384562 , 0.9231047   , 0.593203    , 0.000473949534, 0.00174064073, -1.06003976 , 4.04        , 23          , 50          , 0           , 0
-0.1809639  , -2.2856462  , -10.0499144 , -2.6921276E-05, 0.0007957634, 0.00314605935, 0.398512155 , 0.932564139 , 0.5774791   , 0.000473735272, 0.00174858386, -1.06000829 , 4.05        , 23          , 11          , 0.009805402 , 0.009805062
-0.07919279 , -2.33133078 , -9.868851   , -2.6921276E-05, 0.0007957634, 0.00314605935, 0.398512155 , 0.932564139 , 0.5774791   , 0.0004735211, 0.00175652653, -1.05997682 , 4.06        , 23          , 12          , 0.0629923046, 0
-0.0106339175, -2.26315856 , -9.931205   , -2.6921276E-05, 0.0007957634, 0.00314605935, 0.396583349 , 0.9436826   , 0.5597945   , 0.0004733072, 0.0017644692, -1.05994534 , 4.07        , 23          , 50          , 0           , 0
-0.06383871 , -2.1927073  , -9.863897   , -2.6921276E-05, 0.0007957634, 0.00314605935, 0.393811226 , 0.955361068 , 0.5378971   , 0.00047309362, 0.00177241187, -1.05991387 , 4.08        , 23          , 11          , 0.009805402 , 0.009805062
-0.0411961973, -2.30869532 , -9.560465   , -2.6921276E-05, 0.0007957634, 0.00314605935, 0.391330361 , 0.9667613   , 0.5202106   , 0.00047288026, 0.00178035465, -1.0598824  , 4.09        , 23          , 12          , 0.0629923046, 0
-0.0661357343, -2.52629256 , -9.682266   , 0.00129212835, 0.000767434 , 0.003136386 , 0.390219122 , 0.9767607   , 0.497897178 , 0.00399305  , 0.00169936579, -1.05990481 , 4.1         , 23          , 50          , 0           , 0
-0.0197819918, -2.814544   , -9.882603   , 0.00129212835, 0.000767434 , 0.003136386 , 0.387043536 , 0.9873311   , 0.4762786   , 0.004006025 , 0.00170691451, -1.05987382 , 4.11        , 23          , 11          , 0.0101983622, 0.0101979952
-0.1098756  , -3.35200667 , -9.880688   , 0.00129212835, 0.000767434 , 0.003136386 , 0.387043536 , 0.9873311   , 0.4762786   , 0.00401899964, 0.00171446265, -1.05984235 , 4.12        , 23          , 12          , 0.06406729  , 0
-0.463849932, -3.875256   , -9.542652   , 0.00129212835, 0.000767434 , 0.003136386 , 0.3856629   , 0.9974722   , 0.455929071 , 0.004031974 , 0.00172201043, -1.05981088 , 4.13        , 23          , 50          , 0           , 0
-0.363887   , -3.70854568 , -9.049328   , 0.00129212835, 0.000767434 , 0.003136386 , 0.384126127 , 1.00789011  , 0.430667222 , 0.00404495  , 0.00172955811, -1.05977941 , 4.14        , 23          , 11          , 0.0101983622, 0.0101979952
-0.307845265, -3.6836803  , -9.267953   , 0.00129212835, 0.000767434 , 0.003136386 , 0.380531371 , 1.01846278  , 0.407082438 , 0.00405792473, 0.00173710531, -1.05974793 , 4.15        , 23          , 12          , 0.06406729  , 0
-0.191563308, -3.6667645  , -9.244792   , 0.00129212835, 0.000767434 , 0.003136386 , 0.378437    , 1.028745    , 0.3792926   , 0.004070901 , 0.00174465217, -1.0597167  , 4.16        , 23          , 50          , 0           , 0
-0.153430328, -3.81073356 , -8.816      , 0.00129212835, 0.000767434 , 0.003136386 , 0.378437    , 1.028745    , 0.3792926   , 0.0040838765, 0.00175219786, -1.059685   , 4.17        , 23          , 11          , 0.0101983622, 0.0101979952
-0.148475111, -3.89765549 , -8.655542   , 0.00129212835, 0.000767434 , 0.003136386 , 0.374408752 , 1.03945756  , 0.34981218  , 0.00409685262, 0.00175974378, -1.05965376 , 4.18        , 23          , 12          , 0.06406729  , 0
-0.117513135, -3.99400854 , -8.665358   , 0.00129212835, 0.000767434 , 0.003136386 , 0.3701231   , 1.04934     , 0.323698729 , 0.00410982873, 0.00176728959, -1.05962253 , 4.19        , 23          , 50          , 0           , 0
-0.110978447, -4.23069048 , -8.674756   , 0.00129255245, 0.00076742  , 0.003135866 , 0.3659667   , 1.05838645  , 0.293375164 , 0.004123966 , 0.00177479524, -1.05959415 , 4.2         , 23          , 11          , 0.0105164014, 0.0105160158
-0.173899949, -4.50490856 , -8.603905   , 0.00129255245, 0.00076742  , 0.003135866 , 0.360030919 , 1.067308    , 0.2651505   , 0.004136947 , 0.00178233976, -1.05956268 , 4.21        , 23          , 12          , 0.06514704  , 0
-0.2799948  , -4.75557661 , -8.449885   , 0.00129255245, 0.00076742  , 0.003135866 , 0.360030919 , 1.067308    , 0.2651505   , 0.00414992776, 0.00178988371, -1.05953145 , 4.22        , 23          , 50          , 0           , 0
-0.4193892  , -4.92926741 , -8.016141   , 0.00129255245, 0.00076742  , 0.003135866 , 0.354789257 , 1.07525182  , 0.236787453 , 0.00416290946, 0.00179742754, -1.0595     , 4.23        , 23          , 11          , 0.0105164014, 0.0105160158
-0.3555186  , -5.202077   , -8.258275   , 0.00129255245, 0.00076742  , 0.003135866 , 0.3489841   , 1.08361554  , 0.205335245 , 0.004175892 , 0.00180497044, -1.05946851 , 4.24        , 23          , 12          , 0.06514704  , 0
-0.223385   , -5.18740749 , -8.268501   , 0.00129255245, 0.00076742  , 0.003135866 , 0.341965318 , 1.09060109  , 0.177948043 , 0.004188874 , 0.00181251357, -1.059437   , 4.25        , 23          , 50          , 0           , 0
-0.225949064, -5.42272568 , -7.87548351 , 0.00129255245, 0.00076742  , 0.003135866 , 0.336047143 , 1.0954932   , 0.146213368 , 0.00420185644, 0.001820056 , -1.05940557 , 4.26        , 23          , 11          , 0.0105164014, 0.0105160158
-0.216947392, -5.46143055 , -7.753859   , 0.00129255245, 0.00076742  , 0.003135866 , 0.3272262   , 1.10207331  , 0.113627292 , 0.004214838 , 0.00182759773, -1.05937433 , 4.27        , 23          , 12          , 0.06514704  , 0
-0.173626721, -5.386409   , -7.608472   , 0.00129255245, 0.00076742  , 0.003135866 , 0.3272262   , 1.10207331  , 0.113627292 , 0.00422782125, 0.00183513947, -1.05934286 , 4.28        , 23          , 50          , 0           , 0
-0.116105996, -5.27665    , -7.31366062 , 0.00129255245, 0.00076742  , 0.003135866 , 0.318844676 , 1.10615087  , 0.0835678   , 0.004240805 , 0.00184268085, -1.05931163 , 4.29        , 23          , 11          , 0.0105164014, 0.0105160158
-0.005343853, -5.48377752 , -7.272272   , 0.0012931393, 0.000767407 , 0.00313515449, 0.311004847 , 1.10980666  , 0.0501419   , 0.00425543962, 0.00185018079, -1.05928445 , 4.3         , 23          , 12          , 0.0662311539, 0
0.125789478 , -5.876837   , -7.38655329 , 0.0012931393, 0.000767407 , 0.00313515449, 0.302351683 , 1.1137476   , 0.02078311  , 0.004268429 , 0.00185772113, -1.059253   , 4.31        , 23          , 50          , 0           , 0
0.217747927 , -6.154373   , -7.32962751 , 0.0012931393, 0.000767407 , 0.00313515449, 0.296196252 , 1.11419761  , -0.009410521, 0.004281419 , 0.00186526042, -1.05922174 , 4.32        , 23          , 11          , 0.0109144365, 0.0109140165
0.182996839 , -6.312646   , -7.107644   , 0.0012931393, 0.000767407 , 0.00313515449, 0.296196252 , 1.11419761  , -0.009410521, 0.004294408 , 0.00187279994, -1.05919027 , 4.33        , 23          , 12          , 0.0662311539, 0
0.1405772   , -6.25239849 , -7.0864625  , 0.0012931393, 0.000767407 , 0.00313515449, 0.288788617 , 1.11646235  , -0.04002875 , 0.00430739857, 0.00188033923, -1.059159   , 4.34        , 23          , 50          , 0           , 0
0.100339256 , -6.504476   , -7.27684164 , 0.0012931393, 0.000767407 , 0.00313515449, 0.281417042 , 1.11581182  , -0.06629757 , 0.00432038866, 0.00188787736, -1.05912757 , 4.35        , 23          , 11          , 0.0109144365, 0.0109140165
0.00517442031, -6.641476   , -7.32091331 , 0.0012931393, 0.000767407 , 0.00313515449, 0.2759653   , 1.11431229  , -0.0959282145, 0.004333379 , 0.0018954156, -1.0590961  , 4.36        , 23          , 12          , 0.0662311539, 0
-0.09754983 , -6.56775761 , -7.112382   , 0.0012931393, 0.000767407 , 0.00313515449, 0.268991381 , 1.11490822  , -0.123879194, 0.00434636977, 0.00190295337, -1.05906463 , 4.37        , 23          , 50          , 0           , 0
-0.13715674 , -6.65238    , -6.81295061 , 0.0012931393, 0.000767407 , 0.00313515449, 0.268991381 , 1.11490822  , -0.123879194, 0.00435936125, 0.00191049057, -1.05903316 , 4.38        , 23          , 11          , 0.0109144365, 0.0109140165
-0.05598136 , -6.889384   , -6.326149   , 0.0012931393, 0.000767407 , 0.00313515449, 0.263703436 , 1.11104739  , -0.150843829, 0.004372352 , 0.00191802764, -1.05900192 , 4.39        , 23          , 12          , 0.0662311539, 0
0.0552636161, -7.126449   , -5.946736   , 0.00129393907, 0.000767401 , 0.003134288 , 0.257430762 , 1.10899842  , -0.18047753 , 0.00438766275, 0.00192554144, -1.05897593 , 4.4         , 23          , 50          , 0           , 0
0.0211564116, -7.28512335 , -5.62222576 , 0.00129393907, 0.000767401 , 0.003134288 , 0.2506269   , 1.10612178  , -0.2063243  , 0.004400662 , 0.00193307747, -1.05894446 , 4.41        , 23          , 11          , 0.0113157043, 0.011315247
0.113155872 , -7.13764954 , -5.690082   , 0.00129393907, 0.000767401 , 0.003134288 , 0.245763555 , 1.099896    , -0.234832153, 0.00441366155, 0.00194061291, -1.058913   , 4.42        , 23          , 12          , 0.06731922  , 0
0.228627339 , -7.163046   , -5.8023653  , 0.00129393907, 0.000767401 , 0.003134288 , 0.239507571 , 1.09659779  , -0.262220919, 0.004426662 , 0.00194814824, -1.05888152 , 4.43        , 23          , 50          , 0           , 0
0.287310421 , -7.51040363 , -5.717751   , 0.00129393907, 0.000767401 , 0.003134288 , 0.239507571 , 1.09659779  , -0.262220919, 0.00443966174, 0.001955683 , -1.05885029 , 4.44        , 23          , 11          , 0.0113157043, 0.011315247
0.491514862 , -7.723681   , -5.88430071 , 0.00129393907, 0.000767401 , 0.003134288 , 0.233424351 , 1.09024441  , -0.2858212  , 0.004452663 , 0.001963217 , -1.05881882 , 4.45        , 23          , 12          , 0.06731922  , 0
0.5419196   , -7.7962327  , -5.745677   , 0.00129393907, 0.000767401 , 0.003134288 , 0.2291195   , 1.08415449  , -0.311520278, 0.004465664 , 0.001970751 , -1.05878758 , 4.46        , 23          , 50          , 0           , 0
0.44525677  , -7.920502   , -5.46398354 , 0.00129393907, 0.000767401 , 0.003134288 , 0.222611487 , 1.080444    , -0.333015919, 0.0044786646, 0.001978285 , -1.05875611 , 4.47        , 23          , 11          , 0.0113157043, 0.011315247
0.239654943 , -8.230039   , -5.272026   , 0.00129393907, 0.000767401 , 0.003134288 , 0.2175056   , 1.0728339   , -0.354929328, 0.004491666 , 0.00198581768, -1.05872464 , 4.48        , 23          , 12          , 0.06731922  , 0
-0.2096289  , -8.574407   , -5.20277357 , 0.00129393907, 0.000767401 , 0.003134288 , 0.2175056   , 1.0728339   , -0.354929328, 0.004504668 , 0.00199335068, -1.05869317 , 4.49        , 23          , 50          , 0           , 0
-0.441745639, -8.432069   , -4.993171   , 0.00129497552, 0.000767377147, 0.00313329953, 0.211412609 , 1.06786954  , -0.378388762, 0.00452076225, 0.00200080336, -1.0586679  , 4.5         , 23          , 11          , 0.0117197437, 0.011719252
-0.503651738, -8.415204   , -4.500016   , 0.00129497552, 0.000767377147, 0.00313329953, 0.204519525 , 1.06055069  , -0.399606526, 0.00453377375, 0.002008335 , -1.05863667 , 4.51        , 23          , 12          , 0.0684108958, 0
-0.448313326, -8.497661   , -4.047105   , 0.00129497552, 0.000767377147, 0.00313329953, 0.197900563 , 1.0510056   , -0.425876349, 0.00454678666, 0.00201586634, -1.05860519 , 4.52        , 23          , 50          , 0           , 0
-0.278765231, -8.51625    , -3.88406229 , 0.00129497552, 0.000767377147, 0.00313329953, 0.190028325 , 1.043553    , -0.452290028, 0.0045598   , 0.002023397 , -1.058574   , 4.53        , 23          , 11          , 0.0117197437, 0.011719252
-0.09005752 , -8.336031   , -3.94403768 , 0.00129497552, 0.000767377147, 0.00313329953, 0.190028325 , 1.043553    , -0.452290028, 0.0045728134, 0.00203092746, -1.05854249 , 4.54        , 23          , 12          , 0.0684108958, 0
0.2119933   , -8.436326   , -4.397802   , 0.00129497552, 0.000767377147, 0.00313329953, 0.182193771 , 1.03082228  , -0.4789864  , 0.004585826 , 0.002038457 , -1.058511   , 4.55        , 23          , 50          , 0           , 0
0.344102025 , -8.750953   , -5.30267668 , 0.00129497552, 0.000767377147, 0.00313329953, 0.17392236  , 1.02045488  , -0.5077884  , 0.004598839 , 0.00204598648, -1.05847955 , 4.56        , 23          , 11          , 0.0117197437, 0.011719252
0.252261668 , -8.349328   , -4.21708441 , 0.00129497552, 0.000767377147, 0.00313329953, 0.166222736 , 1.009113    , -0.5322383  , 0.004611853 , 0.00205351575, -1.05844808 , 4.57        , 23          , 12          , 0.0684108958, 0
-0.00217876956, -8.489278   , -3.97133756 , 0.00129497552, 0.000767377147, 0.00313329953, 0.1607476   , 0.9945602   , -0.5564012  , 0.004624867 , 0.00206104433, -1.0584166  , 4.58        , 23          , 50          , 0           , 0
-0.1624398  , -8.60374    , -4.20558929 , 0.00129497552, 0.000767377147, 0.00313329953, 0.15400207  , 0.98501724  , -0.579443753, 0.004637882 , 0.00206857268, -1.05838537 , 4.59        , 23          , 11          , 0.0117197437, 0.011719252
-0.227864608, -8.654027   , -4.01342964 , 0.00129605213, 0.000767360441, 0.00313329115, 0.15400207  , 0.98501724  , -0.579443753, 0.004654209 , 0.00207603443, -1.0583539  , 4.6         , 23          , 12          , 0.0695058256, 0
-0.239841253, -8.60911    , -4.16933441 , 0.00129605213, 0.000767360441, 0.00313329115, 0.147568569 , 0.9717231   , -0.59968    , 0.00466723461, 0.00208356138, -1.05832267 , 4.61        , 23          , 50          , 0           , 0
-0.08989458 , -8.58121    , -4.173049   , 0.00129605213, 0.000767360441, 0.00313329115, 0.143184274 , 0.959524453 , -0.621452451, 0.00468026055, 0.0020910888, -1.0582912  , 4.62        , 23          , 11          , 0.0121261589, 0.01212563
0.32382682  , -8.832847   , -3.66756368 , 0.00129605213, 0.000767360441, 0.00313329115, 0.137555    , 0.9498362   , -0.6400004  , 0.004693287 , 0.00209861551, -1.05825973 , 4.63        , 23          , 12          , 0.0695058256, 0
0.5256489   , -9.0818     , -3.28793335 , 0.00129605213, 0.000767360441, 0.00313329115, 0.133336216 , 0.9356933   , -0.65770334 , 0.004706313 , 0.002106141 , -1.05822825 , 4.64        , 23          , 50          , 0           , 0
0.681752    , -9.241285   , -2.63708878 , 0.00129605213, 0.000767360441, 0.00313329115, 0.133336216 , 0.9356933   , -0.65770334 , 0.00471933931, 0.00211366685, -1.05819678 , 4.65        , 23          , 11          , 0.0121261589, 0.01212563
1.26497209  , -9.371229   , -1.74955487 , 0.00129605213, 0.000767360441, 0.00313329115, 0.129360363 , 0.9259933   , -0.6752631  , 0.004732366 , 0.002121192 , -1.05816531 , 4.66        , 23          , 12          , 0.0695058256, 0
1.93678093  , -9.293666   , -1.89545321 , 0.00129605213, 0.000767360441, 0.00313329115, 0.125545889 , 0.914209664 , -0.690297246, 0.004745393 , 0.002128717 , -1.05813384 , 4.67        , 23          , 50          , 0           , 0
2.16960549  , -9.140898   , -2.99662113 , 0.00129605213, 0.000767360441, 0.00313329115, 0.123119242 , 0.9014444   , -0.7036429  , 0.0047584204, 0.002136241 , -1.05810261 , 4.68        , 23          , 11          , 0.0121261589, 0.01212563
1.502826    , -9.030008   , -3.82230353 , 0.00129605213, 0.000767360441, 0.00313329115, 0.11996416  , 0.8966031   , -0.7119357  , 0.00477144774, 0.002143765 , -1.05807137 , 4.69        , 23          , 12          , 0.0695058256, 0
0.608565867 , -9.082794   , -3.77183151 , 0.00325194234, 0.00110077066, 0.003116259 , 0.11996416  , 0.8966031   , -0.7119357  , 0.010980268 , 0.003179139 , -1.05813146 , 4.7         , 23          , 50          , 0           , 0
0.12377511  , -9.250884   , -3.333414   , 0.00325194234, 0.00110077066, 0.003116259 , 0.120132729 , 0.890350044 , -0.716288149, 0.0110128876, 0.00318980333, -1.0581     , 4.71        , 23          , 11          , 0.0125346035, 0.0125340354
0.009385657 , -9.429725   , -2.81832623 , 0.00325194234, 0.00110077066, 0.003116259 , 0.122062735 , 0.888112068 , -0.7196505  , 0.0110455072, 0.003200466 , -1.05806875 , 4.72        , 23          , 12          , 0.0706044137, 0
-0.0341302976, -9.501781   , -2.49846721 , 0.00325194234, 0.00110077066, 0.003116259 , 0.124271877 , 0.886150658 , -0.7211874  , 0.0110781258, 0.00321112853, -1.05803752 , 4.73        , 23          , 50          , 0           , 0
-0.267241269, -9.473412   , -2.459301   , 0.00325194234, 0.00110077066, 0.003116259 , 0.1275986   , 0.8812638   , -0.7238442  , 0.0111107463, 0.00322179  , -1.058006   , 4.74        , 23          , 11          , 0.0125346035, 0.0125340354
-0.5348352  , -9.418132   , -2.542413   , 0.00325194234, 0.00110077066, 0.003116259 , 0.1275986   , 0.8812638   , -0.7238442  , 0.0111433687, 0.00323245022, -1.05797482 , 4.75        , 23          , 12          , 0.0706044137, 0
-0.8230283  , -9.347823   , -2.596553   , 0.00325194234, 0.00110077066, 0.003116259 , 0.127865553 , 0.8802878   , -0.7283345  , 0.0111759882, 0.00324311014, -1.05794358 , 4.76        , 23          , 50          , 0           , 0
-1.11816943 , -9.3712     , -2.46956468 , 0.00325194234, 0.00110077066, 0.003116259 , 0.126788616 , 0.8757111   , -0.7314275  , 0.0112086115, 0.00325376727, -1.05791211 , 4.77        , 23          , 11          , 0.0125346035, 0.0125340354
-1.4343617  , -10.0170689 , -1.60181773 , 0.00325194234, 0.00110077066, 0.003116259 , 0.125700161 , 0.871550143 , -0.7370465  , 0.011241233 , 0.00326442462, -1.05788088 , 4.78        , 23          , 12          , 0.0706044137, 0
-0.7922937  , -9.6688385  , -1.808095   , 0.00325194234, 0.00110077066, 0.003116259 , 0.123911865 , 0.869061053 , -0.7426672  , 0.0112738535, 0.00327508035, -1.05784965 , 4.79        , 23          , 50          , 0           , 0
-0.2076241  , -9.501624   , -1.73306251 , 0.00703267241, 0.000805061834, 0.00308940117, 0.124644436 , 0.859469056 , -0.750106454, 0.0236078   , 0.0022680182, -1.05798793 , 4.8         , 23          , 11          , 0.012901444 , 0.0129008405
0.2674489   , -9.751129   , -1.00330746 , 0.00703267241, 0.000805061834, 0.00308940117, 0.124644436 , 0.859469056 , -0.750106454, 0.0236781966, 0.00227533653, -1.0579567  , 4.81        , 23          , 12          , 0.07170571  , 0
0.251336753 , -9.776733   , -1.04922187 , 0.00703267241, 0.000805061834, 0.00308940117, 0.124239177 , 0.8553027   , -0.7569861  , 0.02374859  , 0.00228265137, -1.05792546 , 4.82        , 23          , 50          , 0           , 0
0.09441942  , -9.671438   , -1.54655278 , 0.00703267241, 0.000805061834, 0.00308940117, 0.124400355 , 0.8505779   , -0.7602153  , 0.02381899  , 0.00228996412, -1.05789447 , 4.83        , 23          , 11          , 0.012901444 , 0.0129008405
0.0563654527, -9.654639   , -1.75294769 , 0.00703267241, 0.000805061834, 0.00308940117, 0.125526831 , 0.845151246 , -0.76414305 , 0.023889387 , 0.00229727686, -1.05786347 , 4.84        , 23          , 12          , 0.07170571  , 0
0.0301357955, -9.644912   , -1.6734587  , 0.00703267241, 0.000805061834, 0.00308940117, 0.12633954  , 0.845143735 , -0.767789   , 0.0239597857, 0.002304585 , -1.05783248 , 4.85        , 23          , 50          , 0           , 0
0.135989964 , -9.711048   , -1.26944482 , 0.00703267241, 0.000805061834, 0.00308940117, 0.12633954  , 0.845143735 , -0.767789   , 0.02403018  , 0.002311893 , -1.05780149 , 4.86        , 23          , 11          , 0.012901444 , 0.0129008405
0.4375735   , -9.799507   , -0.9055795  , 0.00703267241, 0.000805061834, 0.00308940117, 0.127053589 , 0.8402762   , -0.770455   , 0.024100583 , 0.00231919647, -1.05777025 , 4.87        , 23          , 12          , 0.07170571  , 0
0.434514344 , -9.737787   , -1.086589   , 0.00703267241, 0.000805061834, 0.00308940117, 0.127474055 , 0.8376328   , -0.7738227  , 0.02417098  , 0.002326499 , -1.057739   , 4.88        , 23          , 50          , 0           , 0
0.0329337865, -9.685859   , -1.43173361 , 0.00703267241, 0.000805061834, 0.00308940117, 0.127201155 , 0.8362449   , -0.77620995 , 0.0242413823, 0.00233380147, -1.057708   , 4.89        , 23          , 11          , 0.012901444 , 0.0129008405
-0.459438026, -9.617567   , -1.66052449 , 0.0400481932, 0.0010450175, 0.00283350982, 0.126953468 , 0.8308285   , -0.7798616  , 0.134694949 , 0.00273012719, -1.059243   , 4.9         , 23          , 12          , 0.072809346 , 0
-0.6958281  , -9.624844   , -1.62712157 , 0.0400481932, 0.0010450175, 0.00283350982, 0.126953468 , 0.8308285   , -0.7798616  , 0.135095492 , 0.0027366688, -1.0592134  , 4.91        , 23          , 50          , 0           , 0
-0.637805462, -9.629057   , -1.56010342 , 0.0400481932, 0.0010450175, 0.00283350982, 0.124605708 , 0.829315543 , -0.7861856  , 0.13549605  , 0.002743203 , -1.05918407 , 4.92        , 23          , 11          , 0.0132294064, 0.01322874
-0.51936096 , -9.678974   , -1.39256811 , 0.0400481932, 0.0010450175, 0.00283350982, 0.120790556 , 0.8217022   , -0.792376757, 0.135896608 , 0.00274972967, -1.05915451 , 4.93        , 23          , 12          , 0.072809346 , 0
0.105111629 , -9.74914551 , -1.08743572 , 0.0400481932, 0.0010450175, 0.00283350982, 0.116412759 , 0.8146476   , -0.8010957  , 0.136297166 , 0.002756234 , -1.059125   , 4.94        , 23          , 50          , 0           , 0
1.05089426  , -9.771824   , -0.92252326 , 0.0400481932, 0.0010450175, 0.00283350982, 0.112022676 , 0.810371935 , -0.807427764, 0.136697724 , 0.00276273466, -1.05909562 , 4.95        , 23          , 11          , 0.0132294064, 0.01322874
1.25500393  , -9.723549   , -1.145364   , 0.0400481932, 0.0010450175, 0.00283350982, 0.1094455   , 0.8038617   , -0.811088145, 0.1370983   , 0.00276922039, -1.059066   , 4.96        , 23          , 12          , 0.072809346 , 0
0.664759159 , -9.696108   , -1.32972157 , 0.0400481932, 0.0010450175, 0.00283350982, 0.1094455   , 0.8038617   , -0.811088145, 0.137498841 , 0.00277569867, -1.05903649 , 4.97        , 23          , 50          , 0           , 0
0.214058608 , -9.705436   , -1.39151239 , 0.0400481932, 0.0010450175, 0.00283350982, 0.107654504 , 0.803040445 , -0.8139014  , 0.137899429 , 0.002782162 , -1.05900693 , 4.98        , 23          , 11          , 0.0132294064, 0.01322874
0.129933357 , -9.74471951 , -1.23454893 , 0.0400481932, 0.0010450175, 0.00283350982, 0.106846616 , 0.7999903   , -0.8154492  , 0.138299987 , 0.00278861076, -1.05897737 , 4.99        , 23          , 12          , 0.072809346 , 0
0.2139406   , -9.737552   , -1.00744033 , 0.049977947 , 0.00120328879, 0.00275134738, 0.107829995 , 0.7962321   , -0.817412   , 0.172819927 , 0.00324111246, -1.05943036 , 5           , 23          , 50          , 0           , 0
0.213003635 , -9.737644   , -0.994346142, 0.049977947 , 0.00120328879, 0.00275134738, 0.107678793 , 0.797065735 , -0.8196576  , 0.173319817 , 0.00324822054, -1.05940127 , 5.01        , 23          , 11          , 0.0129138771, 0.0129084568
0.208311573 , -9.731552   , -1.06567037 , 0.049977947 , 0.00120328879, 0.00275134738, 0.107678793 , 0.797065735 , -0.8196576  , 0.173819691 , 0.0032553284, -1.059372   , 5.02        , 23          , 12          , 0.07391484  , 0
0.0351190753, -9.719154   , -1.073861   , 0.049977947 , 0.00120328879, 0.00275134738, 0.108800963 , 0.7935847   , -0.8206376  , 0.1743196   , 0.003262414 , -1.05934262 , 5.03        , 23          , 50          , 0           , 0
-0.207986727, -9.698112   , -1.05918956 , 0.049977947 , 0.00120328879, 0.00275134738, 0.108939968 , 0.792471766 , -0.8226023  , 0.17481944  , 0.003269477 , -1.05931354 , 5.04        , 23          , 11          , 0.0129138771, 0.0129084568
-0.382600248, -9.689763   , -1.06742287 , 0.049977947 , 0.00120328879, 0.00275134738, 0.108252086 , 0.7912257   , -0.8254119  , 0.175319314 , 0.00327653275, -1.05928421 , 5.05        , 23          , 12          , 0.07391484  , 0
-0.287571937, -9.735245   , -0.897672951, 0.049977947 , 0.00120328879, 0.00275134738, 0.107873335 , 0.785254955 , -0.8283627  , 0.1758192   , 0.003283581 , -1.05925488 , 5.06        , 23          , 50          , 0           , 0
-0.115976557, -9.747955   , -0.7932855  , 0.049977947 , 0.00120328879, 0.00275134738, 0.107873335 , 0.785254955 , -0.8283627  , 0.176319078 , 0.00329059223, -1.0592258  , 5.07        , 23          , 11          , 0.0129138771, 0.0129084568
-0.0448181741, -9.730654   , -0.782478869, 0.049977947 , 0.00120328879, 0.00275134738, 0.105395824 , 0.783326864 , -0.8332838  , 0.176818922 , 0.00329759577, -1.05919647 , 5.08        , 23          , 12          , 0.07391484  , 0
-0.0343964845, -9.740573   , -0.862478554, 0.049977947 , 0.00120328879, 0.00275134738, 0.102261089 , 0.7776538   , -0.83736676 , 0.1773188   , 0.00330459187, -1.05916715 , 5.09        , 23          , 50          , 0           , 0
0.00284091616, -9.692302   , -0.808599055, 0.0617347769, 0.00118169328, 0.00267107366, 0.09980717  , 0.772253036 , -0.842850566, 0.219284773 , 0.00312828785, -1.05963969 , 5.1         , 23          , 11          , 0.0130703673, 0.0130645828
