Acc X       , Acc Y       , Acc Z       , Gyro X      , Gyro Y      , Gyro Z      , Magn X      , Magn Y      , Magn Z      , Euler X     , Euler Y     , Euler Z     , Time        , Status      , LowRate X   , LowRate Y   , LowRate Z    
-0.163876712, -0.01003018 , -9.820061   , -0.00329585071, -0.0005244444, 0.000367424276, 0.0764460042, -0.347512484, 0.6451395   , 0.00136056554, -0.016454149, 1.38405156  , 0           , 3           , 11          , 0.0346410163, 0.0346410163
-0.1716537  , -0.04117576 , -9.812235   , -0.00102744484, 0.0002225696, 0.000108363587, 0.07631118  , -0.347310245, 0.6449373   , 0.00135027315, -0.0164519213, 1.384053    , 0.01        , 3           , 12          , 0.0346410163, 0
-0.153515816, -0.0244268682, -9.772636   , 0.00158357841, -0.0008281106, -0.00029356798, 0.07651342  , -0.347108   , 0.6452069   , 0.00136615767, -0.0164602  , 1.38404965  , 0.02        , 3           , 50          , 0           , 0
-0.150846839, -0.03153421 , -9.787187   , 0.00324136741, 0.00191083562, 0.0005908173, 0.07651342  , -0.347175419, 0.6452069   , 0.001398473 , -0.0164411  , 1.38405585  , 0.03        , 3           , 11          , 0.0346410163, 0.0346410163
-0.170198455, -0.0179001763, -9.791629   , 0.001842565 , 0.0009691593, 0.000716770766, 0.07651342  , -0.347175419, 0.6452069   , 0.001416781 , -0.0164314173, 1.384063    , 0.04        , 3           , 12          , 0.0346410163, 0
-0.158029735, -0.0281259548, -9.759101   , 0.002047269 , 0.000101248384, 0.00124549167, 0.07658083  , -0.347175419, 0.6450047   , 0.00143704866, -0.0164304245, 1.3840754   , 0.05        , 3           , 50          , 0           , 0
-0.169319943, -0.028891176, -9.770908   , -8.787252E-05, -0.0005772125, 0.0012384986, 0.0764460042, -0.347175419, 0.6450721   , 0.00143596751, -0.0164362136, 1.3840878   , 0.06        , 3           , 11          , 0.0346410163, 0.0346410163
-0.177919745, -0.0285611823, -9.808051   , 0.00191648689, -0.0005607396, -2.49359473E-05, 0.07678307  , -0.347377658, 0.6450047   , 0.00145513634, -0.0164418221, 1.38408732  , 0.07        , 3           , 12          , 0.0346410163, 0
-0.162140474, -0.0308596212, -9.809846   , 0.00104506547, 9.34423661E-05, 0.0017772225, 0.07678307  , -0.347377658, 0.6450047   , 0.00146529474, -0.0164409131, 1.38410544  , 0.08        , 3           , 50          , 0           , 0
-0.167935833, -0.0147053581, -9.797478   , -0.00194898935, -0.00271693873, 0.000290504744, 0.07664824  , -0.347310245, 0.644869864 , 0.00144575734, -0.01646809 , 1.38410783  , 0.09        , 3           , 11          , 0.0346410163, 0.0346410163
-0.159729987, 0.01058477  , -9.806265   , -0.00275079021, -0.002722495, 0.0005559102, 0.07637859  , -0.346973181, 0.6450721   , 0.00141815958, -0.0164953209, 1.38411355  , 0.1         , 3           , 12          , 0.0346410163, 0
-0.148036733, 0.00201860629, -9.811752   , 0.0008476987, -0.0005732174, 0.00150655687, 0.07658083  , -0.347377658, 0.6450721   , 0.00142638909, -0.0165010728, 1.38412881  , 0.11        , 3           , 50          , 0           , 0
-0.142638445, -0.006738562, -9.790545   , -0.002562311, -0.000188485486, 0.000703698141, 0.07658083  , -0.347377658, 0.6450721   , 0.001400648 , -0.0165029671, 1.38413548  , 0.12        , 3           , 11          , 0.0346410163, 0.0346410163
-0.149385676, -0.002702998, -9.784637   , -0.000896552869, 0.000760686351, -0.0008216579, 0.07637859  , -0.347377658, 0.644802451 , 0.00139181747, -0.0164953526, 1.38412738  , 0.13        , 3           , 12          , 0.0346410163, 0
-0.174170643, 0.009754946 , -9.808573   , 0.00157432712, 0.00110677036, -0.0006160458, 0.0764460042, -0.347377658, 0.6450047   , 0.00140766241, -0.0164842736, 1.38412118  , 0.14        , 3           , 50          , 0           , 0
-0.158510536, -0.02594278 , -9.806167   , 0.00324786641, 0.000513336447, -1.69311716E-05, 0.07637859  , -0.347310245, 0.6451395   , 0.00144014368, -0.0164791383, 1.38412118  , 0.15        , 3           , 11          , 0.0346410163, 0.0346410163
-0.14945738 , -0.0216168966, -9.78753948 , 0.00284876861, 0.000112256843, -0.0002864108, 0.0764460042, -0.347175419, 0.644869864 , 0.00146867824, -0.0164780114, 1.38411832  , 0.16        , 3           , 12          , 0.0346410163, 0
-0.148600623, -0.030040998, -9.805728   , -0.00162052538, -0.00157682411, -0.000835828367, 0.0764460042, -0.347175419, 0.644869864 , 0.001452612 , -0.0164937656, 1.38410974  , 0.17        , 3           , 50          , 0           , 0
-0.157136351, -0.0200794972, -9.807012   , -0.000218274916, -0.00130701892, 0.000234328079, 0.07631118  , -0.347242832, 0.644802451 , 0.00145039009, -0.0165068451, 1.38411212  , 0.18        , 3           , 11          , 0.0346410163, 0.0346410163
-0.1656562  , -0.013092123, -9.774819   , 0.00232444052, -0.00202643569, 0.0002341045, 0.0762437657, -0.347242832, 0.644869864 , 0.001473596 , -0.0165271126, 1.3841145   , 0.19        , 3           , 12          , 0.0346410163, 0
-0.170225158, -0.0223032478, -9.804802   , 0.00184296048, 0.000840124558, -0.000283839443, 0.07637859  , -0.347377658, 0.6446677   , 0.0014920925, -0.0165186469, 1.38411164  , 0.2         , 3           , 50          , 0           , 0
-0.1639266  , -0.0244901143, -9.816126   , 0.00110443891, 0.00150852848, -0.0016143868, 0.07637859  , -0.347377658, 0.6446677   , 0.00150340248, -0.0165035371, 1.38409543  , 0.21        , 3           , 11          , 0.03466991  , 0.0346699134
-0.16661118 , -0.0270505827, -9.77677    , -0.000628267648, 0.0005612851, -0.0006223941, 0.0764460042, -0.3470406  , 0.6449373   , 0.00149722036, -0.01649792 , 1.38408971  , 0.22        , 3           , 12          , 0.03466881  , 0
-0.152153328, -0.0212505  , -9.775771   , -0.0023662087, 0.0006839273, -0.000357670739, 0.07631118  , -0.346973181, 0.644869864 , 0.00147361739, -0.0164910723, 1.38408589  , 0.23        , 3           , 50          , 0           , 0
-0.169731885, -0.0147858933, -9.786618   , -0.00196459657, 0.000612860546, 0.00117569475, 0.07631118  , -0.347175419, 0.6450047   , 0.00145377743, -0.0164849628, 1.38409781  , 0.24        , 3           , 11          , 0.03466991  , 0.0346699134
-0.1783957  , -0.0353222564, -9.808119   , -0.00169919082, 0.000953135255, -8.852858E-05, 0.07631118  , -0.347175419, 0.6450047   , 0.0014368007, -0.01647543 , 1.38409686  , 0.25        , 3           , 12          , 0.03466881  , 0
-0.140907615, -0.0247029439, -9.800224   , -0.000694599235, 0.0004910907, 0.000110365312, 0.0762437657, -0.347445071, 0.644869864 , 0.00142983661, -0.01647052 , 1.38409829  , 0.26        , 3           , 50          , 0           , 0
-0.1489714  , -0.0107472707, -9.79377    , -0.00216547353, 0.0006801509, 0.00077581557, 0.07631118  , -0.347175419, 0.644869864 , 0.0014080524, -0.0164637323, 1.38410592  , 0.27        , 3           , 11          , 0.03466991  , 0.0346699134
-0.152655408, -0.0282079428, -9.807531   , -0.002557566, -0.00118854188, 0.0006981071, 0.07664824  , -0.347108   , 0.6447351   , 0.00138236233, -0.0164756272, 1.3841126   , 0.28        , 3           , 12          , 0.03466881  , 0
-0.182372332, -0.0137063274, -9.802938   , -0.00289721065, -5.41094778E-05, 3.73581024E-05, 0.07664824  , -0.347108   , 0.6447351   , 0.00135338318, -0.01647617 , 1.38411307  , 0.29        , 3           , 50          , 0           , 0
-0.174692422, -0.009168185, -9.810118   , -2.951765E-06, 0.0009653   , -0.000952956034, 0.0762437657, -0.347445071, 0.6446677   , 0.001887001 , -0.0164819267, 1.384095    , 0.3         , 3           , 11          , 0.03475343  , 0.03475344
-0.174228728, -0.009300737, -9.793819   , 0.001604303 , 0.000300810643, 0.000578890846, 0.07637859  , -0.3470406  , 0.6447351   , 0.00190294965, -0.0164789259, 1.38410068  , 0.31        , 3           , 12          , 0.03475387  , 0
-0.1805285  , -0.006164921, -9.788371   , -0.0009978808, -0.000575929, -0.000429799635, 0.07658083  , -0.347242832, 0.644802451 , 0.00189304247, -0.01648468 , 1.38409638  , 0.32        , 3           , 50          , 0           , 0
-0.167950749, -0.0168905314, -9.806102   , -0.00192379 , -0.00258319732, 2.41915022E-05, 0.07658083  , -0.347242832, 0.644802451 , 0.00187380251, -0.016510509, 1.38409638  , 0.33        , 3           , 11          , 0.03475343  , 0.03475344
-0.167884529, -0.00400491431, -9.78243351 , 7.89567348E-05, -0.00217186636, -3.71683818E-05, 0.07658083  , -0.346973181, 0.644802451 , 0.00187459891, -0.0165322255, 1.38409591  , 0.34        , 3           , 12          , 0.03475387  , 0
-0.147524774, 0.0102776941, -9.77364    , -0.000265163224, -4.225415E-05, 0.000440854725, 0.07637859  , -0.3470406  , 0.6449373   , 0.001871875 , -0.0165326577, 1.3841002   , 0.35        , 3           , 50          , 0           , 0
-0.1638949  , -0.0224794373, -9.785772   , 0.000605278 , -0.0004349192, -0.0001599746, 0.0764460042, -0.347242832, 0.6451395   , 0.0018779547, -0.0165370051, 1.38409877  , 0.36        , 3           , 11          , 0.03475343  , 0.03475344
-0.1792508  , -0.0264473148, -9.789926   , -0.000393541326, -0.00117437937, -3.22905944E-05, 0.0764460042, -0.347242832, 0.6451395   , 0.00187402568, -0.0165487491, 1.38409829  , 0.37        , 3           , 12          , 0.03475387  , 0
-0.1529913  , 0.00570203736, -9.818974   , 0.000338322076, -0.000503346033, -9.409786E-05, 0.07651342  , -0.347445071, 0.644398034 , 0.00187742466, -0.01655378 , 1.38409734  , 0.38        , 3           , 50          , 0           , 0
-0.157975852, -0.007154167, -9.787872   , 0.00153879344, -2.803107E-05, -0.0005562552, 0.0764460042, -0.347445071, 0.6450047   , 0.001892904 , -0.01655405 , 1.38409162  , 0.39        , 3           , 11          , 0.03475343  , 0.03475344
-0.167467088, -0.0102094393, -9.796074   , -0.000644128653, 0.00121632335, 0.000314766745, 0.07664824  , -0.347242832, 0.644802451 , 0.00152946159, -0.0166053474, 1.38410115  , 0.4         , 3           , 12          , 0.0348953456, 0
-0.148993209, -0.0133287646, -9.809188   , -0.000638404, 1.567937E-05, 0.0004413716, 0.07664824  , -0.347242832, 0.644802451 , 0.00152300415, -0.0166051947, 1.38410544  , 0.41        , 3           , 50          , 0           , 0
-0.162474   , -0.0002510287, -9.803208   , 0.001633307 , 9.34051059E-05, 0.000778501853, 0.0764460042, -0.347242832, 0.6446003   , 0.00153920916, -0.0166042764, 1.38411307  , 0.42        , 3           , 11          , 0.0176968053, 0.0176968258
-0.1625373  , -0.0155072194, -9.812413   , -0.001506489, -0.0001218634, 0.000305984257, 0.07637859  , -0.347242832, 0.6449373   , 0.00152409379, -0.0166054983, 1.38411641  , 0.43        , 3           , 12          , 0.0348953456, 0
-0.162988275, -0.014571121, -9.81648    , -0.001575335, 0.000341019535, 0.00110838376, 0.07631118  , -0.347377658, 0.644869864 , 0.00150815654, -0.0166021045, 1.3841269   , 0.44        , 3           , 50          , 0           , 0
-0.190890953, 0.00169445574, -9.807789   , -0.00116687582, -0.00125572179, 0.000833418046, 0.07651342  , -0.347242832, 0.6446003   , 0.00149634911, -0.0166146737, 1.38413548  , 0.45        , 3           , 11          , 0.0176968053, 0.0176968258
-0.154361963, -0.005815046, -9.787849   , -0.000366293039, -0.00104527571, -0.000564049929, 0.07651342  , -0.347242832, 0.6446003   , 0.00149277982, -0.0166251175, 1.38412976  , 0.46        , 3           , 12          , 0.0348953456, 0
-0.154884517, -0.0261343475, -9.783975   , 0.0005004166, -0.00057811063, 0.000439750962, 0.0764460042, -0.347175419, 0.644802451 , 0.00149771164, -0.0166309066, 1.38413453  , 0.47        , 3           , 50          , 0           , 0
-0.15850094 , -0.0232340451, -9.806593   , -0.000104318387, 8.844541E-05, -0.0002906735, 0.0767156556, -0.347175419, 0.6449373   , 0.0014967171, -0.0166300181, 1.38413167  , 0.48        , 3           , 11          , 0.0176968053, 0.0176968258
-0.141390339, -0.029053444, -9.81973648 , 3.810246E-05, -0.00171522959, 0.000699329656, 0.07658083  , -0.347242832, 0.6447351   , 0.00149698358, -0.01664718 , 1.38413835  , 0.49        , 3           , 12          , 0.0348953456, 0
-0.151659235, -0.00531609 , -9.795082   , 0.00277833245, -0.000533400744, -0.0008234233, 0.07658083  , -0.347242832, 0.6447351   , 0.00155505235, -0.016523812, 1.38412976  , 0.5         , 3           , 50          , 0           , 0
-0.162419736, 0.01322723  , -9.797192   , 0.0016475619, -0.001548026, 0.001102322 , 0.0764460042, -0.347108   , 0.6449373   , 0.00157134759, -0.0165393148, 1.38414025  , 0.51        , 3           , 11          , 0.0134356106, 0.013435618
-0.175145641, -0.0072722123, -9.82142    , 0.00317842723, -0.000272262376, 0.0009784368, 0.0764460042, -0.347108   , 0.6450721   , 0.00160297018, -0.01654205 , 1.38415027  , 0.52        , 3           , 12          , 0.03509212  , 0
-0.17700243 , -0.0254449416, -9.803492   , 0.00370538118, 0.00133134343, 0.000854885031, 0.07651342  , -0.347242832, 0.644869864 , 0.00163988094, -0.016528748, 1.38415885  , 0.53        , 3           , 50          , 0           , 0
-0.172958538, -0.0304412078, -9.800814   , 0.00043034344, 0.00144898018, 0.0003173698, 0.07651342  , -0.347242832, 0.644869864 , 0.00164413231, -0.0165142622, 1.38416219  , 0.54        , 3           , 11          , 0.0134356106, 0.013435618
-0.166582584, -0.0161138382, -9.79115    , 0.0005654425, 0.00117958908, 0.00111597462, 0.07664824  , -0.347242832, 0.6449373   , 0.00164960185, -0.0165024847, 1.38417315  , 0.55        , 3           , 12          , 0.03509212  , 0
-0.1661403  , -0.0118106529, -9.821894   , -0.0004367771, 0.00111113884, 0.000247521675, 0.07617635  , -0.347242832, 0.6447351   , 0.0016451939, -0.0164913777, 1.38417554  , 0.56        , 3           , 50          , 0           , 0
-0.153098926, -0.0259447433, -9.808416   , 0.00209852122, 0.00192772772, -0.000344046333, 0.07685048  , -0.347242832, 0.6450721   , 0.00166623492, -0.0164720956, 1.3841722   , 0.57        , 3           , 11          , 0.0134356106, 0.013435618
-0.14801693 , 0.00602534972, -9.805374   , 0.0007054592, -0.000214879547, -2.48304368E-05, 0.07685048  , -0.347242832, 0.6450721   , 0.00167329435, -0.0164742433, 1.38417172  , 0.58        , 3           , 12          , 0.03509212  , 0
-0.166925982, 0.0150655881, -9.799448   , -0.000900087471, 0.0001748925, 0.000308245915, 0.07651342  , -0.347242832, 0.644802451 , 0.00166424119, -0.0164725  , 1.38417506  , 0.59        , 3           , 50          , 0           , 0
-0.1422312  , -0.01798605 , -9.793824   , -0.0002338099, 0.0005769483, -0.000220547416, 0.07637859  , -0.3470406  , 0.644802451 , 0.001462562 , -0.0164795816, 1.384176    , 0.6         , 3           , 11          , 0.0113507   , 0.0113506988
-0.139088437, -0.0197139513, -9.804699   , 0.00150555477, 0.00018475439, 0.000179814582, 0.07658083  , -0.347175419, 0.644802451 , 0.00147758774, -0.0164777413, 1.38417792  , 0.61        , 3           , 12          , 0.0353428423, 0
-0.14080599 , 0.00185723975, -9.794985   , 0.003573874 , 0.000862848 , 0.000186705627, 0.07658083  , -0.347175419, 0.644802451 , 0.00151329522, -0.0164691154, 1.38417983  , 0.62        , 3           , 50          , 0           , 0
-0.147104815, 0.00170622778, -9.77327    , 0.00270405  , 0.001122459 , 0.0007201316, 0.07678307  , -0.347175419, 0.644802451 , 0.00154021813, -0.0164579023, 1.384187    , 0.63        , 3           , 11          , 0.0113507   , 0.0113506988
-0.158945844, -0.0265737269, -9.783537   , 0.00103221834, 0.001319313 , -0.0006811117, 0.0762437657, -0.347175419, 0.644869864 , 0.001550652 , -0.016444698, 1.38418031  , 0.64        , 3           , 12          , 0.0353428423, 0
-0.1738367  , -0.023198802, -9.803915   , -0.000169976876, 0.00117993355, -0.000817009131, 0.0767156556, -0.347108   , 0.644869864 , 0.00154908653, -0.0164328832, 1.38417172  , 0.65        , 3           , 50          , 0           , 0
-0.146335632, -0.0301475376, -9.793501   , -0.00283961487, 0.000497099 , -0.000491530169, 0.0767156556, -0.347108   , 0.644869864 , 0.00152077  , -0.0164279081, 1.384167    , 0.66        , 3           , 11          , 0.0113507   , 0.0113506988
-0.153533548, -0.0228380151, -9.802049   , -0.0020375452, 0.0004977765, 0.0003762438, 0.0764460042, -0.347175419, 0.644802451 , 0.00150033145, -0.0164229311, 1.38417077  , 0.67        , 3           , 12          , 0.0353428423, 0
-0.169296056, -0.01696911 , -9.795693   , 0.00450867042, 0.00100276689, -0.000144408623, 0.0764460042, -0.347175419, 0.6450047   , 0.00154544227, -0.0164129063, 1.38416934  , 0.68        , 3           , 50          , 0           , 0
-0.151204616, -0.00535412133, -9.790554   , 0.00290600164, 0.000730998639, -0.0010148983, 0.07637859  , -0.347310245, 0.6450721   , 0.00157466845, -0.0164055768, 1.38415933  , 0.69        , 3           , 11          , 0.0113507   , 0.0113506988
-0.169288725, -0.0151729872, -9.794769   , -0.000101297774, -0.000378601224, 0.0003740078, 0.07637859  , -0.347310245, 0.6450721   , 0.00156086276, -0.016311314, 1.38416314  , 0.7         , 3           , 12          , 0.0356459543, 0
-0.1792722  , -0.0295014679, -9.802631   , -0.003707077, -0.000933237432, 0.0006988039, 0.07664824  , -0.347175419, 0.6447351   , 0.00152367924, -0.0163206551, 1.38416982  , 0.71        , 3           , 50          , 0           , 0
-0.149898291, -0.0165722519, -9.797903   , -0.004109748, -0.0005992191, 3.347916E-05, 0.0764460042, -0.3470406  , 0.6451395   , 0.00148257648, -0.0163266473, 1.38417029  , 0.72        , 3           , 11          , 0.0101311561, 0.0101311607
-0.139928356, -0.004443487, -9.796854   , 0.00109775027, 0.000366265653, -0.0007532349, 0.0764460042, -0.347175419, 0.6450047   , 0.0014936761, -0.0163229778, 1.38416266  , 0.73        , 3           , 12          , 0.0356459543, 0
-0.1525575  , -0.00582175143, -9.787846   , 0.00196147081, 0.00143604842, -0.0003459977, 0.07651342  , -0.347108   , 0.6446677   , 0.00151334866, -0.01630861 , 1.38415933  , 0.74        , 3           , 50          , 0           , 0
-0.180056334, 0.00391207077, -9.808192   , -0.00171016529, 0.0006807461, 4.4235614E-05, 0.07651342  , -0.347108   , 0.6446677   , 0.00149624  , -0.0163018033, 1.38415933  , 0.75        , 3           , 11          , 0.0101311561, 0.0101311607
-0.170193672, -0.0156095717, -9.796134   , -0.00223270734, -0.00185596081, 9.591052E-05, 0.0764460042, -0.347310245, 0.6450047   , 0.00147389842, -0.0163203645, 1.38416028  , 0.76        , 3           , 12          , 0.0356459543, 0
-0.158023819, -0.0206978526, -9.785742   , -0.0030310445, -0.002594606, 0.0002905583, 0.0764460042, -0.347242832, 0.6450047   , 0.00144354044, -0.0163463186, 1.38416314  , 0.77        , 3           , 50          , 0           , 0
-0.159389928, -0.0140064526, -9.832312   , -0.002762982, -0.002789992, -0.000443386234, 0.07664824  , -0.347242832, 0.644802451 , 0.00141598482, -0.016374208, 1.38415885  , 0.78        , 3           , 11          , 0.0101311561, 0.0101311607
-0.154403508, -0.0128723215, -9.807386   , 0.00123454141, -0.000238486973, 0.000510109356, 0.07664824  , -0.347242832, 0.644802451 , 0.00142824673, -0.0163766  , 1.38416409  , 0.79        , 3           , 12          , 0.0356459543, 0
-0.181904718, -0.0106029455, -9.796568   , 0.00108321116, 0.0014336576, 0.00151923113, 0.0764460042, -0.347175419, 0.644869864 , 0.00142224273, -0.0163450353, 1.38417935  , 0.8         , 3           , 50          , 0           , 0
-0.155366957, -0.0318919346, -9.79671    , 0.0010118027, 0.00230861665, -0.0004757544, 0.07664824  , -0.347310245, 0.6449373   , 0.00143243792, -0.0163219422, 1.38417459  , 0.81        , 3           , 11          , 0.00937867  , 0.009378674
-0.162561134, -0.024153363, -9.802537   , 0.00194837013, 0.00211173878, -8.840652E-06, 0.07637859  , -0.347175419, 0.644869864 , 0.00145192374, -0.0163008254, 1.38417459  , 0.82        , 3           , 12          , 0.03599971  , 0
-0.156607687, -0.0007600412, -9.798671   , -0.001575342, -0.00164386455, 0.0005647936, 0.07637859  , -0.347175419, 0.644869864 , 0.00143607846, -0.0163172726, 1.38418031  , 0.83        , 3           , 50          , 0           , 0
-0.137228847, -0.00531526655, -9.801837   , -0.000841138, -0.001441821, 0.00103363791, 0.0764460042, -0.347175419, 0.6449373   , 0.00142749876, -0.0163317043, 1.3841908   , 0.84        , 3           , 11          , 0.00937867  , 0.009378674
-0.158892915, -0.00606006943, -9.811406   , 0.000222179049, -0.000172359287, 0.001775588 , 0.0764460042, -0.346973181, 0.644802451 , 0.00142943009, -0.0163334534, 1.38420844  , 0.85        , 3           , 12          , 0.03599971  , 0
-0.15618895 , -0.00838254951, -9.804178   , 0.00056693115, -0.00249624415, -3.67066823E-05, 0.07651342  , -0.347175419, 0.6447351   , 0.00143510581, -0.0163584165, 1.384208    , 0.86        , 3           , 50          , 0           , 0
-0.170640171, -0.0142517108, -9.796576   , 0.00262063881, 0.001249843 , -0.000279297383, 0.07651342  , -0.347175419, 0.6447351   , 0.001461358 , -0.0163459126, 1.3842051   , 0.87        , 3           , 11          , 0.00937867  , 0.009378674
-0.161093339, 0.004608769 , -9.791387   , 0.00168173085, 0.00197664136, 5.66632662E-05, 0.07651342  , -0.347242832, 0.6447351   , 0.00147816562, -0.0163261443, 1.384206    , 0.88        , 3           , 12          , 0.03599971  , 0
-0.173376039, -0.0237676613, -9.789432   , 0.0003474254, 0.00150403543, -0.000281275337, 0.07651342  , -0.3470406  , 0.6450047   , 0.00148168555, -0.0163111  , 1.3842032   , 0.89        , 3           , 50          , 0           , 0
-0.180556074, -0.0152400956, -9.781217   , -0.00295867841, -8.757274E-06, -2.71749741E-05, 0.07658083  , -0.347242832, 0.644869864 , 0.00139773043, -0.0163488183, 1.38420367  , 0.9         , 3           , 11          , 0.008912734 , 0.008912733
-0.159784675, -0.006165771, -9.797827   , -0.00135479239, -6.374167E-05, -0.0006916756, 0.07658083  , -0.347242832, 0.644869864 , 0.001384295 , -0.016349446, 1.38419652  , 0.91        , 3           , 12          , 0.0364022367, 0
-0.149001837, -0.0174518581, -9.80108    , -0.00209038774, 6.412377E-05, -0.000358764053, 0.07651342  , -0.347175419, 0.6449373   , 0.00136345031, -0.0163488  , 1.38419318  , 0.92        , 3           , 50          , 0           , 0
-0.145320192, 0.005182663 , -9.813979   , -0.00262358738, -0.000146574821, 0.00143905787, 0.07664824  , -0.3470406  , 0.6452069   , 0.00133697793, -0.0163502842, 1.384208    , 0.93        , 3           , 11          , 0.008912734 , 0.008912733
-0.155815646, -0.030043222, -9.802126   , -0.000419157237, 3.680327E-08, 0.00117654  , 0.07664824  , -0.347310245, 0.6449373   , 0.0013325942, -0.016350301, 1.38421941  , 0.94        , 3           , 12          , 0.0364022367, 0
-0.148066819, -0.0103070475, -9.792857   , -0.00369191729, -0.0003501684, 0.000903045759, 0.07664824  , -0.347310245, 0.6449373   , 0.001295528 , -0.01635381 , 1.38422847  , 0.95        , 3           , 50          , 0           , 0
-0.176046029, -0.009628544, -9.808315   , -0.00182415906, 0.000328544731, 0.000509684847, 0.07658083  , -0.347242832, 0.644869864 , 0.00127720449, -0.016350532, 1.38423371  , 0.96        , 3           , 11          , 0.008912734 , 0.008912733
-0.176947027, -0.008701671, -9.811025   , 0.000849938253, 1.648632E-05, -0.00102122407, 0.07664824  , -0.3470406  , 0.6447351   , 0.001285872 , -0.0163503531, 1.38422322  , 0.97        , 3           , 12          , 0.0364022367, 0
-0.1737462  , -0.00401219167, -9.778826   , -0.00161988253, -0.0005925493, -0.002094877, 0.07658083  , -0.347108   , 0.644802451 , 0.001270015 , -0.016356254, 1.38420224  , 0.98        , 3           , 50          , 0           , 0
-0.167913765, -0.009785997, -9.79245    , -0.00221723178, -0.00133956235, 0.0002997796, 0.07658083  , -0.347108   , 0.644802451 , 0.00124779332, -0.016369652, 1.3842051   , 0.99        , 3           , 11          , 0.008912734 , 0.008912733
-0.176080316, -0.0162931327, -9.820604   , -0.00190946984, -0.00199913071, -0.00023576754, 0.07658083  , -0.347175419, 0.6449373   , 0.00119226612, -0.0164694972, 1.3842032   , 1           , 3           , 12          , 0.0368515253, 0
-0.160278708, -0.01507931 , -9.810592   , -0.00144598552, -0.00112697249, -0.000896783429, 0.0767156556, -0.347242832, 0.6450721   , 0.00117795309, -0.0164807588, 1.38419461  , 1.01        , 3           , 50          , 0           , 0
-0.142656863, -0.008887393, -9.803696   , 0.00129140809, -0.0005825642, 4.35895236E-05, 0.07658083  , -0.347175419, 0.6450047   , 0.00119086134, -0.0164865833, 1.38419461  , 1.02        , 3           , 11          , 0.008635416 , 0.008635423
-0.148516   , -0.009389127, -9.79466152 , 0.000754459936, -0.000115939387, -0.0006211937, 0.07651342  , -0.347242832, 0.6447351   , 0.00119850889, -0.0164877344, 1.38418889  , 1.03        , 3           , 12          , 0.0368515253, 0
-0.167914808, -0.0135200378, -9.776641   , -0.000310422241, -0.0009914038, 3.890393E-05, 0.07651342  , -0.347242832, 0.6447351   , 0.00119539909, -0.01649765 , 1.38418889  , 1.04        , 3           , 50          , 0           , 0
-0.156221658, -0.0141272722, -9.818722   , -0.0005196172, 0.000871973869, 0.0005822975, 0.07637859  , -0.347108   , 0.644802451 , 0.00119010592, -0.0164889358, 1.38419461  , 1.05        , 3           , 11          , 0.008635416 , 0.008635423
-0.150383428, -0.0283872019, -9.786249   , -0.000719323754, 0.000796166132, 0.00244803331, 0.07651342  , -0.347175419, 0.6450047   , 0.001182509 , -0.0164810047, 1.38421941  , 1.06        , 3           , 12          , 0.0368515253, 0
-0.162096485, -0.0219553243, -9.795723   , -0.0009761909, -0.00146607589, 0.00103513885, 0.07651342  , -0.347310245, 0.644869864 , 0.00117257563, -0.0164956786, 1.3842299   , 1.07        , 3           , 50          , 0           , 0
-0.171096787, -0.009043455, -9.827312   , -0.00104370888, -0.00133195426, 0.000769151666, 0.07651342  , -0.347310245, 0.644869864 , 0.001162012 , -0.0165090077, 1.38423753  , 1.08        , 3           , 11          , 0.008635416 , 0.008635423
-0.160209775, -0.00175374944, -9.785561   , -0.00124151807, -0.00186871644, 0.00129912456, 0.0767156556, -0.347108   , 0.6450047   , 0.00114938372, -0.0165277086, 1.3842504   , 1.09        , 3           , 12          , 0.0368515253, 0
-0.151640713, -0.005508771, -9.771088   , -0.0006953932, -0.000314633449, 0.000441621436, 0.0764460042, -0.346973181, 0.6450721   , 0.00116472726, -0.0165144186, 1.38425422  , 1.1         , 3           , 50          , 0           , 0
-0.153467834, -0.0108831823, -9.774767   , -0.000901014952, 0.0006917839, -0.00128619175, 0.07651342  , -0.347242832, 0.6449373   , 0.00115592848, -0.01650749 , 1.38424134  , 1.11        , 3           , 11          , 0.008481181 , 0.008481177
-0.141770616, -0.0110650081, -9.813675   , -0.00203758967, 0.0008183062, -0.00115386536, 0.07651342  , -0.347242832, 0.6449373   , 0.00113574252, -0.0164992921, 1.3842299   , 1.12        , 3           , 12          , 0.0373454876, 0
-0.17514737 , -0.0128714694, -9.797932   , 0.00184230926, 3.18178E-05 , 0.0006473357, 0.0764460042, -0.347310245, 0.6449373   , 0.00115405826, -0.0164989829, 1.38423657  , 1.13        , 3           , 50          , 0           , 0
-0.1665503  , -0.009896455, -9.779318   , -0.00210050587, 1.588335E-05, -0.00069183734, 0.0764460042, -0.347108   , 0.644802451 , 0.00113316718, -0.0164988153, 1.3842299   , 1.14        , 3           , 11          , 0.008481181 , 0.008481177
-0.1738291  , -0.019064799, -9.813382   , -0.00103268214, 0.0002895911, -0.000955344236, 0.07631118  , -0.347310245, 0.644869864 , 0.001122996 , -0.0164959114, 1.38422036  , 1.15        , 3           , 12          , 0.0373454876, 0
-0.156742215, -0.03212688 , -9.822974   , 0.00244611036, -0.0004959448, 0.000112010348, 0.07631118  , -0.347310245, 0.644869864 , 0.00114743982, -0.01650087 , 1.38422132  , 1.16        , 3           , 50          , 0           , 0
-0.136422932, -0.03052989 , -9.806608   , -0.002890604, -0.00239555212, 0.0008933011, 0.0764460042, -0.347108   , 0.644869864 , 0.001118386 , -0.0165248346, 1.3842299   , 1.17        , 3           , 11          , 0.008481181 , 0.008481177
-0.149439588, -0.0143124051, -9.798786   , 0.00270701014, 0.0008400837, -0.000146756109, 0.07651342  , -0.347175419, 0.644869864 , 0.00114548  , -0.01651643 , 1.38422847  , 1.18        , 3           , 12          , 0.0373454876, 0
-0.186835825, -0.00201469846, -9.796948   , 0.00030635146, -0.000237574233, -0.000689655368, 0.07637859  , -0.347175419, 0.6450047   , 0.00114865706, -0.0165188  , 1.38422179  , 1.19        , 3           , 50          , 0           , 0
-0.170626462, -0.009245092, -9.802411   , 0.000354942778, 0.00136845256, 0.000918139354, 0.07637859  , -0.347175419, 0.6450047   , 0.00121554662, -0.0164905433, 1.3842299   , 1.2         , 3           , 11          , 0.008402309 , 0.00840231
-0.150358692, -0.0155379893, -9.814194   , 0.0003620267, -0.000222457937, -0.001223853, 0.07651342  , -0.347242832, 0.644869864 , 0.001219369 , -0.01649275 , 1.3842175   , 1.21        , 3           , 12          , 0.0378819928, 0
-0.1593297  , -0.00620744564, -9.792846   , -0.00205191458, 0.00162190991, 0.0009159574, 0.07631118  , -0.347175419, 0.6449373   , 0.0011986983, -0.0164765436, 1.38422656  , 1.22        , 3           , 50          , 0           , 0
-0.169730261, -0.0105900913, -9.80378151 , 0.00275882659, 0.00165639457, -0.0009431107, 0.07637859  , -0.347175419, 0.6450047   , 0.00122644217, -0.0164599679, 1.384217    , 1.23        , 3           , 11          , 0.008402309 , 0.00840231
-0.157947242, 0.00378257036, -9.802253   , -0.0004358521, -0.00103035651, -0.0004296591, 0.07637859  , -0.347175419, 0.6450047   , 0.00122215308, -0.0164702665, 1.38421273  , 1.24        , 3           , 12          , 0.0378819928, 0
-0.167481244, -0.010998439, -9.810118   , 0.000360444974, 4.99636662E-05, -0.00255551515, 0.07685048  , -0.347377658, 0.644869864 , 0.00122617965, -0.0164697357, 1.38418746  , 1.25        , 3           , 50          , 0           , 0
-0.17779018 , 0.00332558714, -9.792347   , 0.000628366251, 3.99544333E-05, 0.0001111996, 0.07651342  , -0.347175419, 0.6450721   , 0.00123244419, -0.016469337, 1.38418841  , 1.26        , 3           , 11          , 0.008402309 , 0.00840231
-0.18456699 , -0.000288756564, -9.788324   , 0.001687334 , 0.00218043779, -0.000141868833, 0.07658083  , -0.347108   , 0.6452069   , 0.0012493399, -0.01644753 , 1.384187    , 1.27        , 3           , 12          , 0.0378819928, 0
-0.150853291, -0.03240319 , -9.791269   , 0.00250336761, -0.000753250031, 0.000909474737, 0.07658083  , -0.347108   , 0.6452069   , 0.00127422262, -0.0164550748, 1.384196    , 1.28        , 3           , 50          , 0           , 0
-0.167524233, -0.0231895763, -9.807974   , 0.00115902035, 0.000845235656, -0.000416771829, 0.07658083  , -0.347310245, 0.644802451 , 0.0012858822, -0.0164466184, 1.38419223  , 1.29        , 3           , 11          , 0.008402309 , 0.00840231
-0.171973169, -0.009309132, -9.793814   , 0.000625161338, 0.00130992336, -0.000414583745, 0.0762437657, -0.347108   , 0.6451395   , 0.0012958633, -0.0165075958, 1.38418794  , 1.3         , 3           , 12          , 0.0384588763, 0
-0.161689177, -0.0299268868, -9.81391048 , -0.00177777407, 0.000761038449, 0.000112021939, 0.0767156556, -0.347108   , 0.6450047   , 0.00127806631, -0.0164999869, 1.38418889  , 1.31        , 3           , 50          , 0           , 0
-0.167095929, -0.0299758166, -9.805321   , -0.00605444564, 0.0007386758, -0.000161138785, 0.0764460042, -0.347175419, 0.644869864 , 0.00121754839, -0.0164925978, 1.38418746  , 1.32        , 3           , 11          , 0.008364353 , 0.008364356
-0.173829168, -0.0260856729, -9.781306   , 0.002226169 , 0.00185554789, -0.00120904448, 0.0764460042, -0.347175419, 0.644869864 , 0.00124000863, -0.016474029, 1.38417554  , 1.33        , 3           , 12          , 0.0384588763, 0
-0.164790943, -0.0183275416, -9.797052   , -0.00176044274, -0.00296562561, -0.00150863884, 0.07651342  , -0.347175419, 0.6450047   , 0.00122265448, -0.0165036637, 1.38416028  , 1.34        , 3           , 50          , 0           , 0
-0.160283774, -0.0178353023, -9.80428    , 9.716404E-05, -3.10180221E-05, 0.0006436665, 0.0764460042, -0.347175419, 0.6450721   , 0.00122351979, -0.0165039822, 1.38416648  , 1.35        , 3           , 11          , 0.008364353 , 0.008364356
-0.159816429, -0.0114523657, -9.813272   , -0.000429758074, -0.00163519825, 0.0009005336, 0.0764460042, -0.347310245, 0.644802451 , 0.00121907331, -0.0165203456, 1.38417554  , 1.36        , 3           , 12          , 0.0384588763, 0
-0.15446429 , -0.0323679522, -9.793995   , -0.00364910648, 0.0007564919, -0.00122398825, 0.0764460042, -0.347310245, 0.644802451 , 0.00118278433, -0.0165127665, 1.38416314  , 1.37        , 3           , 50          , 0           , 0
-0.152178556, -0.0205197185, -9.810625   , 0.000374319527, -0.002158415, -0.00043437758, 0.07651342  , -0.347175419, 0.6451395   , 0.0011866   , -0.0165343434, 1.38415885  , 1.38        , 3           , 11          , 0.008364353 , 0.008364356
-0.152561218, 0.000770080835, -9.822641   , -0.001505489, -0.000303073146, -0.000160165408, 0.07631118  , -0.347108   , 0.645274341 , 0.00117157237, -0.0165373739, 1.38415742  , 1.39        , 3           , 12          , 0.0384588763, 0
-0.160676762, -0.00252289325, -9.801868   , -0.000625501852, -0.0005293679, -0.001228262, 0.0764460042, -0.347108   , 0.6450047   , 0.00125307613, -0.0165070146, 1.38414311  , 1.4         , 3           , 50          , 0           , 0
-0.1570603  , 0.00347016  , -9.819911   , -0.00222910335, -0.00054048 , -0.0006974493, 0.0764460042, -0.347108   , 0.6450047   , 0.00123089971, -0.0165124126, 1.38413644  , 1.41        , 3           , 11          , 0.008345089 , 0.008345098
-0.15663743 , -0.007471901, -9.805076   , -0.00196156185, -0.0005436021, 0.000369481364, 0.07658083  , -0.347242832, 0.6450047   , 0.00121122284, -0.0165178534, 1.38414025  , 1.42        , 3           , 12          , 0.0390739739, 0
-0.169790372, -0.0244755615, -9.815235   , -0.004643361, 0.00130962732, 0.000109207875, 0.0764460042, -0.3470406  , 0.6450721   , 0.00116477208, -0.016504759, 1.38414121  , 1.43        , 3           , 50          , 0           , 0
-0.158032373, -0.0196725428, -9.801124   , -0.0003620724, 0.0002732962, -0.00149001076, 0.0764460042, -0.347175419, 0.6449373   , 0.00116139709, -0.0165020078, 1.384126    , 1.44        , 3           , 11          , 0.008345089 , 0.008345098
-0.155697525, -0.000377992168, -9.790516   , 0.000709863147, -0.000258782122, -0.000424838072, 0.0764460042, -0.347175419, 0.6449373   , 0.00116856594, -0.0165045876, 1.38412213  , 1.45        , 3           , 12          , 0.0390739739, 0
-0.164734   , -0.000664403662, -9.80684    , 0.00177945849, -0.000260939531, 0.00144320889, 0.07631118  , -0.347242832, 0.6449373   , 0.0011861216, -0.0165072139, 1.38413644  , 1.46        , 3           , 50          , 0           , 0
-0.153970972, -0.0178297162, -9.807887   , 0.002047758 , -0.000521560956, 0.000375603326, 0.07631118  , -0.3470406  , 0.6451395   , 0.00120653713, -0.0165124368, 1.38414025  , 1.47        , 3           , 11          , 0.008345089 , 0.008345098
-0.156654   , -0.0157253575, -9.787952   , -0.00116121629, -0.000267920143, -0.0006943256, 0.07637859  , -0.347175419, 0.6450721   , 0.0011950417, -0.0165151078, 1.3841331   , 1.48        , 3           , 12          , 0.0390739739, 0
-0.153058618, -0.0198109746, -9.786173   , -0.0016966142, -1.22117344E-05, 0.00117276376, 0.07637859  , -0.347175419, 0.6450721   , 0.00117788243, -0.0165152438, 1.384145    , 1.49        , 3           , 50          , 0           , 0
-0.17248632 , -0.0222366955, -9.812052   , -0.00140248076, -0.000224316551, 0.001704455 , 0.07610894  , -0.347108   , 0.644869864 , 0.001193023 , -0.0164534245, 1.38416123  , 1.5         , 3           , 11          , 0.008329209 , 0.00832921
-0.171582431, -0.0217892  , -9.812044   , 0.000465815276, 0.000322777429, 0.000910402567, 0.07637859  , -0.347175419, 0.6452069   , 0.00119753066, -0.0164502077, 1.38417029  , 1.51        , 3           , 12          , 0.0397251472, 0
-0.161568537, -0.000756124035, -9.796872   , 0.004473744 , 0.0006137964, 0.0003847545, 0.07637859  , -0.347175419, 0.644869864 , 0.00124220422, -0.01644408 , 1.38417411  , 1.52        , 3           , 50          , 0           , 0
-0.161541924, 0.00598845258, -9.794542   , 0.00100437657, -0.000477774185, 0.001706637 , 0.07637859  , -0.347175419, 0.644869864 , 0.00125196914, -0.016448874, 1.38419127  , 1.53        , 3           , 11          , 0.008329209 , 0.00832921
-0.1886934  , -0.0159661639, -9.799354   , 0.004201395 , 0.00167905609, 0.000390311237, 0.07637859  , -0.3470406  , 0.644869864 , 0.00129391893, -0.01643209 , 1.38419509  , 1.54        , 3           , 12          , 0.0397251472, 0
-0.1562822  , -0.0312850326, -9.81572151 , -0.003015761, 0.00164626911, -0.0012204923, 0.07637859  , -0.347108   , 0.6452069   , 0.001263961 , -0.01641561 , 1.38418269  , 1.55        , 3           , 50          , 0           , 0
-0.1567109  , -0.0263676252, -9.810241   , -0.0008821373, 0.002717866 , 0.000388521585, 0.07664824  , -0.347310245, 0.6452069   , 0.00125507463, -0.0163884386, 1.384187    , 1.56        , 3           , 11          , 0.008329209 , 0.00832921
-0.138613254, -0.0143490527, -9.7992115  , -0.000863604248, -0.00127433217, -0.00150026113, 0.07664824  , -0.347310245, 0.6452069   , 0.00124668551, -0.0164011624, 1.38417172  , 1.57        , 3           , 12          , 0.0397251472, 0
-0.162515342, -0.0101188347, -9.809645   , -0.0006088405, 0.00139166368, -0.00095167954, 0.0764460042, -0.347377658, 0.6450721   , 0.0012407524, -0.0163872354, 1.38416219  , 1.58        , 3           , 50          , 0           , 0
-0.1616364  , -0.0197100211, -9.794794   , -0.00114341651, 0.00138872489, -0.0009524958, 0.0764460042, -0.3470406  , 0.6451395   , 0.0012294742, -0.0163733345, 1.38415265  , 1.59        , 3           , 11          , 0.008329209 , 0.00832921
-0.14806278 , -0.011285089, -9.78336    , -0.0008079664, -0.00180785835, -0.000437605166, 0.07631118  , -0.347175419, 0.644869864 , 0.001284262 , -0.0163861457, 1.38414741  , 1.6         , 3           , 12          , 0.0404102877, 0
-0.153044909, -0.0148043633, -9.792008   , -0.00107689947, -0.00153575826, -0.00203630584, 0.0764460042, -0.347377658, 0.6449373   , 0.00127382739, -0.016401479, 1.3841269   , 1.61        , 3           , 50          , 0           , 0
-0.183748171, -0.02189294 , -9.793514   , -0.00535325427, -0.00156386022, -0.0009763134, 0.0764460042, -0.347377658, 0.6449373   , 0.00122045551, -0.0164171029, 1.38411736  , 1.62        , 3           , 11          , 0.008307688 , 0.008307683
-0.164812163, -0.02419223 , -9.79665852 , 0.00372530241, 0.000359762431, -0.00255178241, 0.07651342  , -0.347108   , 0.6451395   , 0.00125812634, -0.0164134726, 1.38409162  , 1.63        , 3           , 12          , 0.0404102877, 0
-0.15534611 , -0.0241511278, -9.806142   , 0.00159730925, -0.0017888943, -0.00176708517, 0.07631118  , -0.347310245, 0.6451395   , 0.00127439038, -0.0164313409, 1.384074    , 1.64        , 3           , 50          , 0           , 0
-0.142229527, -0.0212801564, -9.776651   , -0.002414288, -0.00128216238, -0.00070370204, 0.07678307  , -0.347108   , 0.6451395   , 0.00125036424, -0.0164441522, 1.38406682  , 1.65        , 3           , 11          , 0.008307688 , 0.008307683
-0.163436487, -0.0169400331, -9.802016   , -0.00187971187, -0.00127922359, -0.0007028858, 0.07678307  , -0.347108   , 0.6451395   , 0.00123168214, -0.0164569374, 1.38405967  , 1.66        , 3           , 12          , 0.0404102877, 0
-0.1593127  , -0.000299122185, -9.798674   , 0.00318471761, 0.00168449536, -0.00121198944, 0.07658083  , -0.347175419, 0.6450047   , 0.00126372778, -0.0164400768, 1.38404775  , 1.67        , 3           , 50          , 0           , 0
-0.161140174, -0.00754237548, -9.794222   , 0.0005136726, 0.00139278825, 0.00118211377, 0.07631118  , -0.347310245, 0.6451395   , 0.00126867113, -0.0164261647, 1.38405919  , 1.68        , 3           , 11          , 0.008307688 , 0.008307683
-0.168321282, 0.004741054 , -9.804533   , 0.00105773611, -0.000726252154, -0.00149530591, 0.0762437657, -0.347108   , 0.6449373   , 0.00127949426, -0.0164334066, 1.38404441  , 1.69        , 3           , 12          , 0.0404102877, 0
-0.1615585  , 0.00147994794, -9.794588   , -0.000568293151, 0.0008550094, 0.00171101454, 0.0762437657, -0.347108   , 0.6449373   , 0.00125455263, -0.016420275, 1.384062    , 1.7         , 3           , 50          , 0           , 0
-0.1809691  , -0.00112390518, -9.798285   , -0.000552480167, -0.00260038069, -0.00097467727, 0.07651342  , -0.347108   , 0.6451395   , 0.00124918926, -0.0164462645, 1.38405252  , 1.71        , 3           , 11          , 0.00827585347, 0.008275848
-0.1710726  , -0.009763336, -9.793816   , -0.00509106228, -0.00369668123, 7.894221E-05, 0.07658083  , -0.347175419, 0.645274341 , 0.00119826535, -0.0164832324, 1.384053    , 1.72        , 3           , 12          , 0.0411273465, 0
-0.1561598  , -0.000259976834, -9.805004   , 0.000504210941, 6.887557E-05, -0.000158240728, 0.07631118  , -0.347175419, 0.6450721   , 0.00120333291, -0.0164825413, 1.38405156  , 1.73        , 3           , 50          , 0           , 0
-0.156646967, -0.00690471241, -9.819558   , -0.001093635, -0.001265317, -0.00203456 , 0.07631118  , -0.347175419, 0.6450721   , 0.0011927333, -0.0164951682, 1.384031    , 1.74        , 3           , 11          , 0.00827585347, 0.008275848
-0.1598664  , -0.0291882232, -9.79443    , -0.00351776 , 0.00271365675, -0.000149450585, 0.07637859  , -0.347175419, 0.6450047   , 0.00115758  , -0.0164680313, 1.38402963  , 1.75        , 3           , 12          , 0.0411273465, 0
-0.162491068, -0.00756278029, -9.791057   , -0.0011070444, 0.0016590046, 0.000114888382, 0.07637859  , -0.347242832, 0.6452069   , 0.0011464901, -0.0164514426, 1.38403058  , 1.76        , 3           , 50          , 0           , 0
-0.146263584, -0.009364804, -9.79873    , 0.00183786731, 0.0006141784, -0.00121974037, 0.07664824  , -0.347377658, 0.6450721   , 0.00116506917, -0.0164452866, 1.38401866  , 1.77        , 3           , 11          , 0.00827585347, 0.008275848
-0.171118647, -0.022390781, -9.793487   , -0.0002963247, -0.000203362812, 0.000105674306, 0.07664824  , -0.347377658, 0.6450721   , 0.00116208824, -0.01644732 , 1.38401961  , 1.78        , 3           , 12          , 0.0411273465, 0
-0.185134828, -0.0318393335, -9.789539   , -0.00216215383, -0.00128267321, 0.000630113762, 0.07637859  , -0.347242832, 0.6450721   , 0.00114036258, -0.01646016 , 1.38402581  , 1.79        , 3           , 50          , 0           , 0
-0.152990744, -0.0008570868, -9.78825    , 0.00109637657, -0.00157825381, -0.000433767535, 0.07631118  , -0.347175419, 0.6451395   , 0.00121501088, -0.0165408626, 1.38402057  , 1.8         , 3           , 11          , 0.008231917 , 0.00823192
-0.1701942  , -0.0165403616, -9.792522   , -0.0013166162, 5.171194E-06, 0.000371398521, 0.07637859  , -0.347310245, 0.645274341 , 0.00120178366, -0.0165408123, 1.3840239   , 1.81        , 3           , 12          , 0.04187433  , 0
-0.176474527, -0.0056491904, -9.798316   , 0.000297232647, -0.00211947015, 0.0003619176, 0.07637859  , -0.347310245, 0.645274341 , 0.00120469637, -0.01656201 , 1.38402772  , 1.82        , 3           , 50          , 0           , 0
-0.18231982 , 0.00166257832, -9.807768   , -0.0005057698, -0.00185949192, 0.000895445643, 0.07631118  , -0.3470406  , 0.644869864 , 0.00119949039, -0.0165806152, 1.38403678  , 1.83        , 3           , 11          , 0.008231917 , 0.00823192
-0.173350349, -0.0123328054, -9.809693   , 0.00163639314, -0.002648931, 0.00116086775, 0.07658083  , -0.347108   , 0.6451395   , 0.00121566129, -0.01660712 , 1.38404822  , 1.84        , 3           , 12          , 0.04187433  , 0
-0.1696883  , -0.000260528177, -9.798699   , 0.00215395261, 0.000831207435, -0.00121860614, 0.07651342  , -0.347108   , 0.6451395   , 0.00123740314, -0.0165987927, 1.3840363   , 1.85        , 3           , 50          , 0           , 0
-0.164724216, -0.00263867341, -9.785582   , -0.00265033613, -0.000538983964, 0.00116626732, 0.07651342  , -0.347108   , 0.6451395   , 0.00121070631, -0.0166041981, 1.38404775  , 1.86        , 3           , 11          , 0.008231917 , 0.00823192
-0.156584829, 0.00181053951, -9.781895   , 1.74204179E-05, 0.0005435869, 0.0009096828, 0.07658083  , -0.347242832, 0.6450721   , 0.00121072913, -0.0165987723, 1.38405681  , 1.87        , 3           , 12          , 0.04187433  , 0
-0.163358688, 0.008463919 , -9.821236   , 1.61553326E-05, 0.0008102692, 0.000911174 , 0.07631118  , -0.347175419, 0.6450721   , 0.00121073949, -0.0165906847, 1.38406587  , 1.88        , 3           , 50          , 0           , 0
-0.148471355, 0.006997815 , -9.813969   , 0.002967456 , -0.00156911579, -0.000164279962, 0.07651342  , -0.347175419, 0.645341754 , 0.00124044367, -0.0166063718, 1.38406444  , 1.89        , 3           , 11          , 0.008231917 , 0.00823192
-0.142591164, 0.006812397 , -9.793582   , -0.000365041516, -0.0007920235, -0.0009625909, 0.07664824  , -0.347310245, 0.6450047   , 0.00107730133, -0.0166258533, 1.38405728  , 1.9         , 3           , 12          , 0.0426493362, 0
-0.163828164, -0.00679056533, -9.774301   , 0.0004228432, 0.002147037 , -0.001211594, 0.07664824  , -0.347310245, 0.6450047   , 0.00108173152, -0.0166043714, 1.38404489  , 1.91        , 3           , 50          , 0           , 0
-0.156199515, -0.009676937, -9.811435   , -0.00117234443, 0.0005209094, 0.00277646957, 0.07617635  , -0.347310245, 0.6451395   , 0.00106954668, -0.01659919 , 1.384073    , 1.92        , 3           , 11          , 0.008176535 , 0.008176534
-0.164765075, -0.007830739, -9.812797   , 0.00150508957, -0.0005219425, 0.000641541 , 0.0767156556, -0.347242832, 0.6452069   , 0.0010844908, -0.0166044179, 1.38407922  , 1.93        , 3           , 12          , 0.0426493362, 0
-0.14216724 , -0.006013045, -9.768805   , 0.000166245853, 1.77923346E-06, 0.001175744 , 0.07664824  , -0.347242832, 0.6450047   , 0.00108595879, -0.0166044123, 1.38409114  , 1.94        , 3           , 50          , 0           , 0
-0.133166373, -0.0109732486, -9.772906   , -0.00196750462, -0.00106752221, -0.000966530934, 0.07664824  , -0.347242832, 0.6450047   , 0.00106644467, -0.016615076, 1.38408113  , 1.95        , 3           , 11          , 0.008176535 , 0.008176534
-0.180092588, -0.008817164, -9.795188   , 0.000694875 , 0.00108751713, -0.002550304, 0.0764460042, -0.347175419, 0.6450721   , 0.00107381784, -0.0166041721, 1.38405585  , 1.96        , 3           , 12          , 0.0426493362, 0
-0.180580139, -0.0206066687, -9.786702   , -0.00144159421, 0.000798748748, -0.0001553843, 0.0762437657, -0.347242832, 0.645341754 , 0.00105942611, -0.0165961813, 1.38405442  , 1.97        , 3           , 50          , 0           , 0
-0.160659865, 0.0038544517, -9.809956   , 0.0006965833, 0.0008127998, -0.0006853805, 0.07664824  , -0.347310245, 0.645274341 , 0.00106650637, -0.0165880471, 1.38404727  , 1.98        , 3           , 11          , 0.008176535 , 0.008176534
-0.148538247, -0.0114979558, -9.812792   , 0.0009805075, -0.00265604351, 9.553377E-05, 0.07664824  , -0.347310245, 0.645274341 , 0.0010762976, -0.0166146066, 1.38404822  , 1.99        , 3           , 12          , 0.0426493362, 0
-0.148643792, -0.041294083, -9.808102   , -0.00199906528, -0.00289102341, -0.00204287842, 0.07631118  , -0.347310245, 0.6452069   , 0.00100159517, -0.0165905  , 1.38402867  , 2           , 3           , 50          , 0           , 0
-0.161228985, -0.0281506088, -9.810722   , 0.00307485368, -0.00180555834, 0.000103886196, 0.07658083  , -0.347242832, 0.6452069   , 0.00103232649, -0.0166085549, 1.38402963  , 2.01        , 3           , 11          , 0.008111055 , 0.008111066
-0.171109974, -0.0149917584, -9.816505   , 0.000400264864, -0.00154553517, -0.00176511845, 0.07658083  , -0.347310245, 0.6452069   , 0.00103662279, -0.01662399 , 1.384012    , 2.02        , 3           , 12          , 0.04345053  , 0
-0.163011536, -0.0241589546, -9.801632   , -0.0006724292, -0.0007559578, -0.000695754657, 0.07658083  , -0.347310245, 0.6452069   , 0.001030015 , -0.0166315474, 1.38400483  , 2.03        , 3           , 50          , 0           , 0
-0.159295   , 0.00560191832, -9.803596   , 0.00119744847, -0.000481285417, -0.000158145311, 0.07637859  , -0.347242832, 0.6451395   , 0.00104201492, -0.0166363567, 1.3840034   , 2.04        , 3           , 11          , 0.008111055 , 0.008111066
-0.153844386, 0.0150241889, -9.800322   , 0.000671791437, -0.00235214783, 9.723059E-05, 0.07651342  , -0.347310245, 0.6450721   , 0.00104871916, -0.0166598782, 1.38400388  , 2.05        , 3           , 12          , 0.04345053  , 0
-0.155221835, 0.011535123 , -9.814394   , 0.00226229872, 0.000333821925, -0.00228508445, 0.07651342  , -0.347242832, 0.6452069   , 0.0010717212, -0.0166565143, 1.38398147  , 2.06        , 3           , 50          , 0           , 0
-0.157114446, -0.0160945561, -9.797916   , 0.00146967033, -0.00154424913, -0.0006969633, 0.07651342  , -0.347242832, 0.6452069   , 0.00108653423, -0.0166719537, 1.38397431  , 2.07        , 3           , 11          , 0.008111055 , 0.008111066
-0.158412561, -0.005898092, -9.775637   , -0.00148321223, 0.00110755768, -0.0009531713, 0.07631118  , -0.347108   , 0.6451395   , 0.00107186183, -0.0166608654, 1.38396478  , 2.08        , 3           , 12          , 0.04345053  , 0
-0.158412591, 0.00346428552, -9.818556   , 0.00467105443, -0.000197796529, 0.0003819129, 0.07637859  , -0.347108   , 0.645341754 , 0.00111850852, -0.01666285 , 1.38396859  , 2.09        , 3           , 50          , 0           , 0
-0.177866533, -0.0113270693, -9.82056    , -0.000734542846, -0.000702225661, -0.0009614014, 0.07658083  , -0.347242832, 0.645274341 , 0.0010228795, -0.0165949557, 1.38396049  , 2.1         , 3           , 11          , 0.008036068 , 0.008036078
-0.154425129, -0.0220093  , -9.792536   , -0.00233403244, -0.00151912379, 0.00089809054, 0.07658083  , -0.347242832, 0.645274341 , 0.0009993913, -0.0166101549, 1.38396955  , 2.11        , 3           , 12          , 0.04427616  , 0
-0.13009958 , -0.03297487 , -9.78579    , -0.00447499333, -0.000995219, 0.000364546751, 0.07651342  , -0.347310245, 0.6450047   , 0.000954579737, -0.0166201144, 1.38397336  , 2.12        , 3           , 50          , 0           , 0
-0.173843056, -0.0264092814, -9.797155   , -0.00286493963, -0.00231981347, 0.0003595395, 0.07631118  , -0.347242832, 0.645274341 , 0.000925870962, -0.0166433137, 1.3839767   , 2.13        , 3           , 11          , 0.008036068 , 0.008036078
-0.182804748, -0.0129629057, -9.783011   , 6.09324161E-05, 0.0006367416, -0.00121935166, 0.07637859  , -0.347310245, 0.6452069   , 0.0009266817, -0.0166369341, 1.38396478  , 2.14        , 3           , 12          , 0.04427616  , 0
-0.172392339, -0.00121396221, -9.791019   , -0.0015424157, 0.0006210379, 0.000377983466, 0.07637859  , -0.347310245, 0.6452069   , 0.0009111939, -0.0166307278, 1.38396859  , 2.15        , 3           , 50          , 0           , 0
-0.149449632, -0.016548479, -9.801072   , -0.00394048076, -0.0009911322, 9.873237E-05, 0.07664824  , -0.347377658, 0.644869864 , 0.0008717727, -0.0166406389, 1.38396955  , 2.16        , 3           , 11          , 0.008036068 , 0.008036078
-0.170230687, -0.0170966852, -9.835537   , 0.00166769722, 0.000103010774, 0.0009131598, 0.07637859  , -0.347310245, 0.645409167 , 0.0008882976, -0.0166396163, 1.38397861  , 2.17        , 3           , 12          , 0.04427616  , 0
-0.176954255, -0.01658426 , -9.783937   , 6.883958E-05, -0.0009690911, 0.000104854327, 0.07631118  , -0.347242832, 0.6452069   , 0.0008889681, -0.0166493133, 1.38397956  , 2.18        , 3           , 50          , 0           , 0
-0.153906658, -0.00773282535, -9.773832   , -0.0004585258, -0.002565236, -0.001504693, 0.0764460042, -0.347242832, 0.6452069   , 0.0008846346, -0.0166749489, 1.3839643   , 2.19        , 3           , 11          , 0.008036068 , 0.008036078
-0.1660807  , 0.00114403851, -9.806827   , -0.00203013886, 0.000347347057, 0.00117481535, 0.0764460042, -0.347242832, 0.6452069   , 0.000931415358, -0.0166724045, 1.38397479  , 2.2         , 3           , 12          , 0.045124568 , 0
-0.1647211  , 0.0029460378, -9.807259   , -0.001488922, -0.00123258948, -0.00283277547, 0.0764460042, -0.347377658, 0.645274341 , 0.00091699895, -0.0166847035, 1.38394666  , 2.21        , 3           , 50          , 0           , 0
-0.153502092, -0.0105269048, -9.819133   , 0.000385194173, -0.00176599878, -0.000433224952, 0.07631118  , -0.347108   , 0.645544    , 0.0009209245, -0.01670236 , 1.38394189  , 2.22        , 3           , 11          , 0.0079554   , 0.007955431
-0.17741096 , -0.0127794547, -9.808349   , -0.000425272243, 9.177698E-05, 0.000642511644, 0.07658083  , -0.347445071, 0.6450721   , 0.0009165652, -0.0167014468, 1.38394856  , 2.23        , 3           , 12          , 0.045124568 , 0
-0.148473769, 0.00140582956, -9.791387   , 0.000646851957, -0.0006874699, -0.002826528, 0.07658083  , -0.347445071, 0.6450721   , 0.0009235064, -0.0167082939, 1.38392     , 2.24        , 3           , 50          , 0           , 0
-0.162528753, -0.0184050072, -9.788445   , -0.00230141217, 0.00114936789, 0.000378989 , 0.07637859  , -0.347175419, 0.645274341 , 0.0009004295, -0.0166968051, 1.38392377  , 2.25        , 3           , 11          , 0.0079554   , 0.007955431
-0.1864532  , -0.0195595436, -9.8021     , 0.0009055374, 0.00117618369, -0.00174915849, 0.07651342  , -0.347242832, 0.645341754 , 0.000909777533, -0.0166850239, 1.3839066   , 2.26        , 3           , 12          , 0.045124568 , 0
-0.148487031, 0.00154398393, -9.808589   , 0.000382854 , -0.001236078, 0.0003696494, 0.07658083  , -0.347310245, 0.645341754 , 0.0009135444, -0.0166973919, 1.38391     , 2.27        , 3           , 50          , 0           , 0
-0.117851913, -0.0164041538, -9.777448   , 0.002259689 , -0.00255002035, -0.00176799484, 0.07658083  , -0.347310245, 0.645341754 , 0.000936439 , -0.01672287 , 1.3838923   , 2.28        , 3           , 11          , 0.0079554   , 0.007955431
-0.153098315, -0.0236105137, -9.818354   , 0.003051622 , -0.000415598, -0.000954948831, 0.0764460042, -0.347242832, 0.6450721   , 0.0009671147, -0.01672702 , 1.38388276  , 2.29        , 3           , 12          , 0.045124568 , 0
-0.171974212, -0.009298228, -9.795172   , 0.00174058357, 0.000185752331, 0.000111995309, 0.07664824  , -0.347108   , 0.645341754 , 0.00102711772, -0.0166020524, 1.38388324  , 2.3         , 3           , 50          , 0           , 0
-0.160239443, -0.00706215948, -9.798289   , -0.0006689937, 0.0009760179, -0.0006870961, 0.07651342  , -0.347108   , 0.645274341 , 0.00102054153, -0.0165922847, 1.38387656  , 2.31        , 3           , 11          , 0.0078675095, 0.007867529
-0.173303142, -0.000185295939, -9.806404   , -0.000933878066, 0.0004434798, -0.001223748, 0.07651342  , -0.347108   , 0.645274341 , 0.00101140467, -0.01658784 , 1.38386464  , 2.32        , 3           , 12          , 0.04599418  , 0
-0.17250298 , -0.0262761675, -9.814355   , 0.0006764921, -0.0008868543, 0.000104397943, 0.07637859  , -0.347310245, 0.6451395   , 0.001018152 , -0.01659671 , 1.38386559  , 2.33        , 3           , 50          , 0           , 0
-0.160804123, -0.03864546 , -9.79543    , -0.000665261759, 0.0001771191, -0.0009582004, 0.07637859  , -0.347310245, 0.6452069   , 0.00101165834, -0.0165949278, 1.383856    , 2.34        , 3           , 11          , 0.0078675095, 0.007867529
-0.139010161, -0.00227257237, -9.786871   , -0.00173681753, 0.0007023101, -0.0004235893, 0.07631118  , -0.347310245, 0.6451395   , 0.0009943607, -0.0165879  , 1.38385177  , 2.35        , 3           , 12          , 0.04599418  , 0
-0.1363164  , -0.00214812718, -9.803614   , 0.00120512256, 0.000442608551, 0.001712454 , 0.07631118  , -0.347310245, 0.6451395   , 0.00100612745, -0.0165834948, 1.38386846  , 2.36        , 3           , 50          , 0           , 0
-0.1584657  , -0.0142388511, -9.803788   , -0.0003979104, 0.000177440641, -0.0006911616, 0.0767156556, -0.347310245, 0.6451395   , 0.00100226235, -0.0165817142, 1.38386178  , 2.37        , 3           , 11          , 0.0078675095, 0.007867529
-0.181086734, -0.0350067541, -9.790014   , -0.003867721, -0.000906094967, -0.00123569346, 0.07658083  , -0.347108   , 0.645341754 , 0.000963790866, -0.0165907629, 1.38384938  , 2.38        , 3           , 12          , 0.04599418  , 0
-0.154955357, -0.04412111 , -9.790036   , -0.0009233774, -0.00169686519, 0.000364106178, 0.07651342  , -0.346838355, 0.6451395   , 0.000954495859, -0.0166077316, 1.3838532   , 2.39        , 3           , 50          , 0           , 0
-0.153170362, -0.04626573 , -9.804541   , -3.76958342E-05, 0.001810752 , -0.0001502587, 0.07651342  , -0.346838355, 0.6451395   , 0.00111484621, -0.0165351015, 1.38384891  , 2.4         , 3           , 11          , 0.00777580868, 0.00777583336
-0.151236549, -0.0115751494, -9.801933   , -0.00109932071, 0.000205928838, -0.000427469146, 0.07651342  , -0.3470406  , 0.6452069   , 0.00110392389, -0.0165330358, 1.38384461  , 2.41        , 3           , 12          , 0.0468835123, 0
-0.159887776, -0.03036991 , -9.81572151 , 0.003986869 , -0.00136854139, 0.000104599385, 0.07651342  , -0.347242832, 0.6454766   , 0.0011437746, -0.01654672 , 1.38384557  , 2.42        , 3           , 50          , 0           , 0
-0.161141664, -0.007058801, -9.798292   , -0.00269412971, -0.001670811, -0.000173725741, 0.07651342  , -0.347377658, 0.645341754 , 0.00111686171, -0.0165634323, 1.38384414  , 2.43        , 3           , 11          , 0.00777580868, 0.00777583336
-0.149377063, 0.003292568 , -9.80133    , -0.00244195946, 0.00152969721, 0.000111207555, 0.07651342  , -0.347377658, 0.645341754 , 0.00109242345, -0.0165481344, 1.38384509  , 2.44        , 3           , 12          , 0.0468835123, 0
-0.15574488 , -0.0115874447, -9.798323   , -0.00270431372, 0.0004637946, -0.00042842672, 0.07651342  , -0.347242832, 0.6451395   , 0.0010654506, -0.0165434927, 1.3838408   , 2.45        , 3           , 50          , 0           , 0
-0.155304432, -0.0124144824, -9.807837   , -0.00296274619, -0.00140445028, -0.000439273368, 0.07651342  , -0.347445071, 0.645409167 , 0.00103589683, -0.0165575314, 1.38383651  , 2.46        , 3           , 11          , 0.00777580868, 0.00777583336
-0.157590851, -0.0223829653, -9.800696   , -0.000559621, -0.000859009335, -0.000165987061, 0.07658083  , -0.347175419, 0.6452069   , 0.0010303274, -0.016566122, 1.3838346   , 2.47        , 3           , 12          , 0.0468835123, 0
-0.157119617, -0.0127640907, -9.819617   , -2.25780241E-05, -0.00138828682, -0.0004347839, 0.07664824  , -0.347377658, 0.6450721   , 0.00103017362, -0.0165800024, 1.38383031  , 2.48        , 3           , 50          , 0           , 0
-0.174767271, -0.02617689 , -9.825678   , -0.00349093322, -0.00274194847, -0.000180914984, 0.07664824  , -0.347377658, 0.6450721   , 0.0009952956, -0.0166074168, 1.3838284   , 2.49        , 3           , 11          , 0.00777580868, 0.00777583336
-0.1724672  , -0.0182226654, -9.806579   , -0.00209838315, -0.00030907325, 0.0006332822, 0.07637859  , -0.347242832, 0.6451395   , 0.00108608988, -0.0165625717, 1.38383269  , 2.5         , 3           , 12          , 0.0477911644, 0
-0.176452816, 0.001146283 , -9.802324   , 3.82759754E-05, -2.3748551E-05, -0.0009617454, 0.0764460042, -0.347242832, 0.6452069   , 0.00108663156, -0.016562799, 1.38382316  , 2.51        , 3           , 50          , 0           , 0
-0.157593131, -0.0214230977, -9.80793    , -0.00289183459, -0.00217222213, -0.00124479528, 0.07678307  , -0.347242832, 0.6450047   , 0.00105792156, -0.0165845063, 1.38381076  , 2.52        , 3           , 11          , 0.007680787 , 0.007680804
-0.163897023, -0.0205851514, -9.797072   , -0.00209945836, -4.583459E-05, 0.00143466529, 0.07678307  , -0.347242832, 0.6450047   , 0.0010366881, -0.0165849812, 1.38382506  , 2.53        , 3           , 12          , 0.0477911644, 0
-0.171106368, -0.0154971471, -9.809717   , -0.00423143664, -0.001391001, 0.00142394414, 0.07651342  , -0.3470406  , 0.6450047   , 0.0009941377, -0.0165989045, 1.38383937  , 2.54        , 3           , 50          , 0           , 0
-0.15126124 , -0.0211484265, -9.78889751 , -0.00103201449, 0.000234760344, -0.0004286254, 0.07664824  , -0.347108   , 0.6452069   , 0.0009838881, -0.016596552, 1.38383508  , 2.55        , 3           , 11          , 0.007680787 , 0.007680804
-0.150713891, 0.0045301877, -9.786382   , 0.0035031524, 0.00212422013, 0.000122012556, 0.07651342  , -0.347445071, 0.6452069   , 0.001018898 , -0.0165753141, 1.38383651  , 2.56        , 3           , 12          , 0.0477911644, 0
-0.1661258  , -0.01477024 , -9.790231   , 0.000562984555, 0.0021080568, 0.000117523108, 0.07651342  , -0.347445071, 0.6452069   , 0.00102450827, -0.0165542327, 1.38383794  , 2.57        , 3           , 50          , 0           , 0
-0.161627591, -0.0165249854, -9.798386   , -0.00290277717, 0.000219883019, 0.000635040167, 0.07664824  , -0.347310245, 0.6450721   , 0.0009953757, -0.0165520422, 1.38384414  , 2.58        , 3           , 11          , 0.007680787 , 0.007680804
-0.167529032, -0.0254801866, -9.803469   , -0.00236744271, -3.4677505E-05, -0.00149867986, 0.0764460042, -0.347175419, 0.645341754 , 0.0009719498, -0.0165523738, 1.38382936  , 2.59        , 3           , 12          , 0.0477911644, 0
-0.17340599 , -0.0276689827, -9.808937   , 0.00195902726, 0.000516557251, -0.0004235183, 0.07658083  , -0.347242832, 0.6449373   , 0.00108155573, -0.0165489949, 1.38382363  , 2.6         , 3           , 50          , 0           , 0
-0.155839786, -0.03681325 , -9.801286   , -0.00231397571, -0.0003035565, -0.00123441394, 0.07658083  , -0.347242832, 0.6449373   , 0.00105861994, -0.0165520161, 1.38381124  , 2.61        , 3           , 11          , 0.0075859935, 0.007586003
-0.164874688, -0.0417972133, -9.794113   , -0.000711196, -3.37970559E-05, 0.000102679296, 0.07651342  , -0.347175419, 0.6451395   , 0.00105149159, -0.0165523551, 1.38381219  , 2.62        , 3           , 12          , 0.0487158038, 0
-0.16029866 , -0.0237654336, -9.795736   , -0.00016921942, -0.00162750785, -0.0007053436, 0.0764460042, -0.347242832, 0.6452069   , 0.00104991626, -0.0165686235, 1.383805    , 2.63        , 3           , 50          , 0           , 0
-0.162967309, -0.012916781, -9.7979     , -0.00338401273, -4.963901E-05, 0.000365228625, 0.07678307  , -0.347512484, 0.6450721   , 0.00101601484, -0.01656912 , 1.38380837  , 2.64        , 3           , 11          , 0.0075859935, 0.007586003
-0.175521538, 0.007862058 , -9.796824   , -0.000708982465, -0.000561422261, -0.00123345642, 0.07678307  , -0.347512484, 0.6450721   , 0.00100912817, -0.0165747218, 1.38379645  , 2.65        , 3           , 12          , 0.0487158038, 0
-0.167452112, -0.002875857, -9.810944   , -0.00150521623, -0.00164289 , 0.00115903013, 0.0764460042, -0.347377658, 0.6451395   , 0.0009938848, -0.0165911634, 1.3838079   , 2.66        , 3           , 50          , 0           , 0
-0.168484554, -0.0441143662, -9.784638   , 0.003018122 , 0.002654745 , -0.000143325422, 0.07658083  , -0.347108   , 0.645274341 , 0.00102408894, -0.0165646151, 1.38380647  , 2.67        , 3           , 11          , 0.0075859935, 0.007586003
-0.156180888, -0.0103386473, -9.785181   , 0.001154633 , 0.00104551355, -0.000421760255, 0.0764460042, -0.347242832, 0.6452069   , 0.00103570474, -0.0165541545, 1.38380218  , 2.68        , 3           , 12          , 0.0487158038, 0
-0.14985171 , -0.00675897859, -9.78467751 , 9.471664E-05, -0.0008340272, 0.00116595253, 0.0764460042, -0.347242832, 0.6452069   , 0.00103645911, -0.0165625047, 1.3838141   , 2.69        , 3           , 50          , 0           , 0
-0.176078543, -0.0200562663, -9.801172   , -0.0001253378, -0.0008297723, 0.000364859239, 0.07631118  , -0.347242832, 0.6451395   , 0.00111997582, -0.01656671 , 1.383816    , 2.7         , 3           , 11          , 0.007489108 , 0.00748910243
-0.168844551, -0.0118260235, -9.818731   , 0.00120616844, 0.000242008013, 0.000906125933, 0.07658083  , -0.347108   , 0.645341754 , 0.00113188627, -0.0165643  , 1.38382506  , 2.71        , 3           , 12          , 0.04965621  , 0
-0.1358768  , -0.009519743, -9.784218   , 0.00334295444, 0.000525037 , -0.0001556403, 0.0764460042, -0.347242832, 0.6451395   , 0.00116534077, -0.01655905 , 1.38382363  , 2.72        , 3           , 50          , 0           , 0
-0.15434669 , -0.00363349542, -9.778773   , 0.00173416582, 0.00158294942, -0.000152124238, 0.0764460042, -0.347242832, 0.6451395   , 0.00118270784, -0.0165432189, 1.3838222   , 2.73        , 3           , 11          , 0.007489108 , 0.00748910243
-0.167055339, -0.0177592281, -9.810636   , 0.00306959427, 0.00185238721, 0.0009179301, 0.0767156556, -0.347377658, 0.6449373   , 0.00121325138, -0.0165247042, 1.38383126  , 2.74        , 3           , 12          , 0.04965621  , 0
-0.169270679, -0.009275576, -9.799239   , 0.00120098144, 0.0013110328, 0.000378829573, 0.07637859  , -0.347108   , 0.645409167 , 0.00122519827, -0.0165115986, 1.38383508  , 2.75        , 3           , 50          , 0           , 0
-0.161192343, -0.02291491 , -9.78893852 , -0.000392562535, -0.0008323896, 0.0006310817, 0.07651342  , -0.347310245, 0.6451395   , 0.00122116948, -0.01651993 , 1.38384128  , 2.76        , 3           , 11          , 0.007489108 , 0.00748910243
-0.1575996  , -0.020419592, -9.820599   , -0.0009325156, 0.000237139931, -0.0006969228, 0.07658083  , -0.347512484, 0.6451395   , 0.00121195789, -0.01651755 , 1.38383412  , 2.77        , 3           , 12          , 0.04965621  , 0
-0.145370677, -0.0116115045, -9.800108   , -0.002264907, -0.000574845355, 0.000363085419, 0.07658083  , -0.347512484, 0.6451395   , 0.00118924968, -0.0165233035, 1.38383794  , 2.78        , 3           , 50          , 0           , 0
-0.142658338, -0.0121487677, -9.790599   , -0.00253978535, 0.00102377869, 0.000371624541, 0.07664824  , -0.347108   , 0.645274341 , 0.00116379  , -0.01651307 , 1.38384175  , 2.79        , 3           , 11          , 0.007489108 , 0.00748910243
-0.172890574, -0.0100838635, -9.809217   , 0.00149257481, 0.000830442063, -0.002290463, 0.07664824  , -0.347377658, 0.645341754 , 0.00122061081, -0.0164309386, 1.38381839  , 2.8         , 3           , 12          , 0.0506112054, 0
-0.175997019, 0.00577672  , -9.817673   , -0.00304992939, 0.000536484236, -0.00176563126, 0.07631118  , -0.347445071, 0.6450721   , 0.0011904008, -0.0164255574, 1.38380075  , 2.81        , 3           , 50          , 0           , 0
-0.156569675, 0.01195102  , -9.809414   , -0.00118264556, 0.001345669 , -0.00149167 , 0.07631118  , -0.347445071, 0.6450721   , 0.00117881992, -0.01641208 , 1.38378549  , 2.82        , 3           , 11          , 0.007391858 , 0.007391855
-0.160251975, -0.0125487074, -9.788836   , 0.0001516444, 0.00187949324, 0.000113136928, 0.07651342  , -0.347175419, 0.645274341 , 0.00118031888, -0.0163932834, 1.38378692  , 2.83        , 3           , 12          , 0.0506112054, 0
-0.168389469, -0.0160816759, -9.794324   , -0.00250244932, -0.00213199062, -0.0007132044, 0.07631118  , -0.347445071, 0.645274341 , 0.00115541043, -0.0164145958, 1.38377976  , 2.84        , 3           , 50          , 0           , 0
-0.16929999 , -0.0145876184, -9.811516   , -0.00223623635, -0.00186728255, 8.858679E-05, 0.07658083  , -0.3476473  , 0.645274341 , 0.00113303366, -0.0164332688, 1.38378072  , 2.85        , 3           , 11          , 0.007391858 , 0.007391855
-0.172028482, -0.0246489476, -9.792606   , 0.000438857183, -0.0023802137, -0.00124346756, 0.07658083  , -0.3476473  , 0.645274341 , 0.00113762694, -0.01645706 , 1.38376832  , 2.86        , 3           , 12          , 0.0506112054, 0
-0.147643059, -0.0203219578, -9.781183   , 0.00149681338, 2.23604E-05 , -0.00042852218, 0.07651342  , -0.347310245, 0.6452069   , 0.00115266524, -0.0164568312, 1.38376355  , 2.87        , 3           , 50          , 0           , 0
-0.1584166  , 0.000697378069, -9.810886   , 0.0009622373, 1.94215827E-05, -0.000429338455, 0.0764460042, -0.347242832, 0.6450721   , 0.00116235856, -0.01645663 , 1.38375974  , 2.88        , 3           , 11          , 0.007391858 , 0.007391855
-0.17657207 , -0.0299114939, -9.808967   , 0.00202006684, 0.00242429157, -0.000147654384, 0.07651342  , -0.347310245, 0.6452069   , 0.00118258211, -0.016432384, 1.38375783  , 2.89        , 3           , 12          , 0.0506112054, 0
-0.165773422, -0.0399577357, -9.798172   , 0.00257906085, 0.0010765125, -0.000154589623, 0.07651342  , -0.347310245, 0.6452069   , 0.00124311727, -0.0164548066, 1.38375592  , 2.9         , 3           , 50          , 0           , 0
-0.165699884, -0.0234035142, -9.782164   , 0.000978938 , 0.000271092926, -0.000961403945, 0.0767156556, -0.347377658, 0.6451395   , 0.00125306461, -0.0164520815, 1.38374639  , 2.91        , 3           , 11          , 0.00729586324, 0.00729586324
-0.171054542, -0.003865931, -9.798286   , 0.00445355568, 0.000292491 , -0.00148935954, 0.0764460042, -0.347242832, 0.6451395   , 0.00129784457, -0.0164491385, 1.3837316   , 2.92        , 3           , 12          , 0.05157971  , 0
-0.15887624 , -0.00576553866, -9.791935   , 0.00151598093, -0.00025818494, -0.00123020087, 0.07664824  , -0.347310245, 0.6451395   , 0.001313207 , -0.0164517034, 1.38371921  , 2.93        , 3           , 50          , 0           , 0
-0.146241233, -0.005852524, -9.786924   , 0.002588233 , -0.0007960026, 0.001168125 , 0.07664824  , -0.347310245, 0.6451395   , 0.00133889751, -0.01645968 , 1.38373065  , 2.94        , 3           , 11          , 0.00729586324, 0.00729586324
-0.18057102 , -0.0136803137, -9.807008   , 0.000174860455, 0.0007943098, 0.000373507268, 0.0767156556, -0.347242832, 0.6451395   , 0.00134058413, -0.01645174 , 1.38373446  , 2.95        , 3           , 12          , 0.05157971  , 0
-0.1630099  , -0.021835627, -9.810212   , -0.001151269, -0.00134993857, 0.00115942874, 0.07637859  , -0.347377658, 0.6452069   , 0.00132887973, -0.016465256, 1.38374639  , 2.96        , 3           , 50          , 0           , 0
-0.139980718, -0.0151330084, -9.813258   , 0.00123863539, 0.00187265559, -0.0009520485, 0.07637859  , -0.347242832, 0.645274341 , 0.00134142186, -0.0164465159, 1.38373685  , 2.97        , 3           , 11          , 0.00729586324, 0.00729586324
-0.178257272, 0.003025476 , -9.810914   , 0.00178200379, 9.966767E-06, -0.00122830155, 0.07637859  , -0.347242832, 0.645274341 , 0.00135944341, -0.0164464023, 1.38372445  , 2.98        , 3           , 12          , 0.05157971  , 0
-0.162880078, 0.00864405  , -9.787729   , -9.26175853E-05, 0.0007962839, -0.0004267928, 0.0764460042, -0.347175419, 0.6450721   , 0.00135858729, -0.01643843 , 1.38372016  , 2.99        , 3           , 50          , 0           , 0
-0.144953072, -0.01875408 , -9.809231   , -0.00225263112, -0.0005617247, -0.000437034265, 0.07637859  , -0.347175419, 0.645409167 , 0.00128050579, -0.0164695382, 1.38371682  , 3           , 3           , 11          , 0.007201197 , 0.007201197
-0.148985445, -0.0120053012, -9.805554   , -0.00146367145, 0.00211409735, -0.00148742029, 0.07658083  , -0.347310245, 0.6454766   , 0.0012661143, -0.0164483748, 1.38370156  , 3.01        , 3           , 12          , 0.0525607   , 0
-0.172387213, 0.00107300654, -9.795072   , -0.00118309911, -0.000562734262, 0.001164382 , 0.07658083  , -0.347310245, 0.6454766   , 0.0012540936, -0.0164540168, 1.383713    , 3.02        , 3           , 50          , 0           , 0
-0.167474791, -0.0101294573, -9.806034   , 0.00094343914, 0.00185604848, -0.000418715819, 0.0764460042, -0.347310245, 0.6450721   , 0.00126359682, -0.01643545 , 1.38370919  , 3.03        , 3           , 11          , 0.007201197 , 0.007201197
-0.162055254, -0.007873533, -9.808716   , 0.0006746327, 0.00212585274, -0.00148415531, 0.0764460042, -0.347242832, 0.645341754 , 0.00127058662, -0.0164141767, 1.38369393  , 3.04        , 3           , 12          , 0.0525607   , 0
-0.149918377, -0.0229168758, -9.793891   , -0.000383702, -2.61093646E-05, 0.00143521954, 0.07664824  , -0.347310245, 0.645341754 , 0.00126651349, -0.0164144561, 1.38370824  , 3.05        , 3           , 50          , 0           , 0
-0.150321171, -0.00563019328, -9.812738   , -0.000385790336, 0.000255495135, -0.0020294874, 0.07637859  , -0.347175419, 0.6450047   , 0.0012629875, -0.0164118744, 1.38368821  , 3.06        , 3           , 11          , 0.007201197 , 0.007201197
-0.182797089, -0.00742546469, -9.798802   , 0.002022965 , -0.000276123348, 0.0006375095, 0.07637859  , -0.347175419, 0.6450047   , 0.00128311338, -0.0164146423, 1.38369441  , 3.07        , 3           , 12          , 0.0525607   , 0
-0.1566314  , -0.0117476843, -9.777953   , 0.0006980377, -0.00268590613, 0.00115530926, 0.07651342  , -0.347377658, 0.6450721   , 0.00128990458, -0.0164415166, 1.38370633  , 3.08        , 3           , 50          , 0           , 0
-0.1661294  , -0.0123923738, -9.8056     , -0.0003731394, -0.002411327, -0.0020443995, 0.07637859  , -0.347242832, 0.645341754 , 0.00128650956, -0.0164656024, 1.38368535  , 3.09        , 3           , 11          , 0.007201197 , 0.007201197
-0.174314439, -0.02619674 , -9.823414   , -0.00119266193, -0.00135572907, -0.00150617119, 0.0764460042, -0.347512484, 0.6450721   , 0.00124873524, -0.0164882243, 1.383671    , 3.1         , 3           , 12          , 0.0535532162, 0
-0.163041115, -0.0318088681, -9.803519   , -0.000132048881, 0.0005111848, -0.000160947035, 0.0764460042, -0.347512484, 0.6450721   , 0.00124744081, -0.0164831113, 1.38366914  , 3.11        , 3           , 50          , 0           , 0
-0.158488736, -0.01961634 , -9.807916   , 0.00226702751, 0.001861264 , -0.000949709734, 0.07631118  , -0.347175419, 0.6450721   , 0.00127026835, -0.0164644867, 1.38366008  , 3.12        , 3           , 11          , 0.007107243 , 0.007107261
-0.137355268, -0.0334898  , -9.830635   , 0.00227208785, 0.000794535154, -0.000955674564, 0.07651342  , -0.347242832, 0.645274341 , 0.00129314512, -0.01645653 , 1.38365054  , 3.13        , 3           , 12          , 0.0535532162, 0
-0.1485713  , -0.0228564646, -9.802036   , 0.00174276275, -0.000278576132, -0.000162563738, 0.07651342  , -0.347310245, 0.6450047   , 0.00131059962, -0.0164593142, 1.38364863  , 3.14        , 3           , 50          , 0           , 0
-0.153922886, -0.0103724878, -9.782008   , -0.00307101524, 0.00022948689, -0.0004335583, 0.07651342  , -0.347310245, 0.6450047   , 0.001279961 , -0.0164570138, 1.38364434  , 3.15        , 3           , 11          , 0.007107243 , 0.007107261
-0.1670472  , -0.0220568273, -9.780796   , -0.00146735064, 0.0002394512, -0.0006977401, 0.0764460042, -0.347377658, 0.6451395   , 0.00126540149, -0.0164546128, 1.38363767  , 3.16        , 3           , 12          , 0.0535532162, 0
-0.141325846, -0.01614965 , -9.79833    , -0.000931446033, -2.54400929E-05, -0.0004317845, 0.0764460042, -0.347310245, 0.645409167 , 0.00125615764, -0.0164548587, 1.38363338  , 3.17        , 3           , 50          , 0           , 0
-0.139103532, -0.0228335448, -9.809257   , 0.004153542 , -0.00133437593, 0.0003684059, 0.07637859  , -0.347242832, 0.645274341 , 0.00129763235, -0.016468212, 1.38363671  , 3.18        , 3           , 11          , 0.007107243 , 0.007107261
-0.155264109, -0.006280711, -9.785593   , -0.000926259, -0.00109446456, 9.551196E-05, 0.07637859  , -0.347242832, 0.645274341 , 0.00128835358, -0.0164791569, 1.38363767  , 3.19        , 3           , 12          , 0.0535532162, 0
-0.167069316, -0.0213587619, -9.811577   , 0.0006923335, 0.00109014276, 0.00064271444, 0.07664824  , -0.347377658, 0.6450721   , 0.00134779408, -0.01637375 , 1.38364339  , 3.2         , 3           , 50          , 0           , 0
-0.151731268, -0.0242263563, -9.798436   , 0.00123816868, -0.00130476267, 9.684858E-05, 0.07651342  , -0.347242832, 0.645274341 , 0.0013601603, -0.0163868  , 1.38364434  , 3.21        , 3           , 11          , 0.00701578846, 0.00701580476
-0.169746727, -0.0193125717, -9.784398   , 0.00123437343, -0.0005047161, 0.0001013222, 0.07651342  , -0.347242832, 0.6449373   , 0.00137248775, -0.0163918473, 1.3836453   , 3.22        , 3           , 12          , 0.0545563772, 0
-0.149904743, -0.0193137042, -9.793404   , -0.00170978007, 0.000282610737, -0.000698585471, 0.07651342  , -0.347242832, 0.6449373   , 0.00135550462, -0.01638901 , 1.38363862  , 3.23        , 3           , 50          , 0           , 0
-0.1629791  , -0.0170071516, -9.793866   , -0.00143983518, -0.0002515801, -0.000167898543, 0.0767156556, -0.347242832, 0.6452069   , 0.00134113478, -0.0163915232, 1.38363671  , 3.24        , 3           , 11          , 0.00701578846, 0.00701580476
-0.161505014, 0.0173069723, -9.800318   , -0.00116761343, -0.00131454365, -0.0007067165, 0.07664824  , -0.3475799  , 0.6450047   , 0.0013295752, -0.01640466 , 1.38362956  , 3.25        , 3           , 12          , 0.0545563772, 0
-0.161182657, -0.01693025 , -9.804275   , 0.00123000809, 0.000305661437, -0.00229388 , 0.07658083  , -0.347310245, 0.6451395   , 0.0013422498, -0.016401574, 1.38360667  , 3.26        , 3           , 50          , 0           , 0
-0.16166921 , -0.0249857027, -9.811599   , 0.000157630871, 0.00108949968, 0.000108636938, 0.07658083  , -0.347310245, 0.6451395   , 0.00134380825, -0.01639068 , 1.38360763  , 3.27        , 3           , 11          , 0.00701578846, 0.00701580476
-0.1621369  , -0.029492531, -9.811644   , 0.00177793182, -0.00237084832, 0.0006249612, 0.07651342  , -0.347512484, 0.6450721   , 0.00136148639, -0.0164143965, 1.38361382  , 3.28        , 3           , 12          , 0.0545563772, 0
-0.146325618, -0.0260389931, -9.799798   , -0.00143458485, -0.00132175232, 0.0006260285, 0.0767156556, -0.347175419, 0.645274341 , 0.001347037 , -0.0164276231, 1.3836205   , 3.29        , 3           , 50          , 0           , 0
-0.1260149  , -0.0215442069, -9.8074     , 0.00126672059, -0.00101429666, -0.0009687158, 0.07658083  , -0.347310245, 0.6451395   , 0.00142556778, -0.0163958  , 1.38360953  , 3.3         , 3           , 11          , 0.006925601 , 0.00692562154
-0.173315525, -0.00660989853, -9.792432   , 0.003386175 , 0.00299539627, -0.000409821456, 0.07658083  , -0.347310245, 0.6451395   , 0.00145949563, -0.01636584 , 1.38360524  , 3.31        , 3           , 12          , 0.0555693433, 0
-0.167056739, -0.019617172, -9.803862   , 0.00179142924, 0.00111750839, 0.000110552595, 0.07658083  , -0.347512484, 0.6450721   , 0.00147739076, -0.016354667, 1.38360667  , 3.32        , 3           , 50          , 0           , 0
-0.175663292, -0.0295148958, -9.802622   , -6.851769E-05, -0.00128717814, -0.00123887847, 0.07651342  , -0.347377658, 0.6451395   , 0.00147690962, -0.01636752 , 1.38359427  , 3.33        , 3           , 11          , 0.006925601 , 0.00692562154
-0.181045577, -0.0279458426, -9.770928   , 0.0007323346, -0.001020679, -0.000169640261, 0.07631118  , -0.347175419, 0.6452069   , 0.00148426078, -0.0163777247, 1.38359237  , 3.34        , 3           , 12          , 0.0555693433, 0
-0.158470169, -0.0127881449, -9.815998   , 0.000457456 , 0.0005779448, -0.00016110111, 0.07658083  , -0.347242832, 0.6451395   , 0.00148886186, -0.0163719431, 1.38359094  , 3.35        , 3           , 50          , 0           , 0
-0.185962573, -0.005461259, -9.817354   , 0.00286292145, 0.0005934653, -0.000690689136, 0.07658083  , -0.347242832, 0.6451395   , 0.001517604 , -0.0163659975, 1.38358378  , 3.36        , 3           , 11          , 0.006925601 , 0.00692562154
-0.159799933, -0.0102197919, -9.798319   , 0.00153571717, -0.00128754461, 0.000896615442, 0.0764460042, -0.347242832, 0.6452069   , 0.001532814 , -0.016378887, 1.38359284  , 3.37        , 3           , 12          , 0.0555693433, 0
-0.160324737, -0.0351966545, -9.775928   , 0.00285703922, 0.00191884127, 0.00118318119, 0.07651342  , -0.347377658, 0.6451395   , 0.00156118989, -0.0163597167, 1.38360476  , 3.38        , 3           , 50          , 0           , 0
-0.181045845, -0.0227938015, -9.794873   , 0.00366617716, 0.000328895519, -0.000157694769, 0.0769178942, -0.347512484, 0.6452069   , 0.00159787643, -0.0163564272, 1.38360333  , 3.39        , 3           , 11          , 0.006925601 , 0.00692562154
-0.158027932, -0.0173783  , -9.806082   , 0.00154860935, 0.000278193038, 0.000905241468, 0.0769178942, -0.347512484, 0.6452069   , 0.00165939413, -0.01643104 , 1.383611    , 3.4         , 3           , 12          , 0.056591332 , 0
-0.162516043, -0.0101115648, -9.81055    , 0.00207768171, 0.00135589589, -0.0009543917, 0.07658083  , -0.347377658, 0.6449373   , 0.00168032653, -0.0164174661, 1.38360143  , 3.41        , 3           , 50          , 0           , 0
-0.164694652, 0.006883722 , -9.792278   , 0.00314677064, 0.00136292144, -0.00121939008, 0.07664824  , -0.347242832, 0.645341754 , 0.00171199371, -0.0164038148, 1.38358951  , 3.42        , 3           , 11          , 0.006837648 , 0.00683767442
-0.159347758, -0.01210485 , -9.788377   , -5.9420483E-05, 0.00107860623, -0.00122577883, 0.0764460042, -0.347377658, 0.6450721   , 0.00171160162, -0.0163930077, 1.38357711  , 3.43        , 3           , 12          , 0.056591332 , 0
-0.138166577, -0.01664497 , -9.794252   , -0.002989531, -0.00106986717, -0.00150882849, 0.0764460042, -0.347377658, 0.6450721   , 0.00168195332, -0.01640368 , 1.38356233  , 3.44        , 3           , 50          , 0           , 0
-0.154847026, -0.010609122, -9.80827    , 0.000485846249, -0.00106224348, 0.00116278359, 0.07658083  , -0.3475799  , 0.6452069   , 0.00168662169, -0.0164143238, 1.38357377  , 3.45        , 3           , 11          , 0.006837648 , 0.00683767442
-0.161187991, -0.0164066814, -9.813324   , -0.000590011245, 0.0002721771, -0.0004311767, 0.07637859  , -0.347310245, 0.645341754 , 0.00168079173, -0.016411595, 1.38356948  , 3.46        , 3           , 12          , 0.056591332 , 0
-0.162648827, -0.0452415273, -9.815421   , 0.00261111953, 0.00162322121, -0.0004188231, 0.07651342  , -0.347445071, 0.645274341 , 0.00170697074, -0.0163953546, 1.38356519  , 3.47        , 3           , 50          , 0           , 0
-0.1526282  , -0.0172566567, -9.823724   , -0.00218368182, -0.001868949, -0.000712185749, 0.07651342  , -0.347445071, 0.645274341 , 0.00168525078, -0.0164140332, 1.383558    , 3.48        , 3           , 11          , 0.006837648 , 0.00683767442
-0.173371464, -0.0167940427, -9.815622   , -7.188144E-05, 0.00374198472, -0.0004109747, 0.07637859  , -0.347242832, 0.6451395   , 0.001684599 , -0.0163766053, 1.38355422  , 3.49        , 3           , 12          , 0.056591332 , 0
-0.1481229  , -0.0251705684, -9.794814   , -0.000582134468, 0.0005305582, 0.00090334483, 0.07631118  , -0.347108   , 0.645274341 , 0.00169912342, -0.0163772572, 1.3835628   , 3.5         , 3           , 50          , 0           , 0
-0.145864829, -0.01818353 , -9.823715   , 0.00329569285, 0.0001472498, 0.00197354844, 0.07658083  , -0.347310245, 0.6452069   , 0.00173175626, -0.0163758174, 1.38358235  , 3.51        , 3           , 11          , 0.00675243326, 0.00675248168
-0.128180251, 0.0009303559, -9.797678   , 0.00410182634, -0.000778860063, 0.001302977 , 0.07658083  , -0.347310245, 0.6452069   , 0.00177256169, -0.0163836274, 1.38359571  , 3.52        , 3           , 12          , 0.0576216057, 0
-0.156203061, -0.01478898 , -9.792468   , 0.00142670015, -0.000387217558, -0.00016533598, 0.0764460042, -0.347512484, 0.644869864 , 0.00178685482, -0.0163874961, 1.3835938   , 3.53        , 3           , 50          , 0           , 0
-0.1543982  , -0.009650927, -9.815504   , 0.00435564062, 0.00202621636, 0.000519151 , 0.0764460042, -0.347242832, 0.6451395   , 0.00183032674, -0.0163672436, 1.38359952  , 3.54        , 3           , 11          , 0.00675243326, 0.00675248168
-0.14409253 , -0.03236656 , -9.798949   , 0.00328652025, 0.00201976486, 0.0006508337, 0.0764460042, -0.347310245, 0.6452069   , 0.00186308415, -0.01634706 , 1.38360572  , 3.55        , 3           , 12          , 0.0576216057, 0
-0.144547939, -0.0281072725, -9.82381    , 0.00155205769, 0.00134809944, -0.000422069628, 0.0764460042, -0.347310245, 0.6452069   , 0.001878674 , -0.01633357 , 1.38360143  , 3.56        , 3           , 50          , 0           , 0
-0.1616461  , -0.0144598223, -9.830963   , 0.00168759911, 0.0009488109, -0.000424102385, 0.07664824  , -0.347242832, 0.6450047   , 0.00189561758, -0.0163240731, 1.38359761  , 3.57        , 3           , 11          , 0.00675243326, 0.00675248168
-0.173842013, -0.0226752311, -9.81296349 , 0.0022243897, 0.0005459869, 0.0009076301, 0.0764460042, -0.347108   , 0.6450721   , 0.00191771344, -0.01631863 , 1.38360667  , 3.58        , 3           , 12          , 0.0576216057, 0
-0.159337386, -0.00799994 , -9.794222   , 0.0012951754, -0.0007919933, 0.0007654303, 0.07651342  , -0.347377658, 0.645409167 , 0.00193053961, -0.0163265653, 1.3836143   , 3.59        , 3           , 50          , 0           , 0
-0.157935277, 0.00131746754, -9.776018   , -0.00110982335, -0.00238321372, -0.00044695317, 0.07651342  , -0.347377658, 0.645409167 , 0.00190346176, -0.01630993 , 1.38361     , 3.6         , 3           , 11          , 0.00666943658, 0.00666947663
-0.15433231 , 0.00323831663, -9.792289   , 0.00115526165, -0.000905693334, -3.5336423E-05, 0.07664824  , -0.347445071, 0.644869864 , 0.00191502087, -0.0163189881, 1.38360953  , 3.61        , 3           , 12          , 0.05865949  , 0
-0.150301039, 0.003990354 , -9.831659   , 0.00461979024, 0.00124858867, -0.000418047, 0.07631118  , -0.347108   , 0.6452069   , 0.00196128641, -0.0163064934, 1.38360524  , 3.62        , 3           , 50          , 0           , 0
-0.152104422, 0.000241206959, -9.813138   , 0.00274804677, 0.00137336564, -0.0008201043, 0.07631118  , -0.347242832, 0.6450721   , 0.00198890083, -0.0162927415, 1.38359714  , 3.63        , 3           , 11          , 0.00666943658, 0.00666947663
-0.134527922, -0.008074066, -9.796424   , 8.19660854E-05, -0.000105211147, -0.00149896392, 0.07678307  , -0.347310245, 0.6451395   , 0.00198996463, -0.0162937641, 1.38358188  , 3.64        , 3           , 12          , 0.05865949  , 0
-0.153047636, -0.01337183 , -9.801955   , 0.0007522421, -0.0005044307, -0.0008336037, 0.07678307  , -0.347310245, 0.6451395   , 0.00199762359, -0.0162987914, 1.38357377  , 3.65        , 3           , 50          , 0           , 0
-0.161101028, 0.008433707 , -9.818514   , -0.000182727672, -0.0005193304, 0.00143132813, 0.0764460042, -0.347310245, 0.645274341 , 0.00199556164, -0.0163040143, 1.38358808  , 3.66        , 3           , 11          , 0.00666943658, 0.00666947663
-0.170543432, 0.0142318457, -9.806256   , -0.00192171324, -0.000255886058, -3.63019353E-05, 0.0764460042, -0.347310245, 0.645274341 , 0.00197635032, -0.0163065735, 1.3835876   , 3.67        , 3           , 12          , 0.05865949  , 0
-0.163399681, -0.00328000658, -9.818634   , -6.05969944E-05, 0.00176197791, -0.00175536 , 0.07658083  , -0.347377658, 0.644869864 , 0.00197602925, -0.01628892 , 1.38357     , 3.68        , 3           , 50          , 0           , 0
-0.1823917  , -0.0181857478, -9.806603   , 7.374292E-05, 0.00162822369, -0.001489271, 0.07658083  , -0.347377658, 0.644869864 , 0.00197700853, -0.0162726063, 1.38355517  , 3.69        , 3           , 11          , 0.00666943658, 0.00666947663
-0.157128647, -0.0220319517, -9.788467   , -0.0003771032, -0.000382288, -0.00110015669, 0.07631118  , -0.347310245, 0.6451395   , 0.00182710134, -0.016292356, 1.38354659  , 3.7         , 3           , 12          , 0.05970434  , 0
-0.148128927, -0.0246397369, -9.80476952 , 0.000954529969, 0.00068719656, -2.56286512E-05, 0.07631118  , -0.347310245, 0.645274341 , 0.00183665112, -0.0162854828, 1.38354611  , 3.71        , 3           , 50          , 0           , 0
-0.159366027, -0.0114467777, -9.814177   , 0.000157157 , -0.000251747319, 0.00023455832, 0.07637859  , -0.347175419, 0.6450721   , 0.001838185 , -0.0162880067, 1.3835485   , 3.72        , 3           , 11          , 0.006587824 , 0.006587884
-0.169279426, -0.0110571627, -9.801973   , 2.72449379E-05, -0.00105138076, -3.67499779E-05, 0.07637859  , -0.347175419, 0.6450721   , 0.00183846429, -0.0162985213, 1.383548    , 3.73        , 3           , 12          , 0.05970434  , 0
-0.155729547, -0.008002456, -9.795571   , -0.000114211274, 0.0005519954, -0.000961214129, 0.07631118  , -0.347310245, 0.6452069   , 0.001837478 , -0.01629298 , 1.38353848  , 3.74        , 3           , 50          , 0           , 0
-0.155656338, 0.0104278736, -9.788599   , 0.000958166667, -0.000109980487, -0.000696678937, 0.07651342  , -0.347242832, 0.6450721   , 0.001847176 , -0.0162940715, 1.38353133  , 3.75        , 3           , 11          , 0.006587824 , 0.006587884
-0.159792513, -0.007020207, -9.803721   , 0.00068721  , 0.000686301151, -0.000159352072, 0.0764460042, -0.347175419, 0.6452069   , 0.001854074 , -0.016287202, 1.3835299   , 3.76        , 3           , 12          , 0.05970434  , 0
-0.146318108, -0.01956349 , -9.820109   , -0.00158926088, 0.00160892087, -0.0005575479, 0.0764460042, -0.347175419, 0.6452069   , 0.00183827174, -0.0162711032, 1.38352418  , 3.77        , 3           , 50          , 0           , 0
-0.163420022, -0.006345077, -9.829983   , -0.002522966, 0.00120547635, -0.0009611591, 0.07658083  , -0.347512484, 0.6451395   , 0.00181319925, -0.0162590314, 1.38351464  , 3.78        , 3           , 11          , 0.006587824 , 0.006587884
-0.166628391, -0.0245309379, -9.809795   , -0.0002512396, 0.00122198381, -0.0018908974, 0.07637859  , -0.347310245, 0.645274341 , 0.00181099377, -0.016246777, 1.38349557  , 3.79        , 3           , 12          , 0.05970434  , 0
-0.178818375, -0.0271907281, -9.809853   , 0.00199628738, 0.0008290117, -0.0006893934, 0.07631118  , -0.347175419, 0.6450047   , 0.00176380144, -0.0162391849, 1.38348985  , 3.8         , 3           , 50          , 0           , 0
-0.172435224, -0.00685324334, -9.818692   , 0.00265976368, 0.00189367484, 0.000650745 , 0.07631118  , -0.347175419, 0.6450047   , 0.00179029279, -0.01622026 , 1.38349652  , 3.81        , 3           , 11          , 0.00650849566, 0.00650855433
-0.147633046, -0.0143409315, -9.796066   , 0.00399547676, 0.00203608465, 0.0002535853, 0.07637859  , -0.347377658, 0.6450047   , 0.0018302059, -0.0161999017, 1.38349891  , 3.82        , 3           , 12          , 0.060755562 , 0
-0.172958627, -0.0280996989, -9.811657   , 0.0019964776, 0.000825568 , 0.000110498571, 0.0764460042, -0.347310245, 0.6452069   , 0.0018501546, -0.0161916539, 1.38349986  , 3.83        , 3           , 50          , 0           , 0
-0.179661721, -0.014225414, -9.795692   , -0.000942520855, 0.000544444134, -0.000295428035, 0.07637859  , -0.347377658, 0.6452069   , 0.00184077665, -0.0161862019, 1.383497    , 3.84        , 3           , 11          , 0.00650849566, 0.00650855433
-0.144498989, -0.0215953644, -9.792507   , -0.001476306, 0.00040529453, 0.000369586633, 0.07637859  , -0.347377658, 0.6452069   , 0.00182595407, -0.0161821563, 1.38350081  , 3.85        , 3           , 12          , 0.060755562 , 0
-0.138627   , -0.0207591113, -9.787051   , 0.000931879564, -0.000115993134, 0.000636908 , 0.07658083  , -0.347310245, 0.6451395   , 0.00183517043, -0.0161833242, 1.383507    , 3.86        , 3           , 50          , 0           , 0
-0.155668825, 0.008217251 , -9.794054   , 0.00253231823, 0.000561824651, 0.0001098236, 0.0764460042, -0.346973181, 0.6454766   , 0.00186047482, -0.0161777083, 1.38350844  , 3.87        , 3           , 11          , 0.00650849566, 0.00650855433
-0.166116029, -0.009254601, -9.803306   , 0.00105752144, 0.001492296 , -0.00108703983, 0.07651342  , -0.347445071, 0.645409167 , 0.00187122461, -0.0161627661, 1.38349748  , 3.88        , 3           , 12          , 0.060755562 , 0
-0.152633578, -0.0256264526, -9.792114   , -7.42436441E-06, 0.0005570481, -0.002027099, 0.07651342  , -0.347445071, 0.645409167 , 0.00187147851, -0.01615716 , 1.38347745  , 3.89        , 3           , 50          , 0           , 0
-0.145787254, -0.004479835, -9.789626   , 0.000781121838, 0.000288816635, -0.000693982351, 0.07637859  , -0.347242832, 0.6450721   , 0.00184069341, -0.0161548369, 1.38347077  , 3.9         , 3           , 11          , 0.00643131975, 0.00643136259
-0.183719277, -0.014235761, -9.792534   , 0.000648395333, 0.000149575426, 0.0005049059, 0.0764460042, -0.347310245, 0.645274341 , 0.00184709672, -0.01615335 , 1.38347554  , 3.91        , 3           , 12          , 0.0618126   , 0
-0.170200124, -0.0164785534, -9.800218   , 0.000115242736, -0.0001229153, 0.001169175 , 0.07651342  , -0.347242832, 0.645341754 , 0.00184805889, -0.0161546  , 1.38348746  , 3.92        , 3           , 50          , 0           , 0
-0.141310915, -0.0139644723, -9.789707   , 0.000514878 , 0.00014654499, 0.00103796308, 0.07637859  , -0.347377658, 0.645341754 , 0.00185303926, -0.0161531549, 1.383498    , 3.93        , 3           , 11          , 0.00643131975, 0.00643136259
-0.1705906  , -0.00353309512, -9.783793   , -0.000290402124, 0.0008134338, -2.605584E-05, 0.07637859  , -0.347377658, 0.645341754 , 0.001850139 , -0.0161450226, 1.383498    , 3.94        , 3           , 12          , 0.0618126   , 0
-0.159709036, 0.014111585 , -9.79627    , 0.000639950566, 0.00188702752, -0.000418608455, 0.0764460042, -0.347377658, 0.645274341 , 0.0018566061, -0.0161261428, 1.38349366  , 3.95        , 3           , 50          , 0           , 0
-0.150773749, -0.0107623693, -9.791058   , 0.00291145639, 0.002029415 , 0.000385498162, 0.07637859  , -0.347175419, 0.6451395   , 0.00188565825, -0.0161058567, 1.38349748  , 3.96        , 3           , 11          , 0.00643131975, 0.00643136259
-0.17381461 , -0.01640696 , -9.807469   , 0.00198173616, 0.0008224802, 0.0007773051, 0.07651342  , -0.347512484, 0.645274341 , 0.001905351 , -0.01609765 , 1.38350511  , 3.97        , 3           , 12          , 0.0618126   , 0
-0.158926219, -0.0197564438, -9.79026    , 0.0018582443, -0.00131228624, 0.00089848676, 0.07651342  , -0.347512484, 0.645274341 , 0.00192378939, -0.0161107853, 1.38351417  , 3.98        , 3           , 50          , 0           , 0
-0.176978171, -0.0191439372, -9.802072   , -0.000546272553, -0.00158874958, 9.343045E-05, 0.0764460042, -0.347175419, 0.6450721   , 0.00191831251, -0.01612668 , 1.38351512  , 3.99        , 3           , 11          , 0.00643131975, 0.00643136259
-0.157107383, -0.0147638135, -9.795188   , -0.0020475944, 0.0001200609, -0.000698581454, 0.07631118  , -0.347377658, 0.645274341 , 0.00183707  , -0.0161787849, 1.3835094   , 4           , 3           , 12          , 0.06287493  , 0
-0.144985259, -0.0310579184, -9.793053   , -0.000310791482, 0.000261805282, -0.000428552361, 0.07664824  , -0.347377658, 0.6451395   , 0.001834032 , -0.01617616 , 1.38350511  , 4.01        , 3           , 50          , 0           , 0
-0.152151436, -0.0165893119, -9.79474    , 0.00036005376, -0.000269607437, -3.056852E-05, 0.07664824  , -0.347377658, 0.6451395   , 0.00183763821, -0.0161788557, 1.38350463  , 4.02        , 3           , 11          , 0.00635608425, 0.00635612942
-0.165315077, -0.0395667255, -9.790923   , 0.00103023474, -0.000667105, 0.000234845633, 0.0764460042, -0.347175419, 0.6451395   , 0.00184790441, -0.0161855333, 1.383507    , 4.03        , 3           , 12          , 0.06287493  , 0
-0.1760247  , -0.007977832, -9.789284   , 0.000234063627, -0.00187158328, 0.0002269108, 0.07637859  , -0.347108   , 0.645409167 , 0.0018502071, -0.016204251, 1.3835094   , 4.04        , 3           , 50          , 0           , 0
-0.177399963, -0.0100852661, -9.806965   , -3.70829948E-05, -0.00107185822, -3.56543533E-05, 0.0764460042, -0.347108   , 0.645341754 , 0.00184984237, -0.01621497 , 1.38350892  , 4.05        , 3           , 11          , 0.00635608425, 0.00635612942
-0.172021851, -0.0191005953, -9.809755   , 0.0007538378, 0.00120279263, -0.000821646652, 0.0764460042, -0.347108   , 0.645341754 , 0.0018575124, -0.0162029248, 1.38350081  , 4.06        , 3           , 12          , 0.06287493  , 0
-0.14898333 , -0.01389959 , -9.794253   , 0.00128967874, 0.0009390491, -0.00082232157, 0.0764460042, -0.347310245, 0.645341754 , 0.0018705416, -0.0161935184, 1.38349271  , 4.07        , 3           , 50          , 0           , 0
-0.172899961, -0.01934809 , -9.778522   , 0.00102065154, 0.00133473333, -0.000153916248, 0.0764460042, -0.347242832, 0.645409167 , 0.00188077369, -0.01618017 , 1.3834908   , 4.08        , 3           , 11          , 0.00635608425, 0.00635612942
-0.175185472, -0.0251134988, -9.789449   , 0.0007539011, 0.00120164466, -0.000555016, 0.07651342  , -0.347175419, 0.645341754 , 0.00188840122, -0.0161681417, 1.38348556  , 4.09        , 3           , 12          , 0.06287493  , 0
-0.172043055, -0.02683776 , -9.800777   , 0.00102584134, -2.27225883E-05, -0.000961119251, 0.07651342  , -0.347175419, 0.645341754 , 0.00189624645, -0.0162435938, 1.3834765   , 4.1         , 3           , 50          , 0           , 0
-0.145827189, -0.0143621881, -9.79425    , 0.000892893237, -0.00015794627, -0.000695438357, 0.07631118  , -0.347377658, 0.6450721   , 0.00190528878, -0.01624516 , 1.38346887  , 4.11        , 3           , 11          , 0.00628282875, 0.00628287857
-0.151614785, 0.00311555  , -9.778248   , 0.00209331745, 0.00037916092, -2.404272E-05, 0.07651342  , -0.347175419, 0.645409167 , 0.00192622573, -0.016241366, 1.38346887  , 4.12        , 3           , 12          , 0.06394206  , 0
-0.156157449, -0.00168886781, -9.795509   , 0.0006226008, 0.000504420255, -2.554184E-05, 0.07637859  , -0.347175419, 0.645409167 , 0.00193245639, -0.0162363257, 1.38346887  , 4.13        , 3           , 50          , 0           , 0
-0.164720565, 0.000131877139, -9.793703   , -0.00017995917, 0.000634501 , -0.000292651268, 0.07637859  , -0.347175419, 0.645409167 , 0.00193070364, -0.0162299722, 1.383466    , 4.14        , 3           , 11          , 0.00628282875, 0.00628287857
-0.157587439, -0.02569524 , -9.78126049 , 0.00181903981, 0.00184501777, -0.000149564527, 0.0764460042, -0.347175419, 0.645274341 , 0.001948918 , -0.016211519, 1.3834641   , 4.15        , 3           , 12          , 0.06394206  , 0
-0.153017178, -0.008539725, -9.786062   , 0.00168305542, 0.00237420388, 0.00065310573, 0.0764460042, -0.347108   , 0.645274341 , 0.00196564244, -0.01618779 , 1.38347077  , 4.16        , 3           , 50          , 0           , 0
-0.155777767, -0.02201154 , -9.791634   , 0.00155962724, 0.000238289533, 0.00104091794, 0.07651342  , -0.347175419, 0.645409167 , 0.0019810705, -0.01618543 , 1.38348126  , 4.17        , 3           , 11          , 0.00628282875, 0.00628287857
-0.184566557, -0.000761427, -9.785612   , 0.00249870913, -0.0005525968, 0.000104665552, 0.07651342  , -0.347175419, 0.645409167 , 0.00200604228, -0.0161909573, 1.38348222  , 4.18        , 3           , 12          , 0.06394206  , 0
-0.176408112, 0.00442589074, -9.761546   , 0.003566027 , -0.000147843544, 0.000375165517, 0.0764460042, -0.347445071, 0.6450721   , 0.00204164116, -0.0161924437, 1.383486    , 4.19        , 3           , 50          , 0           , 0
-0.159818932, -0.0203202739, -9.775781   , 0.00353700132, -0.00137063465, 0.000502412964, 0.07631118  , -0.347242832, 0.6452069   , 0.00197936338, -0.01626836 , 1.38349271  , 4.2         , 3           , 11          , 0.00621158956, 0.00621163938
-0.150382653, -0.02699103 , -9.791669   , 0.00286438526, -0.00044149434, 0.0006399273, 0.07651342  , -0.347175419, 0.6451395   , 0.00200790353, -0.0162727889, 1.38349891  , 4.21        , 3           , 12          , 0.06501353  , 0
-0.1616061  , -0.01393985 , -9.783421   , -7.38539748E-05, -0.000858255138, 0.0007665163, 0.07651342  , -0.347108   , 0.6450721   , 0.00200704113, -0.016281385, 1.38350654  , 4.22        , 3           , 50          , 0           , 0
-0.176003069, -0.002585804, -9.786968   , 0.000460563955, -0.000852446654, 0.000100756028, 0.07651342  , -0.347108   , 0.6450721   , 0.00201163068, -0.016289914, 1.38350749  , 4.23        , 3           , 11          , 0.00621158956, 0.00621163938
-0.163408935, -0.007864861, -9.809172   , 0.000321859581, 0.000213547581, 0.0001065168, 0.07651342  , -0.347108   , 0.645341754 , 0.002014831 , -0.01628778 , 1.38350892  , 4.24        , 3           , 12          , 0.06501353  , 0
-0.138522789, 0.008582512 , -9.79129    , -0.00154093339, -0.00153017289, 9.396702E-05, 0.07658083  , -0.347242832, 0.645341754 , 0.00199940638, -0.0163030829, 1.38350987  , 4.25        , 3           , 50          , 0           , 0
-0.15028207 , -0.000419938966, -9.78778648 , -0.000336904079, -0.00178966881, -3.90029272E-05, 0.0767156556, -0.347445071, 0.6450721   , 0.00199604384, -0.0163209774, 1.38350892  , 4.26        , 3           , 11          , 0.00621158956, 0.00621163938
-0.186925858, -0.023546448, -9.810741   , 0.00112549437, -0.000179771829, -0.000427756866, 0.0767156556, -0.347445071, 0.6450721   , 0.00200736872, -0.0163227674, 1.38350511  , 4.27        , 3           , 12          , 0.06501353  , 0
-0.159831882, -0.0164408088, -9.809699   , 0.000323693617, -0.000185327968, -0.000162350625, 0.07637859  , -0.347310245, 0.6450047   , 0.00201063277, -0.016324617, 1.3835032   , 4.28        , 3           , 50          , 0           , 0
-0.153898925, 0.00108054467, -9.804532   , -0.00127804186, -0.000595889636, 0.0002329097, 0.07637859  , -0.347242832, 0.645274341 , 0.00199781521, -0.01633058 , 1.38350558  , 4.29        , 3           , 11          , 0.00621158956, 0.00621163938
-0.161184222, -0.0197226033, -9.793436   , -0.0007805181, 7.070614E-05, 0.000104675091, 0.07678307  , -0.347175419, 0.6452069   , 0.00189253862, -0.0163403265, 1.383508    , 4.3         , 3           , 12          , 0.0660889   , 0
-0.159808636, -0.015746329, -9.783886   , -0.000244708528, -0.000192463252, -2.93151752E-05, 0.07678307  , -0.347175419, 0.6452069   , 0.00189009611, -0.01634225 , 1.383508    , 4.31        , 3           , 50          , 0           , 0
-0.163939834, -0.03371434 , -9.790409   , -0.000911284238, -0.0005915686, -0.00109909486, 0.0764460042, -0.347377658, 0.6452069   , 0.00188116415, -0.016348144, 1.38349652  , 4.32        , 3           , 11          , 0.006142997 , 0.00614305958
-0.1594316  , -0.0313605368, -9.804864   , -0.0007802654, -5.57477179E-05, -0.00149585435, 0.07658083  , -0.347175419, 0.645274341 , 0.001873606 , -0.016348673, 1.38348174  , 4.33        , 3           , 12          , 0.0660889   , 0
-0.174659684, -0.00342346355, -9.795573   , 0.000556238 , -4.954853E-05, -0.001227183, 0.0764460042, -0.347242832, 0.6450047   , 0.00187936879, -0.0163491461, 1.38346934  , 4.34        , 3           , 50          , 0           , 0
-0.164346561, -0.01966359 , -9.799328   , -0.0005145584, 0.0003400057, -0.0001600562, 0.0764460042, -0.347242832, 0.6450047   , 0.00187424885, -0.0163457431, 1.38346791  , 4.35        , 3           , 11          , 0.006142997 , 0.00614305958
-0.176494852, -0.0105867311, -9.801081   , -0.00144431018, -0.0008663552, 9.843552E-05, 0.07637859  , -0.347377658, 0.645274341 , 0.00185979193, -0.0163544044, 1.38346887  , 4.36        , 3           , 12          , 0.0660889   , 0
-0.154390663, -0.0125378007, -9.792896   , -0.0005071578, -0.001256644, -0.0009688954, 0.07651342  , -0.347108   , 0.6451395   , 0.00185487955, -0.0163669568, 1.38345933  , 4.37        , 3           , 50          , 0           , 0
-0.15079467 , -0.0161616746, -9.792469   , 0.00135430682, 0.00075490633, -0.00122148509, 0.07658083  , -0.347310245, 0.645274341 , 0.00186862273, -0.0163593814, 1.38344693  , 4.38        , 3           , 11          , 0.006142997 , 0.00614305958
-0.159291163, 0.005561929 , -9.798617   , 0.00242168759, 0.00115851162, -0.000684354454, 0.07658083  , -0.347310245, 0.645274341 , 0.00189295167, -0.0163477845, 1.38344026  , 4.39        , 3           , 12          , 0.0660889   , 0
-0.1801602  , -0.0273056664, -9.794916   , 0.0006689197, 7.764073E-05, -0.000426017737, 0.07617635  , -0.347242832, 0.6450047   , 0.00183919992, -0.0163571686, 1.38343644  , 4.4         , 3           , 50          , 0           , 0
-0.187794775, -0.0135916611, -9.814722   , -0.000264058152, -0.000460866664, -0.0004304286, 0.07610894  , -0.347175419, 0.6454766   , 0.00183662877, -0.0163617674, 1.38343215  , 4.41        , 3           , 11          , 0.006075555 , 0.00607563276
-0.138952866, 0.0153869353, -9.79620552 , -0.000263298949, -0.000596503553, 0.00010208704, 0.0764460042, -0.347175419, 0.645341754 , 0.00183398032, -0.0163677335, 1.3834331   , 4.42        , 3           , 12          , 0.06716779  , 0
-0.148071855, -0.0130630461, -9.786547   , -0.00146603177, -0.00060426374, 0.000366881082, 0.0764460042, -0.347175419, 0.645341754 , 0.00181925844, -0.0163737852, 1.38343692  , 4.43        , 3           , 50          , 0           , 0
-0.1765881  , -0.0353616849, -9.804041   , 0.000136146264, -0.000323599641, -0.0008290169, 0.0764460042, -0.347445071, 0.6451395   , 0.00182075554, -0.0163770039, 1.38342881  , 4.44        , 3           , 11          , 0.006075555 , 0.00607563276
-0.1823853  , -0.0205926858, -9.787612   , 0.00227179332, 0.000223815849, -0.0013560307, 0.07658083  , -0.347175419, 0.645409167 , 0.00184369541, -0.0163747426, 1.383415    , 4.45        , 3           , 12          , 0.06716779  , 0
-0.1792018  , -0.01291453 , -9.790698   , 0.00187310763, -0.000184724791, 0.000107588858, 0.07664824  , -0.347108   , 0.6451395   , 0.00186240824, -0.0163765885, 1.38341641  , 4.46        , 3           , 50          , 0           , 0
-0.1634404  , -0.018303493, -9.800672   , 0.00387912733, -0.0004421082, 0.0005091046, 0.07664824  , -0.347108   , 0.6451395   , 0.0019011168, -0.01638102 , 1.38342118  , 4.47        , 3           , 11          , 0.006075555 , 0.00607563276
-0.172522724, -0.028879473, -9.827057   , 0.00306843943, 0.0014196852, 0.000651634065, 0.07631118  , -0.347242832, 0.6451395   , 0.00193169364, -0.0163668338, 1.38342786  , 4.48        , 3           , 12          , 0.06716779  , 0
-0.165749624, -0.0313115939, -9.808048   , 0.00106166035, 0.00181270542, -0.000282397377, 0.0764460042, -0.347108   , 0.6451395   , 0.00194235635, -0.0163487047, 1.383425    , 4.49        , 3           , 50          , 0           , 0
-0.179244787, -0.0251056682, -9.788554   , -0.0005292166, -0.000614993856, -0.00109800335, 0.07664824  , -0.347242832, 0.645274341 , 0.00194225542, -0.01642181 , 1.38341451  , 4.5         , 3           , 11          , 0.006010261 , 0.00601033075
-0.16838336 , -0.0170815326, -9.782109   , -0.00212437334, -0.002363558, 0.000356323551, 0.07651342  , -0.347377658, 0.6452069   , 0.00192095339, -0.01644545 , 1.38341832  , 4.51        , 3           , 12          , 0.06824979  , 0
-0.157583714, -0.019648781, -9.804292   , 0.000275589264, -0.0011514111, 0.000633337768, 0.07651342  , -0.347377658, 0.6452069   , 0.0019236065, -0.01645698 , 1.38342452  , 4.52        , 3           , 50          , 0           , 0
-0.180264428, -0.05290234 , -9.807842   , 0.0004007885, 0.0005867756, -0.000289972522, 0.0762437657, -0.347242832, 0.645409167 , 0.00192766159, -0.0164511036, 1.38342166  , 4.53        , 3           , 11          , 0.006010261 , 0.00601033075
-0.153084621, -0.02234885 , -9.807022   , -5.836455E-06, 0.00178464141, -0.00028387428, 0.07658083  , -0.347310245, 0.645274341 , 0.00192764925, -0.016433252, 1.3834188   , 4.54        , 3           , 12          , 0.06824979  , 0
-0.177811459, -0.003942549, -9.785627   , 0.001731599 , 0.00179304485, -1.45907679E-05, 0.0767156556, -0.347377658, 0.6450721   , 0.00194496743, -0.01641532 , 1.3834188   , 4.55        , 3           , 50          , 0           , 0
-0.170628637, -0.008754259, -9.807386   , 0.00187220087, 0.000327027228, -2.258837E-05, 0.0767156556, -0.347377658, 0.6450721   , 0.00196369365, -0.0164120533, 1.38341832  , 4.56        , 3           , 11          , 0.006010261 , 0.00601033075
-0.156602025, 0.00245770812, -9.806337   , 0.0005365201, 0.00018404334, 0.0005078867, 0.0764460042, -0.347377658, 0.645544    , 0.00196897564, -0.01641022 , 1.38342357  , 4.57        , 3           , 12          , 0.06824979  , 0
-0.1665626  , -0.0093001835, -9.797422   , 1.31154241E-06, 0.000314445671, 0.000507816 , 0.07637859  , -0.347175419, 0.645341754 , 0.001968905 , -0.0164070856, 1.38342881  , 4.58        , 3           , 50          , 0           , 0
-0.163470566, -0.0320325941, -9.775452   , 0.00120518275, 5.78193758E-05, -0.000291730568, 0.07651342  , -0.347377658, 0.645409167 , 0.00198100554, -0.0164065  , 1.383426    , 4.59        , 3           , 11          , 0.006010261 , 0.00601033075
-0.145841837, -0.0216994043, -9.778929   , 0.00240360526, -8.338962E-05, -0.000557054649, 0.07651342  , -0.347377658, 0.645409167 , 0.00198986428, -0.0164556149, 1.38342071  , 4.6         , 3           , 12          , 0.06933457  , 0
-0.149908319, -0.0206808038, -9.791606   , 0.00133900763, -0.00102495076, -3.0645173E-05, 0.07651342  , -0.347310245, 0.645274341 , 0.00200326042, -0.0164658632, 1.38342023  , 4.61        , 3           , 50          , 0           , 0
-0.152151942, -0.01752009 , -9.791128   , 0.00027178484, -0.00143142557, 9.8800745E-05, 0.07651342  , -0.347175419, 0.645409167 , 0.00200596149, -0.01648018 , 1.38342118  , 4.62        , 3           , 11          , 0.00594661  , 0.00594669161
-0.169274956, -0.0106353983, -9.79834652 , 0.00027441  , -0.00196651183, 0.0004957643, 0.07651342  , -0.347377658, 0.6454766   , 0.002008624 , -0.0164998546, 1.38342643  , 4.63        , 3           , 12          , 0.06933457  , 0
-0.174735844, -0.0283765588, -9.77635    , 0.000669111556, -0.000632618438, 0.000903778535, 0.07651342  , -0.347377658, 0.6454766   , 0.00201516785, -0.0165061988, 1.38343549  , 4.64        , 3           , 50          , 0           , 0
-0.157184318, -0.0354956537, -9.796296   , -0.000806792057, 0.0005616655, 0.000374983036, 0.0764460042, -0.347242832, 0.645341754 , 0.0020070367, -0.01650059 , 1.3834393   , 4.65        , 3           , 11          , 0.00594661  , 0.00594669161
-0.1728174  , 0.00647399  , -9.793661   , -0.00333881774, -0.0010455  , -0.00123762537, 0.07631118  , -0.347108   , 0.645274341 , 0.001973854 , -0.0165110212, 1.3834269   , 4.66        , 3           , 12          , 0.06933457  , 0
-0.163829312, -0.004438149, -9.786502   , -0.0025413814, -0.000107704, -0.00123118178, 0.0764460042, -0.347108   , 0.6454766   , 0.00194864557, -0.01651208 , 1.38341451  , 4.67        , 3           , 50          , 0           , 0
-0.177377447, -0.00751104159, -9.790641   , -0.000937400036, -0.000103479033, -0.000162210345, 0.0764460042, -0.347108   , 0.6454766   , 0.00193929893, -0.0165131073, 1.3834126   , 4.68        , 3           , 11          , 0.00594661  , 0.00594669161
-0.168833718, -0.011938734, -9.804697   , -0.000661383034, -0.00196648948, -0.000705502, 0.07664824  , -0.347377658, 0.645341754 , 0.00193280156, -0.0165327564, 1.38340592  , 4.69        , 3           , 12          , 0.06933457  , 0
-0.160711482, -0.0143322563, -9.791119   , -0.001610086, -0.00211878354, -0.000307410723, 0.07637859  , -0.347310245, 0.645274341 , 0.001872741 , -0.0165921655, 1.38340354  , 4.7         , 3           , 50          , 0           , 0
-0.154414922, -0.0188388042, -9.794315   , 0.000116975258, 2.76689661E-05, -0.00109272008, 0.07664824  , -0.347310245, 0.6454766   , 0.0018740925, -0.0165918674, 1.38339257  , 4.71        , 3           , 11          , 0.005884546 , 0.00588462455
-0.169690117, -0.005390754, -9.777471   , -0.000344974658, -0.00111604994, 0.0006999848, 0.07664824  , -0.347310245, 0.6454766   , 0.00187052554, -0.0166030414, 1.38339925  , 4.72        , 3           , 12          , 0.07042176  , 0
-0.1381439  , -0.0112638511, -9.790579   , -0.000810989353, -0.001515775, 3.04570913E-05, 0.07678307  , -0.347310245, 0.645341754 , 0.00186241127, -0.0166181978, 1.38339972  , 4.73        , 3           , 50          , 0           , 0
-0.155328766, -0.0182464477, -9.811516   , -0.0006233326, 0.00115501881, -0.000620901235, 0.0762437657, -0.347242832, 0.645409167 , 0.00185628119, -0.0166066363, 1.38339353  , 4.74        , 3           , 11          , 0.005884546 , 0.00588462455
-0.1647977  , -0.0140444832, -9.825081   , 0.0004476699, 0.00082266517, 0.000512047438, 0.07658083  , -0.347377658, 0.6454766   , 0.00186067319, -0.0165984184, 1.38339877  , 4.75        , 3           , 12          , 0.07042176  , 0
-0.1638958  , -0.0177891552, -9.808365   , 0.0009952919, -0.001970255, -0.0005026589, 0.07658083  , -0.347377658, 0.6454766   , 0.00187070924, -0.016618114, 1.38339353  , 4.76        , 3           , 50          , 0           , 0
-0.183278143, -0.013197585, -9.809727   , 0.003059215 , -0.000359347556, -0.00035723325, 0.07651342  , -0.347445071, 0.6451395   , 0.00190136174, -0.0166217033, 1.38339019  , 4.77        , 3           , 11          , 0.005884546 , 0.00588462455
-0.170226231, -0.0204198677, -9.814744   , -0.000286344264, 0.0006171778, 0.000843095069, 0.0764460042, -0.347310245, 0.645409167 , 0.00189835741, -0.0166155435, 1.38339877  , 4.78        , 3           , 12          , 0.07042176  , 0
-0.151776046, -0.03265436 , -9.815722   , -0.000820446, 0.0004837676, 0.000174956571, 0.07651342  , -0.347310245, 0.645409167 , 0.0018901251, -0.0166107137, 1.3834002   , 4.79        , 3           , 50          , 0           , 0
-0.145856619, -0.0210776832, -9.800201   , 0.00164528086, 0.001626001 , 0.001051686 , 0.07631118  , -0.347512484, 0.6451395   , 0.00190150016, -0.01659779 , 1.38341117  , 4.8         , 3           , 11          , 0.00582430931, 0.00582439
-0.167958856, -0.020082837, -9.801605   , 0.0009797175, 0.0010257361, 0.000247418531, 0.07631118  , -0.347512484, 0.6451395   , 0.00191125716, -0.01658754 , 1.38341355  , 4.81        , 3           , 12          , 0.0715110749, 0
-0.164341345, -0.014100696, -9.81829    , -0.001890956, 0.000473992783, 0.0008399677, 0.07651342  , -0.347377658, 0.645409167 , 0.00189220719, -0.0165828168, 1.38342214  , 4.82        , 3           , 50          , 0           , 0
-0.151681811, -0.0111662392, -9.796497   , 0.0005177356, -0.0001783403, 0.00057328213, 0.07678307  , -0.347242832, 0.645409167 , 0.0018972893, -0.0165846087, 1.38342786  , 4.83        , 3           , 11          , 0.00582430931, 0.00582439
-0.158058211, -0.02314847 , -9.817457   , -0.00102291838, 0.000612396456, 0.0007753819, 0.07658083  , -0.347175419, 0.645341754 , 0.00188693148, -0.0165785011, 1.38343549  , 4.84        , 3           , 12          , 0.0715110749, 0
-0.16262123 , -0.0380388275, -9.8139925  , -0.000480498828, -0.00105028076, 0.0005002476, 0.07658083  , -0.347175419, 0.645341754 , 0.0018820425, -0.016589012, 1.38344073  , 4.85        , 3           , 50          , 0           , 0
-0.161258221, -0.0358041562, -9.812156   , 0.001991441 , -0.000906217261, 0.00117134512, 0.0764460042, -0.347175419, 0.645341754 , 0.00190176291, -0.0165980961, 1.38345265  , 4.86        , 3           , 11          , 0.00582430931, 0.00582439
-0.151654765, -0.00489432365, -9.791456   , -0.00154511235, -0.00205248641, -0.000373526535, 0.0764460042, -0.347377658, 0.645544    , 0.00188637467, -0.016618615, 1.38344884  , 4.87        , 3           , 12          , 0.0715110749, 0
-0.1571319  , -0.0215301961, -9.794802   , -0.00114917709, -0.0009237699, 0.001233207 , 0.0767156556, -0.347175419, 0.645341754 , 0.001874678 , -0.0166278724, 1.38346076  , 4.88        , 3           , 50          , 0           , 0
-0.1697786  , -0.0203851946, -9.81927    , -0.00134754018, -0.00138955691, 0.0007636878, 0.0767156556, -0.347175419, 0.645341754 , 0.00186107634, -0.01664178 , 1.38346839  , 4.89        , 3           , 11          , 0.00582430931, 0.00582439
-0.167980239, -0.0250094756, -9.805728   , -0.00362581084, 0.00107624254, -0.0004259633, 0.0767156556, -0.347445071, 0.645341754 , 0.00184360251, -0.016610153, 1.38346362  , 4.9         , 3           , 12          , 0.07260221  , 0
-0.166729912, -0.053432636, -9.804193   , -0.00228167023, -0.000579443644, -0.0012997922, 0.07664824  , -0.347377658, 0.645544    , 0.00182100292, -0.0166159216, 1.38345075  , 4.91        , 3           , 50          , 0           , 0
-0.143648848, -0.0355678126, -9.793548   , 0.0001980819, -0.0020394912, 0.000295565056, 0.07664824  , -0.347310245, 0.6454766   , 0.001822935 , -0.0166363232, 1.38345313  , 4.92        , 3           , 11          , 0.00576556241, 0.00576564344
-0.158000469, -0.005961623, -9.82407951 , 0.000393946277, -0.0010409134, 0.0009013821, 0.07664824  , -0.347310245, 0.6454766   , 0.00182672462, -0.01664675 , 1.38346219  , 4.93        , 3           , 12          , 0.07260221  , 0
-0.155341521, -0.0171775147, -9.832332   , 0.00145446381, 0.00076679117, 0.0005131344, 0.07664824  , -0.347310245, 0.645409167 , 0.00184118364, -0.0166390911, 1.38346744  , 4.94        , 3           , 50          , 0           , 0
-0.152093485, -0.00408546627, -9.779678   , 0.000253360078, 0.000424817263, 0.00097603735, 0.07658083  , -0.347175419, 0.6456788   , 0.0018435542, -0.016634861, 1.38347745  , 4.95        , 3           , 11          , 0.00576556241, 0.00576564344
-0.157909021, 0.009938156 , -9.782724   , -0.002083671, -4.612501E-05, -0.001029873, 0.0764460042, -0.347175419, 0.645341754 , 0.00182289  , -0.0166353062, 1.383467    , 4.96        , 3           , 12          , 0.07260221  , 0
-0.157572284, -0.0155547727, -9.808778   , -0.00028289255, 0.0006960218, -0.0007563867, 0.0764460042, -0.347175419, 0.645341754 , 0.0018201865, -0.01662833 , 1.38345933  , 4.97        , 3           , 50          , 0           , 0
-0.157207623, -0.0375935733, -9.815785   , 0.00132871035, -0.00102228276, -0.00223009917, 0.07651342  , -0.347242832, 0.6454766   , 0.001833845 , -0.0166385118, 1.38343692  , 4.98        , 3           , 11          , 0.00576556241, 0.00576564344
-0.153067529, -0.0169095565, -9.810593   , -0.00100770337, -0.00150441681, -0.00163636124, 0.07678307  , -0.3470406  , 0.6456788   , 0.00182404055, -0.0166535266, 1.38342071  , 4.99        , 3           , 12          , 0.07260221  , 0
-0.182829291, -0.0122393975, -9.816959   , -7.793969E-05, 0.000174661211, 0.000173969689, 0.0767156556, -0.347242832, 0.645544    , 0.00182908413, -0.016601434, 1.38342166  , 5           , 3           , 50          , 0           , 0
-0.175200239, -0.0263642576, -9.802137   , 0.000127555 , -0.0008903916, 3.499565E-05, 0.0767156556, -0.347242832, 0.645544    , 0.00183035445, -0.0166103411, 1.38342214  , 5.01        , 3           , 11          , 0.005708536 , 0.005708613
-0.124275848, -0.0405302681, -9.802148   , -0.0024138  , -0.0004393789, 0.000433673966, 0.0767156556, -0.347242832, 0.645341754 , 0.001806145 , -0.0166147389, 1.38342643  , 5.02        , 3           , 12          , 0.07369489  , 0
-0.139511868, -0.0167235527, -9.783844   , -0.000413520233, 0.000504168449, 0.0006419271, 0.07651342  , -0.347175419, 0.645813644 , 0.001801902 , -0.01660971 , 1.38343263  , 5.03        , 3           , 50          , 0           , 0
-0.163412318, -0.0120424852, -9.794271   , 0.00353267835, -0.000272482663, 0.000243527509, 0.07664824  , -0.347175419, 0.6456114   , 0.00183718919, -0.0166124385, 1.383435    , 5.04        , 3           , 11          , 0.005708536 , 0.005708613
-0.148067415, -0.01076881 , -9.791504   , 0.00333101023, -8.050259E-06, 0.000511343242, 0.07664824  , -0.347175419, 0.6456114   , 0.00187041366, -0.01661253 , 1.38344026  , 5.05        , 3           , 12          , 0.07369489  , 0
-0.1671082  , -0.03686945 , -9.789091   , 0.002728505 , 0.000191524945, -0.000155033238, 0.07678307  , -0.347310245, 0.645274341 , 0.00189772423, -0.0166106112, 1.38343883  , 5.06        , 3           , 50          , 0           , 0
