Acc X       , Acc Y       , Acc Z       , Gyro X      , Gyro Y      , Gyro Z      , Magn X      , Magn Y      , Magn Z      , Euler X     , Euler Y     , Euler Z     , Time        , Status      , LowRate X   , LowRate Y   , LowRate Z    
0.0100891236, 0.0245814621, -9.795221   , 0.001360134 , -0.00095238 , -0.000165743331, 0.400903344 , 0.160172582 , 0.3342996   , -0.00450806227, 0.000336542667, -0.383245945, 0           , 3           , 11          , 0.0346410163, 0.0346410163
0.004153978 , 0.0214864574, -9.793471   , 0.00163345528, 0.00102048856, 0.000968760869, 0.400768518 , 0.160172582 , 0.334097356 , -0.00449172547, 0.000346790941, -0.38323617 , 0.01        , 3           , 12          , 0.0346410163, 0
-0.0148202488, 0.0342421643, -9.763733   , 0.005012819 , 0.00301436381, 0.0009876015, 0.401173    , 0.1603074   , 0.334029943 , -0.00444159331, 0.000376978365, -0.3832264  , 0.02        , 3           , 14          , 0.000413691363, 0.000563632755
-0.0007402394, 0.0376835652, -9.762707   , 0.002502877 , -0.00347882323, 0.0006832313, 0.401105583 , 0.160105169 , 0.334636658 , -0.00441656169, 0.000342220825, -0.383219481, 0.03        , 3           , 15          , 0           , 0.00015546236
0.0217792783, 0.0542079173, -9.790037   , -0.000334426935, -0.0009638399, -0.000173644934, 0.401105583 , 0.160105169 , 0.334636658 , -0.00441990653, 0.000332574884, -0.383221149, 0.04        , 3           , 50          , 0           , 0
-0.004505963, 0.05271162  , -9.790244   , -0.000626448658, 0.00100520649, 0.00011061292, 0.400903344 , 0.159970343 , 0.33396253  , -0.00442617061, 0.0003426316, -0.3832202  , 0.05        , 3           , 11          , 0.0346410163, 0.0346410163
0.008520318 , 0.0524728   , -9.764833   , 0.001332506 , 0.00439735129, -0.00213526119, 0.400835931 , 0.1603074   , 0.33396253  , -0.00441285269, 0.0003865104, -0.383241653, 0.06        , 3           , 12          , 0.0346410163, 0
0.01675916  , 0.0462000966, -9.806381   , -0.000901000865, -0.0006860962, -0.000740919844, 0.4012404   , 0.159970343 , 0.334636658 , -0.0044218665, 0.0003796167, -0.383249044, 0.07        , 3           , 14          , 0.000413691363, 0.000563632755
-0.00166492816, 0.0594757237, -9.798781   , 0.00135209633, 0.0007370121, 0.000401935016, 0.4012404   , 0.159970343 , 0.334636658 , -0.004408344, 0.000387004518, -0.383245   , 0.08        , 3           , 15          , 0           , 0.00015546236
0.00673114369, 0.04938742  , -9.78023    , 0.00192203687, -0.000385430641, -0.000444779085, 0.40056628  , 0.160037756 , 0.334029943 , -0.004389125, 0.00038313074, -0.383249521, 0.09        , 3           , 50          , 0           , 0
-0.000511851162, 0.0414394252, -9.806532   , 0.00192375691, -0.0006669941, 0.000119861783, 0.400903344 , 0.16037482  , 0.334029943 , -0.00436989823, 0.0003764701, -0.383248329, 0.1         , 3           , 11          , 0.0346410163, 0.0346410163
-0.000169577077, 0.038220115 , -9.789819   , -0.00148118881, 0.0024073   , -0.000738780363, 0.4012404   , 0.160037756 , 0.334569246 , -0.00438471325, 0.000400510384, -0.38325572 , 0.11        , 3           , 12          , 0.0346410163, 0
0.03270328  , 0.06082191  , -9.782242   , 0.00218798732, 0.00271368981, -0.002416451, 0.4012404   , 0.160037756 , 0.334569246 , -0.004362844, 0.0004275412, -0.383280039, 0.12        , 3           , 14          , 0.000413691538, 0.000563632639
0.00409377925, 0.0508226454, -9.795158   , 0.00106467167, 0.00157979364, -0.0010107673, 0.400835931 , 0.160105169 , 0.334029943 , -0.00435220124, 0.000443295 , -0.3832903  , 0.13        , 3           , 15          , 0           , 0.000155462287
0.0198216513, 0.04518348  , -9.783309   , 0.0002278017, -0.00039688882, 0.000112394118, 0.40103817  , 0.16024     , 0.33396253  , -0.00434992276, 0.000439331052, -0.3832891  , 0.14        , 3           , 50          , 0           , 0
-0.00406941539, 0.050907746 , -9.792056   , 0.003050676 , -9.62240156E-05, 0.0001259974, 0.40151003  , 0.159835517 , 0.334636658 , -0.004319415, 0.000438374234, -0.3832879  , 0.15        , 3           , 11          , 0.0346410163, 0.0346410163
0.005455083 , 0.05482624  , -9.782929   , -0.00145495462, -0.002660866, 0.00123117107, 0.40151003  , 0.159835517 , 0.334636658 , -0.004333959, 0.000411819143, -0.38327527 , 0.16        , 3           , 12          , 0.0346410163, 0
0.006822895 , 0.0499080978, -9.801018   , -0.00146847952, -0.0001267851, -0.000460148265, 0.401105583 , 0.160172582 , 0.333692878 , -0.004348646, 0.000410531356, -0.383280039, 0.17        , 3           , 14          , 0.000413691538, 0.000563632639
-0.003970786, 0.06080738  , -9.784331   , -0.00174779189, -0.000691823661, 0.000102741666, 0.401173    , 0.160105169 , 0.334232181 , -0.004366123, 0.000403617567, -0.383278847, 0.18        , 3           , 15          , 0           , 0.000155462287
-0.009522511, 0.014429016 , -9.794057   , 0.00107787026, -0.000954289048, 0.000115477058, 0.4013752   , 0.160037756 , 0.334636658 , -0.004355344, 0.000394079834, -0.383277655, 0.19        , 3           , 50          , 0           , 0
0.02369386  , 0.0253318474, -9.797375   , -0.000913873548, 0.001847988 , -0.00130208815, 0.4013752   , 0.160037756 , 0.334636658 , -0.0043644947, 0.0004125001, -0.383290768, 0.2         , 3           , 11          , 0.0346694328, 0.0346694328
0.0204587933, 0.0524691567, -9.80497    , 0.00220790366, -0.0009466478, 0.000685820938, 0.40103817  , 0.159970343 , 0.333895117 , -0.00434241351, 0.0004030635, -0.383283854, 0.21        , 3           , 12          , 0.0346692465, 0
0.0333181024, 0.0355800726, -9.792286   , -0.00118465908, -0.000406440318, -0.000459264178, 0.400970757 , 0.160105169 , 0.33396253  , -0.00435426133, 0.000398979173, -0.383288383, 0.22        , 3           , 14          , 0.0004136918, 0.000563632755
0.0074093705, 0.0317849033, -9.7812     , 0.00190358772, 0.003274914 , -0.00100421172, 0.4012404   , 0.160105169 , 0.334501833 , -0.00433523 , 0.0004316845, -0.383298635, 0.23        , 3           , 15          , 0           , 0.000155461166
-0.0200190637, 0.04654751  , -9.781801   , -0.00288463267, 0.000708361 , -0.000182892545, 0.4012404   , 0.160105169 , 0.334501833 , -0.004364077, 0.000438760151, -0.383300543, 0.24        , 3           , 50          , 0           , 0
0.000260360539, 0.04265979  , -9.76991    , 0.00248533278, -0.000100046396, -0.00072424754, 0.400903344 , 0.1597681   , 0.333895117 , -0.00433922652, 0.0004377282, -0.3833077  , 0.25        , 3           , 11          , 0.0346694328, 0.0346694328
0.000623318367, 0.02695942  , -9.798448   , -6.36420446E-05, 0.00129058841, -0.00101646781, 0.400903344 , 0.160442233 , 0.33396253  , -0.00433986727, 0.000450589781, -0.383317947, 0.26        , 3           , 12          , 0.0346692465, 0
-0.00445077475, 0.05677349  , -9.790679   , 0.002201675 , 0.0001796094, -0.0004425931, 0.401307821 , 0.15990293  , 0.334569246 , -0.00431785267, 0.0004523667, -0.383322477, 0.27        , 3           , 14          , 0.0004136918, 0.000563632755
0.00670501776, 0.0493662432, -9.773901   , -0.00175787648, 0.00127913011, -0.000459294417, 0.401307821 , 0.15990293  , 0.334569246 , -0.00433543324, 0.0004651381, -0.383327   , 0.28        , 3           , 15          , 0           , 0.000155461166
0.02209939  , 0.0487388968, -9.775143   , 0.00136529445, -0.00179707049, 0.0015281809, 0.400970757 , 0.15990293  , 0.334029943 , -0.004321773, 0.0004472337, -0.383311749, 0.29        , 3           , 50          , 0           , 0
0.00791833  , 0.0371813141, -9.777558   , 0.00221159612, -0.001791345, -0.00016309139, 0.40103817  , 0.159970343 , 0.33396253  , -0.004299664, 0.000429320266, -0.383313179, 0.3         , 3           , 11          , 0.0347551219, 0.0347551219
-0.011639365, 0.0569039   , -9.804294   , -0.000900675368, -0.0006860943, -0.000175841924, 0.401173    , 0.160105169 , 0.334636658 , -0.00430867169, 0.000422451762, -0.3833151  , 0.31        , 3           , 12          , 0.03475475  , 0
0.00255207624, 0.037299525 , -9.793871   , -5.0933133E-05, -0.00124349608, -0.000737834, 0.401173    , 0.160105169 , 0.334636658 , -0.004309184, 0.000409985019, -0.383322239, 0.32        , 3           , 14          , 0.0004136921, 0.0005636324
-0.008254307, 0.0410468951, -9.797101   , -0.0003473  , 0.00157024479, -0.000734811532, 0.400768518 , 0.159835517 , 0.334029943 , -0.004312661, 0.000425655569, -0.38332963 , 0.33        , 3           , 15          , 0           , 0.00015545942
-0.0064808107, 0.04054878  , -9.789407   , 0.0010763125, -0.0006727245, -0.000166623387, 0.40103817  , 0.16024     , 0.33396253  , -0.00430189865, 0.000418921118, -0.383331537, 0.34        , 3           , 50          , 0           , 0
0.0284267627, 0.04553061  , -9.782339   , -0.00146979978, 0.000436352275, 0.00208355952, 0.4013752   , 0.160105169 , 0.3348389   , -0.00431658747, 0.000423374469, -0.383310556, 0.35        , 3           , 11          , 0.0347551219, 0.0347551219
0.0280286111, 0.05138275  , -9.776895   , -6.175888E-05, 0.00100902608, -0.000169287523, 0.4013752   , 0.160105169 , 0.3348389   , -0.0043172054, 0.000433457433, -0.383312464, 0.36        , 3           , 12          , 0.03475475  , 0
0.00278835651, 0.0268527176, -9.774477   , 0.0016205823, 0.003554573 , 0.000407594256, 0.400835931 , 0.160037756 , 0.333895117 , -0.004300999, 0.0004690203, -0.3833084  , 0.37        , 3           , 14          , 0.0004136921, 0.0005636324
0.005150391 , 0.03092279  , -9.78529    , 0.00303640938, 0.00271942536, -0.000434735121, 0.401105583 , 0.1603074   , 0.334232181 , -0.004270637, 0.0004961956, -0.383312941, 0.38        , 3           , 15          , 0           , 0.00015545942
0.00390876457, 0.04263843  , -9.77621    , 0.005286229 , 0.004705662 , -0.000138624629, 0.401307821 , 0.15990293  , 0.3348389   , -0.004217775, 0.0005432458, -0.383314371, 0.39        , 3           , 50          , 0           , 0
0.0141214393, 0.0547766462, -9.798229   , 0.00220667245, -0.0006650812, 0.0009687973, 0.401307821 , 0.15990293  , 0.3348389   , -0.004195702, 0.00053664  , -0.3833046  , 0.4         , 3           , 11          , 0.0348972343, 0.0348972343
0.019608153 , 0.06636116  , -9.773732   , -0.0006050498, -0.00321826665, 0.0009517227, 0.40103817  , 0.160037756 , 0.33396253  , -0.00420174655, 0.0005044977, -0.383295059, 0.41        , 3           , 12          , 0.0348966755, 0
0.0259634145, 0.06049736  , -9.796308   , 0.0005178507, -0.00180280057, 0.00124169758, 0.400903344 , 0.16037482  , 0.334097356 , -0.00419656141, 0.000486522 , -0.383282423, 0.42        , 3           , 14          , 0.000413691974, 0.0005636321
0.00996329449, 0.0534181222, -9.782448   , 0.000233703584, -0.0015231471, 0.000675739546, 0.401173    , 0.160105169 , 0.334636658 , -0.00419422146, 0.000471318926, -0.383275747, 0.43        , 3           , 15          , 0           , 0.000155456146
0.00450793747, 0.0490006432, -9.791547   , 0.00219700346, 0.001024303 , -0.00128889875, 0.401173    , 0.160105169 , 0.334636658 , -0.00417225761, 0.0004815079, -0.383288622, 0.44        , 3           , 50          , 0           , 0
0.0172210485, 0.0484339073, -9.801396   , 0.0007966737, -0.00123776426, -0.000168804923, 0.40103817  , 0.1597681   , 0.3338277   , -0.00416429155, 0.0004691234, -0.3832903  , 0.45        , 3           , 11          , 0.0348972343, 0.0348972343
0.021435529 , 0.0253629647, -9.798747   , 0.0007987203, -0.00151932635, 0.0009609108, 0.400903344 , 0.16037482  , 0.334164768 , -0.004156301, 0.000453970133, -0.383280754, 0.46        , 3           , 12          , 0.0348966755, 0
0.00602316  , 0.0268684216, -9.790271   , 0.0005113701, -0.000394972769, 0.00209147949, 0.4012404   , 0.159835517 , 0.334501833 , -0.00415117759, 0.000450107182, -0.383259773, 0.47        , 3           , 14          , 0.000413691974, 0.0005636321
0.01782235  , 0.0276446175, -9.793795   , 0.000237722415, -0.002367843, 0.0003919002, 0.4012404   , 0.159835517 , 0.334501833 , -0.00414879853, 0.000426445273, -0.38325572 , 0.48        , 3           , 15          , 0           , 0.000155456146
0.020791579 , 0.018964475 , -9.772564   , 0.00050497835, 0.000731283566, 0.000680527941, 0.401173    , 0.16024     , 0.3338277   , -0.00414374564, 0.000433786365, -0.383249044, 0.49        , 3           , 50          , 0           , 0
0.0108039174, 0.0462132655, -9.789701   , 0.00106056442, 0.002706064 , 0.00153381319, 0.400970757 , 0.160105169 , 0.33396253  , -0.00413312064, 0.000460941024, -0.3832338  , 0.5         , 3           , 11          , 0.0350946635, 0.0350946635
0.02300499  , 0.0411403365, -9.799574   , 0.0002157456, 0.0021372023, 0.000963919447, 0.4012404   , 0.1597681   , 0.334704071 , -0.004130959, 0.000482352654, -0.383224249, 0.51        , 3           , 12          , 0.0350939073, 0
0.00089089293, 0.01341353  , -9.796694   , 0.00135644176, -0.000107679341, 0.000683178252, 0.4012404   , 0.1597681   , 0.334704071 , -0.004117391, 0.000481303985, -0.383217335, 0.52        , 3           , 14          , 0.000413691072, 0.0005636297
-0.00110860076, 0.0332937837, -9.79753    , -4.33094974E-05, -0.00265131542, 0.000390150642, 0.400970757 , 0.15990293  , 0.3337603   , -0.00411782274, 0.000454806985, -0.383213282, 0.53        , 3           , 15          , 0           , 0.000155454851
0.0244303867, 0.0460885651, -9.79999352 , -0.001185474, -0.000406441221, -0.00187194534, 0.400970757 , 0.16024     , 0.3338277   , -0.00412968639, 0.000450665335, -0.383232117, 0.54        , 3           , 50          , 0           , 0
0.0102259535, 0.0331729837, -9.80106    , 0.00134078157, 0.00298953475, 0.000122876489, 0.401173    , 0.159970343 , 0.334569246 , -0.00411627674, 0.0004805655, -0.383230925, 0.55        , 3           , 11          , 0.0350946635, 0.0350946635
0.0118601024, 0.0231886022, -9.789789   , -0.00203456357, 0.000150963664, -0.00017980329, 0.401173    , 0.159970343 , 0.334569246 , -0.00413662335, 0.0004820678, -0.383232832, 0.56        , 3           , 12          , 0.0350939073, 0
0.008481037 , 0.00698739057, -9.790787   , 0.00189162092, 0.00552743347, -0.0024134214, 0.40103817  , 0.159835517 , 0.33396253  , -0.00411771936, 0.000537242042, -0.383257151, 0.57        , 3           , 14          , 0.000413691072, 0.0005636297
0.00485011376, 0.04310314  , -9.783434   , 0.00332597  , 0.00131351361, -0.00015304581, 0.400970757 , 0.1607793   , 0.334029943 , -0.00408446044, 0.000550370838, -0.383258581, 0.58        , 3           , 15          , 0           , 0.000155454851
0.0151685206, 0.0295128617, -9.803297   , 0.00247655413, 0.00187091727, 0.0009740209, 0.400970757 , 0.15990293  , 0.3348389   , -0.00405969 , 0.000569119642, -0.383249044, 0.59        , 3           , 50          , 0           , 0
0.0239956751, 0.0554818735, -9.774196   , 0.000236984328, -0.00208627083, 0.00152248959, 0.400970757 , 0.15990293  , 0.3348389   , -0.004057285, 0.0005483369, -0.3832338  , 0.6         , 3           , 11          , 0.03534605  , 0.0353460461
0.0214331411, 0.0623339526, -9.790006   , 0.00107106613, 0.000453541637, 0.000400195626, 0.40056628  , 0.1597681   , 0.33396253  , -0.00404657237, 0.000552888261, -0.383229733, 0.61        , 3           , 12          , 0.0353451   , 0
0.0134892361, 0.0466022752, -9.780641   , 0.00278145075, -0.00263221166, 0.00125093642, 0.40103817  , 0.16024     , 0.334029943 , -0.00401875144, 0.0005266167, -0.3832171  , 0.62        , 3           , 14          , 0.000413688656, 0.00056362804
0.008897945 , 0.0466040373, -9.765307   , -0.00118235731, -0.0009695681, -0.001307734, 0.401307821 , 0.160172582 , 0.334973723 , -0.004030581, 0.0005168685, -0.3832302  , 0.63        , 3           , 15          , 0           , 0.000155450834
0.003181072 , 0.05127385  , -9.792      , -0.0011731775, -0.00265895459, 0.000102349441, 0.401307821 , 0.160172582 , 0.334973723 , -0.004042312, 0.000490283361, -0.383229017, 0.64        , 3           , 50          , 0           , 0
0.0260616858, 0.0347628221, -9.792345   , -0.00061833387, -0.000402608624, 0.00208621728, 0.400970757 , 0.159835517 , 0.334097356 , -0.004048486, 0.000486341625, -0.383208036, 0.65        , 3           , 11          , 0.03534605  , 0.0353460461
-0.0143542718, 0.0293376856, -9.782734   , 0.00276857871, -9.812782E-05, 0.000689766952, 0.400903344 , 0.16024     , 0.334029943 , -0.004020796, 0.000485388067, -0.383201122, 0.66        , 3           , 12          , 0.0353451   , 0
0.00282780174, 0.0598404519, -9.788803   , -5.150796E-05, -0.000961922749, 0.000675295771, 0.4012404   , 0.159970343 , 0.334636658 , -0.00402130838, 0.000475796085, -0.383194447, 0.67        , 3           , 14          , 0.000413688656, 0.00056362804
0.009084957 , 0.049880024 , -9.800548   , -0.0011620255, -0.004911475, 9.887797E-05, 0.4012404   , 0.159970343 , 0.334636658 , -0.004032928, 0.0004266858, -0.383193254, 0.68        , 3           , 15          , 0           , 0.000155450834
0.00282308832, 0.05849758  , -9.791971   , -0.00204087864, 0.00155879394, 0.0009525201, 0.4007011   , 0.159835517 , 0.333692878 , -0.00405333238, 0.000442312215, -0.383183718, 0.69        , 3           , 50          , 0           , 0
0.0247971155, 0.0482452661, -9.771959   , -6.11050637E-05, 0.00100903457, 0.0009608746, 0.400970757 , 0.160105169 , 0.33396253  , -0.004053961, 0.000452451961, -0.383174181, 0.7         , 3           , 11          , 0.0356498435, 0.03564984
0.0139760338, 0.0497489721, -9.778816   , 0.0005126908, -0.000958104734, -0.000452216249, 0.401105583 , 0.1597681   , 0.334771484 , -0.00404883549, 0.000442852674, -0.3831787  , 0.71        , 3           , 12          , 0.0356486924, 0
-4.220847E-05, 0.0517138354, -9.777558   , 0.00136013445, -0.000952374, -0.000165727935, 0.401105583 , 0.1597681   , 0.334771484 , -0.00403523538, 0.0004333224, -0.38318038 , 0.72        , 3           , 14          , 0.000413690868, 0.0005636269
-0.0103510572, 0.0203046128, -9.79404    , 0.000506951648, 0.000168154656, -0.0007330179, 0.400768518 , 0.160105169 , 0.33396253  , -0.00403016945, 0.000434974325, -0.383187532, 0.73        , 3           , 15          , 0           , 0.000155446964
0.007774622 , 0.01921085  , -9.800234   , -0.00117088121, -0.00322208577, -0.000746126752, 0.401105583 , 0.1603074   , 0.3342996   , -0.00404188177, 0.0004027236, -0.383194923, 0.74        , 3           , 50          , 0           , 0
0.000239408575, 0.03951836  , -9.774895   , -0.00146413385, -0.0009714738, -0.000178897273, 0.401173    , 0.1597681   , 0.334771484 , -0.004056523, 0.00039300177, -0.3831966  , 0.75        , 3           , 11          , 0.0356498435, 0.03564984
-0.0121652428, 0.0564036369, -9.788029   , -0.001749838, -0.000410255918, -0.00102695881, 0.401173    , 0.1597681   , 0.334771484 , -0.004074026, 0.000388857443, -0.383206844, 0.76        , 3           , 12          , 0.0356486924, 0
0.00137903541, 0.05353424  , -9.787032   , 0.000217554873, 0.00157407019, -0.0007321652, 0.400970757 , 0.159970343 , 0.334097356 , -0.004071853, 0.0004045681, -0.383214235, 0.77        , 3           , 14          , 0.000413690868, 0.0005636269
0.00727885636, 0.05169077  , -9.796034   , 0.000791261962, -0.000111498, 0.000115477247, 0.401173    , 0.159835517 , 0.334029943 , -0.00406394061, 0.000403457729, -0.383213282, 0.78        , 3           , 15          , 0           , 0.000155446964
0.00207228586, 0.03862201  , -9.783021   , -0.0006280053, 0.00128677674, -0.000171475, 0.401307821 , 0.1597681   , 0.33443442  , -0.004070221, 0.00041631842, -0.383214951, 0.79        , 3           , 50          , 0           , 0
0.017580539 , 0.04835299  , -9.778793   , -0.00147709658, 0.00184418133, 0.00152067468, 0.401307821 , 0.1597681   , 0.33443442  , -0.004085   , 0.000434818619, -0.3831997  , 0.8         , 3           , 11          , 0.0360043049, 0.0360043
0.0222063661, 0.05730623  , -9.77375    , 0.00218822365, 0.002995268 , 0.0004093804, 0.4007011   , 0.160105169 , 0.333895117 , -0.004063116, 0.000464787736, -0.383195639, 0.81        , 3           , 12          , 0.0360029526, 0
-0.0123462994, 0.04599087  , -9.77722549 , 0.00191186229, 0.00186710048, 0.00125394028, 0.4012404   , 0.160105169 , 0.333895117 , -0.004043991, 0.000483509473, -0.383183241, 0.82        , 3           , 14          , 0.000413692556, 0.000563627342
0.00781299  , 0.0308470465, -9.772162   , 0.001353326 , 0.000455451547, 0.000118986776, 0.401307821 , 0.160105169 , 0.334771484 , -0.0040304577, 0.000488068821, -0.383182049, 0.83        , 3           , 15          , 0           , 0.000155439178
0.00777452625, 0.0593081526, -9.781988   , -0.000903626962, -0.000122959842, -0.000457491318, 0.401307821 , 0.160105169 , 0.334771484 , -0.004039496, 0.000486820849, -0.383186579, 0.84        , 3           , 50          , 0           , 0
0.00393400434, 0.0439979322, -9.778012   , 0.000232798411, -0.00124157476, 0.001523803 , 0.400835931 , 0.16024     , 0.333895117 , -0.00403716043, 0.000474466855, -0.38317132 , 0.85        , 3           , 11          , 0.0360043049, 0.0360043
-0.007935829, 0.03334479  , -9.788995   , -0.000628496462, 0.00128677383, -0.0010190797, 0.40103817  , 0.1603074   , 0.334029943 , -0.00404345058, 0.000487293379, -0.383181572, 0.86        , 3           , 12          , 0.0360029526, 0
0.006185751 , 0.0426224321, -9.779356   , 0.00219888636, 0.0007427451, -0.000441703247, 0.401173    , 0.160037756 , 0.334704071 , -0.004021464, 0.0004947029, -0.3831861  , 0.87        , 3           , 14          , 0.000413692556, 0.000563627342
-0.009576788, 0.0442163572, -9.795742   , -0.0009212595, 0.00353738852, 0.000395762036, 0.401173    , 0.160037756 , 0.334704071 , -0.004030674, 0.0005300924, -0.3831823  , 0.88        , 3           , 15          , 0           , 0.000155439178
-0.005448426, 0.05581681  , -9.77125549 , 0.00220495183, -0.0003835129, 0.000404173217, 0.400768518 , 0.160037756 , 0.3337603   , -0.00400862331, 0.0005262735, -0.383178234, 0.89        , 3           , 50          , 0           , 0
-0.000370831229, 0.0282373335, -9.772686   , 0.00164009514, -0.000387334847, 0.0004015424, 0.401105583 , 0.16037482  , 0.3338277   , -0.00399224227, 0.0005224008, -0.383174181, 0.9         , 3           , 11          , 0.0364075564, 0.0364075527
0.00578806  , 0.0440114439, -9.788394   , -0.00175836962, 0.00127913128, -0.00130688178, 0.40103817  , 0.160037756 , 0.3349063   , -0.004009833, 0.000535139756, -0.3831873  , 0.91        , 3           , 12          , 0.036405988 , 0
-0.0116431955, 0.0542226955, -9.811988   , -0.0006252218, 0.00072364416, -0.000172332046, 0.40103817  , 0.160037756 , 0.3349063   , -0.004016086, 0.000542369264, -0.383188963, 0.92        , 3           , 14          , 0.000413695379, 0.0005636293
-0.0199906174, 0.04210705  , -9.803063   , 0.0005147329, -0.00123966916, 0.0006775104, 0.401105583 , 0.160172582 , 0.334029943 , -0.004010936, 0.000529999845, -0.3831823  , 0.93        , 3           , 15          , 0           , 0.000155436137
0.0070840884, 0.04037419  , -9.784783   , 0.00135987811, -0.000670806, 0.00181247888, 0.401307821 , 0.160442233 , 0.3338277   , -0.003997327, 0.0005233645, -0.383164167, 0.94        , 3           , 50          , 0           , 0
0.0135533279, 0.0475469157, -9.793291   , -4.90529965E-05, -0.00152505573, 0.0001093676, 0.401442617 , 0.159835517 , 0.334704071 , -0.0039978167, 0.0005081184, -0.383162975, 0.95        , 3           , 11          , 0.0364075564, 0.0364075527
-0.00111410208, 0.0359674245, -9.787577   , 0.00020435176, 0.00410815049, -0.0018583989, 0.401442617 , 0.159835517 , 0.334704071 , -0.003995783, 0.000549125369, -0.3831818  , 0.96        , 3           , 12          , 0.036405988 , 0
-0.01967139 , 0.0379763655, -9.783642   , -0.000633585849, 0.002413035 , -0.000169728432, 0.400835931 , 0.15990293  , 0.3338277   , -0.00400211941, 0.0005732488, -0.383183479, 0.97        , 3           , 14          , 0.000413695379, 0.0005636293
-0.02102035 , 0.0482659861, -9.752875   , 0.0007822409, 0.0015778871, -0.00101205811, 0.40103817  , 0.160105169 , 0.33396253  , -0.00399430329, 0.000588987 , -0.383193731, 0.98        , 3           , 15          , 0           , 0.000155436137
0.004839016 , 0.045772247 , -9.772122   , -0.0017572277, 0.00127913675, 0.0006708803, 0.401307821 , 0.160037756 , 0.334636658 , -0.00401187129, 0.000601805164, -0.383187056, 0.99        , 3           , 50          , 0           , 0
0.007057214 , 0.0367816128, -9.78977    , -0.00061964785, -0.0004026209, -0.000174061308, 0.401307821 , 0.160037756 , 0.334636658 , -0.004018084, 0.0005977376, -0.383188725, 1           , 3           , 11          , 0.0368576   , 0.0368576
0.005243223 , 0.03546151  , -9.793406   , 0.004176937 , 0.0004745414, -0.0009979842, 0.400768518 , 0.1597681   , 0.33396253  , -0.00397632038, 0.000602443237, -0.3831985  , 1.01        , 3           , 12          , 0.0368558057, 0
0.00654632133, 0.06389307  , -9.799153   , 0.00191833789, 0.0004592656, 0.000404167571, 0.40103817  , 0.160037756 , 0.334097356 , -0.003957135, 0.0006070516, -0.383194685, 1.02        , 3           , 14          , 0.000413697446, 0.000563634036
-0.000916027464, 0.04416223  , -9.809687   , -0.0006131673, -0.00181044871, -0.00102384354, 0.4012404   , 0.159970343 , 0.334704071 , -0.00396327255, 0.000588906871, -0.3832047  , 1.03        , 3           , 15          , 0           , 0.000155429676
0.009938056 , 0.0520586222, -9.780645   , -0.00203145575, -0.000412169145, 0.000384428742, 0.4012404   , 0.159970343 , 0.334704071 , -0.003983585, 0.0005848004, -0.383200884, 1.04        , 3           , 50          , 0           , 0
0.00324415416, 0.05846657  , -9.784286   , -0.00399852265, -0.00239649368, 0.0006547102, 0.400903344 , 0.159835517 , 0.334097356 , -0.004023567, 0.0005608619, -0.3831942  , 1.05        , 3           , 11          , 0.0368576   , 0.0368576
-0.00467755832, 0.0373966731, -9.797541   , -5.30739235E-05, -0.000680364436, 0.000393213326, 0.400970757 , 0.160037756 , 0.334029943 , -0.00402409537, 0.0005540739, -0.3831904  , 1.06        , 3           , 12          , 0.0368558057, 0
-0.007960741, 0.0324319042, -9.785835   , -0.00231781253, 0.000149045489, -0.00159378257, 0.401173    , 0.159970343 , 0.334636658 , -0.004047282, 0.0005554999, -0.383206367, 1.07        , 3           , 14          , 0.000413697446, 0.000563634036
-0.009169762, 0.0428349152, -9.788965   , -0.0006216201, 0.0001605131, 0.00123949372, 0.401173    , 0.159970343 , 0.334636658 , -0.004053491, 0.0005571552, -0.38319397 , 1.08        , 3           , 15          , 0           , 0.000155429676
-0.02317242 , 0.0457050949, -9.788609   , 0.00135766622, -0.0003892495, 0.000400231918, 0.400970757 , 0.160172582 , 0.334097356 , -0.004039913, 0.0005532788, -0.383189917, 1.09        , 3           , 50          , 0           , 0
-0.0058491677, 0.0505080931, -9.801111   , -0.00343777868, -0.001266412, 0.00320192  , 0.400903344 , 0.1603074   , 0.334232181 , -0.00407429 , 0.0005407068, -0.38315773 , 1.1         , 3           , 11          , 0.0373523571, 0.0373523571
-0.008294273, 0.04503166  , -9.774486   , -0.001180737, -0.0009695719, 0.00151766464, 0.401442617 , 0.159835517 , 0.3348389   , -0.004086089, 0.000531072961, -0.3831427  , 1.11        , 3           , 12          , 0.03735033  , 0
3.17394733E-05, 0.058469    , -9.773914   , -0.003422519, -0.00464519951, 0.0006538754, 0.401442617 , 0.159835517 , 0.3348389   , -0.004120311, 0.0004846483, -0.383136034, 1.12        , 3           , 14          , 0.000413699861, 0.0005636396
-0.00263482239, 0.0607732758, -9.778897   , 0.000237551387, -0.00236785132, 0.000109392022, 0.400768518 , 0.160105169 , 0.333895117 , -0.00411793543, 0.000460974436, -0.3831346  , 1.13        , 3           , 15          , 0           , 0.000155426838
0.00217598863, 0.0427231938, -9.795207   , 0.0007827257, 0.00157787907, -0.000164436264, 0.400903344 , 0.160172582 , 0.334097356 , -0.0041101086, 0.000476746442, -0.3831365  , 1.14        , 3           , 50          , 0           , 0
0.00462188851, 0.0268496   , -9.779886   , 0.0016353305, 0.0007389192, 0.00181597506, 0.4012404   , 0.160105169 , 0.334704071 , -0.004093747, 0.000484209944, -0.3831184  , 1.15        , 3           , 11          , 0.0373523571, 0.0373523571
0.002895236 , 0.03274187  , -9.781683   , 0.003317597 , 0.00300289388, -0.000150414184, 0.4012404   , 0.160105169 , 0.334704071 , -0.00406057155, 0.0005142323, -0.383119822, 1.16        , 3           , 12          , 0.03735033  , 0
0.008051884 , 0.04130668  , -9.796975   , -0.00118647621, 0.000156687573, 0.00123686285, 0.4007011   , 0.160172582 , 0.3338277   , -0.00407243054, 0.0005158496, -0.383107424, 1.17        , 3           , 14          , 0.000413699861, 0.0005636396
-0.00581181236, 0.0256168973, -9.779519   , -0.0006223495, -0.000121067627, -0.00243392447, 0.4006337   , 0.160509646 , 0.33396253  , -0.004078666, 0.000514539657, -0.383131981, 1.18        , 3           , 15          , 0           , 0.000155426838
0.008929598 , 0.03636362  , -9.806029   , 0.0019124333, 0.00158551882, -0.000159168529, 0.4013752   , 0.160037756 , 0.334636658 , -0.004059543, 0.0005303882, -0.38313365 , 1.19        , 3           , 50          , 0           , 0
0.0135146044, 0.0430520326, -9.798283   , -0.000895596342, -0.00181236665, -0.0010251503, 0.4013752   , 0.160037756 , 0.334636658 , -0.004068503, 0.0005122065, -0.383143663, 1.2         , 3           , 11          , 0.0378896855, 0.03788969
0.006441767 , 0.05354229  , -9.806881   , -0.00259212963, -0.00126069249, 0.0003805032, 0.400970757 , 0.160105169 , 0.3338277   , -0.00409442233, 0.000499615155, -0.383139849, 1.21        , 3           , 12          , 0.03788742  , 0
0.00584698  , 0.04807634  , -9.789733   , 0.00219346629, 0.00186899141, -0.0001574104, 0.401173    , 0.160037756 , 0.334029943 , -0.004072489, 0.000518298359, -0.383141518, 1.22        , 3           , 14          , 0.000413699716, 0.0005636422
-0.0118018882, 0.0514160022, -9.78217    , 0.0004910306, 0.00354692433, 0.0006849039, 0.401105583 , 0.159970343 , 0.334704071 , -0.00406757463, 0.0005537952, -0.383134842, 1.23        , 3           , 15          , 0           , 0.000155419577
-0.0140191987, 0.0590683147, -9.769048   , 0.00108409068, -0.002080556, 0.001243934 , 0.401105583 , 0.159970343 , 0.334704071 , -0.00405672751, 0.000533040264, -0.3831222  , 1.24        , 3           , 50          , 0           , 0
-0.008859799, 0.06629629  , -9.789317   , -0.00118852267, 0.000438246934, 0.000107153959, 0.400835931 , 0.160037756 , 0.3338277   , -0.004068612, 0.000537427142, -0.383121252, 1.25        , 3           , 11          , 0.0378896855, 0.03788969
-0.02048488 , 0.03895431  , -9.80308    , -4.577989E-05, -0.00208819658, 0.0009561287, 0.400970757 , 0.1603074   , 0.334164768 , -0.00406906474, 0.000516584259, -0.383111477, 1.26        , 3           , 12          , 0.03788742  , 0
0.007395819 , 0.061158888 , -9.794186   , -0.000884369947, -0.00378331542, 0.00151464937, 0.401173    , 0.15990293  , 0.334704071 , -0.004077901, 0.000478813221, -0.383096218, 1.27        , 3           , 14          , 0.000413699716, 0.0005636422
0.00328444713, 0.05492841  , -9.805543   , 0.000781658164, 0.00185944326, 0.000401079655, 0.401173    , 0.15990293  , 0.334704071 , -0.00407008268, 0.000497423753, -0.3830924  , 1.28        , 3           , 15          , 0           , 0.000155419577
0.00156564917, 0.0287639834, -9.801597   , -0.00287439325, -0.0012626017, 0.0006617238, 0.400835931 , 0.160037756 , 0.333692878 , -0.00409882329, 0.00048482485, -0.3830855  , 1.29        , 3           , 50          , 0           , 0
-0.005812633, 0.0545548536, -9.797026   , 0.000521041569, -0.00264751422, -0.000454788969, 0.401173    , 0.1603074   , 0.334164768 , -0.00409364142, 0.000458307419, -0.383090019, 1.3         , 3           , 11          , 0.03846744  , 0.03846744
0.0217394717, 0.04569501  , -9.8077     , -0.00258746254, -0.00210538926, 0.00122681737, 0.401105583 , 0.159835517 , 0.334569246 , -0.0041195103, 0.000437304028, -0.383077621, 1.31        , 3           , 12          , 0.03846492  , 0
0.0303042177, 0.0393141843, -9.818508   , -0.00513864728, -0.000433193141, -0.000477656227, 0.401105583 , 0.159835517 , 0.334569246 , -0.00417089928, 0.0004329523, -0.3830824  , 1.32        , 3           , 14          , 0.0004137041, 0.000563646
0.02184432  , 0.0213048458, -9.801022   , -0.005144386, 0.000693066337, -0.0007584579, 0.400903344 , 0.160172582 , 0.33396253  , -0.00422234554, 0.000439851079, -0.383090019, 1.33        , 3           , 15          , 0           , 0.000155416114
0.0160802118, 0.03530975  , -9.786092   , -0.0003251711, -0.00293481071, -0.00102424878, 0.400970757 , 0.1603074   , 0.334164768 , -0.004225602, 0.0004104601, -0.383100033, 1.34        , 3           , 50          , 0           , 0
0.0035802722, 0.05702767  , -9.760334   , -0.0006186756, -0.000402628182, 0.001521177 , 0.4013752   , 0.159970343 , 0.334704071 , -0.004231782, 0.0004064982, -0.383085   , 1.35        , 3           , 11          , 0.03846744  , 0.03846744
0.0124971457, 0.07057157  , -9.793204   , 0.000790507242, 0.000170050946, 0.001246092 , 0.4013752   , 0.159970343 , 0.334704071 , -0.004223872, 0.0004082513, -0.3830726  , 1.36        , 3           , 12          , 0.03846492  , 0
0.0130292159, 0.04436998  , -9.7860775  , -0.000622932, 0.000160494877, -0.00102079241, 0.400903344 , 0.15990293  , 0.33396253  , -0.004230106, 0.000409813132, -0.383082628, 1.37        , 3           , 14          , 0.0004137041, 0.000563646
0.0136913061, 0.0276470967, -9.780266   , -0.00259926729, 0.000147128245, 0.000100138823, 0.40103817  , 0.1603074   , 0.334232181 , -0.004256098, 0.00041128858, -0.383081675, 1.38        , 3           , 15          , 0           , 0.000155416114
0.00524990167, 0.03948408  , -9.782089   , -0.00288341427, 0.000426781771, -0.0004658189, 0.40103817  , 0.1603074   , 0.334704071 , -0.004284933, 0.000415536517, -0.383086443, 1.39        , 3           , 50          , 0           , 0
-0.0112146633, 0.0541977175, -9.806108   , -0.00146414817, -0.000971489353, -0.000178867718, 0.40103817  , 0.1603074   , 0.334704071 , -0.004299582, 0.0004058358, -0.3830881  , 1.4         , 3           , 11          , 0.0390834548, 0.03908346
0.00127238408, 0.04541351  , -9.787066   , -0.00033067388, -0.00152697484, 0.001520757 , 0.400903344 , 0.15990293  , 0.33396253  , -0.004302882, 0.000390631671, -0.383072853, 1.41        , 3           , 12          , 0.0390806645, 0
0.00424799277, 0.0327213928, -9.780317   , -6.07043039E-05, 0.0007274494, -0.000734754431, 0.40103817  , 0.160172582 , 0.33396253  , -0.00430349261, 0.000397874566, -0.383080244, 1.42        , 3           , 14          , 0.000413705216, 0.000563642359
0.003507764 , 0.04714921  , -9.774387   , -0.0006194925, -0.000402628444, 0.000108488181, 0.401173    , 0.160105169 , 0.334704071 , -0.0043096873, 0.000393852941, -0.383079052, 1.43        , 3           , 15          , 0           , 0.000155417409
0.02138165  , 0.0658630356, -9.766037   , -0.00146480079, -0.0009714923, -0.00130901765, 0.401173    , 0.160105169 , 0.334704071 , -0.00432434026, 0.000384081446, -0.383092165, 1.44        , 3           , 50          , 0           , 0
-0.0118704662, 0.0468969345, -9.779929   , 0.00219657528, 0.00130586256, 0.000406798616, 0.400768518 , 0.1603074   , 0.3338277   , -0.004302373, 0.000397157564, -0.3830881  , 1.45        , 3           , 11          , 0.0390834548, 0.03908346
-0.00445925351, 0.02024005  , -9.79535    , 0.0005094734, -0.000113420305, 0.00124433986, 0.40103817  , 0.16037482  , 0.334097356 , -0.00429727323, 0.000396076881, -0.3830757  , 1.46        , 3           , 12          , 0.0390806645, 0
0.000809939636, 0.0449646525, -9.786168   , 0.00164582452, -0.00151360745, 0.000682362937, 0.401307821 , 0.1603074   , 0.334704071 , -0.004280813, 0.0003809702, -0.3830688  , 1.47        , 3           , 14          , 0.000413705216, 0.000563642359
-0.00125339068, 0.0540807843, -9.806033   , 0.00248531951, -0.000100056, -0.0007242038, 0.401307821 , 0.1603074   , 0.334704071 , -0.00425596256, 0.000379938865, -0.383075953, 1.48        , 3           , 15          , 0           , 0.000155417409
0.0119034741, 0.0615357272, -9.787823   , -0.00119098986, 0.00100137852, 0.000673099 , 0.4006337   , 0.159835517 , 0.333895117 , -0.004267869, 0.000389981142, -0.383069277, 1.49        , 3           , 50          , 0           , 0
0.0152173284, 0.0375867151, -9.789252   , -0.00456445524, -0.0021187556, 0.00121760229, 0.4012404   , 0.16037482  , 0.334232181 , -0.00431353273, 0.0003688456, -0.383057117, 1.5         , 3           , 11          , 0.0397355929, 0.0397356
-0.01670416 , 0.05153798  , -9.80119    , -0.0011907419, 0.0007198079, -0.00130509236, 0.401105583 , 0.159835517 , 0.334569246 , -0.004325444, 0.0003759872, -0.38307023 , 1.51        , 3           , 12          , 0.0397325233, 0
0.0006358251, 0.0287549626, -9.795729   , -0.00286915316, -0.00238886382, 9.492002E-05, 0.401105583 , 0.159835517 , 0.334569246 , -0.0043541356, 0.0003521029, -0.383069277, 1.52        , 3           , 14          , 0.0004137093, 0.0005636425
0.0266292654, 0.03618957  , -9.815838   , 0.00135806948, -0.000670827751, -0.00129540951, 0.400835931 , 0.160172582 , 0.3338277   , -0.004340559, 0.000345338369, -0.383082151, 1.53        , 3           , 15          , 0           , 0.000155412563
0.004376149 , 0.04219859  , -9.781181   , -0.00089667365, -0.00153080036, -0.0004596344, 0.4012404   , 0.16024     , 0.334097356 , -0.00434952741, 0.000330010662, -0.383086681, 1.54        , 3           , 50          , 0           , 0
0.00366125838, 0.06066409  , -9.768454   , -6.09603267E-05, 0.00100901979, 0.00124344649, 0.400970757 , 0.160172582 , 0.3349063   , -0.004350133, 0.0003401548, -0.383074284, 1.55        , 3           , 11          , 0.0397355929, 0.0397356
0.00784042  , 0.0326546729, -9.773058   , -0.001479323, 0.00212572748, 0.000108447653, 0.400970757 , 0.160172582 , 0.3349063   , -0.004364926, 0.000361416722, -0.3830731  , 1.56        , 3           , 12          , 0.0397325233, 0
0.0235301871, 0.04833529  , -9.794116   , -0.000350846618, 0.00241493341, 0.0003966868, 0.400970757 , 0.159835517 , 0.33396253  , -0.00436843373, 0.000385583029, -0.383069277, 1.57        , 3           , 14          , 0.0004137093, 0.0005636425
-0.00117904879, 0.0287731942, -9.794838   , -4.7346577E-05, -0.0018066325, 0.000674032257, 0.40103817  , 0.160577059 , 0.3342996   , -0.004368904, 0.000367546279, -0.3830626  , 1.58        , 3           , 15          , 0           , 0.000155412563
0.00172902737, 0.0405014753, -9.803807   , -0.00231463579, -0.000132519344, 0.00151371292, 0.4012404   , 0.159835517 , 0.334973723 , -0.004392045, 0.000366287422, -0.383047342, 1.59        , 3           , 50          , 0           , 0
0.0108867362, 0.0574391223, -9.773836   , 0.00133544009, 0.003834214 , -0.00185353239, 0.4012404   , 0.159835517 , 0.334973723 , -0.00437869225, 0.0004045582, -0.383065939, 1.6         , 3           , 11          , 0.04042176  , 0.0404217653
0.00152316224, 0.03185401  , -9.781246   , -6.488935E-05, 0.00157214655, -0.0007334386, 0.400835931 , 0.159633279 , 0.33396253  , -0.00437934464, 0.000420247437, -0.383073568, 1.61        , 3           , 12          , 0.0404183865, 0
0.0190838426, 0.0578278564, -9.783715   , -5.9476497E-05, 0.0004458852, -0.00101771182, 0.40103817  , 0.160577059 , 0.333895117 , -0.00437994348, 0.000424661615, -0.383083582, 1.62        , 3           , 14          , 0.000413708272, 0.0005636407
-0.008031581, 0.0599740744, -9.790693   , -0.00202531228, -0.00182000513, -0.00103040191, 0.401173    , 0.160172582 , 0.3348389   , -0.0044002  , 0.000406416424, -0.383093834, 1.63        , 3           , 15          , 0           , 0.0001554034
0.0159120541, 0.05473876  , -9.793243   , 0.002763398 , 0.0007465501, -0.00100410858, 0.401173    , 0.160172582 , 0.3348389   , -0.00437257066, 0.000413837668, -0.3831041  , 1.64        , 3           , 50          , 0           , 0
0.0123221492, 0.05570021  , -9.79824    , 0.000783117954, 0.001859452 , 0.002943933 , 0.40103817  , 0.159970343 , 0.3337603   , -0.004364727, 0.0004325607, -0.383074522, 1.65        , 3           , 11          , 0.04042176  , 0.0404217653
0.0008132439, 0.0418428779, -9.797029   , 0.00304016  , 0.002156292 , 0.00125967769, 0.400768518 , 0.160105169 , 0.33443442  , -0.00433432031, 0.000454178284, -0.383062124, 1.66        , 3           , 12          , 0.0404183865, 0
0.0187437   , 0.03389567  , -9.777489   , -0.00231192121, -0.0009772198, -0.001030417, 0.4013752   , 0.15990293  , 0.334636658 , -0.004357443, 0.0004443614, -0.383072376, 1.67        , 3           , 14          , 0.000413708272, 0.0005636407
-0.00434648059, 0.0341682881, -9.778117   , -0.00372028816, -0.00154989527, 0.000657355238, 0.4013752   , 0.15990293  , 0.334636658 , -0.004394643, 0.000428891159, -0.3830657  , 1.68        , 3           , 15          , 0           , 0.0001554034
0.0147432676, 0.0340039879, -9.795599   , -0.000326821231, -0.00237167 , 0.000954394 , 0.400768518 , 0.160442233 , 0.3338277   , -0.004397907, 0.000405216648, -0.383056164, 1.69        , 3           , 50          , 0           , 0
0.009051176 , 0.04449644  , -9.80961    , 0.00277011632, -0.0003797016, 0.0009719099, 0.401105583 , 0.16024     , 0.3342996   , -0.004370199, 0.0004014793, -0.3830464  , 1.7         , 3           , 11          , 0.0411399044, 0.0411399156
0.0223527253, 0.0284862034, -9.791496   , -0.0014790697, 0.00184416189, -0.00186974742, 0.4013752   , 0.15990293  , 0.334636658 , -0.00438499777, 0.000419838936, -0.383065224, 1.71        , 3           , 12          , 0.0411362126, 0
0.008652306 , 0.021855725 , -9.784849   , -0.0006227726, 0.000160504133, -0.0007382501, 0.4013752   , 0.15990293  , 0.334636658 , -0.00439122831, 0.000421411649, -0.3830726  , 1.72        , 3           , 14          , 0.000413707865, 0.0005636375
-0.0131579218, 0.0469703339, -9.797113   , -0.000897087331, -0.00124922558, 0.00123602548, 0.400903344 , 0.1603074   , 0.334029943 , -0.00440019369, 0.000408973952, -0.383060217, 1.73        , 3           , 15          , 0           , 0.000155411384
0.0115891509, 0.0295901615, -9.81372    , 0.0007892726, 0.000451625383, 0.00152906822, 0.400903344 , 0.16037482  , 0.334367    , -0.004392295, 0.000413557282, -0.383044958, 1.74        , 3           , 50          , 0           , 0
0.00975032  , 0.0376232937, -9.781158   , 0.00107301935, -0.0001096018, -0.00101332 , 0.40103817  , 0.159835517 , 0.334569246 , -0.004381569, 0.000412416819, -0.383054972, 1.75        , 3           , 11          , 0.0411399044, 0.0411399156
-0.01366645 , 0.04469872  , -9.7908     , -0.00173641881, -0.002662776, 0.00292512961, 0.40103817  , 0.159835517 , 0.334569246 , -0.0043989215, 0.00038591784, -0.383025646, 1.76        , 3           , 12          , 0.0411362126, 0
-0.00666009728, 0.027459342 , -9.787654   , -0.00315576047, -0.0015460737, 9.490606E-05, 0.400835931 , 0.160105169 , 0.3337603   , -0.00443047937, 0.0003704615, -0.3830247  , 1.77        , 3           , 14          , 0.000413707865, 0.0005636375
0.000334667042, 0.0422736444, -9.789347   , 0.000223766488, 0.000447802333, 0.0003962843, 0.400903344 , 0.160577059 , 0.33396253  , -0.00442824047, 0.0003749567, -0.383020639, 1.78        , 3           , 15          , 0           , 0.000155411384
-0.004847712, 0.0617339164, -9.788402   , -0.0034381873, -0.00154798361, 9.35891439E-05, 0.4012404   , 0.159633279 , 0.334771484 , -0.004462621, 0.000359481317, -0.3830197  , 1.79        , 3           , 50          , 0           , 0
0.0134621328, 0.0452412665, -9.778387   , -4.79959963E-05, -0.00180663285, -0.000456102338, 0.4012404   , 0.159633279 , 0.334771484 , -0.00446309336, 0.0003413838, -0.383023977, 1.8         , 3           , 11          , 0.04188805  , 0.0418880619
-0.002834078, 0.0458822735, -9.778056   , 0.000512423634, -0.000676547, 0.00152602955, 0.400970757 , 0.15990293  , 0.3338277   , -0.00445796456, 0.000334686541, -0.383008718, 1.81        , 3           , 12          , 0.04188402  , 0
0.0005002385, 0.05445927  , -9.790651   , 0.00079338206, -0.000674644, -0.00101549085, 0.400835931 , 0.160105169 , 0.334164768 , -0.004450034, 0.0003278948, -0.38301897 , 1.82        , 3           , 14          , 0.000413706119, 0.0005636396
0.00122400094, 0.0404644534, -9.791156   , -0.00146480161, -0.0009714897, -0.00130899763, 0.401307821 , 0.159970343 , 0.334636658 , -0.004464686, 0.0003181217, -0.383032084, 1.83        , 3           , 15          , 0           , 0.0001553974
-0.008397916, 0.0257546213, -9.811177   , -0.0009028247, -0.0001229682, 0.0009552376, 0.401307821 , 0.159970343 , 0.334636658 , -0.004473711, 0.000316934776, -0.383022547, 1.84        , 3           , 50          , 0           , 0
0.0128385369, 0.02591511  , -9.798811   , -0.002316679, 0.000149045372, 0.000384011946, 0.400835931 , 0.16024     , 0.3337603   , -0.004496877, 0.0003184424, -0.3830185  , 1.85        , 3           , 11          , 0.04188805  , 0.0418880619
0.0054459814, 0.0525871255, -9.787909   , -0.000620398, -0.000121058227, 0.0009565546, 0.400903344 , 0.160172582 , 0.334164768 , -0.004503078, 0.000317274884, -0.383008957, 1.86        , 3           , 12          , 0.04188402  , 0
0.00400664  , 0.04896665  , -9.779799   , -8.251981E-05, 0.005232496 , 0.000119820754, 0.401105583 , 0.160037756 , 0.334771484 , -0.004503902, 0.000369604852, -0.383008   , 1.87        , 3           , 14          , 0.000413706119, 0.0005636396
0.0192730855, 0.0366305336, -9.787417   , -0.00259304047, -0.0009791225, 0.00122857187, 0.401105583 , 0.160037756 , 0.334771484 , -0.00452982774, 0.000359869155, -0.3829956  , 1.88        , 3           , 15          , 0           , 0.0001553974
0.0202674288, 0.04070898  , -9.79598    , -0.001472105, 0.0007179058, 0.0005300994, 0.40103817  , 0.1603074   , 0.333692878 , -0.004544547, 0.000367072178, -0.38299036 , 1.89        , 3           , 50          , 0           , 0
-0.0163952131, 0.0384719521, -9.808022   , -0.00273675 , -0.00055772817, 0.0005222155, 0.401307821 , 0.160172582 , 0.334232181 , -0.004571897, 0.000361538143, -0.382985353, 1.9         , 3           , 11          , 0.0426642857, 0.0426642969
-9.517372E-05, 0.0405121557, -9.800656   , -0.000759969756, -0.000403573446, 0.00137926347, 0.4012404   , 0.15990293  , 0.334704071 , -0.00457949145, 0.0003575657, -0.382971525, 1.91        , 3           , 12          , 0.0426598936, 0
0.00661090855, 0.03545313  , -9.795655   , -0.000199090573, 0.00030415674, 0.0005353699, 0.4012404   , 0.15990293  , 0.334704071 , -0.00458148 , 0.0003606318, -0.382966042, 1.92        , 3           , 14          , 0.000413703237, 0.000563635956
-0.009092808, 0.03843377  , -9.821978   , -0.00119110662, 0.0008605986, -0.0007397901, 0.400903344 , 0.15990293  , 0.3338277   , -0.0045933947, 0.0003692038, -0.382973433, 1.93        , 3           , 15          , 0           , 0.000155402333
-0.009575999, 0.040199846 , -9.8088665  , -0.0007611118, -0.00040357883, -0.0005984986, 0.40103817  , 0.1603074   , 0.334232181 , -0.004601007, 0.00036514044, -0.3829794  , 1.94        , 3           , 50          , 0           , 0
0.0019971272, 0.0327585526, -9.783498   , -6.08283044E-05, 0.0008682413, 0.000254358718, 0.400903344 , 0.160037756 , 0.334636658 , -0.004601614, 0.0003738345, -0.382977   , 1.95        , 3           , 11          , 0.0426642857, 0.0426642969
0.0119424257, 0.0210235529, -9.816917   , 0.001055636 , 0.00355074927, 0.000263748836, 0.400903344 , 0.160037756 , 0.334636658 , -0.00459105754, 0.000409353815, -0.382974625, 1.96        , 3           , 12          , 0.0426598936, 0
-0.00112769008, 0.0301538687, -9.802968   , 0.00149206689, 0.00101952953, 0.000685625069, 0.40056628  , 0.1597681   , 0.33396253  , -0.00457613356, 0.000419580319, -0.3829677  , 1.97        , 3           , 14          , 0.000413703237, 0.000563635956
0.00204210728, 0.0381512   , -9.777147   , -0.00103829615, -0.001250179, 0.001235376 , 0.401173    , 0.160105169 , 0.334164768 , -0.00458651129, 0.0004071351, -0.3829553  , 1.98        , 3           , 15          , 0           , 0.000155402333
-0.006108159, 0.04315663  , -9.761369   , -0.00160859968, -0.00026852396, 0.000245379866, 0.401173    , 0.15990293  , 0.3348389   , -0.00460259663, 0.0004044611, -0.382952929, 1.99        , 3           , 50          , 0           , 0
-0.0101248259, 0.04146639  , -9.781295   , 8.23206E-05 , 0.0004468446, -2.81654338E-05, 0.401173    , 0.15990293  , 0.3348389   , -0.004601733, 0.000408911321, -0.382953167, 2           , 3           , 11          , 0.04346679  , 0.0434668027
-0.00196896773, 0.0364654921, -9.798429   , -0.000475689, -0.0008240155, 0.00095612905, 0.400768518 , 0.1597681   , 0.334097356 , -0.0046064863, 0.000400715275, -0.3829434  , 2.01        , 3           , 12          , 0.043462012 , 0
0.00727103557, 0.0588260256, -9.771145   , -0.00174566812, -0.0009733918, 0.00137379218, 0.40103817  , 0.160037756 , 0.3342996   , -0.004623937, 0.0003910449, -0.382929564, 2.02        , 3           , 14          , 0.0004136956, 0.000563639158
0.00410389062, 0.04681368  , -9.810542   , -0.001606872, -0.0005500907, 0.00081002654, 0.400835931 , 0.1597681   , 0.3349063   , -0.00464000227, 0.000385581574, -0.382921457, 2.03        , 3           , 15          , 0           , 0.000155396541
0.0163283087, 0.0506866835, -9.797325   , -0.000618088932, -0.00068419025, 0.000108075277, 0.400835931 , 0.1597681   , 0.3349063   , -0.00464618346, 0.000378744677, -0.3829205  , 2.04        , 3           , 50          , 0           , 0
0.03446044  , 0.0558470562, -9.784962   , 0.0007914647, -0.000252295227, -0.0007323015, 0.400903344 , 0.160172582 , 0.334097356 , -0.00463827141, 0.000376187731, -0.382927656, 2.05        , 3           , 11          , 0.04346679  , 0.0434668027
0.01476379  , 0.03402062  , -9.80057049 , 0.00248446828, 4.07289081E-05, -0.00100650347, 0.401173    , 0.160105169 , 0.334232181 , -0.004613431, 0.000376548327, -0.3829379  , 2.06        , 3           , 12          , 0.043462012 , 0
0.00409849454, 0.05216552  , -9.791989   , 0.00163882668, -0.0002465649, -0.000587082, 0.401105583 , 0.160037756 , 0.334771484 , -0.00459704548, 0.000374055642, -0.38294363 , 2.07        , 3           , 14          , 0.0004136956, 0.000563639158
-0.00021808967, 0.0381808057, -9.778069   , -6.360868E-05, 0.00143136806, 0.0002552324, 0.401105583 , 0.160037756 , 0.334771484 , -0.004597681, 0.000388380839, -0.382941246, 2.08        , 3           , 15          , 0           , 0.000155396541
-0.0287109576, 0.03720306  , -9.790494   , -6.135451E-05, 0.0010090213, 0.0005371188, 0.4007011   , 0.16024     , 0.3338277   , -0.004598292, 0.000398495875, -0.382935762, 2.09        , 3           , 50          , 0           , 0
-0.0277542546, 0.0408046581, -9.791376   , 0.0009304636, 0.000311790442, 0.000258097338, 0.401105583 , 0.160509646 , 0.3342996   , -0.00458897464, 0.0004016129, -0.382933378, 2.1         , 3           , 11          , 0.04429382  , 0.044293832
-0.00279312674, 0.0432373472, -9.79659748 , 0.000783592463, 0.00143709534, 0.0001179059, 0.401173    , 0.1597681   , 0.334636658 , -0.004581138, 0.0004159892, -0.3829322  , 2.11        , 3           , 12          , 0.0442886278, 0
0.008030836 , 0.035487067 , -9.810559   , 0.000789784 , 0.000170051964, -2.53154212E-05, 0.401173    , 0.1597681   , 0.334636658 , -0.00457324041, 0.0004176887, -0.382932425, 2.12        , 3           , 14          , 0.000413693371, 0.000563641544
0.009169871 , 0.05887582  , -9.792375   , 0.00191903918, 0.000318475562, 0.000403975544, 0.400835931 , 0.160105169 , 0.333895117 , -0.00455404725, 0.0004208918, -0.382928371, 2.13        , 3           , 15          , 0           , 0.000155404938
-0.00706064049, 0.02750699  , -9.800311   , -0.0009037538, 1.78112714E-05, 0.0005316409, 0.400903344 , 0.160172582 , 0.33396253  , -0.004563083, 0.000421094068, -0.382923126, 2.14        , 3           , 50          , 0           , 0
-0.01613916 , 0.0244703665, -9.80491352 , -0.00216639228, -0.00168017449, 0.0003818423, 0.401173    , 0.159835517 , 0.3348389   , -0.004584746, 0.000404309947, -0.3829193  , 2.15        , 3           , 11          , 0.04429382  , 0.044293832
0.00180484261, 0.0472581573, -9.800614   , 0.000232923616, -0.00138237444, 0.000534738938, 0.401173    , 0.159835517 , 0.3348389   , -0.004582414, 0.000390511 , -0.382913828, 2.16        , 3           , 12          , 0.0442886278, 0
0.00033839792, 0.0422766656, -9.790252   , -0.00145761867, -0.00223853 , 0.000242998009, 0.4007011   , 0.16024     , 0.333692878 , -0.0045969896, 0.0003681371, -0.382911444, 2.17        , 3           , 14          , 0.000413693371, 0.000563641544
0.0185576677, 0.04929305  , -9.793245   , -0.00286442158, -0.00337434141, -0.000189128477, 0.400768518 , 0.160442233 , 0.3342996   , -0.00462563476, 0.000334385317, -0.3829131  , 2.18        , 3           , 15          , 0           , 0.000155404938
0.003558472 , 0.04763664  , -9.785233   , -0.00202468177, -0.00196078885, -0.00117188925, 0.400835931 , 0.160037756 , 0.334771484 , -0.00464588543, 0.0003147233, -0.3829248  , 2.19        , 3           , 50          , 0           , 0
-0.0112276925, 0.029265698 , -9.772314   , -0.000482728326, 0.000302233966, -0.00158498331, 0.400835931 , 0.160037756 , 0.334771484 , -0.00465070363, 0.000317664118, -0.382940531, 2.2         , 3           , 11          , 0.0451437235, 0.04514374
0.0265544076, 0.0383606665, -9.790519   , 0.000360777951, 0.001152661 , -0.000873387035, 0.400768518 , 0.160037756 , 0.333895117 , -0.004647098, 0.00032915  , -0.382949352, 2.21        , 3           , 12          , 0.04513809  , 0
0.0398280621, 0.0423394367, -9.812097   , -0.00146979117, 0.000154769936, -0.000318390928, 0.4013752   , 0.160172582 , 0.334232181 , -0.00466179661, 0.000330682844, -0.382952452, 2.22        , 3           , 14          , 0.0004136907, 0.000563643058
-0.006069173, 0.03783202  , -9.788058   , 0.000789089245, 0.000310832984, -2.51011425E-05, 0.4012404   , 0.15990293  , 0.334636658 , -0.00465390552, 0.000333790027, -0.382952929, 2.23        , 3           , 15          , 0           , 0.00015540763
-0.0100682974, 0.03972679  , -9.800736   , 0.00191670551, 0.0007408205, -1.91825E-05, 0.4012404   , 0.15990293  , 0.334636658 , -0.00463473843, 0.000341197359, -0.382952929, 2.24        , 3           , 50          , 0           , 0
0.02473548  , 0.0379292667, -9.790083   , -0.000337459, -0.0004007211, -0.0005965286, 0.4007011   , 0.159835517 , 0.3338277   , -0.00463811541, 0.000337162521, -0.3829589  , 2.25        , 3           , 11          , 0.0451437235, 0.04514374
-0.00562614528, 0.0346943438, -9.795752   , -0.000473793451, -0.00138715375, -0.0005987058, 0.400903344 , 0.160037756 , 0.334164768 , -0.00464285538, 0.0003232633, -0.382964849, 2.26        , 3           , 12          , 0.04513809  , 0
-0.009219356, 0.0387775749, -9.789886   , 0.00022726864, -0.0002561159, 0.0003952034, 0.40103817  , 0.159970343 , 0.334771484 , -0.00464058155, 0.000320720428, -0.382961035, 2.27        , 3           , 14          , 0.0004136907, 0.000563643058
0.006022145 , 0.033116512 , -9.769906   , -0.000626900233, 0.00114597986, 0.000534690858, 0.40103817  , 0.159970343 , 0.334771484 , -0.004646849, 0.000332204974, -0.382955551, 2.28        , 3           , 15          , 0           , 0.00015540763
0.00393675361, 0.0426611081, -9.78299    , 8.232582E-05, 0.000446840568, -2.817651E-05, 0.400903344 , 0.159970343 , 0.33396253  , -0.004646025, 0.000336672 , -0.382956028, 2.29        , 3           , 50          , 0           , 0
0.00484769139, 0.0448865741, -9.777098   , 0.000937814 , -0.00123682036, -0.00030936586, 0.40103817  , 0.159970343 , 0.334097356 , -0.00463661226, 0.000324291468, -0.3829589  , 2.3         , 3           , 11          , 0.0460149273, 0.0460149422
0.008620028 , 0.0236149728, -9.771281   , -0.00188747747, -0.00111513911, -0.000887393253, 0.401105583 , 0.160105169 , 0.3349063   , -0.004655489, 0.000313099183, -0.3829677  , 2.31        , 3           , 12          , 0.0460088253, 0
0.000140550546, 0.0318503   , -9.77538    , -0.00161177584, 0.00029459747, -0.0004601005, 0.401105583 , 0.160105169 , 0.3349063   , -0.004671608, 0.0003160237, -0.382972479, 2.32        , 3           , 14          , 0.000413683738, 0.0005636427
0.00181296282, 0.04815744  , -9.799706   , -0.000342783285, 0.00072554074, -0.000170985892, 0.4007011   , 0.160442233 , 0.3338277   , -0.004675037, 0.00032327103, -0.382974148, 2.33        , 3           , 15          , 0           , 0.000155406844
0.005897587 , 0.0458855852, -9.809176   , -0.00175540685, 0.0007159885, -0.00102518289, 0.400835931 , 0.160172582 , 0.334164768 , -0.00469259359, 0.000330382725, -0.3829844  , 2.34        , 3           , 50          , 0           , 0
0.00322090928, 0.0521988347, -9.798776   , -0.00316901645, 0.0009880034, -0.00117260241, 0.401173    , 0.159835517 , 0.334704071 , -0.00472428836, 0.0003402076, -0.382996321, 2.35        , 3           , 11          , 0.0460149273, 0.0460149422
-0.008301184, 0.0432406552, -9.778561   , -0.00204029516, 0.00127721031, -0.000460557174, 0.401173    , 0.159835517 , 0.334704071 , -0.00474469224, 0.000352957752, -0.383000851, 2.36        , 3           , 12          , 0.0460088253, 0
0.00174359884, 0.0476548858, -9.784343   , -0.000486132165, 0.001287719 , 0.000959373254, 0.40103817  , 0.160172582 , 0.333895117 , -0.00474955 , 0.0003658802, -0.3829913  , 2.37        , 3           , 14          , 0.000413683738, 0.0005636427
0.0151975211, 0.06606294  , -9.803598   , 0.0006457478, 0.0008730117, 0.00110525882, 0.401105583 , 0.159970343 , 0.334232181 , -0.004743089, 0.0003746628, -0.382980347, 2.38        , 3           , 15          , 0           , 0.000155406844
0.00180317275, 0.052613005 , -9.782965   , 0.00149393291, 0.0005971741, 0.000261163281, 0.40103817  , 0.160105169 , 0.334569246 , -0.00472814869, 0.000380647019, -0.382977724, 2.39        , 3           , 50          , 0           , 0
0.009191738 , 0.0357574821, -9.761283   , 0.00162621017, 0.0022875166, -0.0007244577, 0.40103817  , 0.160105169 , 0.334569246 , -0.00471189572, 0.000403487124, -0.382985115, 2.4         , 3           , 11          , 0.0469059534, 0.0469059721
-0.014350309, 0.0271091424, -9.790878   , 0.0007776616, 0.00242256653, -0.0017170728, 0.4007011   , 0.160105169 , 0.3338277   , -0.004704126, 0.000427631661, -0.38300252 , 2.41        , 3           , 12          , 0.0468993522, 0
-0.0483454056, 0.0239076726, -9.793862   , -0.0010506534, 0.0010023287, -0.00088019023, 0.400970757 , 0.16024     , 0.334232181 , -0.0047146366, 0.0004376134, -0.3830111  , 2.42        , 3           , 14          , 0.000413684873, 0.0005636428
-0.00163130555, 0.0345814973, -9.776286   , -0.00104905909, 0.0008615505, 0.000673549 , 0.401173    , 0.159970343 , 0.334636658 , -0.004725123, 0.000446260878, -0.383004427, 2.43        , 3           , 15          , 0           , 0.00015540891
0.0169685651, 0.03216071  , -9.791974   , -0.00118485955, -0.000265665527, 0.0003886174, 0.401173    , 0.159970343 , 0.334636658 , -0.00473696971, 0.000443622528, -0.3830006  , 2.44        , 3           , 50          , 0           , 0
-0.0183628239, 0.0285467263, -9.80175    , -0.001326807, -0.000266624, -0.000883459637, 0.400768518 , 0.160105169 , 0.333895117 , -0.00475024153, 0.000440914184, -0.383009434, 2.45        , 3           , 11          , 0.0469059534, 0.0469059721
0.009787834 , 0.0430098958, -9.773      , 8.208672E-05, 0.000446839724, -0.000451983942, 0.401105583 , 0.160509646 , 0.334232181 , -0.00474942243, 0.000445361162, -0.383013964, 2.46        , 3           , 12          , 0.0468993522, 0
0.0229613222, 0.0375341475, -9.800492   , -0.000199072165, 0.000304149871, 0.000535363157, 0.40103817  , 0.1597681   , 0.334704071 , -0.00475141034, 0.000448428065, -0.383008718, 2.47        , 3           , 14          , 0.000413684873, 0.0005636428
0.00782212149, 0.0254982468, -9.791619   , -0.001476837, 0.00156259525, -0.000457491435, 0.40103817  , 0.1597681   , 0.334704071 , -0.00476618 , 0.000464032026, -0.383013248, 2.48        , 3           , 15          , 0           , 0.00015540891
0.01953781  , 0.0217432678, -9.789286   , -0.0016151364, 0.0008577248, -0.00144811592, 0.40056628  , 0.160105169 , 0.3338277   , -0.00478233863, 0.000472539949, -0.3830278  , 2.49        , 3           , 50          , 0           , 0
0.005817485 , 0.0409108326, -9.805583   , -0.0013308482, 0.000437286741, -0.001871264, 0.401105583 , 0.16024     , 0.334232181 , -0.004795578, 0.000476827059, -0.383046627, 2.5         , 3           , 11          , 0.0478154123, 0.04781543
-0.00548833329, 0.0446257144, -9.797518   , -0.00104657514, 1.68479346E-05, -0.0022944042, 0.40103817  , 0.159970343 , 0.334704071 , -0.00480605476, 0.000476885383, -0.383069515, 2.51        , 3           , 12          , 0.04780827  , 0
-0.003755753, 0.0391845927, -9.795718   , -0.000620191335, -0.000402631675, -0.00116292958, 0.40103817  , 0.159970343 , 0.334704071 , -0.004812262, 0.0004728031, -0.3830812  , 2.52        , 3           , 14          , 0.000413669855, 0.000563642
-0.0125726247, 0.0649264   , -9.771725   , -0.000339610735, 2.16271474E-05, -0.000737155555, 0.400835931 , 0.160442233 , 0.333895117 , -0.004815662, 0.000472983957, -0.3830886  , 2.53        , 3           , 15          , 0           , 0.000155416739
-0.0175758488, 0.0596103668, -9.783537   , -0.0007611599, -0.0004035854, -0.0007397819, 0.400970757 , 0.160172582 , 0.334367    , -0.00482327724, 0.000468912331, -0.38309598 , 2.54        , 3           , 50          , 0           , 0
0.006345628 , 0.05212534  , -9.787905   , -0.0009063922, 0.000440155622, -0.000456601, 0.401173    , 0.159835517 , 0.334771484 , -0.00483234366, 0.000473291759, -0.3831005  , 2.55        , 3           , 11          , 0.0478154123, 0.04781543
0.0137058087, 0.0245343987, -9.7938385  , 7.496851E-05, 0.00185466488, -0.000732359535, 0.401173    , 0.159835517 , 0.334771484 , -0.00483159674, 0.0004918029, -0.3831079  , 2.56        , 3           , 12          , 0.04780827  , 0
0.00290272944, 0.0251599941, -9.807929   , 0.00190873351, 0.00228942768, -0.0005818798, 0.400903344 , 0.1597681   , 0.33396253  , -0.004812513, 0.000514668645, -0.383113861, 2.57        , 3           , 14          , 0.000413669855, 0.000563642
-0.00505453162, 0.0441586636, -9.794353   , 0.000931843941, -0.000110561268, -0.00101398374, 0.400903344 , 0.160442233 , 0.334164768 , -0.00480319932, 0.000513514562, -0.3831241  , 2.58        , 3           , 15          , 0           , 0.000155416739
0.01333761  , 0.0330889076, -9.7870245  , -0.000761404634, -0.000403586659, -0.00116358814, 0.401307821 , 0.15990293  , 0.334636658 , -0.0048108194, 0.000509422738, -0.383135557, 2.59        , 3           , 50          , 0           , 0
0.0123806791, 0.0317188725, -9.778903   , 0.00120074791, 0.00270699873, -0.000301973952, 0.401307821 , 0.15990293  , 0.334636658 , -0.00479876436, 0.000536462467, -0.383138657, 2.6         , 3           , 11          , 0.04874199  , 0.04874201
0.0155888982, 0.0361765437, -9.773888   , 0.00332284183, 0.0020174128, 0.000413161848, 0.400768518 , 0.160037756 , 0.334029943 , -0.004765534, 0.0005566561, -0.3831346  , 2.61        , 3           , 12          , 0.0487342738, 0
0.0382290445, 0.0345724337, -9.778241   , 0.000367362867, 2.64033024E-05, 0.000820102869, 0.400903344 , 0.159970343 , 0.334232181 , -0.004761856, 0.0005569592, -0.3831265  , 2.62        , 3           , 14          , 0.000413660484, 0.000563645037
0.005468044 , 0.05215864  , -9.79469    , -0.002175546, 0.000290780183, 0.00137375935, 0.400903344 , 0.159970343 , 0.334771484 , -0.004783603, 0.000559932552, -0.383112669, 2.63        , 3           , 15          , 0           , 0.000155406771
-0.005500735, 0.0455083661, -9.791638   , -0.000479302078, -0.000120109507, 0.000674666429, 0.400903344 , 0.159970343 , 0.334771484 , -0.004788392, 0.0005587636, -0.383106   , 2.64        , 3           , 50          , 0           , 0
-0.00107056554, 0.0444833636, -9.770817   , -0.000340669125, 0.000303190725, -0.000171636784, 0.400768518 , 0.1597681   , 0.333895117 , -0.0047918  , 0.000561787339, -0.383107662, 2.65        , 3           , 11          , 0.04874199  , 0.04874201
-0.00698639732, 0.0422967076, -9.770871   , -0.0007652954, 0.0005818928, 0.000533165352, 0.401173    , 0.160105169 , 0.334164768 , -0.00479945 , 0.0005676316, -0.383102417, 2.66        , 3           , 12          , 0.0487342738, 0
-0.00275574252, 0.0535337   , -9.7726     , 8.997836E-05, -0.000960983569, 0.00109980453, 0.400903344 , 0.159700692 , 0.334704071 , -0.00479854364, 0.0005580746, -0.3830912  , 2.67        , 3           , 14          , 0.000413660484, 0.000563645037
-0.00147814583, 0.0476497523, -9.77171    , 0.00221002568, -0.00136900763, 0.0006852244, 0.400903344 , 0.159700692 , 0.334704071 , -0.00477643963, 0.000544417533, -0.383084536, 2.68        , 3           , 15          , 0           , 0.000155406771
0.00410988461, 0.05753095  , -9.777503   , 0.00206778874, -0.00122918165, 0.000119707911, 0.400835931 , 0.160037756 , 0.334097356 , -0.004755761, 0.0005321315, -0.3830831  , 2.69        , 3           , 50          , 0           , 0
0.0041947   , 0.06384858  , -9.777928   , 0.000227506986, -0.000396905874, -0.000452625973, 0.4012404   , 0.16024     , 0.33443442  , -0.004753486, 0.000528124743, -0.383087635, 2.7         , 3           , 11          , 0.0496844463, 0.04968447
0.000191846862, 0.06574035  , -9.789702   , 0.00121034344, 0.000736038957, -0.0005875495, 0.4012404   , 0.159970343 , 0.334973723 , -0.004741386, 0.0005354572, -0.3830936  , 2.71        , 3           , 12          , 0.04967612  , 0
0.0126848482, 0.0498193577, -9.795096   , 0.00121600088, -0.0003902209, -0.0004480165, 0.4012404   , 0.159970343 , 0.334973723 , -0.004729228, 0.0005315338, -0.3830979  , 2.72        , 3           , 14          , 0.00041365996, 0.0005636481
-0.005098624, 0.0374276936, -9.805227   , -0.00103791943, -0.00153176137, -0.000601556443, 0.400903344 , 0.159835517 , 0.334029943 , -0.00473961 , 0.0005161879, -0.3831041  , 2.73        , 3           , 15          , 0           , 0.000155407441
0.0134998094, 0.0381301939, -9.810506   , -0.00159367465, -0.00322496821, 0.0006646247, 0.40103817  , 0.160105169 , 0.334164768 , -0.004755543, 0.000483970362, -0.383097172, 2.74        , 3           , 50          , 0           , 0
0.0254675876, 0.0226021651, -9.796921   , 0.000240090187, -0.00279020518, 0.000815104344, 0.401173    , 0.159970343 , 0.335041136 , -0.00475313747, 0.000456107577, -0.383088827, 2.75        , 3           , 11          , 0.0496844463, 0.04968447
0.00229763286, 0.0183466319, -9.792595   , 0.0013618042, -0.00123395922, 0.000257683743, 0.401173    , 0.159970343 , 0.335041136 , -0.004739519, 0.000443780242, -0.3830862  , 2.76        , 3           , 12          , 0.04967612  , 0
-0.009937029, 0.0233923458, -9.774589   , 0.0009295551, 0.000452565349, -0.0001654943, 0.400768518 , 0.160037756 , 0.334029943 , -0.00473022368, 0.0004482981, -0.383087873, 2.77        , 3           , 14          , 0.00041365996, 0.0005636481
0.0116824806, 0.0475197956, -9.778843   , 0.00105908257, 0.00284682424, 0.000121390076, 0.400903344 , 0.159970343 , 0.334367    , -0.004719632, 0.000476771937, -0.38308692 , 2.78        , 3           , 15          , 0           , 0.000155407441
0.0170820244, 0.03939425  , -9.796462   , -0.00119340641, 0.00156450481, 0.00123905169, 0.401105583 , 0.159700692 , 0.3349063   , -0.00473155966, 0.0004924752, -0.383074522, 2.79        , 3           , 50          , 0           , 0
0.01570786  , 0.0407364368, -9.788332   , -0.00287561212, -0.001121825, -0.000326913054, 0.401105583 , 0.159700692 , 0.3349063   , -0.00476026861, 0.000481257128, -0.383077621, 2.8         , 3           , 11          , 0.0506416336, 0.05064166
0.00619792659, 0.04397135  , -9.777996   , -0.003157913, -0.00126452022, -0.00131732807, 0.4007011   , 0.15990293  , 0.333895117 , -0.00479185348, 0.0004685493, -0.383090734, 2.81        , 3           , 12          , 0.0506326631, 0
0.0105424346, 0.03037913  , -9.776663   , -0.005282106, 0.000128985208, 0.00037018946, 0.400835931 , 0.16024     , 0.334097356 , -0.004844674, 0.000469857041, -0.383087158, 2.82        , 3           , 14          , 0.0004136506, 0.0005636452
0.007048211 , 0.0372206643, -9.786153   , -0.00513863843, -0.000292406621, 0.000652734539, 0.401307821 , 0.160037756 , 0.3348389   , -0.00489605637, 0.000466964761, -0.383080482, 2.83        , 3           , 15          , 0           , 0.000155392263
0.000468648039, 0.04952382  , -9.798808   , -0.000757166243, -0.001107499, 0.000106770152, 0.401307821 , 0.160037756 , 0.3348389   , -0.00490362756, 0.000455895119, -0.383079529, 2.84        , 3           , 50          , 0           , 0
-0.00294082426, 0.03508337  , -9.786691   , 0.0021992987, 0.0006019431, -0.00100694841, 0.400768518 , 0.160105169 , 0.3338277   , -0.004881639, 0.000461865246, -0.383089542, 2.85        , 3           , 11          , 0.0506416336, 0.05064166
0.0302787237, 0.047774177 , -9.7850275  , -5.95003257E-05, 0.00044588052, -0.00115896959, 0.40103817  , 0.160172582 , 0.33443442  , -0.00488223974, 0.0004662676, -0.383101225, 2.86        , 3           , 12          , 0.0506326631, 0
0.0405777842, 0.04086348  , -9.778649   , 0.00023071235, -0.0009600312, 0.000252865 , 0.4012404   , 0.1597681   , 0.3348389   , -0.00487993145, 0.000456679758, -0.3830986  , 2.87        , 3           , 14          , 0.0004136506, 0.0005636452
0.02304853  , 0.0496562645, -9.782815   , 0.0016428465, -0.0009504813, 0.000259449647, 0.4012404   , 0.1597681   , 0.3348389   , -0.004863501, 0.000447187776, -0.38309598 , 2.88        , 3           , 15          , 0           , 0.000155392263
0.006555491 , 0.0336228162, -9.787979   , 0.00121850916, -0.0008125637, 0.000257691252, 0.400768518 , 0.15990293  , 0.333895117 , -0.00485131424, 0.000439074647, -0.383093357, 2.89        , 3           , 50          , 0           , 0
2.34590843E-05, 0.0272919163, -9.761389   , -0.00019935552, 0.0003041586, -2.96931375E-05, 0.4006337   , 0.1603074   , 0.334232181 , -0.004853262, 0.000442182354, -0.3830936  , 2.9         , 3           , 11          , 0.051612474 , 0.0516124964
0.0188087747, 0.0361801535, -9.786067   , -0.000482768432, 0.0005838156, 0.0006757676, 0.40103817  , 0.1597681   , 0.334704071 , -0.00485808635, 0.000448053324, -0.38308692 , 2.91        , 3           , 12          , 0.05160281  , 0
0.0246065967, 0.060068205 , -9.798127   , 0.0009331769, -0.0001105456, 0.00124634232, 0.40103817  , 0.1597681   , 0.334704071 , -0.00484874938, 0.000447008322, -0.383074522, 2.92        , 3           , 14          , 0.000413641945, 0.0005636325
0.00456862571, 0.05038886  , -9.801936   , -5.457555E-05, -0.000398798642, 0.000111149246, 0.400768518 , 0.160105169 , 0.334164768 , -0.004849295, 0.000443025725, -0.38307333 , 2.93        , 3           , 15          , 0           , 0.000155390357
0.01126361  , 0.04799895  , -9.7856245  , -0.0008957905, -0.00153078639, 0.0009530752, 0.400970757 , 0.16024     , 0.3342996   , -0.004858248, 0.0004277642, -0.3830638  , 2.94        , 3           , 50          , 0           , 0
0.0226338152, 0.0532632433, -9.780543   , 0.000934860145, -0.0005328949, 0.0005393478, 0.4012404   , 0.159700692 , 0.334771484 , -0.00484889653, 0.000422461657, -0.3830583  , 2.95        , 3           , 11          , 0.051612474 , 0.0516124964
0.01084847  , 0.0484811142, -9.793309   , 0.001631992 , 0.00116126775, -0.0004436375, 0.4012404   , 0.159700692 , 0.334771484 , -0.004832579, 0.000434052723, -0.38306284 , 2.96        , 3           , 12          , 0.05160281  , 0
-0.0007952983, 0.0287119448, -9.778112   , 0.0005053991, 0.000590499 , 0.000115301875, 0.4007011   , 0.160037756 , 0.3338277   , -0.0048275236, 0.000439963245, -0.383061647, 2.97        , 3           , 14          , 0.000413641945, 0.0005636325
-0.0232545566, 0.0705600157, -9.799354   , -0.00160546135, -0.0009724352, -0.000462036638, 0.401307821 , 0.160037756 , 0.334164768 , -0.00484358054, 0.000430216722, -0.383066177, 2.98        , 3           , 15          , 0           , 0.000155390357
0.0247466378, 0.0455262624, -9.768354   , -0.00189424283, 0.000292697223, -0.0006026696, 0.400970757 , 0.160037756 , 0.334771484 , -0.00486252457, 0.0004331146, -0.383072376, 2.99        , 3           , 50          , 0           , 0
0.0252605714, 0.0424460471, -9.793223   , 0.0007752806, 0.00312650087, 0.000120523327, 0.400970757 , 0.160037756 , 0.334771484 , -0.004854768, 0.000464418757, -0.383071184, 3           , 3           , 11          , 0.0525959432, 0.05259597
-0.0111093875, 0.0329323635, -9.789474   , -0.00105746137, 0.00255095749, 0.0005349015, 0.400768518 , 0.15990293  , 0.333895117 , -0.00486534 , 0.000489953964, -0.383065939, 3.01        , 3           , 12          , 0.05258555  , 0
0.0220272113, 0.03930705  , -9.787837   , -0.00246619224, 0.00183749478, 0.000385963183, 0.401173    , 0.16037482  , 0.334367    , -0.004889999, 0.0005083477, -0.383062124, 3.02        , 3           , 14          , 0.000413641363, 0.000563626236
0.0154347857, 0.05695599  , -9.78013    , -0.00048494045, 0.00100616924, 0.0005351487, 0.40103817  , 0.159970343 , 0.3349063   , -0.00489484658, 0.0005184355, -0.383056879, 3.03        , 3           , 15          , 0           , 0.000155391273
-0.0208230242, 0.0528893732, -9.786301   , 0.00064558984, 0.0007322413, -0.000448898529, 0.40103817  , 0.159970343 , 0.3349063   , -0.004888393, 0.0005257358, -0.3830614  , 3.04        , 3           , 50          , 0           , 0
-0.000922963955, 0.04995916  , -9.789325   , -0.000551958452, 0.000231386628, 0.000109820008, 0.400498867 , 0.160105169 , 0.334029943 , -0.004893911, 0.000528055069, -0.383060217, 3.05        , 3           , 11          , 0.0525959432, 0.05259597
0.0194777716, 0.0212482754, -9.776179   , -0.000555539969, 0.000724120066, -0.00186718279, 0.400903344 , 0.159970343 , 0.334367    , -0.00489947665, 0.0005352047, -0.383079052, 3.06        , 3           , 12          , 0.05258555  , 0
0.0229598824, 0.04065744  , -9.790084   , 0.000299444626, -0.0006779719, -0.000593983161, 0.4013752   , 0.159970343 , 0.334973723 , -0.00489648571, 0.000528396049, -0.383085   , 3.07        , 3           , 14          , 0.000413641363, 0.000563626236
-0.005768082, 0.0568227023, -9.800632   , 0.000727938139, -0.001449406, 0.001172658 , 0.4013752   , 0.159970343 , 0.334973723 , -0.00488920044, 0.000513959443, -0.3830731  , 3.08        , 3           , 15          , 0           , 0.000155391273
0.00241040252, 0.0322748721, -9.775361   , 0.0010083369, -0.00109554117, 0.0006800768, 0.400835931 , 0.160105169 , 0.33396253  , -0.004879113, 0.0005030373, -0.383066416, 3.09        , 3           , 50          , 0           , 0
-0.0114102848, 0.0366315581, -9.814771   , 0.00150363217, -0.00116258441, 0.001883052 , 0.40103817  , 0.160037756 , 0.334164768 , -0.00486403331, 0.000491514744, -0.383047342, 3.1         , 3           , 11          , 0.05359111  , 0.0535911359
0.00715695275, 0.0431113355, -9.793811   , 0.000579371757, 2.7857528E-05, 0.00110363821, 0.401173    , 0.15990293  , 0.3348389   , -0.00485823443, 0.000491847051, -0.383036375, 3.11        , 3           , 12          , 0.05357993  , 0
0.0110009145, 0.03305652  , -9.769416   , 0.0017020721, 0.00130253693, -0.00016055991, 0.401173    , 0.15990293  , 0.3348389   , -0.004841214, 0.000504864554, -0.383038044, 3.12        , 3           , 14          , 0.0004136349, 0.00056362414
0.005977627 , 0.0232607331, -9.790739   , 0.00219316059, 0.00200979365, 0.000407904416, 0.400768518 , 0.159970343 , 0.334097356 , -0.00481928047, 0.000524981762, -0.383034   , 3.13        , 3           , 15          , 0           , 0.000155396556
0.004044054 , 0.0516750552, -9.780239   , -0.00140148646, 0.0006480057, -0.000176022542, 0.400768518 , 0.15990293  , 0.334232181 , -0.00483329548, 0.0005314532, -0.3830359  , 3.14        , 3           , 50          , 0           , 0
0.00694673229, 0.0259796828, -9.7975     , -0.00217286986, -0.000483508455, -0.000675820454, 0.400903344 , 0.159970343 , 0.3348389   , -0.00485502742, 0.0005265855, -0.383042574, 3.15        , 3           , 11          , 0.05359111  , 0.0535911359
0.0269440822, 0.03875056  , -9.77379    , -0.00139648165, -0.000478257425, -0.00116663938, 0.400903344 , 0.159970343 , 0.3348389   , -0.00486899866, 0.0005217462, -0.383054256, 3.16        , 3           , 12          , 0.05357993  , 0
0.0197473764, 0.03798169  , -9.788312   , -0.000552523, 0.000231385959, -0.0008790663, 0.400768518 , 0.160105169 , 0.333692878 , -0.00487452839, 0.000524017261, -0.383063078, 3.17        , 3           , 14          , 0.0004136349, 0.00056362414
-0.0107171927, 0.0342170037, -9.770481   , -0.0007746608, 0.002552871 , 0.00117192254, 0.4012404   , 0.160105169 , 0.33443442  , -0.00488226861, 0.000549602846, -0.383051634, 3.18        , 3           , 15          , 0           , 0.000155396556
0.02334452  , 0.03925784  , -9.77788448 , -6.697359E-05, 0.0022056892, 0.000962769263, 0.40103817  , 0.1597681   , 0.334771484 , -0.00488293264, 0.000571706449, -0.3830421  , 3.19        , 3           , 50          , 0           , 0
0.001398474 , 0.0495328419, -9.804676   , 0.00128543435, -3.775483E-05, 0.000471123727, 0.40103817  , 0.1597681   , 0.334771484 , -0.00486999936, 0.000571383745, -0.383037329, 3.2         , 3           , 11          , 0.0545970835, 0.05459711
-0.03453517 , 0.0404468477, -9.795497   , 0.00247722142, 0.00165975234, 0.0001967868, 0.400903344 , 0.16024     , 0.333895117 , -0.00484522572, 0.000587990449, -0.383035421, 3.21        , 3           , 12          , 0.054585062 , 0
0.0107536688, 0.0412626937, -9.79334    , 0.00169827475, 0.00200645369, -0.000724539044, 0.401105583 , 0.160037756 , 0.334367    , -0.00482824724, 0.0006080199, -0.383042574, 3.22        , 3           , 14          , 0.0004136209, 0.000563618436
0.0431538373, 0.0295588523, -9.780484   , -0.0007623384, -0.0002627818, -0.00165778038, 0.40103817  , 0.159565866 , 0.334771484 , -0.00483588036, 0.000605311943, -0.383059263, 3.23        , 3           , 15          , 0           , 0.000155385467
0.02170929  , 0.0452241972, -9.80182648 , -0.0010490322, 0.0007207889, -0.0005980631, 0.40103817  , 0.159565866 , 0.334771484 , -0.0048463745, 0.000612490752, -0.383065224, 3.24        , 3           , 50          , 0           , 0
0.017548196 , 0.0398461334, -9.7982645  , -0.00111265038, -0.000617120939, 3.52557436E-05, 0.400835931 , 0.159970343 , 0.333692878 , -0.004857501, 0.000606321264, -0.383065   , 3.25        , 3           , 11          , 0.0545970835, 0.05459711
1.48806721E-05, 0.04818929  , -9.802884   , -0.000123070189, -0.0008216097, 0.00011017386, 0.401105583 , 0.16024     , 0.334164768 , -0.004858731, 0.0005981106, -0.3830638  , 3.26        , 3           , 12          , 0.054585062 , 0
-0.00675869454, 0.0527472645, -9.79297352 , -0.0008314359, -0.000263252121, 0.000955361931, 0.40103817  , 0.159633279 , 0.334771484 , -0.00486703869, 0.0005955246, -0.383054256, 3.27        , 3           , 14          , 0.0004136209, 0.000563618436
-0.004970501, 0.0544928126, -9.781653   , -0.00182255462, 0.000293193938, 0.001234158 , 0.40103817  , 0.159633279 , 0.334771484 , -0.00488525676, 0.000598516839, -0.383041859, 3.28        , 3           , 15          , 0           , 0.000155385467
0.0103019951, 0.0376981   , -9.805109   , 0.00241149333, 0.000673797 , 0.000194939013, 0.401173    , 0.160037756 , 0.3337603   , -0.00486114062, 0.0006052644, -0.383039951, 3.29        , 3           , 50          , 0           , 0
0.0125382636, 0.0380954631, -9.796954   , 0.00156446721, 0.000527283 , -0.0005862039, 0.40103817  , 0.15990293  , 0.3342996   , -0.0048454674, 0.0006105127, -0.383045673, 3.3         , 3           , 11          , 0.05561303  , 0.05561306
0.0007732445, 0.0106400959, -9.776819   , 0.00164234813, -0.0008096704, 0.000542214 , 0.40103817  , 0.1603074   , 0.334636658 , -0.00482904073, 0.000602442364, -0.3830402  , 3.31        , 3           , 12          , 0.0556001253, 0
0.0246992726, 0.0343291275, -9.79280949 , 0.00254916865, 0.00130827236, -0.000509767, 0.40103817  , 0.1603074   , 0.334636658 , -0.00480355229, 0.000615500438, -0.383045435, 3.32        , 3           , 14          , 0.000413615024, 0.000563617737
-0.006777353, 0.0527321547, -9.788454   , 0.00149482093, 0.000456417329, 0.000472873857, 0.400835931 , 0.1603074   , 0.3338277   , -0.004788601, 0.0006200873, -0.383040667, 3.33        , 3           , 15          , 0           , 0.00015538247
-0.0126573071, 0.053699024 , -9.787139   , -0.0001949427, -0.0005405208, 0.000322184671, 0.40103817  , 0.159835517 , 0.334164768 , -0.00479054824, 0.000614697463, -0.383037567, 3.34        , 3           , 50          , 0           , 0
0.008477565 , 0.039940346 , -9.794718   , -0.000191231564, -0.00131482538, 0.000109088251, 0.40103817  , 0.159700692 , 0.334501833 , -0.00479246071, 0.0006015545, -0.383036375, 3.35        , 3           , 11          , 0.05561303  , 0.05561306
-0.00135336071, 0.04998262  , -9.794751   , -0.001541123, 0.000365492655, 0.000105436418, 0.40103817  , 0.159700692 , 0.334501833 , -0.00480787037, 0.000605214562, -0.383035421, 3.36        , 3           , 12          , 0.0556001253, 0
0.000937411562, 0.0183610655, -9.792152   , -0.00245611812, -0.000274237274, -0.000323626038, 0.40056628  , 0.159835517 , 0.333895117 , -0.004832433, 0.0006024567, -0.383038521, 3.37        , 3           , 14          , 0.000413615024, 0.000563617737
0.0205594562, 0.0325391069, -9.782906   , -0.000252387923, -0.0032158664, 0.000176464411, 0.40103817  , 0.16024     , 0.334232181 , -0.004834956, 0.0005703069, -0.3830366  , 3.38        , 3           , 15          , 0           , 0.00015538247
-0.003139491, 0.05359495  , -9.789327   , 9.824327E-05, -0.00257995469, 0.00145050569, 0.401105583 , 0.159700692 , 0.334771484 , -0.00483396556, 0.0005445778, -0.38302207 , 3.39        , 3           , 50          , 0           , 0
-0.008687255, 0.0477635376, -9.780354   , -0.0008992385, -0.0008268605, 0.000954183633, 0.401105583 , 0.159700692 , 0.334771484 , -0.00484289741, 0.00053634803, -0.3830123  , 3.4         , 3           , 11          , 0.0566381849, 0.0566382147
-0.00770321954, 0.05049458  , -9.79073    , -0.000345803826, 0.001499872 , 0.00110166625, 0.400835931 , 0.159835517 , 0.3337603   , -0.00484634936, 0.0005514002, -0.383001328, 3.41        , 3           , 12          , 0.0566243455, 0
0.007930409 , 0.0358520374, -9.784797   , 0.00141987938, 0.001300633 , 0.000191324973, 0.400903344 , 0.16024     , 0.334367    , -0.004832149, 0.0005644157, -0.38299942 , 3.42        , 3           , 14          , 0.0004136049, 0.000563619134
-0.0002793055, 0.0309895985, -9.786235   , 0.000225549054, 0.000166257072, 0.0008903358, 0.40103817  , 0.159835517 , 0.3349063   , -0.00482988777, 0.0005661211, -0.3829906  , 3.43        , 3           , 15          , 0           , 0.000155366579
0.003975476 , 0.0471559875, -9.777999   , 8.0216545E-05, 0.000939604535, 0.000396430056, 0.40103817  , 0.159835517 , 0.3349063   , -0.004829085, 0.0005755362, -0.382986784, 3.44        , 3           , 50          , 0           , 0
0.00144708436, 0.052250322 , -9.807828   , -0.0008475732, 0.00297474512, 0.0007484678, 0.4007011   , 0.160037756 , 0.3337603   , -0.00483755628, 0.000605319452, -0.3829794  , 3.45        , 3           , 11          , 0.0566381849, 0.0566382147
0.0122057125, 0.0520350672, -9.781532   , -0.00247099 , 0.00268219388, -0.0007428601, 0.40103817  , 0.160105169 , 0.334232181 , -0.00486227125, 0.000632105046, -0.382986784, 3.46        , 3           , 12          , 0.0566243455, 0
0.006288471 , 0.0453837737, -9.795616   , -0.00309339236, 7.342001E-05, -0.000467299484, 0.400903344 , 0.160105169 , 0.33443442  , -0.004893207, 0.0006328164, -0.382991552, 3.47        , 3           , 14          , 0.0004136049, 0.000563619134
0.01869237  , 0.02492708  , -9.793798   , 0.00171142607, -0.000457237067, 0.0008962734, 0.400903344 , 0.160105169 , 0.33443442  , -0.004876088, 0.000628287962, -0.3829825  , 3.48        , 3           , 15          , 0           , 0.000155366579
0.004388127 , 0.03819114  , -9.797016   , 0.000783250667, 0.00150750857, -2.32158072E-05, 0.400970757 , 0.160037756 , 0.333692878 , -0.00486825453, 0.0006433617, -0.382982969, 3.49        , 3           , 50          , 0           , 0
0.006896943 , 0.0593414642, -9.78877449 , -0.00133917783, 0.00212669955, -0.00193924573, 0.401105583 , 0.160172582 , 0.334232181 , -0.00488160271, 0.00066453137, -0.38300252 , 3.5         , 3           , 11          , 0.0576718226, 0.05767185
0.0141341705, 0.05434062  , -9.802751   , 0.000360747857, 0.00129346957, 0.000115750576, 0.40103817  , 0.15990293  , 0.334704071 , -0.0048779943, 0.000677471457, -0.383001328, 3.51        , 3           , 12          , 0.05765699  , 0
0.00223710388, 0.04723622  , -9.79564    , 0.000232918319, -0.00131196028, 0.0009586905, 0.40103817  , 0.15990293  , 0.334704071 , -0.004875659, 0.0006643988, -0.382991552, 3.52        , 3           , 14          , 0.0004135948, 0.000563619658
-0.00434821658, 0.02925702  , -9.793505   , 0.00206581969, -0.0005956296, 0.0020278513, 0.40103817  , 0.16024     , 0.333692878 , -0.00485498831, 0.0006585412, -0.3829713  , 3.53        , 3           , 15          , 0           , 0.000155368
0.009435775 , 0.05068478  , -9.772971   , 0.00128303957, 0.0005253758, 0.00110771845, 0.401173    , 0.160172582 , 0.334367    , -0.00484215049, 0.0006638486, -0.38296032 , 3.54        , 3           , 50          , 0           , 0
0.011670433 , 0.04126113  , -9.796044   , 0.00100049027, 0.000523465162, 0.0008944983, 0.4012404   , 0.159835517 , 0.334636658 , -0.0048321397, 0.0006691264, -0.3829515  , 3.55        , 3           , 11          , 0.0576718226, 0.05767185
0.0119125415, 0.0285872966, -9.785247   , -0.00104314438, -0.0004054713, -0.000105340725, 0.4012404   , 0.159835517 , 0.334636658 , -0.00484257238, 0.0006650666, -0.382952452, 3.56        , 3           , 12          , 0.05765699  , 0
0.0103570577, 0.04666973  , -9.789704   , -0.00154075061, 0.0001543137, -0.00109565863, 0.400768518 , 0.159970343 , 0.3337603   , -0.00485798623, 0.0006665565, -0.382963419, 3.57        , 3           , 14          , 0.0004135948, 0.000563619658
0.00364132249, 0.0512745827, -9.793804   , 0.0006487543, 2.8333463E-05, -0.0010856695, 0.40103817  , 0.160105169 , 0.334232181 , -0.00485150563, 0.000666787033, -0.382974148, 3.58        , 3           , 15          , 0           , 0.000155368
-0.0199678056, 0.0452499874, -9.798529   , 0.003451682 , 0.00434130058, -0.00120715122, 0.401173    , 0.159835517 , 0.3348389   , -0.004816997, 0.000710141147, -0.382986546, 3.59        , 3           , 50          , 0           , 0
-0.00268955622, 0.052248273 , -9.792944   , 0.002471272 , 0.00264521735, -0.00170879287, 0.401173    , 0.159835517 , 0.3348389   , -0.004792269, 0.0007364752, -0.3830037  , 3.6         , 3           , 11          , 0.0587132722, 0.0587132946
-0.0128656672, 0.0365688764, -9.79128    , -0.00125940877, 0.000508176861, 3.63623258E-05, 0.400970757 , 0.159970343 , 0.333692878 , -0.004804863, 0.000741558848, -0.383003235, 3.61        , 3           , 12          , 0.0586973839, 0
-0.00209790654, 0.0310048126, -9.78444    , -0.00274305418, 0.0007797168, 0.0008774947, 0.40103817  , 0.160172582 , 0.334367    , -0.004832287, 0.0007493981, -0.382994652, 3.62        , 3           , 14          , 0.000413589849, 0.000563626
-0.0001756316, 0.04267871  , -9.773981   , 0.00389187061, 0.00103576982, -0.000927725341, 0.40103817  , 0.159970343 , 0.334704071 , -0.00479337573, 0.0007597111, -0.38300395 , 3.63        , 3           , 15          , 0           , 0.000155356174
0.0135311689, 0.0452972054, -9.79511    , 0.003391473 , 0.002299471 , -0.000716174138, 0.40103817  , 0.159970343 , 0.334704071 , -0.004759466, 0.000782671152, -0.3830111  , 3.64        , 3           , 50          , 0           , 0
0.0114694759, 0.0566464029, -9.808186   , -0.00175902736, 0.00163109589, 0.000388965331, 0.4007011   , 0.15990293  , 0.333558053 , -0.004777053, 0.000799000554, -0.3830073  , 3.65        , 3           , 11          , 0.0587132722, 0.0587132946
-0.011953515, 0.0379026346, -9.788555   , -0.0035984912, 0.00232259277, 2.83183126E-05, 0.40103817  , 0.159970343 , 0.334164768 , -0.004813038, 0.000822227739, -0.3830073  , 3.66        , 3           , 12          , 0.0586973839, 0
-0.004262517, 0.03423632  , -9.798455   , -0.00204104674, 0.00162918773, 0.00109399215, 0.401105583 , 0.16024     , 0.3342996   , -0.00483343937, 0.0008385722, -0.382996321, 3.67        , 3           , 14          , 0.000413589849, 0.000563626
0.008185278 , 0.0579297319, -9.77611351 , 0.000225893818, 2.546583E-05, 0.0002544201, 0.401105583 , 0.16024     , 0.3342996   , -0.004831178, 0.0008388392, -0.3829937  , 3.68        , 3           , 15          , 0           , 0.000155356174
0.019807376 , 0.04606461  , -9.77697849 , 0.00142633019, 3.35837249E-05, 0.000471920066, 0.400903344 , 0.160105169 , 0.3337603   , -0.004816912, 0.000839197834, -0.38298893 , 3.69        , 3           , 50          , 0           , 0
0.007249167 , 0.0218353886, -9.774011   , 0.002478531 , 0.00123738707, -0.00121652579, 0.40103817  , 0.16024     , 0.33443442  , -0.00479211658, 0.0008514768, -0.383001328, 3.7         , 3           , 11          , 0.0597619   , 0.05976193
0.01693979  , 0.03615455  , -9.772069   , 0.00148841727, 0.00158265908, -0.0010086894, 0.40103817  , 0.159835517 , 0.334771484 , -0.004777241, 0.000867254857, -0.383011341, 3.71        , 3           , 12          , 0.0597448945, 0
0.005975202 , 0.0250441637, -9.784403   , 0.0008560673, 0.0011560187, 0.000753555854, 0.40103817  , 0.159835517 , 0.334771484 , -0.004768674, 0.0008788508, -0.38300395 , 3.72        , 3           , 14          , 0.000413586269, 0.0005636323
-0.00240299664, 0.03916411  , -9.794353   , -0.00196863082, 0.00120730966, 0.0005992261, 0.400835931 , 0.159970343 , 0.333895117 , -0.0047883545, 0.0008909525, -0.382998   , 3.73        , 3           , 15          , 0           , 0.0001553598
-0.00677788 , 0.0469291732, -9.807009   , -0.00182475185, 0.0006451341, 0.00038711357, 0.400970757 , 0.160037756 , 0.3342996   , -0.004806599, 0.000897422258, -0.382994175, 3.74        , 3           , 50          , 0           , 0
0.007529181 , 0.04259439  , -9.775731   , -0.00041329622, 0.000865859445, 0.0010297331, 0.400903344 , 0.159835517 , 0.334501833 , -0.00481072254, 0.0009061303, -0.382983923, 3.75        , 3           , 11          , 0.0597619   , 0.05976193
-0.009898175, 0.0229774788, -9.785438   , -0.000268720119, 0.000162901211, 0.000817403663, 0.400903344 , 0.159835517 , 0.334501833 , -0.00481340149, 0.0009077987, -0.382975817, 3.76        , 3           , 12          , 0.0597448945, 0
-0.006546837, 0.029336514 , -9.809341   , 0.00177194516, 0.00158457446, 0.0008997554, 0.4006337   , 0.160105169 , 0.3338277   , -0.0047956747, 0.00092368765, -0.382966757, 3.77        , 3           , 14          , 0.000413586269, 0.0005636323
-0.008792268, 0.0418758951, -9.773599   , 0.00332494755, 0.00152468437, -0.0002938941, 0.401105583 , 0.160172582 , 0.3342996   , -0.00476242835, 0.0009389202, -0.382969856, 3.78        , 3           , 15          , 0           , 0.0001553598
-0.0299639739, 0.0435532629, -9.795901   , 0.00234346115, 0.000250960147, 0.000970962632, 0.400768518 , 0.160105169 , 0.33443442  , -0.004738984, 0.0009414759, -0.382960081, 3.79        , 3           , 50          , 0           , 0
-3.06554139E-05, 0.0445815846, -9.803351   , -0.000200969458, 0.0007264846, 0.0006773268, 0.400768518 , 0.160105169 , 0.33443442  , -0.00474090967, 0.000948633766, -0.3829534  , 3.8         , 3           , 11          , 0.0608171225, 0.06081716
0.01681671  , 0.0208789054, -9.791118   , 0.0009948397, 0.00143850991, -0.0010818505, 0.4007011   , 0.159970343 , 0.333558053 , -0.004730971, 0.0009629674, -0.382964373, 3.81        , 3           , 12          , 0.0607989356, 0
0.00273486879, 0.0526235439, -9.789286   , 0.00141054613, 0.00306037441, -0.0009361112, 0.400903344 , 0.15990293  , 0.334164768 , -0.0047168755, 0.0009935265, -0.3829739  , 3.82        , 3           , 14          , 0.0004135728, 0.0005636562
-0.0167520158, 0.0523919   , -9.786724   , -0.00097444735, 0.000158104 , 0.001379181 , 0.401105583 , 0.159970343 , 0.334636658 , -0.004726605, 0.0009951728, -0.382960081, 3.83        , 3           , 15          , 0           , 0.0001553649
0.0124404868, 0.03444544  , -9.784767   , -0.0006956243, 0.00072314014, -3.13213823E-05, 0.401105583 , 0.159970343 , 0.334636658 , -0.00473356154, 0.00100240263, -0.38296032 , 3.84        , 3           , 50          , 0           , 0
-0.0187481772, 0.04422894  , -9.767789   , 0.0005107142, -0.00039500065, 0.0007495179, 0.4006337   , 0.159970343 , 0.333692878 , -0.00472844765, 0.000998488 , -0.382952929, 3.85        , 3           , 11          , 0.0608171225, 0.06081716
-0.008763168, 0.03832867  , -9.792145   , 0.00121377083, 0.000102510392, -0.000235311527, 0.400970757 , 0.160037756 , 0.3342996   , -0.00471631251, 0.0009995023, -0.3829553  , 3.86        , 3           , 12          , 0.0607989356, 0
0.0239368845, 0.0465072244, -9.788697   , -0.000347566325, 0.00149982609, -0.00200624415, 0.400970757 , 0.1597681   , 0.334704071 , -0.0047198073, 0.00101440575, -0.38297534 , 3.87        , 3           , 14          , 0.0004135728, 0.0005636562
0.006970038 , 0.059847042 , -9.805042   , -0.00197191723, 0.0018408068, 0.000317660015, 0.400970757 , 0.1597681   , 0.334704071 , -0.004739524, 0.00103282882, -0.38297224 , 3.88        , 3           , 15          , 0           , 0.0001553649
0.009616533 , 0.053062994 , -9.80957    , -0.000617736252, -0.000895385, -0.001304906, 0.4007011   , 0.160037756 , 0.333692878 , -0.004745714, 0.00102381327, -0.382985353, 3.89        , 3           , 50          , 0           , 0
-0.00259266328, 0.05723665  , -9.800607   , -0.00133169512, 0.0007188274, -0.00109380274, 0.400903344 , 0.15990293  , 0.3342996   , -0.00475903274, 0.0010308763, -0.382996321, 3.9         , 3           , 11          , 0.0618783869, 0.0618784241
0.0153824752, 0.0466475375, -9.800513   , -0.00133248093, 0.00114118122, 0.001167148 , 0.4012404   , 0.1597681   , 0.334704071 , -0.00477234554, 0.00104234356, -0.382984638, 3.91        , 3           , 12          , 0.0618589558, 0
0.0155343972, 0.0254199766, -9.79517651 , -0.000130357716, 0.00058616366, -0.0005233477, 0.4012404   , 0.1597681   , 0.334704071 , -0.004773654, 0.00104818027, -0.382989883, 3.92        , 3           , 14          , 0.0004135713, 0.000563668669
0.0245971382, 0.0221949071, -9.806871   , -0.00125521177, -0.000195775225, 0.00123605039, 0.400768518 , 0.16024     , 0.333692878 , -0.00478619337, 0.00104628177, -0.3829775  , 3.93        , 3           , 15          , 0           , 0.000155367554
0.0240521058, 0.0510641038, -9.80223751 , -0.00174564379, -0.00104381458, 0.0005967346, 0.401105583 , 0.15990293  , 0.3342996   , -0.004803644, 0.00103587226, -0.3829713  , 3.94        , 3           , 50          , 0           , 0
0.0150724147, 0.0632834658, -9.781917   , -0.000263866852, -0.000822613132, 0.000745242636, 0.40056628  , 0.159970343 , 0.334636658 , -0.00480627455, 0.0010276821, -0.3829639  , 3.95        , 3           , 11          , 0.0618783869, 0.0618784241
-0.005716129, 0.03149697  , -9.784014   , 0.0002289489, -0.0006784917, -0.000523654337, 0.40056628  , 0.159970343 , 0.334636658 , -0.00480399048, 0.00102087215, -0.382969141, 3.96        , 3           , 12          , 0.0618589558, 0
-0.0122058364, 0.05190725  , -9.792566   , -0.00104988727, 0.00100230635, 0.000250001147, 0.4006337   , 0.159970343 , 0.333625466 , -0.004814487, 0.00103090692, -0.382966757, 3.97        , 3           , 14          , 0.0004135713, 0.000563668669
0.000971354544, 0.0540224575, -9.796526   , -0.0006321715, 0.002201823 , 0.0002538207, 0.401105583 , 0.15990293  , 0.3342996   , -0.004820806, 0.00105293712, -0.382964134, 3.98        , 3           , 15          , 0           , 0.000155367554
0.008099058 , 0.0471474566, -9.78972    , -0.00182493718, 0.000504311 , -0.00116706721, 0.40103817  , 0.159970343 , 0.334501833 , -0.00483906735, 0.00105792389, -0.382975817, 3.99        , 3           , 50          , 0           , 0
0.0110726012, 0.0290974565, -9.799715   , -0.00232090638, 0.0009233094, -0.0005330059, 0.40103817  , 0.159970343 , 0.334501833 , -0.004862271, 0.00106708123, -0.3829813  , 4           , 3           , 11          , 0.06294518  , 0.06294522
0.02152529  , 0.0307918936, -9.803244   , -0.00188453449, -0.001678303, -0.000817582, 0.400768518 , 0.160037756 , 0.33349064  , -0.004881124, 0.00105025875, -0.3829894  , 4.01        , 3           , 12          , 0.06292443  , 0
0.0151917636, 0.0357806   , -9.788808   , -0.0006877055, -0.000966273132, -0.0008109001, 0.40103817  , 0.16037482  , 0.334232181 , -0.00488800928, 0.00104055658, -0.382997274, 4.02        , 3           , 14          , 0.000413569418, 0.000563677051
0.00127251074, 0.0405037664, -9.802906   , 0.000716142531, 0.000873453158, 0.0005405579, 0.400970757 , 0.15990293  , 0.334367    , -0.00488084229, 0.0010493173, -0.382992029, 4.03        , 3           , 15          , 0           , 0.000155362039
0.01758977  , 0.04568237  , -9.789653   , -0.00189273548, 1.10878318E-05, -0.000532440958, 0.400970757 , 0.15990293  , 0.334367    , -0.00489977468, 0.001049402 , -0.382997274, 4.04        , 3           , 50          , 0           , 0
0.0285258517, 0.0509670936, -9.789095   , -0.0007615339, -0.0001924439, 0.0002494794, 0.400768518 , 0.160172582 , 0.333558053 , -0.00490738824, 0.00104748993, -0.3829949  , 4.05        , 3           , 11          , 0.06294518  , 0.06294522
0.0244360864, 0.0487712845, -9.792751   , 0.003336932 , -0.0007278772, 0.00111531944, 0.40103817  , 0.159970343 , 0.334232181 , -0.004874007, 0.001040266 , -0.382983685, 4.06        , 3           , 12          , 0.06292443  , 0
0.00632182555, 0.0476425476, -9.796511   , 0.00149010611, 0.00158262253, 0.0018873174, 0.400903344 , 0.160037756 , 0.334501833 , -0.00485908659, 0.00105618383, -0.382964849, 4.07        , 3           , 14          , 0.000413569418, 0.000563677051
0.00195398461, 0.0349553451, -9.765861   , 0.0002909708, 0.000940974 , -0.00150970579, 0.400903344 , 0.160037756 , 0.334501833 , -0.004856193, 0.00106552034, -0.3829801  , 4.08        , 3           , 15          , 0           , 0.000155362039
-0.00167422276, 0.03454672  , -9.765891   , 0.001706442 , 0.0004577891, 5.00756869E-05, 0.400903344 , 0.160105169 , 0.333692878 , -0.004839128, 0.00107010058, -0.3829794  , 4.09        , 3           , 50          , 0           , 0
0.008808773 , 0.0318022147, -9.791134   , -0.000138813775, 0.00234593637, -9.68269451E-05, 0.40103817  , 0.16037482  , 0.3342996   , -0.004840458, 0.00109354418, -0.382980585, 4.1         , 3           , 11          , 0.06401702  , 0.06401706
0.00336733367, 0.0336449146, -9.78348351 , -0.0006951403, 0.00065272674, 0.000180472984, 0.400835931 , 0.159835517 , 0.334569246 , -0.004847406, 0.0011000802, -0.382978916, 4.11        , 3           , 12          , 0.0639948845, 0
0.0259811264, 0.0342511944, -9.774269   , 0.00255161873, 0.000956257863, 0.000619857863, 0.400835931 , 0.159835517 , 0.334569246 , -0.00482188445, 0.00110967271, -0.382972717, 4.12        , 3           , 14          , 0.000413559552, 0.000563678856
0.0150323808, 0.057002116 , -9.792336   , 0.00298493588, -0.0010118332, 0.000477526919, 0.4006337   , 0.160037756 , 0.3337603   , -0.004792029, 0.00109957764, -0.3829677  , 4.13        , 3           , 15          , 0           , 0.000155365109
0.0118276607, 0.0547790378, -9.791015   , 7.630888E-06, 0.00115023681, -0.001298797, 0.401105583 , 0.160037756 , 0.334164768 , -0.00479196757, 0.00111101754, -0.382980824, 4.14        , 3           , 50          , 0           , 0
0.003012428 , 0.03997844  , -9.787076   , 0.000147999031, 0.00150315219, 0.0002563599, 0.401105583 , 0.160172582 , 0.334501833 , -0.00479048444, 0.00112606119, -0.382978439, 4.15        , 3           , 11          , 0.06401702  , 0.06401706
-0.00328057725, 0.0391974226, -9.801138   , 0.0009437773, -0.0022927227, 0.000748564 , 0.401105583 , 0.160172582 , 0.334501833 , -0.0047810385, 0.00110316987, -0.3829708  , 4.16        , 3           , 12          , 0.0639948845, 0
-0.0148621844, 0.05288074  , -9.804335   , 0.00064693595, 0.000732195156, 0.00174079288, 0.400498867 , 0.160037756 , 0.3337603   , -0.00477455 , 0.00111057493, -0.3829534  , 4.17        , 3           , 14          , 0.000413559552, 0.000563678856
0.003757366 , 0.0268934947, -9.789836   , 0.000505418458, 0.0006608454, 0.000609876 , 0.400835931 , 0.16024     , 0.334164768 , -0.004769489, 0.00111721247, -0.3829472  , 4.18        , 3           , 15          , 0           , 0.000155365109
0.0186136756, 0.0244169626, -9.776174   , -0.0018196794, -0.000481175317, -0.0005328741, 0.40103817  , 0.159970343 , 0.334501833 , -0.004787691, 0.00111237518, -0.3829527  , 4.19        , 3           , 50          , 0           , 0
-0.00389117375, 0.0350577161, -9.77585    , -0.0004786934, -0.0002609342, 0.0003213258, 0.40103817  , 0.159970343 , 0.334501833 , -0.004792386, 0.00110973674, -0.382949352, 4.2         , 3           , 11          , 0.06509346  , 0.065093495
-0.0013869442, 0.04995541  , -9.786616   , 0.0010604728, 0.00242443453, -0.00129189913, 0.4006337   , 0.16024     , 0.333558053 , -0.004781796, 0.00113391876, -0.382962465, 4.21        , 3           , 12          , 0.06506986  , 0
0.008404704 , 0.0372032039, -9.78569    , -0.003178228, 0.002958917 , -0.000463172822, 0.4007011   , 0.160105169 , 0.33396253  , -0.004813583, 0.00116348523, -0.382967234, 4.22        , 3           , 14          , 0.000413545 , 0.0005636863
0.00635286048, 0.05436295  , -9.782472   , 0.00276470324, 0.000746509933, 0.000973698567, 0.40103817  , 0.159970343 , 0.334636658 , -0.004785924, 0.001170997 , -0.382957458, 4.23        , 3           , 15          , 0           , 0.000155358488
0.003485079 , 0.03909652  , -9.79476    , 0.00360682257, 0.00159693067, -0.000716273556, 0.40103817  , 0.159970343 , 0.334636658 , -0.004749865, 0.00118693174, -0.382964849, 4.24        , 3           , 50          , 0           , 0
0.0205971636, 0.06061557  , -9.812618   , 0.000231062528, -0.0009600711, 0.000676705036, 0.400903344 , 0.160105169 , 0.333692878 , -0.004747546, 0.0011773631, -0.382957935, 4.25        , 3           , 11          , 0.06509346  , 0.065093495
0.0108183157, 0.0404223725, -9.81187248 , -0.00373225613, 0.00070257514, -0.00103435316, 0.400970757 , 0.1597681   , 0.334164768 , -0.004784882, 0.00118433964, -0.382968426, 4.26        , 3           , 12          , 0.06506986  , 0
0.005291636 , 0.03282264  , -9.813755   , 0.00135765551, -0.0003893026, 0.000117765652, 0.400903344 , 0.159970343 , 0.33443442  , -0.004771303, 0.00118045218, -0.382967234, 4.27        , 3           , 14          , 0.000413545 , 0.0005636863
0.0117676556, 0.04669611  , -9.802349   , 0.00220133248, 0.000179553463, -0.00129010284, 0.400903344 , 0.159970343 , 0.33443442  , -0.00474930555, 0.00118218618, -0.3829801  , 4.28        , 3           , 15          , 0           , 0.000155358488
-0.0055304924, 0.0481623635, -9.775808   , 0.00389384665, 0.000472575368, -0.00241191732, 0.400835931 , 0.159835517 , 0.333625466 , -0.004710396, 0.00118679786, -0.3830042  , 4.29        , 3           , 50          , 0           , 0
-0.003261065, 0.0454621352, -9.785745   , -0.0006266241, 0.00100514106, -0.000454345631, 0.401105583 , 0.160442233 , 0.334097356 , -0.00471664 , 0.00119676441, -0.383008718, 4.3         , 3           , 11          , 0.06617406  , 0.06617411
0.00618192134, 0.0399412252, -9.787052   , -0.00145947514, -0.00181623711, 0.000384976418, 0.40103817  , 0.160172582 , 0.3342996   , -0.00473123 , 0.00117862038, -0.383004665, 4.31        , 3           , 12          , 0.06614892  , 0
0.02272112  , 0.02528806  , -9.781111   , -0.0008890455, -0.00293867732, 0.0003858746, 0.40103817  , 0.160172582 , 0.3342996   , -0.00474011526, 0.00114925241, -0.383000851, 4.32        , 3           , 14          , 0.000413540518, 0.000563696551
0.01633263  , 0.0239833221, -9.77348    , 0.000806168 , -0.00292721437, 0.00152392616, 0.400498867 , 0.15990293  , 0.333625466 , -0.00473203557, 0.00112005288, -0.382985353, 4.33        , 3           , 15          , 0           , 0.000155346192
0.00585005572, 0.04718613  , -9.793352   , 0.00163762516, 0.000175728754, 0.0006850378, 0.401105583 , 0.160172582 , 0.334029943 , -0.004715652, 0.00112184277, -0.382978439, 4.34        , 3           , 50          , 0           , 0
0.00749300746, 0.0314063244, -9.8028965  , 0.00163820339, -0.000105840096, -0.000728083367, 0.40103817  , 0.15990293  , 0.334367    , -0.004699279, 0.00112075  , -0.38298583 , 4.35        , 3           , 11          , 0.06617406  , 0.06617411
-0.00233670883, 0.0405568667, -9.806097   , 0.000214754153, 0.00213713013, -0.00101373415, 0.40103817  , 0.15990293  , 0.334367    , -0.00469714263, 0.00114207331, -0.382996082, 4.36        , 3           , 12          , 0.06614892  , 0
0.00263185147, 0.0418276675, -9.798823   , 0.0005094006, -0.0003950474, -0.00158139761, 0.4006337   , 0.16024     , 0.33349064  , -0.004692067, 0.00113804848, -0.383011818, 4.37        , 3           , 14          , 0.000413540518, 0.000563696551
0.0214774963, 0.0592454448, -9.810811   , -0.004000501, -0.00183342316, 0.00178581139, 0.400903344 , 0.160105169 , 0.334097356 , -0.004732051, 0.00111979886, -0.382993937, 4.38        , 3           , 15          , 0           , 0.000155346192
0.014341712 , 0.0402997248, -9.787892   , -0.00202711672, -0.00125692692, 0.000383210427, 0.4007011   , 0.159700692 , 0.3342996   , -0.004752318, 0.001107248 , -0.382990122, 4.39        , 3           , 50          , 0           , 0
0.014658452 , 0.0276863575, -9.795174   , 0.000233700383, -0.001523215, 0.000393327646, 0.4007011   , 0.159700692 , 0.3342996   , -0.00474992348, 0.00109201786, -0.38298583 , 4.4         , 3           , 11          , 0.0672584549, 0.0672585
-0.00206003524, 0.0292501   , -9.799363   , 0.000806339667, -0.00292721647, 0.0018064793, 0.400903344 , 0.159835517 , 0.333625466 , -0.004741841, 0.00106283172, -0.3829677  , 4.41        , 3           , 12          , 0.0672316849, 0
0.0031182908, 0.05211568  , -9.773916   , 0.0047394936, 0.00104142784, -0.000429308217, 0.400903344 , 0.16037482  , 0.3342996   , -0.004694451, 0.0010732254, -0.382972   , 4.42        , 3           , 14          , 0.00041353202, 0.0005636993
-0.0118205473, 0.05140089  , -9.777651   , 0.00248663453, -0.000100107456, 0.00125364529, 0.401105583 , 0.160105169 , 0.334367    , -0.004669571, 0.0010722829, -0.3829596  , 4.43        , 3           , 15          , 0           , 0.0001553305
-0.003983126, 0.0291806441, -9.772259   , 0.00163493422, 0.000457285 , -0.00157481234, 0.401105583 , 0.160105169 , 0.334367    , -0.00465323869, 0.00107678259, -0.38297534 , 4.44        , 3           , 50          , 0           , 0
0.0189088453, 0.0429564975, -9.788751   , 0.00192531024, -0.00094862585, 0.000119559627, 0.4007011   , 0.16024     , 0.33349064  , -0.00463398453, 0.00106730184, -0.382974148, 4.45        , 3           , 11          , 0.0672584549, 0.0672585
0.000217705019, 0.0328055136, -9.791194   , 0.002484173 , 0.000463024277, 0.00181958813, 0.400970757 , 0.160172582 , 0.334164768 , -0.004609124, 0.00107201608, -0.382956028, 4.46        , 3           , 12          , 0.0672316849, 0
0.0246797316, 0.0356523432, -9.783765   , -0.0020244834, -0.00182006066, 9.982076E-05, 0.400970757 , 0.1597681   , 0.3342996   , -0.004629367, 0.00105382036, -0.382954836, 4.47        , 3           , 14          , 0.00041353202, 0.0005636993
-0.00509008 , 0.0414517559, -9.794364   , -0.00316255423, -0.000138309988, 9.715664E-05, 0.400970757 , 0.1597681   , 0.3342996   , -0.00466099149, 0.00105244166, -0.382953882, 4.48        , 3           , 15          , 0           , 0.0001553305
-0.0109894816, 0.0464200266, -9.775404   , -0.00259302976, -0.000979183, 0.00094610115, 0.40056628  , 0.160037756 , 0.333692878 , -0.00468691159, 0.0010426942, -0.382944345, 4.49        , 3           , 50          , 0           , 0
0.0115388744, 0.0322275236, -9.792919   , -0.00343414559, -0.00239275536, -0.0004727117, 0.401173    , 0.160105169 , 0.334164768 , -0.00472119171, 0.00101866189, -0.3829491  , 4.5         , 3           , 11          , 0.0683462545, 0.06834631
0.004024217 , 0.0449637324, -9.796991   , -0.00204169052, 0.001558705 , -0.0007425895, 0.400835931 , 0.159835517 , 0.334501833 , -0.00474161655, 0.00103421358, -0.3829565  , 4.51        , 3           , 12          , 0.06831778  , 0
0.00252474472, 0.0381700732, -9.784375   , 0.001070655 , 0.0007350264, 0.0018134322, 0.400835931 , 0.159835517 , 0.334501833 , -0.004730891, 0.00104164961, -0.382938385, 4.52        , 3           , 14          , 0.0004135216, 0.0005637124
0.008612826 , 0.0565649122, -9.774309   , -0.00400301768, -0.001551879, -0.00019150626, 0.400970757 , 0.160105169 , 0.333558053 , -0.004770923, 0.0010261219, -0.3829403  , 4.53        , 3           , 15          , 0           , 0.000155335671
0.007602963 , 0.07918075  , -9.786879   , -0.00204275828, 0.00184027175, -0.00017708051, 0.40103817  , 0.160442233 , 0.334097356 , -0.004791352, 0.00104451575, -0.3829422  , 4.54        , 3           , 50          , 0           , 0
0.00742655573, 0.05984475  , -9.80594349 , 0.00247885939, 0.001307701 , -0.000156877431, 0.401105583 , 0.1597681   , 0.334367    , -0.00476656575, 0.00105758524, -0.382943869, 4.55        , 3           , 11          , 0.0683462545, 0.06834631
0.0134991547, 0.037236955 , -9.813223   , 0.00275964  , 0.00187274674, 0.00182306964, 0.401105583 , 0.1597681   , 0.334367    , -0.0047389497, 0.001076399 , -0.382925749, 4.56        , 3           , 12          , 0.06831778  , 0
0.0184117388, 0.0384623967, -9.792388   , -0.00117547216, -0.00209590746, 0.000668407534, 0.400970757 , 0.1603074   , 0.333558053 , -0.00475069741, 0.00105547183, -0.382918835, 4.57        , 3           , 14          , 0.0004135216, 0.0005637124
0.00289624929, 0.0264937934, -9.802048   , -4.51123051E-05, -0.00208826433, 0.00180382526, 0.40103817  , 0.16024     , 0.334232181 , -0.004751129, 0.00103467517, -0.3829007  , 4.58        , 3           , 15          , 0           , 0.000155335671
0.00126825552, 0.0346977673, -9.820558   , 0.000235431115, -0.00180479174, 0.0009579635, 0.400903344 , 0.15990293  , 0.3342996   , -0.00474876538, 0.00101667293, -0.382891178, 4.59        , 3           , 50          , 0           , 0
-0.0068327426, 0.043313913 , -9.805217   , -0.00146723329, -0.000408437656, -0.001025524, 0.400903344 , 0.15990293  , 0.3342996   , -0.00476339273, 0.00101250038, -0.3829012  , 4.6         , 3           , 11          , 0.06943711  , 0.06943716
0.01596646  , 0.0200416613, -9.807399   , -0.00512714032, -0.00268578529, -0.000198503025, 0.400296628 , 0.1603074   , 0.333423227 , -0.00481466576, 0.0009856331, -0.3829031  , 4.61        , 3           , 12          , 0.0694068447, 0
0.0260446947, 0.0293928459, -9.805474   , -0.00175671885, 0.00127904909, 0.0012360625, 0.400903344 , 0.16037482  , 0.3342996   , -0.00483222073, 0.0009984832, -0.3828907  , 4.62        , 3           , 14          , 0.000413512927, 0.000563718553
0.0148101784, 0.04387791  , -9.78019    , -0.00231516641, -0.000414170674, -0.00215962459, 0.400768518 , 0.159700692 , 0.334501833 , -0.0048553925, 0.000994237 , -0.3829124  , 4.63        , 3           , 15          , 0           , 0.000155328962
0.004899052 , 0.046267245 , -9.785228   , -0.00118513266, -0.000406529231, -0.001589282, 0.400768518 , 0.159700692 , 0.334501833 , -0.00486725941, 0.0009900947, -0.382928133, 4.64        , 3           , 50          , 0           , 0
0.006776022 , 0.0521018766, -9.782477   , 0.004454951 , 0.00160263188, 0.000700394041, 0.4007011   , 0.160037756 , 0.333692878 , -0.00482270354, 0.00100615469, -0.382921219, 4.65        , 3           , 11          , 0.06943711  , 0.06943716
0.01222866  , 0.0502682664, -9.792838   , -0.0009135316, 0.001847903 , -0.00101941859, 0.4006337   , 0.1603074   , 0.334164768 , -0.00483184867, 0.00102458452, -0.382931471, 4.66        , 3           , 12          , 0.0694068447, 0
0.009557253 , 0.056139417 , -9.78515148 , -0.00176376326, 0.0024053026, -0.00130503892, 0.401173    , 0.159835517 , 0.33443442  , -0.004849499, 0.001048574 , -0.382944584, 4.67        , 3           , 14          , 0.000413512927, 0.000563718553
0.00129709579, 0.04097004  , -9.807425   , -0.0009229633, 0.00381885981, -0.000451306027, 0.401173    , 0.159835517 , 0.33443442  , -0.00485873362, 0.00108674029, -0.382949352, 4.68        , 3           , 15          , 0           , 0.000155328962
-0.00157336716, 0.0373065434, -9.781699   , -0.0008940156, -0.00209400826, -0.00102549372, 0.400903344 , 0.159835517 , 0.3333558   , -0.004867684, 0.00106575037, -0.382959366, 4.69        , 3           , 50          , 0           , 0
0.008507292 , 0.04487429  , -9.78611    , -0.00174744171, -0.0006919161, 0.000385422667, 0.4007011   , 0.160105169 , 0.33396253  , -0.00488510029, 0.00105880317, -0.382955551, 4.7         , 3           , 11          , 0.07053071  , 0.07053077
-0.000577811152, 0.04049328  , -9.793429   , -0.00259825168, 0.000147052342, 0.00151292374, 0.401105583 , 0.159835517 , 0.334367    , -0.004911066, 0.00106034777, -0.382940531, 4.71        , 3           , 12          , 0.0704985559, 0
-0.00546233635, 0.0495566353, -9.788005   , -0.00118725956, 0.00015659671, -0.000458253926, 0.401105583 , 0.159835517 , 0.334367    , -0.004922943, 0.00106189109, -0.382945061, 4.72        , 3           , 14          , 0.000413504371, 0.000563725829
0.0167272128, 0.0484059639, -9.791455   , -0.002038559, 0.0009955629, -0.000178365386, 0.400835931 , 0.16024     , 0.333625466 , -0.004943331, 0.001071838 , -0.38294673 , 4.73        , 3           , 15          , 0           , 0.000155318747
0.0007133754, 0.0404229127, -9.777148   , -0.00316777662, 0.0009879253, 0.000663979154, 0.400970757 , 0.160105169 , 0.334097356 , -0.004975002, 0.00108175  , -0.3829403  , 4.74        , 3           , 50          , 0           , 0
-0.0173999965, 0.03795584  , -9.785433   , 0.00135186827, 0.00101848866, 0.00209773751, 0.400835931 , 0.160037756 , 0.334367    , -0.00496146036, 0.00109203917, -0.3829193  , 4.75        , 3           , 11          , 0.07053071  , 0.07053077
-0.006621831, 0.03641736  , -9.768181   , 0.00163389416, 0.000738825067, -0.00100929174, 0.400835931 , 0.160037756 , 0.334367    , -0.004945133, 0.00109937694, -0.382929564, 4.76        , 3           , 12          , 0.0704985559, 0
0.02090448  , 0.0279829577, -9.771169   , -0.000334076816, -0.0009639321, 0.000109035915, 0.4007011   , 0.160105169 , 0.333558053 , -0.004948472, 0.00108974311, -0.382928371, 4.77        , 3           , 14          , 0.000413504371, 0.000563725829
-0.0168783069, 0.04291621  , -9.786312   , 0.00163643016, 0.000457265443, 0.000968036649, 0.400835931 , 0.16024     , 0.334232181 , -0.004932097, 0.0010943634, -0.3829186  , 4.78        , 3           , 15          , 0           , 0.000155318747
-0.0112815388, 0.0194023587, -9.790887   , 0.003057344 , -0.001504145, -0.000723640958, 0.400970757 , 0.15990293  , 0.3342996   , -0.004901532, 0.00107928645, -0.382925749, 4.79        , 3           , 50          , 0           , 0
0.004727197 , 0.04077179  , -9.760844   , -0.00118921034, 0.000719707052, 0.0009553076, 0.400970757 , 0.15990293  , 0.3342996   , -0.004913272, 0.001086374 , -0.3829162  , 4.8         , 3           , 11          , 0.0716267452, 0.0716268
0.00739987753, 0.06160853  , -9.793733   , -0.000622221269, 0.000160393713, -0.000173076027, 0.4006337   , 0.159835517 , 0.333625466 , -0.00491949636, 0.00108796929, -0.382918119, 4.81        , 3           , 12          , 0.07159261  , 0
0.0189110711, 0.0785921738, -9.785439   , 0.00164153834, -0.0006690209, 0.000118694894, 0.401173    , 0.1603074   , 0.334232181 , -0.00490307948, 0.00108128553, -0.382916927, 4.82        , 3           , 14          , 0.000413482863, 0.0005637495
0.0348862149, 0.057158906 , -9.774105   , 0.002204257 , -0.000102067657, 0.00125234667, 0.401105583 , 0.15990293  , 0.334636658 , -0.00488102343, 0.001080326 , -0.3829043  , 4.83        , 3           , 15          , 0           , 0.000155312257
0.0121238437, 0.0497369729, -9.768886   , 0.00333084934, 0.000468700833, 0.000693407259, 0.401105583 , 0.15990293  , 0.334636658 , -0.00484770676, 0.00108504633, -0.382897377, 4.84        , 3           , 50          , 0           , 0
0.004775772 , 0.0684107244, -9.794628   , 0.0004998634, 0.001575856 , -0.00129578856, 0.400835931 , 0.15990293  , 0.333558053 , -0.00484272372, 0.00110074179, -0.3829105  , 4.85        , 3           , 11          , 0.0716267452, 0.0716268
0.00562392641, 0.0287025366, -9.797499   , -0.0009200565, 0.00297412742, -0.0027128912, 0.400970757 , 0.160172582 , 0.334164768 , -0.004851954, 0.00113035145, -0.38293767 , 4.86        , 3           , 12          , 0.07159261  , 0
-0.006772217, 0.0144243389, -9.802172   , -0.00174512155, -0.00125507219, -0.0004630509, 0.40103817  , 0.159970343 , 0.334232181 , -0.00486941 , 0.00111777813, -0.3829422  , 4.87        , 3           , 14          , 0.000413482863, 0.0005637495
-0.03193597 , 0.03273178  , -9.791442   , -0.00089489005, -0.00181247178, -0.0001774305, 0.40103817  , 0.159970343 , 0.334232181 , -0.004878361, 0.00109964481, -0.382943869, 4.88        , 3           , 15          , 0           , 0.000155312257
-0.00501030777, 0.0459799021, -9.799315   , 0.0002353067, -0.00180482958, 0.0006754495, 0.400498867 , 0.159970343 , 0.333625466 , -0.004876   , 0.00108162966, -0.3829372  , 4.89        , 3           , 50          , 0           , 0
-0.000915828161, 0.0495186038, -9.79249    , 0.00248267618, 0.000744515157, 0.00153749587, 0.401105583 , 0.159835517 , 0.334029943 , -0.00485108048, 0.00108899409, -0.3829217  , 4.9         , 3           , 11          , 0.07272493  , 0.0727249756
0.00512263  , 0.02866854  , -9.785751   , 0.00163769408, 0.000175652618, 0.000685064937, 0.401173    , 0.160037756 , 0.3342996   , -0.00483469572, 0.00109078363, -0.38291502 , 4.91        , 3           , 12          , 0.0726887062, 0
0.008086352 , 0.0399955548, -9.809636   , 0.0002503257, -0.00490207 , 0.000105594372, 0.401173    , 0.160037756 , 0.3342996   , -0.00483219139, 0.00104176858, -0.3829136  , 4.92        , 3           , 14          , 0.0004134716, 0.0005637727
0.020874491 , 0.05020203  , -9.803168   , -4.6041212E-05, -0.00208832952, 0.000108616769, 0.4006337   , 0.160037756 , 0.333625466 , -0.00483265147, 0.00102089066, -0.3829124  , 4.93        , 3           , 15          , 0           , 0.000155319081
-0.00250129681, 0.0297111   , -9.80072    , 0.00360427075, 0.00215997524, -0.00043282882, 0.400835931 , 0.16037482  , 0.3342996   , -0.004796613, 0.0010424694, -0.382916927, 4.94        , 3           , 50          , 0           , 0
-0.00308158342, 0.0211324468, -9.797144   , 0.0005160244, -0.00152137922, 0.00011211852, 0.400970757 , 0.1597681   , 0.334367    , -0.004791451, 0.001027261 , -0.382915735, 4.95        , 3           , 11          , 0.07272493  , 0.0727249756
0.00668901438, 0.04533612  , -9.782958   , -0.00175159075, 0.000152732246, 0.000386724161, 0.400970757 , 0.1597681   , 0.334367    , -0.00480896374, 0.0010288069, -0.382911921, 4.96        , 3           , 12          , 0.0726887062, 0
0.0234795138, 0.040259935 , -9.80771    , -4.908114E-05, -0.00124362856, 0.002087681 , 0.4007011   , 0.160037756 , 0.333625466 , -0.00480943359, 0.00101647107, -0.38289094 , 4.97        , 3           , 14          , 0.0004134716, 0.0005637727
0.00721905241, 0.0489642024, -9.790171   , -0.0020357382, 0.0004323859, -0.000179233582, 0.400835931 , 0.159835517 , 0.334164768 , -0.00482979231, 0.00102078624, -0.382892847, 4.98        , 3           , 15          , 0           , 0.000155319081
