Acc X       , Acc Y       , Acc Z       , Gyro X      , Gyro Y      , Gyro Z      , Magn X      , Magn Y      , Magn Z      , Euler X     , Euler Y     , Euler Z     , Time        , Status      , LowRate X   , LowRate Y   , LowRate Z    
-0.07712301 , 0.103712529 , -9.809119   , -0.00177879573, -0.00197530771, -9.330081E-05, -0.228394225, -0.1342187  , 0.451732516 , -0.00903597847, -0.009058257, 2.63126254  , 0           , 3           , 11          , 0.0346410163, 0.0346410163
-0.0782956555, 0.0878844857, -9.794731   , -0.0009465603, 0.0009868536, -0.0007911373, -0.228596464, -0.134016454, 0.451732516 , -0.009045371, -0.00904846 , 2.63125443  , 0.01        , 3           , 12          , 0.0346410163, 0
-0.0684137642, 0.09395212  , -9.755308   , 0.00046504  , 0.00113718677, -0.000501798233, -0.228191987, -0.134016454, 0.451934755 , -0.009040675, -0.009037133, 2.63124967  , 0.02        , 3           , 50          , 0           , 0
-0.0839889944, 0.106856592 , -9.781136   , -0.000654909236, -0.000841408561, -0.0005101035, -0.228191987, -0.134016454, 0.451934755 , -0.009047179, -0.00904559251, 2.63124442  , 0.03        , 3           , 11          , 0.0346410163, 0.0346410163
-0.08944368 , 0.0605568551, -9.814365   , 0.000762511743, -0.00181733456, 0.000201306058, -0.228191987, -0.1342187  , 0.451867342 , -0.009039573, -0.009063747, 2.63124681  , 0.04        , 3           , 12          , 0.0346410163, 0
-0.0926167443, 0.09086884  , -9.82692    , 0.00146796345, -0.00167177676, 0.000346084067, -0.228529051, -0.133949041, 0.451934755 , -0.009024926, -0.009080433, 2.63125062  , 0.05        , 3           , 50          , 0           , 0
-0.09264135 , 0.0979905054, -9.797962   , -0.00023118731, -0.00083854323, -0.000366859342, -0.228191987, -0.134016454, 0.452002168 , -0.009027205, -0.00908885151, 2.63124681  , 0.06        , 3           , 11          , 0.0346410163, 0.0346410163
-0.09379153 , 0.0848587751, -9.780399   , 0.0003332141, -0.000693939568, 5.97976177E-05, -0.228191987, -0.134016454, 0.452002168 , -0.009023879, -0.009095785, 2.63124728  , 0.07        , 3           , 12          , 0.0346410163, 0
-0.0906368941, 0.1124091   , -9.798792   , 0.0010330081, 0.0005778783, 6.504265E-05, -0.228529051, -0.133949041, 0.451732516 , -0.009013555, -0.00909    , 2.63124776  , 0.08        , 3           , 50          , 0           , 0
-0.094979696, 0.09572504  , -9.787142   , 0.001452548 , 0.001425439 , 0.00020958863, -0.228394225, -0.134016454, 0.451732516 , -0.008999048, -0.009075729, 2.63124967  , 0.09        , 3           , 11          , 0.0346410163, 0.0346410163
-0.114318229, 0.104540586 , -9.791773   , 0.000333214237, -0.0006939396, 5.97983926E-05, -0.228326812, -0.134083867, 0.452002168 , -0.008995722, -0.009082661, 2.63125062  , 0.1         , 3           , 12          , 0.0346410163, 0
-0.108130991, 0.09586255  , -9.78227    , -0.000793089741, -0.00140549254, -8.782297E-05, -0.228326812, -0.134083867, 0.452002168 , -0.009003648, -0.009096724, 2.63124967  , 0.11        , 3           , 50          , 0           , 0
-0.07845559 , 0.110890955 , -9.79237652 , 0.00315809739, -0.000815623, -6.851801E-05, -0.228596464, -0.134016454, 0.4516651   , -0.008972061, -0.009104885, 2.63124967  , 0.12        , 3           , 11          , 0.0346410163, 0.0346410163
-0.0776717961, 0.097391136 , -9.805985   , 0.00385801774, 0.000315409619, -0.00105237111, -0.228596464, -0.133881629, 0.451934755 , -0.008933383, -0.009101826, 2.63123918  , 0.13        , 3           , 12          , 0.0346410163, 0
-0.0718781948, 0.09055175  , -9.805065   , 0.0003190737, 0.00198092428, -0.00149003544, -0.228461638, -0.134016454, 0.451799929 , -0.008930055, -0.00908215 , 2.631224    , 0.14        , 3           , 50          , 0           , 0
-0.08241416 , 0.08209457  , -9.802922   , 0.000174493936, 0.00282466877, -7.67046949E-05, -0.228461638, -0.134016454, 0.451799929 , -0.008928302, -0.009053912, 2.631223    , 0.15        , 3           , 11          , 0.0346410163, 0.0346410163
-0.0811378  , 0.08469029  , -9.774426   , -0.00235804147, 0.0009773072, 0.0003324286, -0.228326812, -0.133881629, 0.451732516 , -0.008951912, -0.009044109, 2.63122582  , 0.16        , 3           , 12          , 0.0346410163, 0
-0.08246116 , 0.08919808  , -9.768541   , -0.00390474522, -0.0004410248, -0.0002420592, -0.228663877, -0.133611977, 0.451867342 , -0.008990938, -0.009048541, 2.631224    , 0.17        , 3           , 50          , 0           , 0
-0.08628683 , 0.106409326 , -9.774376   , -0.00220686267, -0.00113347848, -0.0005177799, -0.228191987, -0.133881629, 0.452002168 , -0.009012959, -0.009059921, 2.63121867  , 0.18        , 3           , 11          , 0.0346410163, 0.0346410163
-0.110965677, 0.0926744044, -9.763774   , -0.00256836042, 0.000483131153, -0.00129390892, -0.228191987, -0.133881629, 0.452002168 , -0.009038527, -0.00905520748, 2.6312058   , 0.19        , 3           , 12          , 0.0346410163, 0
-0.09347956 , 0.103411905 , -9.797042   , -0.00278780586, 0.00188952056, -0.00242287526, -0.228529051, -0.133949041, 0.451732516 , -0.009066272, -0.009036546, 2.631181    , 0.2         , 3           , 50          , 0           , 0
-0.09070028 , 0.104769766 , -9.807863   , -0.00298870751, -1.24689677E-05, 0.000186679754, -0.228529051, -0.133881629, 0.451867342 , -0.0090961745, -0.009036653, 2.631183    , 0.21        , 3           , 11          , 0.0346699134, 0.0346699134
-0.106382929, 0.08864858  , -9.78997    , -0.0026366564, 0.000130699555, -0.000305897556, -0.228394225, -0.133949041, 0.451934755 , -0.009122513, -0.009035375, 2.63118     , 0.22        , 3           , 12          , 0.03466876  , 0
-0.0909756  , 0.08535363  , -9.802974   , -0.0018587145, -4.827854E-06, 0.00068638823, -0.228394225, -0.133949041, 0.451934755 , -0.009141163, -0.009035359, 2.63118672  , 0.23        , 3           , 50          , 0           , 0
-0.06784558 , 0.086006    , -9.809122   , -0.00144350145, 0.00175782049, 0.00118551613, -0.2282594  , -0.134016454, 0.451867342 , -0.009155702, -0.009017672, 2.63119864  , 0.24        , 3           , 11          , 0.0346699134, 0.0346699134
-0.08228714 , 0.05995413  , -9.794426   , -0.00114815065, -0.00119671121, -0.00178436679, -0.228326812, -0.134016454, 0.452002168 , -0.009167025, -0.009029802, 2.631181    , 0.25        , 3           , 12          , 0.03466876  , 0
-0.07486329 , 0.07295851  , -9.796122   , -0.00213818671, -0.000710653, -0.0002342604, -0.228394225, -0.134016454, 0.451934755 , -0.009188384, -0.009036929, 2.63117862  , 0.26        , 3           , 50          , 0           , 0
-0.0824962258, 0.117215596 , -9.78063    , -0.00163633947, -0.00204474013, 0.001461208 , -0.228394225, -0.134016454, 0.451934755 , -0.009204881, -0.009057242, 2.6311934   , 0.27        , 3           , 11          , 0.0346699134, 0.0346699134
-0.0989638045, 0.100310087 , -9.794837   , 0.00139689818, -0.001390685, 0.001970782 , -0.228529051, -0.134016454, 0.4516651   , -0.009191093, -0.009070967, 2.63121343  , 0.28        , 3           , 12          , 0.03466876  , 0
-0.08657734 , 0.07894656  , -9.791667   , 0.0010410801, -0.0009707283, 0.000769002247, -0.228461638, -0.134016454, 0.451934755 , -0.00918075349, -0.009080604, 2.631221    , 0.29        , 3           , 50          , 0           , 0
-0.09192727 , 0.08354151  , -9.797565   , -0.000227339842, -0.00160635612, -0.000509257137, -0.2282594  , -0.133814216, 0.452069581 , -0.009180958, -0.008962995, 2.63121629  , 0.3         , 3           , 11          , 0.0347535   , 0.0347535
-0.119851045, 0.09113335  , -9.810854   , 0.0003299097, -0.0001243209, -0.0009987856, -0.2282594  , -0.133814216, 0.452069581 , -0.009177569, -0.008964331, 2.63120627  , 0.31        , 3           , 12          , 0.0347537771, 0
-0.09794318 , 0.08216645  , -9.770496   , 0.00167186745, -0.000185639423, -0.0008513699, -0.228394225, -0.13415128 , 0.451732516 , -0.009160775, -0.008966264, 2.63119769  , 0.32        , 3           , 50          , 0           , 0
-0.0891691  , 0.09425561  , -9.773092   , 0.00160283642, -0.0003972882, 6.62221E-05 , -0.228596464, -0.133814216, 0.452002168 , -0.009144751, -0.008970231, 2.63119817  , 0.33        , 3           , 11          , 0.0347535   , 0.0347535
-0.09216466 , 0.0975582153, -9.805192   , 0.000617085956, -0.0008263176, 0.00119111186, -0.228663877, -0.134083867, 0.452002168 , -0.009138689, -0.00897838548, 2.63121057  , 0.34        , 3           , 12          , 0.0347537771, 0
-0.09600337 , 0.097425364 , -9.752792   , -0.000719521544, -0.00182086742, 0.00125397206, -0.228394225, -0.13415128 , 0.4516651   , -0.009145998, -0.008996477, 2.631223    , 0.35        , 3           , 50          , 0           , 0
-0.09312226 , 0.102882884 , -9.775347   , -0.00107181375, -0.002104823, 0.000121742145, -0.228394225, -0.13415128 , 0.4516651   , -0.009156729, -0.009017514, 2.63122487  , 0.36        , 3           , 11          , 0.0347535   , 0.0347535
-0.0883213  , 0.07902224  , -9.807951   , 0.0004043278, -0.0008277545, -0.000434466172, -0.228529051, -0.133881629, 0.451934755 , -0.009152648, -0.009025831, 2.63122     , 0.37        , 3           , 12          , 0.0347537771, 0
-0.08612609 , 0.079386346 , -9.789855   , -0.0003622431, -0.0027335675, 0.0007597673, -0.228461638, -0.134016454, 0.452137    , -0.009156342, -0.009053095, 2.63122821  , 0.38        , 3           , 50          , 0           , 0
-0.09506218 , 0.08494578  , -9.801651   , 4.95480781E-05, -0.000337399717, 0.000765431148, -0.228326812, -0.1342861  , 0.451934755 , -0.009155915, -0.0090564  , 2.63123584  , 0.39        , 3           , 11          , 0.0347535   , 0.0347535
-0.082443   , 0.07582231  , -9.816055   , 0.00139835326, -0.0007671275, 0.0006295688, -0.228326812, -0.1342861  , 0.451934755 , -0.00909353 , -0.009215356, 2.631242    , 0.4         , 3           , 12          , 0.0348952077, 0
-0.07597837 , 0.0843303353, -9.819135   , -0.000153044341, -0.00127037358, -0.00022604609, -0.228124574, -0.133814216, 0.451934755 , -0.009095039, -0.00922808051, 2.63123965  , 0.41        , 3           , 50          , 0           , 0
-0.09765297 , 0.101594679 , -9.779002   , -0.000795497035, 0.000203547243, 0.000338343874, -0.228461638, -0.134016454, 0.452002168 , -0.009103025, -0.009226014, 2.631243    , 0.42        , 3           , 11          , 0.0177049842, 0.017704986
-0.07558742 , 0.09409463  , -9.772537   , 0.00173822884, 0.00176934281, -0.000424395053, -0.2282594  , -0.134016454, 0.4516651   , -0.009085603, -0.009208361, 2.6312387   , 0.43        , 3           , 12          , 0.0348952077, 0
-0.08328123 , 0.08883165  , -9.790697   , 0.00131762493, 0.00106256292, -0.00120443327, -0.2282594  , -0.134016454, 0.4516651   , -0.009072316, -0.009197846, 2.63122678  , 0.44        , 3           , 50          , 0           , 0
-0.115030281, 0.08157198  , -9.80227    , 0.0004732955, 0.0004937038, -0.000926714449, -0.228394225, -0.133949041, 0.451934755 , -0.009067495, -0.009192992, 2.63121724  , 0.45        , 3           , 11          , 0.0177049842, 0.017704986
-0.08965653 , 0.08262775  , -9.802071   , -0.000307686219, 0.00147393183, 6.00636777E-05, -0.228461638, -0.133881629, 0.452002168 , -0.009070577, -0.009178247, 2.63121772  , 0.46        , 3           , 12          , 0.0348952077, 0
-0.0455822125, 0.09652025  , -9.793089   , 0.002227226 , 0.00289894734, 0.000144720078, -0.228529051, -0.13415128 , 0.451867342 , -0.009048316, -0.009149245, 2.63121915  , 0.47        , 3           , 50          , 0           , 0
-0.08200344 , 0.08830409  , -9.77261    , 0.00230465829, 0.00156199152, 0.00049616  , -0.228529051, -0.13415128 , 0.451867342 , -0.009025313, -0.009133581, 2.631224    , 0.48        , 3           , 11          , 0.0177049842, 0.017704986
-0.08327433 , 0.09062265  , -9.786621   , 0.0001226571, 0.000139363125, 0.000201246585, -0.228394225, -0.133881629, 0.452002168 , -0.009024105, -0.009132168, 2.63122582  , 0.49        , 3           , 12          , 0.0348952077, 0
-0.08655439 , 0.07717975  , -9.802974   , -0.000311466167, 0.00137182709, -0.0005754673, -0.2282594  , -0.133881629, 0.451934755 , -0.009046938, -0.00893244147, 2.63122     , 0.5         , 3           , 50          , 0           , 0
-0.08719364 , 0.089457646 , -9.828691   , -0.00129748334, 0.0010131892, 0.000690799556, -0.228461638, -0.134083867, 0.452002168 , -0.009059974, -0.008922246, 2.63122678  , 0.51        , 3           , 11          , 0.0134394038, 0.0134393936
-0.105010964, 0.08685826  , -9.799007   , -0.000164061275, 0.000105738785, -0.0007180303, -0.228461638, -0.134083867, 0.452002168 , -0.00906155 , -0.008921254, 2.63121963  , 0.52        , 3           , 12          , 0.0350919329, 0
-0.0999354348, 0.09669639  , -9.79034    , 0.0001207013, -0.000314697681, -0.000293558172, -0.228394225, -0.133881629, 0.452002168 , -0.009060317, -0.008924427, 2.63121676  , 0.53        , 3           , 50          , 0           , 0
-0.103115   , 0.0931546241, -9.799418   , -0.000588995346, 0.0004548323, 5.75146041E-05, -0.228461638, -0.134016454, 0.451934755 , -0.009066212, -0.008919874, 2.63121724  , 0.54        , 3           , 11          , 0.0134394038, 0.0134393936
-0.0935809538, 0.09484912  , -9.799791   , -0.0008015311, 0.0005237895, -0.0005790738, -0.228394225, -0.13415128 , 0.452069581 , -0.009074176, -0.00891468953, 2.63121152  , 0.55        , 3           , 12          , 0.0350919329, 0
-0.09301101 , 0.06689282  , -9.807586   , -0.00186600012, 0.00150210259, -0.001430106, -0.228394225, -0.13415128 , 0.452069581 , -0.009092707, -0.008899799, 2.63119721  , 0.56        , 3           , 50          , 0           , 0
-0.102677755, 0.08465605  , -9.822953   , -0.00199493067, -0.00110333227, -0.002494294, -0.228461638, -0.134016454, 0.452002168 , -0.009112434, -0.008911059, 2.63117242  , 0.57        , 3           , 11          , 0.0134394038, 0.0134393936
-0.09044053 , 0.0907712057, -9.805659   , 0.0006214882, -0.00164878974, -0.000434583548, -0.228326812, -0.134016454, 0.452137    , -0.009106183, -0.008927586, 2.63116813  , 0.58        , 3           , 12          , 0.0350919329, 0
-0.08731459 , 0.08980598  , -9.79795551 , 0.000199935312, -0.00193321647, 0.0007637914, -0.228461638, -0.134083867, 0.451732516 , -0.009104254, -0.008946846, 2.63117623  , 0.59        , 3           , 50          , 0           , 0
-0.08801017 , 0.109179847 , -9.787033   , 0.002955009 , 0.000650593371, -0.000138087533, -0.228461638, -0.134083867, 0.451732516 , -0.009030353, -0.00905774 , 2.63117433  , 0.6         , 3           , 11          , 0.0113522625, 0.0113522578
-0.0774983  , 0.08778617  , -9.76851    , 0.001901262 , -0.000553223363, -0.00113375136, -0.228394225, -0.1342187  , 0.451799929 , -0.009011239, -0.009063373, 2.631163    , 0.61        , 3           , 12          , 0.03534261  , 0
-0.09300717 , 0.06957402  , -9.79989052 , -0.0011337992, -0.0008553223, -0.00178405177, -0.228663877, -0.133949041, 0.451934755 , -0.009022415, -0.009072087, 2.63114524  , 0.62        , 3           , 50          , 0           , 0
-0.0807641  , 0.0734621361, -9.791193   , -0.0012703191, -0.00177136285, -0.001503583, -0.228529051, -0.134083867, 0.452002168 , -0.009034984, -0.009089936, 2.63113046  , 0.63        , 3           , 11          , 0.0113522625, 0.0113522578
-0.08585948 , 0.09968815  , -9.789767   , -0.00106664037, -1.01461637E-05, -0.00051100197, -0.228529051, -0.134083867, 0.452002168 , -0.009045603, -0.009090084, 2.63112521  , 0.64        , 3           , 12          , 0.03534261  , 0
-0.0817516  , 0.10368403  , -9.784749   , 0.000824428862, 0.003029569 , -0.00106252288, -0.228529051, -0.1337468  , 0.451934755 , -0.009037261, -0.009059885, 2.63111424  , 0.65        , 3           , 50          , 0           , 0
-0.08985053 , 0.07488258  , -9.779506   , -0.000223541952, 0.0008402791, -0.0005057494, -0.228461638, -0.134083867, 0.452069581 , -0.00903944951, -0.009051528, 2.63110948  , 0.66        , 3           , 11          , 0.0113522625, 0.0113522578
-0.06594288 , 0.106591038 , -9.765179   , -0.00374582084, -0.000802594644, -0.0004540718, -0.228394225, -0.133881629, 0.452069581 , -0.009076866, -0.009059596, 2.63110471  , 0.67        , 3           , 12          , 0.03534261  , 0
-0.0807369  , 0.07750133  , -9.78485    , -0.00155680918, -0.00078779133, -9.069388E-05, -0.228394225, -0.133881629, 0.452069581 , -0.009092427, -0.00906748 , 2.63110375  , 0.68        , 3           , 50          , 0           , 0
-0.08081281 , 0.0680664554, -9.79664    , -0.0007050018, -0.00155636214, 0.00111284794, -0.228326812, -0.134016454, 0.451799929 , -0.00909957848, -0.009082942, 2.6311152   , 0.69        , 3           , 11          , 0.0113522625, 0.0113522578
-0.06749463 , 0.08190102  , -9.797384   , -0.00243539922, -0.0007355191, 0.000611555937, -0.228461638, -0.134083867, 0.452069581 , -0.009041702, -0.008966507, 2.631121    , 0.7         , 3           , 12          , 0.03564567  , 0
-0.0763845444, 0.0919613838, -9.805999   , -0.00174237124, 0.00194412516, 0.000972142559, -0.228461638, -0.134016454, 0.451934755 , -0.009059212, -0.00894697849, 2.63113046  , 0.71        , 3           , 50          , 0           , 0
-0.123454019, 0.09208423  , -9.812686   , 0.00122635067, 0.00126026571, 0.000561079243, -0.228461638, -0.134016454, 0.451934755 , -0.009046999, -0.00893432647, 2.6311357   , 0.72        , 3           , 11          , 0.0101327905, 0.010132785
-0.110559158, 0.07790205  , -9.799991   , 0.00376897422, 0.0009958876, -0.000487017678, -0.228326812, -0.13415128 , 0.452069581 , -0.009009264, -0.008924412, 2.63113046  , 0.73        , 3           , 12          , 0.03564567  , 0
-0.0729223639, 0.08464752  , -9.790184   , 0.003487448 , 0.0008531959, -0.000135379829, -0.228866115, -0.1342187  , 0.452137    , -0.008974378, -0.008915893, 2.6311295   , 0.74        , 3           , 50          , 0           , 0
-0.07095466 , 0.09725094  , -9.787856   , -0.000810603553, -0.0009357116, 0.000265630952, -0.228596464, -0.134083867, 0.452069581 , -0.008982508, -0.008925226, 2.63113236  , 0.75        , 3           , 11          , 0.0101327905, 0.010132785
-0.07297427 , 0.0850518048, -9.776171   , -0.000454741123, -0.00149645424, 0.000337043661, -0.228191987, -0.1342187  , 0.452002168 , -0.008987086, -0.00894015748, 2.6311357   , 0.76        , 3           , 12          , 0.03564567  , 0
-0.09212911 , 0.100265123 , -9.8051815  , 0.0005272349, -0.000222727525, -8.020041E-05, -0.228191987, -0.1342187  , 0.452002168 , -0.008981807, -0.008942392, 2.63113523  , 0.77        , 3           , 50          , 0           , 0
-0.09420362 , 0.0920386761, -9.767263   , -0.0010302536, 0.000611463038, -1.55074813E-05, -0.228461638, -0.134016454, 0.452002168 , -0.008992108, -0.008936282, 2.63113427  , 0.78        , 3           , 11          , 0.0101327905, 0.010132785
-0.09299074 , 0.07672894  , -9.780878   , 0.00222013472, 0.000140689051, 6.951218E-05, -0.228326812, -0.13415128 , 0.452069581 , -0.008969911, -0.0089348685, 2.63113523  , 0.79        , 3           , 12          , 0.03564567  , 0
-0.101825006, 0.0863880441, -9.804409   , 0.001368684 , 0.00161588727, -0.00162739714, -0.228326812, -0.134083867, 0.452137    , -0.008949242, -0.008914357, 2.631119    , 0.8         , 3           , 50          , 0           , 0
-0.0918783247, 0.0867056251, -9.799359   , -0.0006007182, 5.39092762E-05, -0.001780271, -0.228326812, -0.134083867, 0.452137    , -0.008955092, -0.008913978, 2.631101    , 0.81        , 3           , 11          , 0.009379025 , 0.00937902
-0.08076387 , 0.07123056  , -9.798434   , -0.00292133354, -0.00172162626, -0.0005930635, -0.228663877, -0.134083867, 0.452137    , -0.008984253, -0.008931247, 2.63109517  , 0.82        , 3           , 12          , 0.03599938  , 0
-0.117607079, 0.0893051848, -9.8117485  , -0.00208489737, 0.000466232741, -0.000656384, -0.228596464, -0.133949041, 0.452137    , -0.009005044, -0.008926643, 2.6310885   , 0.83        , 3           , 50          , 0           , 0
-0.06663273 , 0.0782842   , -9.798297   , -0.00116665813, 0.000261262874, -0.00185321376, -0.228394225, -0.134016454, 0.451934755 , -0.009016545, -0.008924197, 2.63107038  , 0.84        , 3           , 11          , 0.009379025 , 0.00937902
-0.09245324 , 0.08036307  , -9.789899   , 4.32471352E-05, -0.00156079012, -0.000932190451, -0.228394225, -0.134016454, 0.451934755 , -0.00901603 , -0.008939889, 2.63106084  , 0.85        , 3           , 12          , 0.03599938  , 0
-0.102358118, 0.08365017  , -9.793576   , -0.00277458853, -0.00270614587, 0.000536225969, -0.228596464, -0.13415128 , 0.451867342 , -0.009043826, -0.0089669  , 2.63106656  , 0.86        , 3           , 50          , 0           , 0
-0.104232237, 0.07915689  , -9.792706   , -0.00235412549, -0.00206975988, 0.0004685433, -0.228529051, -0.134016454, 0.451867342 , -0.009067412, -0.008987555, 2.63107133  , 0.87        , 3           , 11          , 0.009379025 , 0.00937902
-0.09329167 , 0.08801606  , -9.781737   , 4.38589959E-05, -0.00156078732, 0.00012732482, -0.228461638, -0.134083867, 0.451799929 , -0.009066986, -0.00900315 , 2.63107276  , 0.88        , 3           , 12          , 0.03599938  , 0
-0.09593421 , 0.09257156  , -9.785355   , 0.00108590885, 0.00168436882, -0.00162860542, -0.228461638, -0.134083867, 0.451799929 , -0.009055978, -0.008986457, 2.631056    , 0.89        , 3           , 50          , 0           , 0
-0.07533612 , 0.1036716   , -9.80323    , -0.00210764934, 0.000107806 , 0.000118732445, -0.228461638, -0.133814216, 0.452069581 , -0.009012658, -0.009092276, 2.631057    , 0.9         , 3           , 11          , 0.00891363  , 0.008913622
-0.07466702 , 0.09141791  , -9.784745   , -0.00152819941, -0.00284480769, 4.61757736E-05, -0.228394225, -0.133881629, 0.4522044   , -0.009027947, -0.009120719, 2.631058    , 0.91        , 3           , 12          , 0.03640185  , 0
-0.0932559  , 0.0884913951, -9.788967   , 9.027898E-05, -0.0016371716, 0.000832570367, -0.228394225, -0.134016454, 0.451867342 , -0.009027122, -0.009137014, 2.631066    , 0.92        , 3           , 50          , 0           , 0
-0.106020994, 0.0791963   , -9.798142   , -0.00295230141, -0.000601840846, -0.00136962486, -0.228394225, -0.134016454, 0.451867342 , -0.00905652 , -0.009143156, 2.63105226  , 0.93        , 3           , 11          , 0.00891363  , 0.008913622
-0.09249746 , 0.07854183  , -9.784935   , -0.00322915218, -0.00173001061, -0.00137267751, -0.228596464, -0.1342861  , 0.451799929 , -0.009088686, -0.009160579, 2.631039    , 0.94        , 3           , 12          , 0.03640185  , 0
-0.0665691942, 0.08101378  , -9.805066   , 0.00192855939, -0.00232867384, -0.000855179271, -0.228529051, -0.13415128 , 0.452069581 , -0.00906932447, -0.009183946, 2.63103032  , 0.95        , 3           , 50          , 0           , 0
-0.06755634 , 0.08676086  , -9.76663    , 0.00248070038, 0.0003500166, 6.982372E-05, -0.2282594  , -0.13415128 , 0.452069581 , -0.009044522, -0.009180438, 2.63103127  , 0.96        , 3           , 11          , 0.00891363  , 0.008913622
-0.06467448 , 0.0957898   , -9.77787    , 0.000651503156, -0.0008590469, 0.00118956948, -0.2282594  , -0.13415128 , 0.452069581 , -0.009038117, -0.00918892 , 2.63104367  , 0.97        , 3           , 12          , 0.03640185  , 0
-0.06286265 , 0.08907384  , -9.79958    , 0.000381088379, -0.00325425877, 0.00146710151, -0.228529051, -0.1342187  , 0.452002168 , -0.009034445, -0.009221329, 2.631058    , 0.98        , 3           , 50          , 0           , 0
-0.10777279 , 0.08640725  , -9.789538   , 0.00128657045, -0.0006435723, 0.00232300768, -0.22873129 , -0.134016454, 0.452069581 , -0.009021794, -0.009227556, 2.63108182  , 0.99        , 3           , 11          , 0.00891363  , 0.008913622
-0.113050424, 0.103112228 , -9.774141   , 0.00179423334, -0.000117765812, 0.000490243139, -0.228461638, -0.134016454, 0.452002168 , -0.008983116, -0.009103076, 2.63108659  , 1           , 3           , 12          , 0.03685108  , 0
-0.10955584 , 0.08912938  , -9.787733   , 0.000174175453, -0.0009734447, -1.30717744E-05, -0.228461638, -0.134016454, 0.452002168 , -0.008981374, -0.00911281 , 2.63108659  , 1.01        , 3           , 50          , 0           , 0
-0.114978716, 0.0883090049, -9.793202   , -0.00102935662, -0.000348041125, -0.000158961, -0.228394225, -0.1342187  , 0.452002168 , -0.008991652, -0.009116306, 2.63108468  , 1.02        , 3           , 11          , 0.00863673352, 0.008636726
-0.101416014, 0.0876863   , -9.789485   , 2.505019E-05, 0.00057420705, -0.000435149646, -0.22873129 , -0.134016454, 0.452002168 , -0.008991362, -0.009110603, 2.63108039  , 1.03        , 3           , 12          , 0.03685108  , 0
-0.072836794, 0.0945365652, -9.779294   , 0.00129199284, 0.00142749806, -7.474997E-05, -0.228461638, -0.1342187  , 0.452002168 , -0.008978433, -0.009096336, 2.63107944  , 1.04        , 3           , 50          , 0           , 0
-0.106002465, 0.08412117  , -9.786823   , 0.00179979077, -0.00131441886, -0.000147310449, -0.228461638, -0.1342187  , 0.452002168 , -0.008960424, -0.009109494, 2.631078    , 1.05        , 3           , 11          , 0.00863673352, 0.008636726
-0.109153159, 0.07926375  , -9.807206   , -2.85650458E-05, -0.002734657, 0.000618937833, -0.228663877, -0.1342861  , 0.451934755 , -0.008960769, -0.009136782, 2.63108468  , 1.06        , 3           , 12          , 0.03685108  , 0
-0.104291685, 0.1120645   , -9.783078   , -0.00130594417, -0.00140581711, 0.0008976101, -0.228596464, -0.1342861  , 0.452069581 , -0.00897391047, -0.009150759, 2.63109374  , 1.07        , 3           , 50          , 0           , 0
-0.109037966, 0.09140855  , -9.796308   , -0.00194279873, -0.00112854945, 0.00089508103, -0.2282594  , -0.134083867, 0.452137    , -0.008993421, -0.009161964, 2.6311028   , 1.08        , 3           , 11          , 0.00863673352, 0.008636726
-0.07140983 , 0.09145175  , -9.80596352 , 0.00171987817, 0.000515275053, -0.000568625343, -0.2282594  , -0.134083867, 0.452137    , -0.00897617 , -0.009156862, 2.631097    , 1.09        , 3           , 12          , 0.03685108  , 0
-0.0849519446, 0.102357209 , -9.781614   , 0.000816503249, 0.00141258084, -0.000430061453, -0.228663877, -0.134420931, 0.451867342 , -0.009028263, -0.00923968 , 2.63109326  , 1.1         , 3           , 50          , 0           , 0
-0.0832468048, 0.09510846  , -9.778919   , -0.0007319467, 0.000486991223, 0.000196994282, -0.228663877, -0.13415128 , 0.452002168 , -0.009035601, -0.009234793, 2.63109517  , 1.11        , 3           , 11          , 0.008482438 , 0.00848242547
-0.06637269 , 0.0972416252, -9.800929   , -0.0003795472, 0.0005597685, -0.000295691541, -0.228529051, -0.13415128 , 0.452002168 , -0.00903936848, -0.009229223, 2.63109231  , 1.12        , 3           , 12          , 0.0373449847, 0
-0.103139818, 0.09491992  , -9.78766    , -0.00102173281, 0.00196329784, 0.000127321138, -0.228529051, -0.13415128 , 0.452002168 , -0.009049597, -0.00920958 , 2.63109326  , 1.13        , 3           , 50          , 0           , 0
-0.07813525 , 0.103190355 , -9.784723   , -0.0006674091, 0.00175451243, 0.000552448037, -0.228461638, -0.134353518, 0.451799929 , -0.00905631948, -0.009191983, 2.631099    , 1.14        , 3           , 11          , 0.008482438 , 0.00848242547
-0.0839170963, 0.108253874 , -9.794237   , -0.001933306, 0.000690047629, 0.000191722691, -0.228394225, -0.133881629, 0.452137    , -0.0090756705, -0.009185066, 2.63110042  , 1.15        , 3           , 12          , 0.0373449847, 0
-0.08184617 , 0.09423406  , -9.792019   , -0.0020107755, 0.00188621751, -0.00143135281, -0.228663877, -0.133881629, 0.4522044   , -0.009095644, -0.009166338, 2.631086    , 1.16        , 3           , 50          , 0           , 0
-0.09041256 , 0.09838181  , -9.788      , 4.64510122E-05, 6.98944E-05 , -0.0004357444, -0.228529051, -0.134083867, 0.451934755 , -0.009095139, -0.009165676, 2.63108182  , 1.17        , 3           , 11          , 0.008482438 , 0.00848242547
-0.101589963, 0.1017544   , -9.812478   , 0.000469716877, 0.000354329124, 0.00133252423, -0.228529051, -0.134083867, 0.451934755 , -0.009090563, -0.009162011, 2.63109517  , 1.18        , 3           , 12          , 0.0373449847, 0
-0.110060826, 0.0815044343, -9.79952    , 0.00125658233, -0.00182255066, 0.000273267418, -0.228529051, -0.133949041, 0.452137    , -0.009078024, -0.00918021053, 2.631098    , 1.19        , 3           , 50          , 0           , 0
-0.09724559 , 0.09307192  , -9.795307   , -0.0008967163, -0.000190874431, -1.57053164E-05, -0.228663877, -0.1342187  , 0.4522044   , -0.00919755 , -0.009232019, 2.631099    , 1.2         , 3           , 11          , 0.008402919 , 0.0084029045
-0.08814258 , 0.09389664  , -9.803821   , -0.001888673, 0.000435960566, -0.0005844131, -0.228529051, -0.1342187  , 0.451934755 , -0.009216382, -0.009227714, 2.63109326  , 1.21        , 3           , 12          , 0.03788143  , 0
-0.08028057 , 0.07214267  , -9.802947   , -4.66443453E-05, -0.000889060553, -0.00121362356, -0.228529051, -0.1342187  , 0.451934755 , -0.009216738, -0.009236715, 2.63108087  , 1.22        , 3           , 50          , 0           , 0
-0.0814690739, 0.08256231  , -9.81104851 , -0.00152374967, -0.00195495482, -0.000515820866, -0.228663877, -0.134016454, 0.452069581 , -0.009231929, -0.009256312, 2.631076    , 1.23        , 3           , 11          , 0.008402919 , 0.0084029045
-0.09698921 , 0.07951695  , -9.790841   , -0.000548250449, 0.000585813541, -0.0012842844, -0.228394225, -0.133949041, 0.452069581 , -0.009237292, -0.009250572, 2.63106322  , 1.24        , 3           , 12          , 0.03788143  , 0
-0.08225023 , 0.0920471251, -9.811014   , -0.00123494968, -0.003149694, 0.0002606296, -0.228394225, -0.1342861  , 0.451867342 , -0.009249668, -0.009282043, 2.631066    , 1.25        , 3           , 50          , 0           , 0
-0.06708774 , 0.08542932  , -9.774768   , -0.0005985847, -0.00342696416, -0.0005844535, -0.228394225, -0.1342861  , 0.451867342 , -0.009255602, -0.009316366, 2.63106084  , 1.26        , 3           , 11          , 0.008402919 , 0.0084029045
-0.0689962357, 0.102258846 , -9.807708   , -0.00151774718, -0.00301082036, 0.000824604766, -0.228529051, -0.1342861  , 0.452002168 , -0.009270859, -0.009346397, 2.631069    , 1.27        , 3           , 12          , 0.03788143  , 0
-0.06790444 , 0.09220722  , -9.774747   , -0.00026102984, -0.000256968924, -0.000224753647, -0.228529051, -0.134083867, 0.452002168 , -0.00927345 , -0.009348987, 2.63106656  , 1.28        , 3           , 50          , 0           , 0
-0.0589074  , 0.0782165155, -9.805018   , 0.000306774949, -0.000816278451, 5.95496567E-05, -0.228326812, -0.133881629, 0.452069581 , -0.009270388, -0.009357144, 2.63106751  , 1.29        , 3           , 11          , 0.008402919 , 0.0084029045
-0.0562267564, 0.1124502   , -9.7967205  , -0.000718901, -0.00109780976, 0.000761926 , -0.228326812, -0.133881629, 0.452069581 , -0.009243191, -0.0091219265, 2.63107514  , 1.3         , 3           , 12          , 0.0384582467, 0
-0.0764935762, 0.120811656 , -9.797293   , -0.0006635173, 0.00164791953, -0.00205888879, -0.228461638, -0.133949041, 0.452069581 , -0.009249637, -0.009105639, 2.63105416  , 1.31        , 3           , 50          , 0           , 0
-0.0792088062, 0.0927988142, -9.77709    , -0.00264216959, 0.002127292 , -0.0007252948, -0.228596464, -0.133881629, 0.4522044   , -0.009275991, -0.009084433, 2.631047    , 1.32        , 3           , 11          , 0.008365354 , 0.00836535
-0.102763169, 0.0877113044, -9.792207   , -0.00248344964, -0.00139131607, -0.0005887917, -0.2282594  , -0.134083867, 0.452002168 , -0.009300772, -0.0090984  , 2.63104129  , 1.33        , 3           , 12          , 0.0384582467, 0
-0.119011953, 0.0843735859, -9.8163     , -0.00156465778, -0.001666676, -0.001432558, -0.2282594  , -0.134083867, 0.452002168 , -0.009316291, -0.00911520049, 2.631027    , 1.34        , 3           , 50          , 0           , 0
-0.105462648, 0.08329368  , -9.810777   , -0.0007176035, -0.00159055425, -0.00121659576, -0.228529051, -0.133814216, 0.452002168 , -0.009323357, -0.009131217, 2.631015    , 1.35        , 3           , 11          , 0.008365354 , 0.00836535
-0.0939421654, 0.0726852641, -9.78271    , -0.002414993, -0.001038884, -0.00129426387, -0.228596464, -0.134016454, 0.4522044   , -0.00934739 , -0.009141727, 2.63100219  , 1.36        , 3           , 12          , 0.0384582467, 0
-0.0611683726, 0.08226263  , -9.792815   , 0.00118165952, 4.13417438E-05, 0.000348744768, -0.228596464, -0.134420931, 0.451934755 , -0.009335606, -0.00914128 , 2.63100553  , 1.37        , 3           , 50          , 0           , 0
-0.07202842 , 0.0815030262, -9.797421   , 0.00173763733, 0.00180494285, 7.15534043E-05, -0.228596464, -0.134420931, 0.451934755 , -0.00931823347, -0.009123225, 2.63100648  , 1.38        , 3           , 11          , 0.008365354 , 0.00836535
-0.08304316 , 0.110895745 , -9.777948   , -0.0006577854, 0.0008032317, 0.0006239156, -0.228529051, -0.13415128 , 0.452069581 , -0.009324869, -0.009115135, 2.6310122   , 1.39        , 3           , 12          , 0.0384582467, 0
-0.09408817 , 0.09436397  , -9.788045   , 0.000144786609, -0.00191436161, 0.0009064955, -0.228394225, -0.134083867, 0.451934755 , -0.009310122, -0.009028836, 2.63102174  , 1.4         , 3           , 50          , 0           , 0
-0.107510284, 0.09599331  , -9.822944   , -0.00191094191, -0.000449996063, -0.0005134613, -0.228529051, -0.134083867, 0.452069581 , -0.009329185, -0.009033384, 2.631017    , 1.41        , 3           , 11          , 0.008345694 , 0.008345688
-0.08631867 , 0.08585141  , -9.83276749 , 0.0031643766, 0.00127377384, -0.0004871529, -0.228529051, -0.134083867, 0.452069581 , -0.009297496, -0.009020691, 2.63101172  , 1.42        , 3           , 12          , 0.03907328  , 0
-0.0752371252, 0.0890964046, -9.763515   , 0.0009077502, 0.000695363851, -0.000498556241, -0.228461638, -0.1342187  , 0.452002168 , -0.00928837247, -0.009013784, 2.63100648  , 1.43        , 3           , 50          , 0           , 0
-0.08063191 , 0.0909769   , -9.767164   , 0.00287727872, 0.00211655675, -0.00133478048, -0.228663877, -0.133814216, 0.4522044   , -0.009259479, -0.008992743, 2.63099313  , 1.44        , 3           , 11          , 0.008345694 , 0.008345688
-0.08604272 , 0.08882727  , -9.779871   , 0.0006267172, 0.000411888846, -0.0005003071, -0.228461638, -0.13415128 , 0.451934755 , -0.009253165, -0.00898867 , 2.63098836  , 1.45        , 3           , 12          , 0.03907328  , 0
-0.107958063, 0.105376035 , -9.793981   , -0.003897436, 0.00122601911, -0.00249783858, -0.228461638, -0.13415128 , 0.451934755 , -0.009291916, -0.008976641, 2.630963    , 1.46        , 3           , 50          , 0           , 0
-0.0747811  , 0.118478693 , -9.780566   , 0.00146563386, 0.00210700929, -0.0004937527, -0.228529051, -0.134016454, 0.451934755 , -0.009277212, -0.008955617, 2.63095784  , 1.47        , 3           , 11          , 0.008345694 , 0.008345688
-0.07070144 , 0.08190799  , -9.78837    , -0.00106054731, -0.00100739487, 5.469636E-05, -0.228461638, -0.133814216, 0.4522044   , -0.009287823, -0.008965686, 2.6309588   , 1.48        , 3           , 12          , 0.03907328  , 0
-0.0892001  , 0.0799472854, -9.81157    , -0.00134239579, -0.00129087386, -0.00135974167, -0.228529051, -0.134016454, 0.452069581 , -0.009301127, -0.008978722, 2.630945    , 1.49        , 3           , 50          , 0           , 0
-0.0960078239, 0.086263    , -9.787642   , -0.00107859564, -0.000682252343, -0.00107444671, -0.228529051, -0.134016454, 0.452069581 , -0.009330334, -0.008935235, 2.630935    , 1.5         , 3           , 11          , 0.00832948647, 0.008329484
-0.08684249 , 0.09070902  , -9.799757   , -0.0005013591, -0.00321251876, -0.00135825563, -0.228529051, -0.13415128 , 0.451934755 , -0.009335231, -0.008967485, 2.6309216   , 1.51        , 3           , 12          , 0.0397243761, 0
-0.109617062, 0.08193817  , -9.795898   , -0.00164230715, -0.0006860668, 0.000900681654, -0.228529051, -0.134083867, 0.452069581 , -0.009351735, -0.008974262, 2.63093066  , 1.52        , 3           , 50          , 0           , 0
-0.101931654, 0.07826732  , -9.804443   , 0.00172476273, 0.00356032373, -0.00105476833, -0.228461638, -0.133949041, 0.452069581 , -0.00933439 , -0.0089387605, 2.63091969  , 1.53        , 3           , 11          , 0.00832948647, 0.008329484
-0.09276776 , 0.08583663  , -9.80614948 , 0.0017286184, 0.002715627 , -0.00162114529, -0.228461638, -0.133949041, 0.452069581 , -0.009316957, -0.008911755, 2.63090348  , 1.54        , 3           , 12          , 0.0397243761, 0
-0.08512534 , 0.114640377 , -9.810492   , 0.00146643433, -0.00094661914, 0.002044884 , -0.228461638, -0.1342187  , 0.451934755 , -0.009302473, -0.00892103 , 2.63092351  , 1.55        , 3           , 50          , 0           , 0
-0.0794925  , 0.09963642  , -9.796499   , -0.005873624, -0.00184097886, 3.15794168E-05, -0.228461638, -0.1342861  , 0.452137    , -0.009361213, -0.008939436, 2.63092446  , 1.56        , 3           , 11          , 0.00832948647, 0.008329484
-0.09065592 , 0.0767598152, -9.798036   , -0.00079519 , -0.00068033766, 0.000622094958, -0.228596464, -0.133814216, 0.452002168 , -0.009369222, -0.00894618 , 2.63093066  , 1.57        , 3           , 12          , 0.0397243761, 0
-0.0791818053, 0.0914816558, -9.787944   , 0.000614571269, -0.000389227353, -0.00106611114, -0.228596464, -0.133814216, 0.452002168 , -0.009362981, -0.008950173, 2.63091969  , 1.58        , 3           , 50          , 0           , 0
-0.0805478245, 0.08613519  , -9.803343   , 0.000904947054, -0.001795138, 0.0006282609, -0.228394225, -0.1342187  , 0.451867342 , -0.009353989, -0.008968065, 2.63092637  , 1.59        , 3           , 11          , 0.00832948647, 0.008329484
-0.07883106 , 0.0820203   , -9.793404   , -0.00190421706, -0.000108572567, -0.00051250984, -0.228394225, -0.133949041, 0.452002168 , -0.009344337, -0.008949862, 2.63092113  , 1.6         , 3           , 12          , 0.04040944  , 0
-0.0769757852, 0.08114209  , -9.806952   , 0.000913748052, 0.00075521227, -0.004171026, -0.228529051, -0.134016454, 0.452069581 , -0.009334825, -0.0089427  , 2.63087916  , 1.61        , 3           , 50          , 0           , 0
-0.09021416 , 0.107023224 , -9.808755   , -0.0035772156, -0.004343505, 0.0006032293, -0.228596464, -0.134083867, 0.452069581 , -0.009370654, -0.008986076, 2.63088536  , 1.62        , 3           , 11          , 0.008308092 , 0.00830808748
-0.0903422162, 0.1002242   , -9.799292   , -0.0021800003, -0.00151830958, -0.00108107156, -0.228596464, -0.134083867, 0.452069581 , -0.0093923565, -0.009001361, 2.63087487  , 1.63        , 3           , 12          , 0.04040944  , 0
-0.08521408 , 0.08562985  , -9.77129    , -0.0004987269, 0.00130880415, 6.131921E-05, -0.22873129 , -0.134016454, 0.451934755 , -0.009397349, -0.008988267, 2.63087583  , 1.64        , 3           , 50          , 0           , 0
-0.08780326 , 0.08665778  , -9.799328   , -0.001349448, 0.00186620117, -0.00107191352, -0.228461638, -0.134016454, 0.452137    , -0.009410746, -0.00896970648, 2.63086438  , 1.65        , 3           , 11          , 0.008308092 , 0.00830808748
-0.105063163, 0.07922801  , -9.810791   , -0.00162794476, 0.0013011666, 0.0009036639, -0.228461638, -0.134016454, 0.451867342 , -0.009427105, -0.008956612, 2.630874    , 1.66        , 3           , 12          , 0.04040944  , 0
-0.0879111141, 0.07942878  , -9.796195   , 0.000624662847, 0.002724273 , 0.00119890657, -0.228461638, -0.134016454, 0.451867342 , -0.009420964, -0.008929256, 2.63088536  , 1.67        , 3           , 50          , 0           , 0
-0.06887089 , 0.0854732543, -9.781561   , 0.00289383577, 0.0007685969, 0.00120640453, -0.228461638, -0.134016454, 0.452002168 , -0.009392131, -0.008921457, 2.63089728  , 1.68        , 3           , 11          , 0.008308092 , 0.00830808748
-0.0484659  , 0.07990188  , -9.805836   , 0.000641880441, -0.0006545059, 0.002041312 , -0.228461638, -0.133949041, 0.452069581 , -0.009385897, -0.00892781 , 2.63091779  , 1.69        , 3           , 12          , 0.04040944  , 0
-0.07804033 , 0.105499022 , -9.800531   , -0.00266125379, -0.001419354, -0.000518393, -0.228394225, -0.134353518, 0.451934755 , -0.009310361, -0.00881602149, 2.630912    , 1.7         , 3           , 50          , 0           , 0
-0.120328963, 0.09245734  , -9.800457   , -0.000126797619, 0.000287230825, 0.00119128777, -0.228394225, -0.134353518, 0.451934755 , -0.009311734, -0.008813038, 2.630924    , 1.71        , 3           , 11          , 0.008276137 , 0.008276129
-0.08031786 , 0.107299984 , -9.791502   , -0.00208582636, -0.00338648586, 0.0008938905, -0.228461638, -0.13415128 , 0.451934755 , -0.009332675, -0.008846818, 2.630933    , 1.72        , 3           , 12          , 0.04112641  , 0
-0.0926521  , 0.0935182944, -9.809733   , 0.000152766937, 0.0005706989, -0.00134979864, -0.228394225, -0.133949041, 0.452002168 , -0.009331025, -0.008841238, 2.63091969  , 1.73        , 3           , 50          , 0           , 0
-0.100545853, 0.08005901  , -9.805328   , 0.00185880624, -0.00167036033, -0.0007802934, -0.228461638, -0.1342861  , 0.451934755 , -0.009312371, -0.008858013, 2.630912    , 1.74        , 3           , 11          , 0.008276137 , 0.008276129
-0.112875648, 0.07743968  , -9.788712   , -0.000978987, 0.0008446209, -0.00248478237, -0.228461638, -0.1342861  , 0.451934755 , -0.009321939, -0.008849799, 2.63088727  , 1.75        , 3           , 12          , 0.04112641  , 0
-0.0788939148, 0.07259601  , -9.808358   , -0.0020971417, -0.001133966, 0.0006148245, -0.228529051, -0.134083867, 0.451934755 , -0.009342965, -0.008861081, 2.630893    , 1.76        , 3           , 50          , 0           , 0
-0.06344962 , 0.0764726251, -9.807321   , 0.0004310117, 0.00141730392, -0.00134717987, -0.2282594  , -0.1342187  , 0.452137    , -0.009338536, -0.008847034, 2.63087964  , 1.77        , 3           , 11          , 0.008276137 , 0.008276129
-0.08411397 , 0.0991673544, -9.775293   , -0.000680988654, -0.00196911185, 0.000337569829, -0.228461638, -0.1342861  , 0.451732516 , -0.009345379, -0.008866692, 2.63088346  , 1.78        , 3           , 12          , 0.04112641  , 0
-0.09644897 , 0.08181425  , -9.804838   , -0.0004121756, 0.000848450232, 0.0009083011, -0.228461638, -0.1342861  , 0.451732516 , -0.009349578, -0.008858122, 2.630892    , 1.79        , 3           , 50          , 0           , 0
-0.10991589 , 0.09099524  , -9.804452   , -0.00231729448, 0.000827085867, 5.07570257E-05, -0.228596464, -0.1342861  , 0.452002168 , -0.009280838, -0.008859996, 2.630892    , 1.8         , 3           , 11          , 0.008232299 , 0.008232293
-0.08986102 , 0.103366368 , -9.796111   , -0.00174670154, -0.000295353675, 0.000334192649, -0.228529051, -0.134016454, 0.451934755 , -0.009298335, -0.008862919, 2.630895    , 1.81        , 3           , 12          , 0.0418733172, 0
-0.06563138 , 0.08683183  , -9.794186   , 0.00333591318, 2.0592357E-05, 0.000923406333, -0.228394225, -0.133881629, 0.452002168 , -0.009265058, -0.008862628, 2.63090444  , 1.82        , 3           , 50          , 0           , 0
-0.08192232 , 0.08703075  , -9.796569   , 0.00249683415, -0.00167452835, 0.000634314551, -0.228394225, -0.133881629, 0.452002168 , -0.009240148, -0.008879312, 2.630911    , 1.83        , 3           , 11          , 0.008232299 , 0.008232293
-0.08561799 , 0.07853316  , -9.806125   , -0.00118315313, -0.000291539967, -0.00192347332, -0.2282594  , -0.134083867, 0.451867342 , -0.009251808, -0.008882406, 2.630892    , 1.84        , 3           , 12          , 0.0418733172, 0
-0.107395068, 0.08321667  , -9.781413   , -0.0006165792, -0.0005692836, -0.00135619822, -0.228461638, -0.133949041, 0.452137    , -0.009257852, -0.008888225, 2.63087869  , 1.85        , 3           , 50          , 0           , 0
-0.09068555 , 0.0745040551, -9.798045   , -0.0003535053, 0.00337453862, -0.00106626877, -0.228461638, -0.133949041, 0.452137    , -0.009261292, -0.008854579, 2.63086724  , 1.86        , 3           , 11          , 0.008232299 , 0.008232293
-0.09330942 , 0.07907467  , -9.806182   , -0.00400226051, -0.00115533033, -0.000242719354, -0.228461638, -0.133949041, 0.452137    , -0.009301295, -0.008866155, 2.63086534  , 1.87        , 3           , 12          , 0.0418733172, 0
-0.108549744, 0.0914319456, -9.804892   , -0.00117315771, -0.00198092265, 0.0008992978, -0.228529051, -0.133949041, 0.451867342 , -0.00931310747, -0.008885879, 2.630874    , 1.88        , 3           , 50          , 0           , 0
-0.0909113139, 0.09165463  , -9.798428   , -0.00341944769, -0.004811857, -0.0005282641, -0.228529051, -0.133949041, 0.451934755 , -0.009347259, -0.008934044, 2.63086915  , 1.89        , 3           , 11          , 0.008232299 , 0.008232293
-0.0830875039, 0.07120876  , -9.783989   , -0.00110439444, -0.00232533133, -0.000232446881, -0.228191987, -0.134016454, 0.452069581 , -0.009268581, -0.009040169, 2.63086677  , 1.9         , 3           , 12          , 0.04264823  , 0
-0.100370765, 0.09760854  , -9.791696   , 0.00368775544, -0.0003219032, 0.0009231282, -0.228191987, -0.134016454, 0.452069581 , -0.009231787, -0.009043302, 2.63087583  , 1.91        , 3           , 50          , 0           , 0
-0.10185191 , 0.0903833956, -9.784957   , -0.00225582765, 0.00189050077, -0.00164389319, -0.228529051, -0.13415128 , 0.451867342 , -0.009254195, -0.009024549, 2.63085961  , 1.92        , 3           , 11          , 0.008176252 , 0.008176242
-0.101290807, 0.09314394  , -9.802568   , -0.00167187268, -0.00176602032, 4.832435E-05, -0.228663877, -0.134016454, 0.452137    , -0.00927092 , -0.009042203, 2.63086     , 1.93        , 3           , 12          , 0.04264823  , 0
-0.076128915, 0.117610492 , -9.786004   , -0.00224615843, 0.000201116767, 0.000613803044, -0.228394225, -0.134016454, 0.452002168 , -0.009293438, -0.009040135, 2.63086629  , 1.94        , 3           , 50          , 0           , 0
-0.09524201 , 0.108828843 , -9.79161    , 0.0008412726, 0.00388246682, -0.00134383165, -0.228394225, -0.134016454, 0.452002168 , -0.0092849  , -0.00900143851, 2.630852    , 1.95        , 3           , 11          , 0.008176252 , 0.008176242
-0.0728391856, 0.08873208  , -9.797397   , -0.0008416468, 0.00161848892, -0.00050759234, -0.228394225, -0.134016454, 0.451867342 , -0.009293271, -0.008985302, 2.63084722  , 1.96        , 3           , 12          , 0.04264823  , 0
-0.0954370946, 0.0970656648, -9.781716   , -0.00111522013, -7.280923E-05, 0.0003360993, -0.228461638, -0.134016454, 0.451934755 , -0.009304453, -0.008985998, 2.63085055  , 1.97        , 3           , 50          , 0           , 0
-0.10348428 , 0.0976911038, -9.805279   , 1.49765983E-05, -6.516697E-05, 0.00118897948, -0.228326812, -0.133949041, 0.452069581 , -0.009304411, -0.008986538, 2.63086247  , 1.98        , 3           , 11          , 0.008176252 , 0.008176242
-0.0904074  , 0.09526155  , -9.799313   , -0.000836070743, 0.000492228544, -0.0005093281, -0.228326812, -0.133949041, 0.452069581 , -0.009312726, -0.008981664, 2.63085723  , 1.99        , 3           , 12          , 0.04264823  , 0
-0.09601628 , 0.08491711  , -9.789907   , -0.00257811346, 0.00127676514, 0.000331648916, -0.228529051, -0.13415128 , 0.451867342 , -0.009398531, -0.009035602, 2.630861    , 2           , 3           , 50          , 0           , 0
-0.084155634, 0.0906529352, -9.792503   , -0.00171624019, -0.00153315277, 0.00146141055, -0.228596464, -0.134083867, 0.452002168 , -0.009415828, -0.009050797, 2.63087583  , 2.01        , 3           , 11          , 0.008113555 , 0.008113543
-0.07924171 , 0.0860769153, -9.790678   , 0.0002665754, -0.002927614, -0.000509302947, -0.228461638, -0.134353518, 0.452069581 , -0.009413118, -0.009080118, 2.630871    , 2.02        , 3           , 12          , 0.0434493273, 0
-0.08960618 , 0.0902565047, -9.789836   , 0.00279423944, -0.000376346085, -0.00331892 , -0.228461638, -0.134016454, 0.451867342 , -0.009384875, -0.009084194, 2.63083768  , 2.03        , 3           , 50          , 0           , 0
-0.0942138  , 0.0857815146, -9.784917   , 0.0002524722, -0.000111963687, -0.0007875011, -0.228461638, -0.134016454, 0.451867342 , -0.009382278, -0.009085389, 2.63083     , 2.04        , 3           , 11          , 0.008113555 , 0.008113543
-0.06960582 , 0.09187107  , -9.802783   , -0.00227723829, -0.00238166936, 0.0008923997, -0.228461638, -0.1342861  , 0.452002168 , -0.009405134, -0.00910912 , 2.630839    , 2.05        , 3           , 12          , 0.0434493273, 0
-0.09660762 , 0.07141963  , -9.7994585  , -0.000881002, 0.0004435219, -0.002487126, -0.228326812, -0.1342187  , 0.452002168 , -0.009413717, -0.009104918, 2.63081431  , 2.06        , 3           , 50          , 0           , 0
-0.08009285 , 0.086578    , -9.802433   , -0.001150319, -0.00181089935, 0.0008985353, -0.228394225, -0.134353518, 0.451799929 , -0.009425304, -0.009122942, 2.63082337  , 2.07        , 3           , 11          , 0.008113555 , 0.008113543
-0.08329661 , 0.0932827   , -9.772599   , -0.000591367658, -0.000680820667, 0.00033782993, -0.228394225, -0.134353518, 0.451799929 , -0.00943125 , -0.009129718, 2.63082719  , 2.08        , 3           , 12          , 0.0434493273, 0
-0.09188336 , 0.08491613  , -9.803885   , 0.00250598462, 0.00102957466, -0.00134030485, -0.228461638, -0.134016454, 0.451799929 , -0.009406067, -0.009119551, 2.63081384  , 2.09        , 3           , 50          , 0           , 0
-0.08665762 , 0.103802979 , -9.802864   , -0.00367207523, 0.00326079037, 0.0006117871, -0.228529051, -0.13415128 , 0.452002168 , -0.00937824 , -0.009057376, 2.63081861  , 2.1         , 3           , 11          , 0.008037404 , 0.008037398
-0.0789674  , 0.104153194 , -9.799641   , 0.00113336288, 0.0024485644, 0.000632873154, -0.22873129 , -0.134353518, 0.451867342 , -0.009366964, -0.009032832, 2.63082528  , 2.11        , 3           , 12          , 0.04427486  , 0
-0.07943331 , 0.07654831  , -9.774447   , -0.00168696081, 0.00130319642, -0.00220740656, -0.22873129 , -0.134353518, 0.451867342 , -0.009383633, -0.009020007, 2.63080287  , 2.12        , 3           , 50          , 0           , 0
-0.103758171, 0.08273962  , -9.78636    , -0.0002775404, 0.00215744856, 0.00034331702, -0.228596464, -0.134083867, 0.451867342 , -0.009386437, -0.008998401, 2.63080621  , 2.13        , 3           , 11          , 0.008037404 , 0.008037398
-0.09455455 , 0.08855572  , -9.80344    , -0.0025250616, -0.00039192 , -0.0008012735, -0.228461638, -0.133881629, 0.451799929 , -0.009411617, -0.009002396, 2.630798    , 2.14        , 3           , 12          , 0.04427486  , 0
-0.110037066, 0.09357515  , -9.766476   , 0.00368094351, 0.00133949437, 0.0009255272, -0.2282594  , -0.134083867, 0.451732516 , -0.00937489 , -0.008988913, 2.63080716  , 2.15        , 3           , 50          , 0           , 0
-0.103445053, 0.107988954 , -9.781733   , -0.001121781, 0.00130701787, -0.00163969782, -0.2282594  , -0.134083867, 0.451732516 , -0.009385959, -0.008975997, 2.630791    , 2.16        , 3           , 11          , 0.008037404 , 0.008037398
-0.09941579 , 0.09629889  , -9.807965   , -0.000273521582, 0.00131275249, 5.94777557E-05, -0.228461638, -0.13367939 , 0.451799929 , -0.009388698, -0.008962867, 2.63079143  , 2.17        , 3           , 12          , 0.04427486  , 0
-0.08273584 , 0.09559663  , -9.791569   , 0.00197499315, 0.003298983 , -0.00190471148, -0.228394225, -0.1342187  , 0.452069581 , -0.009368776, -0.008930055, 2.63077188  , 2.18        , 3           , 50          , 0           , 0
-0.08968081 , 0.09019603  , -9.771756   , 0.00171380257, -0.000926402165, -0.00134746241, -0.228394225, -0.134016454, 0.451867342 , -0.009351519, -0.008939445, 2.63075852  , 2.19        , 3           , 11          , 0.008037404 , 0.008037398
-0.111889437, 0.0806188658, -9.798182   , -0.00311228028, 0.0009615142, -0.00193220167, -0.228394225, -0.134016454, 0.451867342 , -0.009404295, -0.009004937, 2.63073945  , 2.2         , 3           , 12          , 0.0451231562, 0
-0.09613802 , 0.106615484 , -9.801118   , -0.00283124764, 0.00124498922, -0.00193045079, -0.228326812, -0.134083867, 0.451867342 , -0.009432434, -0.008992668, 2.63072038  , 2.21        , 3           , 50          , 0           , 0
-0.08106307 , 0.08742894  , -9.783906   , 0.000845135539, 0.000425126753, -0.0007844825, -0.228596464, -0.134083867, 0.451867342 , -0.009423912, -0.008988491, 2.63071227  , 2.22        , 3           , 11          , 0.007955115 , 0.007955104
-0.106432341, 0.0899476   , -9.773694   , 0.0005713991, -0.00126617216, -0.000223328025, -0.228326812, -0.13415128 , 0.451799929 , -0.009418179, -0.009001174, 2.63071     , 2.23        , 3           , 12          , 0.0451231562, 0
-0.08335276 , 0.08029304  , -9.800676   , -0.002262464, 0.0006856845, 4.907741E-05, -0.228326812, -0.13415128 , 0.451799929 , -0.009440808, -0.008994311, 2.63071084  , 2.24        , 3           , 50          , 0           , 0
-0.08923844 , 0.08616512  , -9.78216648 , -0.0002751399, -0.00155347027, -0.00135786273, -0.228596464, -0.13415128 , 0.451799929 , -0.009443438, -0.009009974, 2.630697    , 2.25        , 3           , 11          , 0.007955115 , 0.007955104
-0.08192497 , 0.09104577  , -9.782994   , -0.00197618152, -0.000157102331, -0.000515982159, -0.228529051, -0.133881629, 0.451799929 , -0.009463155, -0.009011594, 2.63069177  , 2.26        , 3           , 12          , 0.0451231562, 0
-0.07078417 , 0.0733603   , -9.795637   , -0.00225221645, -0.00128526893, 0.0008936523, -0.228394225, -0.13415128 , 0.451934755 , -0.009485759, -0.009024362, 2.6307013   , 2.27        , 3           , 50          , 0           , 0
-0.0785432  , 0.0707225949, -9.78938    , -0.00197618152, -0.000157102331, -0.000515982159, -0.228394225, -0.13415128 , 0.451934755 , -0.009505473, -0.009025982, 2.63069558  , 2.28        , 3           , 11          , 0.007955115 , 0.007955104
-0.104725517, 0.077344    , -9.788649   , -0.000852302066, 0.00125836837, 0.00146921747, -0.228394225, -0.134083867, 0.451867342 , -0.009514128, -0.009013259, 2.63071036  , 2.29        , 3           , 12          , 0.0451231562, 0
-0.0823904648, 0.0838991851, -9.802914   , 0.00149188354, 0.00267118658, -0.000214186992, -0.228529051, -0.133949041, 0.4522044   , -0.00935636647, -0.009002387, 2.630707    , 2.3         , 3           , 50          , 0           , 0
-0.103316844, 0.06710276  , -9.833879   , 0.001228157 , -0.00127263879, -0.00163426658, -0.228461638, -0.134016454, 0.451934755 , -0.009343938, -0.009015265, 2.63069081  , 2.31        , 3           , 11          , 0.007867097 , 0.007867094
-0.120210171, 0.06673944  , -9.801466   , 0.000951142865, -0.00240080943, -0.00191985664, -0.228461638, -0.134016454, 0.451934755 , -0.009334256, -0.009039451, 2.63067174  , 2.32        , 3           , 12          , 0.0459926538, 0
-0.07609768 , 0.08691175  , -9.78161049 , 0.000956467 , -0.00324549922, 5.66037779E-05, -0.228529051, -0.134083867, 0.4516651   , -0.009324699, -0.0090719  , 2.63067269  , 2.33        , 3           , 50          , 0           , 0
-0.07860778 , 0.09916254  , -9.792878   , -0.0004646837, -0.0015656621, -0.00107752706, -0.228529051, -0.134083867, 0.451867342 , -0.009329249, -0.009087656, 2.6306622   , 2.34        , 3           , 11          , 0.007867097 , 0.007867094
-0.10972406 , 0.0982922763, -9.827923   , -0.000190457751, 0.000125639315, -0.000791068946, -0.228394225, -0.1342187  , 0.451732516 , -0.009331082, -0.009086473, 2.630654    , 2.35        , 3           , 12          , 0.0459926538, 0
-0.0879148841, 0.1043472   , -9.825924   , 0.0015064762, -0.000144461257, 0.0009116234, -0.228394225, -0.1342187  , 0.451732516 , -0.009316101, -0.009087833, 2.63066316  , 2.36        , 3           , 50          , 0           , 0
-0.10361892 , 0.08954771  , -9.79853249 , -0.00188223063, -0.0004489506, -0.0007998385, -0.2282594  , -0.133881629, 0.4516651   , -0.00933485 , -0.009092397, 2.63065553  , 2.37        , 3           , 11          , 0.007867097 , 0.007867094
-0.082260564, 0.09828764  , -9.78839    , -0.00301382132, -0.000175027817, -0.00165228476, -0.228529051, -0.134016454, 0.452002168 , -0.009364839, -0.009094303, 2.63063836  , 2.38        , 3           , 12          , 0.0459926538, 0
-0.0626792163, 0.105291083 , -9.792279   , -0.00273943227, 0.00151627418, -0.00108328927, -0.228326812, -0.134016454, 0.451799929 , -0.009392134, -0.009079241, 2.63062787  , 2.39        , 3           , 50          , 0           , 0
-0.08725898 , 0.09699265  , -9.788433   , -0.00527210627, -0.00102245726, 0.000596381 , -0.228326812, -0.134016454, 0.451799929 , -0.009451889, -0.009069341, 2.630634    , 2.4         , 3           , 11          , 0.00777499657, 0.00777499657
-0.08662431 , 0.07846215  , -9.781727   , -0.000196787048, 0.0007013127, 0.0006226894, -0.228394225, -0.1342187  , 0.451732516 , -0.009453912, -0.009062271, 2.63064027  , 2.41        , 3           , 12          , 0.04688186  , 0
-0.08501853 , 0.0929299146, -9.795666   , -0.00103094324, -0.002120072, -0.0007982879, -0.228461638, -0.133881629, 0.452002168 , -0.00946415 , -0.009083546, 2.63063264  , 2.42        , 3           , 50          , 0           , 0
-0.09232168 , 0.0893966854, -9.793024   , 0.001217972 , 0.000147731553, 0.00034586867, -0.228394225, -0.133814216, 0.451732516 , -0.009452003, -0.009082036, 2.6306355   , 2.43        , 3           , 11          , 0.00777499657, 0.00777499657
-0.107862279, 0.07115883  , -9.816721   , -0.00161113078, 0.0009733239, -0.000796148553, -0.2282594  , -0.1342187  , 0.4515977   , -0.0094680395, -0.009072378, 2.63062787  , 2.44        , 3           , 12          , 0.04688186  , 0
-0.1170684  , 0.09963555  , -9.799499   , -0.0007588527, 0.000134362548, 0.0006191877, -0.2282594  , -0.1342187  , 0.4515977   , -0.009475684, -0.009070976, 2.630634    , 2.45        , 3           , 50          , 0           , 0
-0.105179094, 0.08136583  , -9.775528   , -0.00132607925, 0.000412102963, -0.00107823708, -0.228394225, -0.13415128 , 0.451867342 , -0.009488847, -0.009066955, 2.630623    , 2.46        , 3           , 11          , 0.00777499657, 0.00777499657
-0.107878312, 0.074716635 , -9.80134    , -0.000189401937, -0.0009880826, -0.00107513892, -0.228394225, -0.134016454, 0.451867342 , -0.009490645, -0.009076939, 2.63061261  , 2.47        , 3           , 12          , 0.04688186  , 0
-0.072324954, 0.0936864   , -9.796469   , -0.000476262678, 0.0001362733, 0.000903042033, -0.228326812, -0.13415128 , 0.4515977   , -0.00949549 , -0.009075491, 2.63062167  , 2.48        , 3           , 50          , 0           , 0
-0.08418405 , 0.08750546  , -9.795681   , 0.0012218277, -0.00069696526, -0.000220507834, -0.228326812, -0.13415128 , 0.4515977   , -0.009483253, -0.00908248 , 2.63061929  , 2.49        , 3           , 11          , 0.00777499657, 0.00777499657
-0.09972631 , 0.07462247  , -9.801729   , 0.000706848339, -0.00157737941, -0.001637821, -0.228596464, -0.134083867, 0.4516651   , -0.009398723, -0.009151405, 2.630603    , 2.5         , 3           , 12          , 0.0477893725, 0
-0.0978380442, 0.08314435  , -9.793092   , -0.00072489056, 0.00263655325, 0.000622403 , -0.228663877, -0.1342187  , 0.451934755 , -0.009406027, -0.009124981, 2.6306088   , 2.51        , 3           , 50          , 0           , 0
-0.09034307 , 0.0766411   , -9.764134   , -0.00466459943, -0.000205835648, 0.00116470153, -0.228191987, -0.133949041, 0.451732516 , -0.009452781, -0.00912693 , 2.63062024  , 2.52        , 3           , 11          , 0.007680798 , 0.007680793
-0.081722796, 0.07476877  , -9.774019   , -0.0023914827, -0.0032877794, -0.001654911, -0.228191987, -0.133949041, 0.451732516 , -0.009476546, -0.009159964, 2.630604    , 2.53        , 3           , 12          , 0.0477893725, 0
-0.08624384 , 0.07393474  , -9.778578   , 0.0007046241, -0.000732674845, 0.00175393058, -0.228529051, -0.133881629, 0.451732516 , -0.009469661, -0.009167124, 2.63062167  , 2.54        , 3           , 50          , 0           , 0
-0.09977011 , 0.07592602  , -9.786809   , 0.003234498 , 0.00153703149, 0.0003565668, -0.228191987, -0.133949041, 0.451799929 , -0.009437346, -0.00915172 , 2.630625    , 2.55        , 3           , 11          , 0.007680798 , 0.007680793
-0.08803272 , 0.07888389  , -9.768176   , -0.000159948147, 0.002358802 , -0.00163569674, -0.228461638, -0.13415128 , 0.451732516 , -0.009438795, -0.009128287, 2.6306088   , 2.56        , 3           , 12          , 0.0477893725, 0
-0.08099165 , 0.09328937  , -9.782525   , 0.00126694189, -0.0004472953, -0.000220763992, -0.228461638, -0.13415128 , 0.451732516 , -0.009426106, -0.009132782, 2.63060641  , 2.57        , 3           , 50          , 0           , 0
-0.104425281, 0.09008509  , -9.821137   , 0.00126603711, -0.000165727863, 0.0006272822, -0.228191987, -0.134083867, 0.451530278 , -0.009413502, -0.009134379, 2.63061261  , 2.58        , 3           , 11          , 0.007680798 , 0.007680793
-0.08970873 , 0.0749974847, -9.813855   , 0.00182031689, 0.00180904381, -0.000779733644, -0.228529051, -0.134083867, 0.451732516 , -0.009395226, -0.009116363, 2.630605    , 2.59        , 3           , 12          , 0.0477893725, 0
-0.087335676, 0.0915743038, -9.7871     , -0.000355367141, 0.000928410562, -0.0005098979, -0.228596464, -0.13415128 , 0.451799929 , -0.009261806, -0.009142732, 2.63059831  , 2.6         , 3           , 50          , 0           , 0
-0.09084164 , 0.100191735 , -9.787996   , 0.00331699755, 0.000953244045, 0.000919909449, -0.228596464, -0.13415128 , 0.451799929 , -0.009228719, -0.00913311448, 2.63060784  , 2.61        , 3           , 11          , 0.00758416951, 0.007584165
-0.09518829 , 0.08082646  , -9.784042   , 0.005293169 , 0.0009666099, -0.0004835592, -0.228394225, -0.133949041, 0.451799929 , -0.009175741, -0.009123494, 2.630603    , 2.62        , 3           , 12          , 0.0487138741, 0
-0.09326006 , 0.08536358  , -9.79802    , 0.00106480462, -0.000751431566, -0.00107099186, -0.228461638, -0.1337468  , 0.4516651   , -0.009164996, -0.009131107, 2.630592    , 2.63        , 3           , 50          , 0           , 0
-0.105456054, 0.08463806  , -9.80806    , -0.00203796034, -0.001335566, 0.0008914162, -0.228326812, -0.13415128 , 0.451867342 , -0.00918546 , -0.00914438 , 2.63060117  , 2.64        , 3           , 11          , 0.00758416951, 0.007584165
-0.07332192 , 0.08603501  , -9.798768   , -0.00317152333, -0.0004985089, 0.00145252538, -0.228326812, -0.13415128 , 0.451867342 , -0.009217309, -0.009149232, 2.63061547  , 2.65        , 3           , 12          , 0.0487138741, 0
-0.104779065, 0.0755152   , -9.781425   , -0.00259354548, -0.00331034372, 3.81323625E-05, -0.228394225, -0.134083867, 0.4515977   , -0.009243251, -0.00918233 , 2.63061643  , 2.66        , 3           , 50          , 0           , 0
-0.110401504, 0.094544746 , -9.785006   , -0.00146883586, -0.00245801243, -0.00136798527, -0.228326812, -0.133881629, 0.451867342 , -0.009257814, -0.00920703448, 2.630603    , 2.67        , 3           , 11          , 0.00758416951, 0.007584165
-0.07135552 , 0.0968519747, -9.801871   , -0.0006411602, 0.00177119963, 0.0009027742, -0.2282594  , -0.133949041, 0.451799929 , -0.009264307, -0.009189239, 2.63061166  , 2.68        , 3           , 12          , 0.0487138741, 0
-0.0888050348, 0.117760845 , -9.786551   , -0.00175978988, -0.0007705328, -0.00164923607, -0.2282594  , -0.133949041, 0.451799929 , -0.00928175449, -0.009197097, 2.63059545  , 2.69        , 3           , 50          , 0           , 0
-0.0841338  , 0.09245603  , -9.792045   , -0.000368595531, 0.00176292076, -0.000508563651, -0.228529051, -0.134083867, 0.4515977   , -0.00930156652, -0.0091977315, 2.63059068  , 2.7         , 3           , 11          , 0.007487545 , 0.007487536
-0.09729858 , 0.089458175 , -9.793965   , 0.00163634669, -0.00357343885, 0.00203524739, -0.228326812, -0.1342861  , 0.452069581 , -0.009285393, -0.009233276, 2.63061166  , 2.71        , 3           , 12          , 0.0496541224, 0
-0.0948916748, 0.09624271  , -9.807027   , -0.001762118, -0.00190697249, 0.000326822774, -0.228326812, -0.133949041, 0.451732516 , -0.009303046, -0.009252315, 2.63061452  , 2.72        , 3           , 50          , 0           , 0
-0.102340668, 0.0845570043, -9.794929   , 0.000502219831, -0.00301795662, -0.000794527237, -0.228326812, -0.133949041, 0.451732516 , -0.009297954, -0.009282566, 2.630607    , 2.73        , 3           , 11          , 0.007487545 , 0.007487536
-0.100128889, 0.08716628  , -9.773657   , -0.000937468, 0.002603797 , -0.000227358236, -0.2282594  , -0.1342861  , 0.451732516 , -0.009307304, -0.009256551, 2.630605    , 2.74        , 3           , 12          , 0.0496541224, 0
-0.0930678  , 0.09578541  , -9.811535   , -0.000365154934, 0.00119979377, 0.00062071823, -0.228461638, -0.133881629, 0.452002168 , -0.009311014, -0.009244494, 2.6306107   , 2.75        , 3           , 50          , 0           , 0
-0.07513854 , 0.08114199  , -9.813266   , -0.00149075442, 6.588656E-05, -0.00192912249, -0.228326812, -0.134083867, 0.452002168 , -0.009325743, -0.009244017, 2.63059163  , 2.76        , 3           , 11          , 0.007487545 , 0.007487536
-0.09399436 , 0.100242533 , -9.792088   , 0.00301453541, 0.00319367065, 0.001204634 , -0.228326812, -0.134083867, 0.452002168 , -0.009295705, -0.00921197 , 2.630603    , 2.77        , 3           , 12          , 0.0496541224, 0
-0.07769805 , 0.102279723 , -9.783819   , 0.0018847537, 0.00290445867, -0.00134390488, -0.228529051, -0.13415128 , 0.451867342 , -0.009276732, -0.009183051, 2.63058972  , 2.78        , 3           , 50          , 0           , 0
-0.07031993 , 0.106320053 , -9.803182   , 0.00217480329, 0.00149854633, -0.000214607688, -0.2282594  , -0.133881629, 0.451934755 , -0.009254962, -0.009168086, 2.63058734  , 2.79        , 3           , 11          , 0.007487545 , 0.007487536
-0.06942375 , 0.0787022337, -9.778881   , 0.00214936724, 0.0003956057, 0.0014794569, -0.228461638, -0.134083867, 0.451934755 , -0.009292891, -0.009120804, 2.630603    , 2.8         , 3           , 12          , 0.0506089628, 0
-0.0923101753, 0.0898523554, -9.794378   , -0.000110700232, 0.0003803228, 0.00033877138, -0.228461638, -0.134083867, 0.451934755 , -0.009294028, -0.009116968, 2.63060641  , 2.81        , 3           , 50          , 0           , 0
-0.110816389, 0.08520742  , -9.824369   , 0.00159034133, -0.00101604511, -0.000503108837, -0.228394225, -0.13415128 , 0.451867342 , -0.00927808 , -0.009127175, 2.63060117  , 2.82        , 3           , 11          , 0.00739095546, 0.00739094429
-0.102617882, 0.09764873  , -9.79578    , 0.00214469573, 0.00124029862, 0.0006331462, -0.228461638, -0.134083867, 0.451799929 , -0.009256691, -0.009114714, 2.63060784  , 2.83        , 3           , 12          , 0.0506089628, 0
-0.06808287 , 0.0853673741, -9.75308    , -0.00182182621, 0.0037476446, 0.000618614547, -0.228326812, -0.134083867, 0.4516651   , -0.0092749605, -0.009077182, 2.63061357  , 2.84        , 3           , 50          , 0           , 0
-0.07997124 , 0.0697893649, -9.775383   , -0.000121185192, 0.002069703 , -0.00333161186, -0.228326812, -0.134083867, 0.4516651   , -0.009275869, -0.009056794, 2.63058019  , 2.85        , 3           , 11          , 0.00739095546, 0.00739094429
-0.109348439, 0.09733174  , -9.812104   , -0.00010421966, -0.00102750491, -0.000511010468, -0.228461638, -0.13415128 , 0.451732516 , -0.009276866, -0.009067115, 2.630575    , 2.86        , 3           , 12          , 0.0506089628, 0
-0.07944948 , 0.102349363 , -9.798296   , 0.000182062882, -0.00187029154, -0.00107607036, -0.228529051, -0.13367939 , 0.451867342 , -0.009274949, -0.009085918, 2.630564    , 2.87        , 3           , 50          , 0           , 0
-0.08427668 , 0.0883231   , -9.770367   , 0.00186268357, 0.000956818752, -0.0010638294, -0.228596464, -0.134016454, 0.451934755 , -0.009256223, -0.009076448, 2.63055348  , 2.88        , 3           , 11          , 0.00739095546, 0.00739094429
-0.0854205042, 0.0961008444, -9.79791451 , -0.00152562221, 0.000933903037, 0.000333054631, -0.228326812, -0.134353518, 0.451732516 , -0.009271511, -0.009067078, 2.63055682  , 2.89        , 3           , 12          , 0.0506089628, 0
-0.08758459 , 0.105135322 , -9.793374   , 0.000159224233, 0.00151783752, -0.0016357787, -0.228326812, -0.134353518, 0.451732516 , -0.009280867, -0.00903412 , 2.63054013  , 2.9         , 3           , 50          , 0           , 0
-0.107917376, 0.112550616 , -9.780844   , -0.000418590527, 0.00432967348, 6.115153E-05, -0.228394225, -0.134016454, 0.451799929 , -0.009285055, -0.00899082 , 2.630541    , 2.91        , 3           , 11          , 0.0072950623, 0.00729505159
-0.09326959 , 0.0799996555, -9.812957   , -0.00124963233, 0.0009451598, -0.0007956187, -0.228663877, -0.134016454, 0.452002168 , -0.009297479, -0.008981443, 2.6305325   , 2.92        , 3           , 12          , 0.0515772924, 0
-0.08365993 , 0.0906823948, -9.802896   , -0.0009699936, 0.0015102   , -0.0007934339, -0.228461638, -0.1342861  , 0.451799929 , -0.009307107, -0.008966415, 2.63052487  , 2.93        , 3           , 50          , 0           , 0
-0.09804296 , 0.100758165 , -9.797089   , 0.0018687041, -0.00128634879, 6.30082941E-05, -0.228461638, -0.1342861  , 0.451799929 , -0.00928842649, -0.008979273, 2.63052535  , 2.94        , 3           , 11          , 0.0072950623, 0.00729505159
-0.088328585, 0.0843725652, -9.788946   , 0.0007409691, -0.00185712252, -0.00135581451, -0.228461638, -0.133881629, 0.451799929 , -0.009280897, -0.008997968, 2.630512    , 2.95        , 3           , 12          , 0.0515772924, 0
-0.0817960352, 0.09650644  , -9.796982   , 0.0010081362, 0.00152357528, 0.00119354681, -0.228529051, -0.133881629, 0.451934755 , -0.009270921, -0.008982622, 2.630524    , 2.96        , 3           , 50          , 0           , 0
-0.110766165, 0.0977459252, -9.796294   , 0.000456658832, -0.00157746987, -0.00220431 , -0.228326812, -0.13415128 , 0.4516651   , -0.009266158, -0.008998601, 2.630502    , 2.97        , 3           , 11          , 0.0072950623, 0.00729505159
-0.106031686, 0.09257814  , -9.752437   , -0.00322113279, 8.710117E-05, 0.00145416067, -0.228326812, -0.13415128 , 0.4516651   , -0.009298499, -0.008997595, 2.63051629  , 2.98        , 3           , 12          , 0.0515772924, 0
-0.0853332952, 0.108222969 , -9.780236   , -0.000128941727, 0.00264218752, -0.00191789749, -0.228529051, -0.133881629, 0.451867342 , -0.009299614, -0.008971352, 2.63049722  , 2.99        , 3           , 50          , 0           , 0
-0.08378665 , 0.12085741  , -9.785596   , 0.000136207687, -0.000205775112, 0.0003394179, -0.228529051, -0.133881629, 0.451732516 , -0.00936279 , -0.00904129352, 2.630501    , 3           , 3           , 11          , 0.007200055 , 0.007200044
-0.0745825246, 0.09728893  , -9.786528   , -0.00156384031, 0.000627454 , -0.00192748161, -0.228326812, -0.134016454, 0.451934755 , -0.00937825348, -0.009035201, 2.630482    , 3.01        , 3           , 12          , 0.052558098 , 0
-0.09648124 , 0.0835735053, -9.791271   , -0.0010016117, 0.0011944049, -0.0016414423, -0.228326812, -0.134016454, 0.451934755 , -0.009388121, -0.00902341 , 2.63046527  , 3.02        , 3           , 50          , 0           , 0
-0.09802622 , 0.108359709 , -9.776717   , 0.0001411311, -0.00133203878, -0.0007924675, -0.2282594  , -0.134016454, 0.451934755 , -0.009386638, -0.00903680548, 2.63045716  , 3.03        , 3           , 11          , 0.007200055 , 0.007200044
-0.09162568 , 0.07314762  , -9.793989   , 0.00351663912, 0.00150653347, -0.000207249977, -0.228529051, -0.133949041, 0.451867342 , -0.009351451, -0.00902176 , 2.63045526  , 3.04        , 3           , 12          , 0.052558098 , 0
-0.07459776 , 0.08924229  , -9.808708   , -0.00297334976, 5.47732525E-05, -0.0022174716, -0.228461638, -0.134016454, 0.451732516 , -0.009380986, -0.009021419, 2.63043332  , 3.05        , 3           , 50          , 0           , 0
-0.07683327 , 0.09241633  , -9.805548   , -0.001552777, -0.00134349545, 0.000329780567, -0.228461638, -0.134016454, 0.451732516 , -0.009396544, -0.009034823, 2.63043666  , 3.06        , 3           , 11          , 0.007200055 , 0.007200044
-0.09906507 , 0.09442547  , -9.788987   , 0.000140879143, -0.00105046807, 0.0011857287, -0.228461638, -0.133881629, 0.4516651   , -0.009395242, -0.009045215, 2.63044858  , 3.07        , 3           , 12          , 0.052558098 , 0
-0.07348062 , 0.08322833  , -9.76895    , 0.003523283 , 9.870646E-05, -0.000774494663, -0.228326812, -0.13415128 , 0.451867342 , -0.009359939, -0.009044301, 2.630441    , 3.08        , 3           , 50          , 0           , 0
-0.074760735, 0.08821752  , -9.772103   , 0.000143755969, -0.00189516926, -0.00107587292, -0.228461638, -0.134083867, 0.4516651   , -0.009358407, -0.009063353, 2.63043046  , 3.09        , 3           , 11          , 0.007200055 , 0.007200044
-0.0763840452, 0.06257681  , -9.78985    , -0.000430783257, 0.000377704855, 0.000903018052, -0.228461638, -0.134083867, 0.4516651   , -0.009362146, -0.009009936, 2.63043952  , 3.1         , 3           , 12          , 0.05355042  , 0
-0.07715066 , 0.104136474 , -9.800982   , -0.00239522476, -0.00216975063, 0.0008898942, -0.2282594  , -0.13415128 , 0.4516651   , -0.009386181, -0.009031549, 2.63044858  , 3.11        , 3           , 50          , 0           , 0
-0.09516102 , 0.112465262 , -9.799729   , -0.00212288252, -0.000196886685, 0.0003291736, -0.228596464, -0.13415128 , 0.4516651   , -0.009407439, -0.009033488, 2.630452    , 3.12        , 3           , 11          , 0.00710720755, 0.00710720243
-0.103707135, 0.08367367  , -9.795846   , -0.0004382427, 0.00178552791, 5.757529E-05, -0.228326812, -0.1342187  , 0.4515977   , -0.009411825, -0.00901563 , 2.63045239  , 3.13        , 3           , 12          , 0.05355042  , 0
-0.0999523252, 0.0940046   , -9.794871   , -0.00183783076, -0.000758107635, 4.70851955E-05, -0.228326812, -0.1342187  , 0.4515977   , -0.009430209, -0.009023204, 2.63045287  , 3.14        , 3           , 50          , 0           , 0
-0.09228381 , 0.0876419544, -9.807946   , 0.003228798 , 0.00265505118, -0.000489077531, -0.228461638, -0.1342861  , 0.451867342 , -0.009397875, -0.008996701, 2.63044763  , 3.15        , 3           , 11          , 0.00710720755, 0.00710720243
-0.0682693  , 0.09005203  , -9.803233   , -0.0004294636, -0.000185432335, -0.001640687, -0.228596464, -0.133814216, 0.451934755 , -0.009402021, -0.00899871 , 2.63043141  , 3.16        , 3           , 12          , 0.05355042  , 0
-0.0657348558, 0.08049908  , -9.789242   , 0.000694504532, 0.000948467 , -0.001916221, -0.228394225, -0.133949041, 0.4516651   , -0.009394903, -0.008989406, 2.63041234  , 3.17        , 3           , 50          , 0           , 0
-0.0826080739, 0.07702759  , -9.771758   , 0.00294595584, 0.00293471129, 0.00120526424, -0.228394225, -0.133949041, 0.4516651   , -0.009365548, -0.008959946, 2.63042378  , 3.18        , 3           , 11          , 0.00710720755, 0.00710720243
-0.08870742 , 0.09113306  , -9.785306   , 0.00295227347, 0.00152688252, 7.294456E-05, -0.228191987, -0.133949041, 0.451530278 , -0.009336032, -0.00894467 , 2.63042474  , 3.19        , 3           , 12          , 0.05355042  , 0
-0.09672938 , 0.100705937 , -9.786231   , 0.00184423034, 0.0006945153, -0.00134622725, -0.228596464, -0.1342861  , 0.451799929 , -0.009278736, -0.008895554, 2.63041139  , 3.2         , 3           , 50          , 0           , 0
-0.116575584, 0.105911568 , -9.789074   , -0.00153399166, -0.0012993546, 0.00061269413, -0.228326812, -0.13415128 , 0.451799929 , -0.009294132, -0.00890849 , 2.630417    , 3.21        , 3           , 11          , 0.00701557146, 0.007015562
-0.09088938 , 0.0961359   , -9.789369   , 0.00156122516, 0.00097417424, 6.557687E-05, -0.228326812, -0.13415128 , 0.451799929 , -0.009278525, -0.008898742, 2.630418    , 3.22        , 3           , 12          , 0.0545533746, 0
-0.0778379142, 0.0869904757, -9.798799   , 0.00184479367, 0.0009760897, 0.00204465631, -0.228326812, -0.134353518, 0.4516651   , -0.009260259, -0.008888794, 2.630438    , 3.23        , 3           , 50          , 0           , 0
-0.08654955 , 0.0736128762, -9.815643   , 0.0004521015, -0.003256943, -0.0005112746, -0.228394225, -0.1342187  , 0.451799929 , -0.009255693, -0.008921409, 2.63043332  , 3.24        , 3           , 11          , 0.00701557146, 0.007015562
-0.103559345, 0.09450583  , -9.797156   , -0.000124230486, -0.00100824435, -0.001075512, -0.228461638, -0.134016454, 0.451934755 , -0.009256842, -0.008931591, 2.63042283  , 3.25        , 3           , 12          , 0.0545533746, 0
-0.09913035 , 0.08678462  , -9.797606   , -0.004928601, -0.0004775851, -0.00166210684, -0.228461638, -0.134016454, 0.451934755 , -0.009305979, -0.008936522, 2.63040614  , 3.26        , 3           , 50          , 0           , 0
-0.07779959 , 0.08077264  , -9.828204   , 0.003257269 , 0.0004224977, -0.002187689, -0.228326812, -0.134083867, 0.4515977   , -0.009273211, -0.008932499, 2.63038421  , 3.27        , 3           , 11          , 0.00701557146, 0.007015562
-0.08874284 , 0.0835164   , -9.801156   , 0.0009934201, 0.00153348374, -0.00021872636, -0.228461638, -0.13415128 , 0.451732516 , -0.009263254, -0.00891718548, 2.63038182  , 3.28        , 3           , 12          , 0.0545533746, 0
-0.0907576457, 0.07533833  , -9.777702   , -0.00041822443, 0.00152393617, 0.0006223012, -0.2282594  , -0.134016454, 0.451799929 , -0.009267492, -0.0089018885, 2.630388    , 3.29        , 3           , 50          , 0           , 0
-0.110358492, 0.0972577   , -9.786801   , 0.000175897818, 0.000950799265, -0.0013540244, -0.228596464, -0.133949041, 0.4515977   , -0.009205251, -0.008922686, 2.63037419  , 3.3         , 3           , 11          , 0.006926172 , 0.00692616357
-0.09830911 , 0.111180782 , -9.80925    , -0.004053045, -0.000485673285, -0.0005283356, -0.228596464, -0.133949041, 0.4515977   , -0.009245735, -0.008927591, 2.630369    , 3.31        , 3           , 12          , 0.05556612  , 0
-0.05230862 , 0.106919    , -9.775922   , 0.00103556109, -0.0015775573, -0.00163651665, -0.228529051, -0.134083867, 0.451799929 , -0.009235234, -0.008943518, 2.63035274  , 3.32        , 3           , 50          , 0           , 0
-0.087262705, 0.09698964  , -9.787529   , -0.00179641857, 9.27366054E-05, -0.0005169322, -0.228461638, -0.134083867, 0.451799929 , -0.009253152, -0.008942638, 2.63034749  , 3.33        , 3           , 11          , 0.006926172 , 0.00692616357
-0.0732275844, 0.09771657  , -9.784256   , -0.00011005842, 0.00179358758, -0.000223889539, -0.228461638, -0.1342187  , 0.451732516 , -0.009254232, -0.008924724, 2.630345    , 3.34        , 3           , 12          , 0.05556612  , 0
-0.08564293 , 0.08520819  , -9.778526   , 0.00215714215, 0.000401045982, 0.00119716348, -0.228461638, -0.1342187  , 0.451732516 , -0.009232766, -0.0089206025, 2.630357    , 3.35        , 3           , 50          , 0           , 0
-0.09009396 , 0.08576996  , -9.795733   , -0.000389697263, 0.00122854754, -0.000226074349, -0.228326812, -0.133949041, 0.4516651   , -0.009236642, -0.008908339, 2.63035464  , 3.36        , 3           , 11          , 0.006926172 , 0.00692616357
-0.08286553 , 0.08656453  , -9.788895   , -0.00120909768, -0.004408484, -0.00023870384, -0.228326812, -0.1342187  , 0.451934755 , -0.009248715, -0.00895244349, 2.63035274  , 3.37        , 3           , 12          , 0.05556612  , 0
-0.08632958 , 0.09387688  , -9.804259   , -0.0009447929, -0.0007462279, -0.000231745755, -0.228394225, -0.1342187  , 0.451799929 , -0.009258142, -0.008959928, 2.63035035  , 3.38        , 3           , 50          , 0           , 0
-0.08014071 , 0.08743192  , -9.787968   , -0.000947091437, -0.000183095457, 0.0006167344, -0.228394225, -0.1342187  , 0.451799929 , -0.009267668, -0.008961702, 2.63035655  , 3.39        , 3           , 11          , 0.006926172 , 0.00692616357
-0.08629439 , 0.103725113 , -9.781166   , 0.0015874001, 0.0009752703, -0.0007821708, -0.228529051, -0.1342187  , 0.4515977   , -0.009253896, -0.008918412, 2.630349    , 3.4         , 3           , 12          , 0.0565878674, 0
-0.102135375, 0.102577358 , -9.787169   , -0.000393606635, 0.00180659653, -0.0005075501, -0.2282594  , -0.134083867, 0.451867342 , -0.009257786, -0.008900394, 2.63034368  , 3.41        , 3           , 50          , 0           , 0
-0.10208144 , 0.0723433942, -9.786841   , 0.0007404458, 0.0009695419, -0.000221046692, -0.228596464, -0.1342187  , 0.451799929 , -0.009250361, -0.00889072 , 2.63034129  , 3.42        , 3           , 11          , 0.00683806837, 0.00683805533
-0.10364    , 0.09131603  , -9.787678   , -0.00179319468, -0.0007370389, -0.0005180402, -0.228596464, -0.1342187  , 0.451799929 , -0.00926824752, -0.008898138, 2.630336    , 3.43        , 3           , 12          , 0.0565878674, 0
-0.106390826, 0.08551773  , -9.79812    , 0.003285565 , 0.000423603953, 0.00063755014, -0.228461638, -0.1342187  , 0.451867342 , -0.009235448, -0.008893843, 2.63034272  , 3.44        , 3           , 50          , 0           , 0
-0.09146747 , 0.08800538  , -9.784888   , 0.00300732  , -0.0004230012, 0.0006349314, -0.228326812, -0.133949041, 0.451934755 , -0.009205432, -0.008898014, 2.630349    , 3.45        , 3           , 11          , 0.00683806837, 0.00683805533
-0.10857784 , 0.0887310952, -9.80671    , 0.00245296583, -0.0026793452, -0.0005013237, -0.228529051, -0.134083867, 0.451934755 , -0.009180859, -0.008924852, 2.63034415  , 3.46        , 3           , 12          , 0.0565878674, 0
-0.105950125, 0.08684167  , -9.790878   , 0.0007437233, 0.0004064142, 0.0006256977, -0.228529051, -0.134083867, 0.451934755 , -0.009173479, -0.008920731, 2.63035035  , 3.47        , 3           , 50          , 0           , 0
-0.0800436139, 0.09777665  , -9.778431   , 0.000456625 , 0.00124919717, -0.0002219297, -0.228326812, -0.13415128 , 0.451732516 , -0.00916889 , -0.008908261, 2.63034844  , 3.48        , 3           , 11          , 0.00683806837, 0.00683805533
-0.09775269 , 0.08767703  , -9.7994     , 0.00157961447, 0.002383092 , -0.00219268864, -0.228394225, -0.133814216, 0.451799929 , -0.009152899, -0.008884632, 2.630326    , 3.49        , 3           , 12          , 0.0565878674, 0
-0.09821217 , 0.0912477   , -9.786282   , -0.0006598601, -0.00189502607, 5.0290153E-05, -0.228529051, -0.134083867, 0.451799929 , -0.009164752, -0.008994946, 2.63032746  , 3.5         , 3           , 50          , 0           , 0
-0.09470028 , 0.0830814242, -9.785385   , 0.000741774566, 0.0003670475, 0.00119049626, -0.228529051, -0.134083867, 0.451799929 , -0.00915744 , -0.008991167, 2.630339    , 3.51        , 3           , 11          , 0.00675203325, 0.00675202068
-0.112599231, 0.09328591  , -9.80536652 , 0.000180124072, -0.000481472263, -0.0005086641, -0.228326812, -0.133881629, 0.451732516 , -0.009155594, -0.008996028, 2.63033414  , 3.52        , 3           , 12          , 0.0576179028, 0
-0.108297832, 0.07430255  , -9.810836   , -0.00208626059, 0.000911073235, -0.0005170299, -0.228461638, -0.134083867, 0.451799929 , -0.00917641 , -0.008986966, 2.63032842  , 3.53        , 3           , 50          , 0           , 0
-0.0784835145, 0.0783589   , -9.779405   , -0.00208758027, 0.00147421041, 0.002026675 , -0.228191987, -0.1342187  , 0.451732516 , -0.009197468, -0.008972038, 2.630349    , 3.54        , 3           , 11          , 0.00675203325, 0.00675202068
-0.105588667, 0.08944047  , -9.76013    , 0.00269843079, 0.004322325 , -0.000206897312, -0.228191987, -0.1342187  , 0.451732516 , -0.009170461, -0.008928834, 2.63034654  , 3.55        , 3           , 12          , 0.0576179028, 0
-0.0981664062, 0.09262383  , -9.793056   , -0.00208519283, 0.000629506656, -0.00108253886, -0.228461638, -0.134016454, 0.4515977   , -0.009191215, -0.008922639, 2.630335    , 3.56        , 3           , 50          , 0           , 0
-0.062359523, 0.09669727  , -9.78734    , -0.000940729748, -0.00217850017, 0.0003310768, -0.228596464, -0.133881629, 0.451934755 , -0.009200653, -0.008944393, 2.630339    , 3.57        , 3           , 11          , 0.00675203325, 0.00675202068
-0.06287761 , 0.09664968  , -9.771525   , 0.0004554177, 0.000928262132, -0.0007877149, -0.228394225, -0.134083867, 0.451934755 , -0.009196028, -0.008935184, 2.63033128  , 3.58        , 3           , 12          , 0.0576179028, 0
-0.08023822 , 0.07396239  , -9.807459   , -0.0009431915, -0.00161536864, 0.0008970195, -0.228394225, -0.134083867, 0.451934755 , -0.009205542, -0.008951254, 2.63033986  , 3.59        , 3           , 50          , 0           , 0
-0.07564464 , 0.07708695  , -9.813286   , 0.000188266742, 8.65585462E-05, -0.00107286638, -0.2282594  , -0.1342187  , 0.451934755 , -0.009176667, -0.008938765, 2.63032937  , 3.6         , 3           , 11          , 0.00666897139, 0.006668952
-0.08113262 , 0.08157002  , -9.785739   , 0.00019072846, -0.000476573128, -0.00163880922, -0.228461638, -0.133949041, 0.451799929 , -0.009174613, -0.008943681, 2.63031316  , 3.61        , 3           , 12          , 0.05865553  , 0
-0.0881326348, 0.102385357 , -9.778927   , -0.00264223013, 0.001193716 , -0.00221445 , -0.228461638, -0.13415128 , 0.451867342 , -0.009200836, -0.008931948, 2.63029122  , 3.62        , 3           , 50          , 0           , 0
-0.100898489, 0.0895188451, -9.799417   , -0.00124075857, 0.00345578883, -0.00135678134, -0.228461638, -0.13415128 , 0.451867342 , -0.00921312 , -0.008897516, 2.630277    , 3.63        , 3           , 11          , 0.00666897139, 0.006668952
-0.0755286  , 0.09548134  , -9.78247452 , 0.000747870654, 0.00121664023, -0.000503421761, -0.228394225, -0.134083867, 0.4516651   , -0.009205595, -0.008885398, 2.63027215  , 3.64        , 3           , 12          , 0.05865553  , 0
-0.07945864 , 0.072510615 , -9.781244   , 0.00160056411, 9.610917E-05, -0.000783744152, -0.228529051, -0.134083867, 0.451934755 , -0.009189519, -0.008884508, 2.630264    , 3.65        , 3           , 50          , 0           , 0
-0.08770846 , 0.0938762054, -9.799298   , 0.00129952584, 0.00375454267, -0.00162703253, -0.2282594  , -0.13415128 , 0.451867342 , -0.009176376, -0.008847114, 2.63024735  , 3.66        , 3           , 11          , 0.00666897139, 0.006668952
-0.08720291 , 0.0997162   , -9.793394   , -0.00235259556, 6.937352E-05, 0.000610506046, -0.2282594  , -0.13415128 , 0.451867342 , -0.009199956, -0.008846364, 2.63025355  , 3.67        , 3           , 12          , 0.05865553  , 0
-0.101919182, 0.08765079  , -9.777287   , 0.00413576141, 0.0015211259, -0.00020464712, -0.228461638, -0.1342861  , 0.4515977   , -0.009158579, -0.008831171, 2.63025117  , 3.68        , 3           , 50          , 0           , 0
-0.08965656 , 0.09021568  , -9.777633   , 0.003583291 , -0.0010167805, -0.0004937239, -0.228461638, -0.133881629, 0.451799929 , -0.009122704, -0.008841384, 2.6302464   , 3.69        , 3           , 11          , 0.00666897139, 0.006668952
-0.06946019 , 0.07733366  , -9.774368   , -0.000367449044, -0.0018954858, -0.000513441744, -0.228461638, -0.134353518, 0.451934755 , -0.009128656, -0.008878258, 2.630242    , 3.7         , 3           , 12          , 0.0597001165, 0
-0.114572585, 0.0882658958, -9.7818985  , 0.000466544 , 0.0009258978, 0.0006249981, -0.228326812, -0.134083867, 0.451732516 , -0.009124045, -0.008868943, 2.63024831  , 3.71        , 3           , 50          , 0           , 0
-0.09526036 , 0.0740728   , -9.788137   , 0.00188023516, 0.0006538835, 0.0009136863, -0.228326812, -0.134083867, 0.451732516 , -0.009105323, -0.008862321, 2.63025737  , 3.72        , 3           , 11          , 0.00658746064, 0.006587446
-0.101182975, 0.0651854   , -9.808107   , 0.00160166423, -0.000192723324, 0.0003459926, -0.228394225, -0.134083867, 0.451799929 , -0.009089338, -0.008864217, 2.63026071  , 3.73        , 3           , 12          , 0.0597001165, 0
-0.0898401  , 0.0713202357, -9.793531   , 0.000178704286, 0.002050249 , 0.0009079544, -0.228529051, -0.13415128 , 0.451799929 , -0.009087629, -0.008843633, 2.63026929  , 3.74        , 3           , 50          , 0           , 0
-0.08285698 , 0.0905886143, -9.778031   , 0.000197819711, -0.00217323564, -0.00220646686, -0.228529051, -0.134016454, 0.451732516 , -0.009085457, -0.008865565, 2.63024783  , 3.75        , 3           , 11          , 0.00658746064, 0.006587446
-0.1004657  , 0.09529987  , -9.775886   , 0.000466796 , 0.0006443274, -0.001353198, -0.228529051, -0.134016454, 0.451732516 , -0.00908067 , -0.008859245, 2.630234    , 3.76        , 3           , 12          , 0.0597001165, 0
-0.101667263, 0.105708919 , -9.780825   , -0.00207332522, 0.0003455741, -0.000800409354, -0.228394225, -0.13415128 , 0.451867342 , -0.009101331, -0.008855862, 2.63022637  , 3.77        , 3           , 50          , 0           , 0
-0.09058435 , 0.0777104944, -9.812494   , 0.00047646524, -0.001045057, 0.00090449804, -0.228326812, -0.1342861  , 0.451934755 , -0.009096648, -0.00886623 , 2.630235    , 3.78        , 3           , 11          , 0.00658746064, 0.006587446
-0.08998248 , 0.09032381  , -9.808369   , 0.00160879735, -0.00160054793, 0.0006263604, -0.228394225, -0.134083867, 0.451732516 , -0.009080617, -0.008882177, 2.63024163  , 3.79        , 3           , 12          , 0.0597001165, 0
-0.09776157 , 0.0907942653, -9.787184   , 0.00160572771, 0.0006292885, -0.00050054543, -0.228394225, -0.134083867, 0.451732516 , -0.009042414, -0.00893325452, 2.63023686  , 3.8         , 3           , 50          , 0           , 0
-0.0992014557, 0.0813708   , -9.797629   , -0.001509005, 0.002297671 , 5.264662E-05, -0.228326812, -0.134016454, 0.451732516 , -0.009057507, -0.008910276, 2.63023686  , 3.81        , 3           , 11          , 0.00650875829, 0.006508746
-0.0803024843, 0.102848947 , -9.809599   , 0.004696021 , 0.00402908027, 8.422279E-05, -0.2282594  , -0.134353518, 0.4516651   , -0.00901055 , -0.008869978, 2.63023782  , 3.82        , 3           , 12          , 0.06075105  , 0
-0.06183521 , 0.10523057  , -9.777357   , 0.00105735  , -0.00247174175, 0.00146980979, -0.228596464, -0.134353518, 0.4516651   , -0.00900010951, -0.008894562, 2.6302526   , 3.83        , 3           , 50          , 0           , 0
-0.07613925 , 0.08107552  , -9.790222   , -0.00176478282, -0.00305397483, 0.000325622445, -0.228596464, -0.134353518, 0.4516651   , -0.00901779 , -0.00892507 , 2.630256    , 3.84        , 3           , 11          , 0.00650875829, 0.006508746
-0.0892648548, 0.07810941  , -9.801635   , -0.00248757773, 0.000320031162, 0.000327537447, -0.228461638, -0.134083867, 0.451799929 , -0.009042693, -0.00892184 , 2.63025928  , 3.85        , 3           , 12          , 0.06075105  , 0
-0.0917966962, 0.09123527  , -9.804764   , -0.00220724172, 0.0007442888, 0.000329505245, -0.228394225, -0.134016454, 0.451799929 , -0.009064794, -0.008914368, 2.63026261  , 3.86        , 3           , 50          , 0           , 0
-0.117741853, 0.0860715359, -9.789165   , 0.000204248863, -0.0013512125, 0.00104378827, -0.228394225, -0.134016454, 0.4516651   , -0.009062846, -0.008927784, 2.630273    , 3.87        , 3           , 11          , 0.00650875829, 0.006508746
-0.111321539, 0.09008016  , -9.795877   , 0.0013396953, -0.00246983231, 0.00132985786, -0.228394225, -0.134016454, 0.4516651   , -0.009049569, -0.008952361, 2.63028646  , 3.88        , 3           , 12          , 0.06075105  , 0
-0.103966065, 0.103921831 , -9.778137   , 0.0009125701, -0.00176878425, 0.00132896728, -0.2287987  , -0.134083867, 0.4516651   , -0.009040565, -0.008969928, 2.63029981  , 3.89        , 3           , 50          , 0           , 0
-0.08739506 , 0.0919725448, -9.77128    , 0.00105213153, -0.00334897451, 0.000903299137, -0.228124574, -0.13415128 , 0.4516651   , -0.009053674, -0.009087843, 2.6303103   , 3.9         , 3           , 11          , 0.00643150043, 0.006431481
-0.0719103739, 0.0949891657, -9.782902   , 0.0006214842, -0.00208480028, -0.000368142035, -0.2282594  , -0.134083867, 0.4516651   , -0.009047428, -0.009108724, 2.63030648  , 3.91        , 3           , 12          , 0.06180778  , 0
-0.114833832, 0.08753371  , -9.831171   , 0.00103167375, 0.0007337175, 0.000485785218, -0.2282594  , -0.134083867, 0.4516651   , -0.009037154, -0.009101343, 2.63031125  , 3.92        , 3           , 50          , 0           , 0
-0.104484625, 0.0828954   , -9.829755   , 0.00187850208, 0.0008802311, 0.0009137592, -0.228461638, -0.134016454, 0.4515977   , -0.009018453, -0.009092459, 2.63032031  , 3.93        , 3           , 11          , 0.00643150043, 0.006431481
-0.09601657 , 0.07688256  , -9.815702   , 0.00216347212, 0.000319009763, 0.000490402 , -0.228394225, -0.133881629, 0.451934755 , -0.008996861, -0.009089224, 2.63032556  , 3.94        , 3           , 12          , 0.06180778  , 0
-0.08021872 , 0.08022711  , -9.792066   , 0.0020288208, -0.00108977244, -0.000218769856, -0.228461638, -0.13415128 , 0.451934755 , -0.008976554, -0.009100142, 2.63032317  , 3.95        , 3           , 50          , 0           , 0
-0.0850817338, 0.09064694  , -9.78753948 , -0.0006565253, -0.00082635635, -0.001784803, -0.228461638, -0.13415128 , 0.451934755 , -0.008982957, -0.009108565, 2.63030553  , 3.96        , 3           , 11          , 0.00643150043, 0.006431481
-0.08481919 , 0.07531155  , -9.790314   , -0.00165137381, 0.0004340011, -0.00192872831, -0.228394225, -0.134083867, 0.4516651   , -0.00899929553, -0.009104399, 2.63028646  , 3.97        , 3           , 12          , 0.06180778  , 0
-0.0987797156, 0.08223303  , -9.787227   , -0.002066487, -0.00125825347, -0.00165076985, -0.228461638, -0.134083867, 0.451867342 , -0.009019811, -0.00911713 , 2.63026977  , 3.98        , 3           , 50          , 0           , 0
-0.0897856951, 0.07939864  , -9.780842   , -0.00122142362, -0.000689390756, -0.0006570699, -0.228461638, -0.133949041, 0.451799929 , -0.009031966, -0.00912408251, 2.63026357  , 3.99        , 3           , 11          , 0.00643150043, 0.006431481
-0.09299588 , 0.07226126  , -9.794004   , 0.00118678121, 0.0010065164, -0.00120848871, -0.228461638, -0.133949041, 0.451799929 , -0.008976594, -0.009140029, 2.63025117  , 4           , 3           , 12          , 0.0628697947, 0
-0.09132327 , 0.0939247757, -9.801132   , 0.00175651384, 2.485864E-05, -0.00120737357, -0.228326812, -0.134016454, 0.451867342 , -0.008958919, -0.009139889, 2.63023925  , 4.01        , 3           , 50          , 0           , 0
-0.08095695 , 0.08974669  , -9.802427   , 0.000490509439, -0.000828428, 5.681693E-05, -0.228461638, -0.13415128 , 0.451732516 , -0.008954021, -0.009148167, 2.63023973  , 4.02        , 3           , 11          , 0.00635636039, 0.006356337
-0.11396759 , 0.09240106  , -9.805832   , -0.0007830734, -0.000414677983, -0.0009373396, -0.228394225, -0.134083867, 0.4516651   , -0.008961765, -0.00915239751, 2.63023019  , 4.03        , 3           , 12          , 0.0628697947, 0
-0.08289719 , 0.114138477 , -9.803244   , 0.0002059915, -0.00040799033, 5.615093E-05, -0.228394225, -0.134083867, 0.4516651   , -0.00895971153, -0.009156472, 2.63023114  , 4.04        , 3           , 50          , 0           , 0
-0.0727265  , 0.09998213  , -9.788763   , 0.000350274844, -0.000829378259, 0.00175138342, -0.228461638, -0.133949041, 0.451530278 , -0.008956369, -0.009164609, 2.63024831  , 4.05        , 3           , 11          , 0.00635636039, 0.006356337
-0.0819342956, 0.0910382   , -9.780734   , 0.00119743659, -0.000964434759, 0.000342429819, -0.228461638, -0.134016454, 0.4516651   , -0.008944427, -0.009174222, 2.63025212  , 4.06        , 3           , 12          , 0.0628697947, 0
-0.08511289 , 0.08883629  , -9.78574    , 6.723985E-05, -0.000972076959, -0.0005104503, -0.228326812, -0.134353518, 0.4516651   , -0.008943709, -0.009183989, 2.63024735  , 4.07        , 3           , 50          , 0           , 0
-0.109734342, 0.07202342  , -9.799105   , -0.00106599694, -0.000135018519, 0.0006157336, -0.228326812, -0.134353518, 0.4516651   , -0.008954424, -0.00918528251, 2.630253    , 4.08        , 3           , 11          , 0.00635636039, 0.006356337
-0.110838667, 0.08786747  , -9.810348   , 0.001483838 , -0.001666435, 0.00119027426, -0.227989748, -0.13415128 , 0.4515977   , -0.008939697, -0.0092018405, 2.63026547  , 4.09        , 3           , 12          , 0.0628697947, 0
-0.101834692, 0.0935218   , -9.779068   , 0.000917581 , -0.00196578936, 0.000339517 , -0.228191987, -0.133949041, 0.451732516 , -0.008936862, -0.009259693, 2.63026929  , 4.1         , 3           , 50          , 0           , 0
-0.08505082 , 0.1022771   , -9.75766    , -0.0016350419, 0.000128757471, -0.000234155785, -0.228394225, -0.133814216, 0.4515977   , -0.00895319 , -0.009258429, 2.630267    , 4.11        , 3           , 11          , 0.006283084 , 0.00628305227
-0.09760404 , 0.104758784 , -9.780797   , -0.00234250282, 0.000405547558, -0.000237014159, -0.228394225, -0.133814216, 0.4515977   , -0.008976594, -0.009254392, 2.63026452  , 4.12        , 3           , 12          , 0.06393658  , 0
-0.099751696, 0.0781727061, -9.784088   , -0.00290579954, 0.000120163328, 4.24553727E-05, -0.2282594  , -0.134083867, 0.4516651   , -0.00900565647, -0.009253187, 2.630265    , 4.13        , 3           , 50          , 0           , 0
-0.0864092857, 0.0996148437, -9.76627    , -0.00135113951, -0.000150897264, -9.200405E-05, -0.228394225, -0.133881629, 0.4515977   , -0.009019159, -0.009254704, 2.630264    , 4.14        , 3           , 11          , 0.006283084 , 0.00628305227
-0.08020637 , 0.111853838 , -9.804138   , 0.0006263822, -0.000278310821, -0.000365539832, -0.2282594  , -0.134083867, 0.451867342 , -0.009012861, -0.00925752 , 2.63026071  , 4.15        , 3           , 12          , 0.06393658  , 0
-0.0910023153, 0.112038851 , -9.821395   , -0.00121316628, 0.0005539715, 0.000333545468, -0.228394225, -0.13415128 , 0.451799929 , -0.009025023, -0.009251951, 2.63026357  , 4.16        , 3           , 50          , 0           , 0
-0.091257   , 0.09531754  , -9.812879   , -0.00192214723, 0.001253112 , 0.001320219 , -0.228394225, -0.13415128 , 0.451799929 , -0.009044367, -0.0092393  , 2.630277    , 4.17        , 3           , 11          , 0.006283084 , 0.00628305227
-0.100499079, 0.07518706  , -9.832468   , -7.882473E-05, -0.000423867372, -8.651182E-05, -0.2282594  , -0.133949041, 0.451530278 , -0.009045146, -0.009243547, 2.630276    , 4.18        , 3           , 12          , 0.06393658  , 0
-0.08682537 , 0.09116924  , -9.802465   , -7.660774E-05, -0.0009870002, -0.00107626081, -0.228394225, -0.134083867, 0.451867342 , -0.009045814, -0.009253515, 2.63026547  , 4.19        , 3           , 50          , 0           , 0
-0.0852171  , 0.114119694 , -9.789703   , 0.0006093819, -0.0001417067, -0.0005064143, -0.2282594  , -0.1342187  , 0.451530278 , -0.009085214, -0.009266713, 2.63026071  , 4.2         , 3           , 11          , 0.006212037 , 0.006212
-0.107962132, 0.1049264   , -9.7944355  , 0.0006095079, -0.000282492, -0.00149551232, -0.2282594  , -0.1342187  , 0.451530278 , -0.00907897949, -0.009269674, 2.6302464   , 4.21        , 3           , 12          , 0.0650077   , 0
-0.07941141 , 0.105951034 , -9.79602051 , -0.0002402343, 0.000274909835, -0.0009335204, -0.228394225, -0.133881629, 0.451732516 , -0.009081296, -0.00926701 , 2.63023686  , 4.22        , 3           , 50          , 0           , 0
-0.08221504 , 0.101895332 , -9.787923   , 0.00216104626, 0.0002911477, 0.00020782341, -0.228326812, -0.133881629, 0.451867342 , -0.009059705, -0.009264081, 2.63023877  , 4.23        , 3           , 11          , 0.006212037 , 0.006212
-0.08188126 , 0.08706402  , -9.806513   , 0.00117161067, 0.000425244129, -0.000220375034, -0.228326812, -0.13415128 , 0.451732516 , -0.009047967, -0.009259847, 2.63023686  , 4.24        , 3           , 12          , 0.0650077   , 0
-0.09328769 , 0.07819959  , -9.81432152 , -0.000949252455, 0.000833264261, -0.00121848227, -0.228326812, -0.13415128 , 0.451732516 , -0.009057347, -0.009251625, 2.63022447  , 4.25        , 3           , 50          , 0           , 0
-0.09698427 , 0.07862825  , -9.794912   , 0.001031465 , 0.0001427225, -0.0007865425, -0.228394225, -0.1342187  , 0.4515977   , -0.009046959, -0.009250269, 2.63021636  , 4.26        , 3           , 11          , 0.006212037 , 0.006212
-0.09319104 , 0.0930074453, -9.790304   , 0.00159930694, -0.00027580082, 0.0007693964, -0.228394225, -0.133949041, 0.451934755 , -0.009031037, -0.009252958, 2.63022447  , 4.27        , 3           , 12          , 0.0650077   , 0
-0.104694039, 0.0796012655, -9.789091   , -0.0006546132, -0.00141734129, 0.0006158565, -0.228529051, -0.134016454, 0.451732516 , -0.009037641, -0.009267075, 2.63023019  , 4.28        , 3           , 50          , 0           , 0
-0.09778338 , 0.08140324  , -9.812082   , -0.00150308013, -0.001282291, -0.000235489671, -0.228529051, -0.134016454, 0.451732516 , -0.00905265 , -0.009279919, 2.63022828  , 4.29        , 3           , 11          , 0.006212037 , 0.006212
-0.086323   , 0.0952212662, -9.801541   , -0.00179583044, 0.000677508244, -0.000375016971, -0.228461638, -0.133881629, 0.451732516 , -0.009071961, -0.009299781, 2.630225    , 4.3         , 3           , 12          , 0.06608271  , 0
-0.0821708  , 0.103716575 , -9.792888   , -0.0008063135, 0.00054341217, 0.000194450244, -0.228326812, -0.133814216, 0.451867342 , -0.009080041, -0.00929433 , 2.63022685  , 4.31        , 3           , 50          , 0           , 0
-0.0624046326, 0.09621437  , -9.777852   , 0.00159796292, -0.000144264937, 0.0004870969, -0.228394225, -0.134016454, 0.451732516 , -0.009064107, -0.009295728, 2.63023162  , 4.32        , 3           , 11          , 0.006142717 , 0.00614269031
-0.07524743 , 0.0877490044, -9.765329   , 0.00258699083, -0.000278363354, 0.0002089518, -0.228394225, -0.134016454, 0.451732516 , -0.009038256, -0.009298492, 2.630234    , 4.33        , 3           , 12          , 0.06608271  , 0
-0.07635383 , 0.09823516  , -9.793317   , 0.00102782238, 0.0008373909, -0.000220361748, -0.2282594  , -0.13415128 , 0.4515977   , -0.009027956, -0.009290138, 2.63023162  , 4.34        , 3           , 50          , 0           , 0
-0.09911281 , 0.09036964  , -9.7903595  , -0.000105206986, 0.00153366441, 5.79927255E-05, -0.228394225, -0.133949041, 0.451867342 , -0.009029013, -0.009274797, 2.630232    , 4.35        , 3           , 11          , 0.006142717 , 0.00614269031
-0.0908787251, 0.0979299247, -9.786197   , 0.00258477335, 0.000284769485, 0.00119870075, -0.228529051, -0.134083867, 0.451799929 , -0.009003276, -0.009271841, 2.630244    , 4.36        , 3           , 12          , 0.06608271  , 0
-0.08368583 , 0.08842966  , -9.803809   , 0.00216392125, -0.0002812256, 0.00119585753, -0.228529051, -0.134083867, 0.451799929 , -0.00898174848, -0.009274545, 2.630256    , 4.37        , 3           , 50          , 0           , 0
-0.0755063  , 0.0928213149, -9.796497   , 0.000323519867, 0.0004102668, -0.0007893801, -0.2282594  , -0.134016454, 0.4515977   , -0.008978439, -0.009270514, 2.63024831  , 4.38        , 3           , 11          , 0.006142717 , 0.00614269031
-0.0847649947, 0.07803358  , -9.794821   , 0.00201599  , 0.0008440741, -0.000780827657, -0.228394225, -0.133881629, 0.451867342 , -0.008958206, -0.009262142, 2.6302402   , 4.39        , 3           , 12          , 0.06608271  , 0
-0.09018787 , 0.0772132   , -9.800289   , 0.00230098376, -0.00110650749, 0.000206640383, -0.228394225, -0.13415128 , 0.452002168 , -0.008958117, -0.009218765, 2.630243    , 4.4         , 3           , 50          , 0           , 0
-0.06579532 , 0.0768793   , -9.786093   , -9.722694E-05, -0.00154508825, 0.0007598705, -0.228394225, -0.13415128 , 0.452002168 , -0.008959161, -0.009234148, 2.63025069  , 4.41        , 3           , 11          , 0.006075424 , 0.006075395
-0.0753677338, 0.06354861  , -9.813792   , -0.0006692138, -0.000141083452, 0.000476869 , -0.228191987, -0.134083867, 0.4515977   , -0.00896589551, -0.009235516, 2.63025546  , 4.42        , 3           , 12          , 0.067161195 , 0
-0.0888535455, 0.07494604  , -9.801645   , 0.00173071737, 1.59338251E-05, 0.000488279882, -0.228461638, -0.133949041, 0.451732516 , -0.008948634, -0.009235313, 2.63026023  , 4.43        , 3           , 50          , 0           , 0
-0.104008526, 0.09942392  , -9.782225   , 0.003698644 , 0.00185947656, 0.000500319 , -0.228326812, -0.134016454, 0.451799929 , -0.008911692, -0.009216675, 2.630265    , 4.44        , 3           , 11          , 0.006075424 , 0.006075395
-0.07870248 , 0.0946223   , -9.78431    , 0.00257016742, 0.00157027086, 0.000212079816, -0.228326812, -0.134016454, 0.451799929 , -0.00888600852, -0.009200954, 2.63026738  , 4.45        , 3           , 12          , 0.067161195 , 0
-0.07467029 , 0.08695175  , -9.798323   , 0.000178637638, -0.000135350783, 0.001469701 , -0.228461638, -0.134016454, 0.451462865 , -0.008884356, -0.009202177, 2.63028169  , 4.46        , 3           , 50          , 0           , 0
-0.115817122, 0.08837406  , -9.809479   , -0.00179174356, -0.00169733365, -0.000378398021, -0.2282594  , -0.133881629, 0.4516651   , -0.008902241, -0.009219183, 2.63027787  , 4.47        , 3           , 11          , 0.006075424 , 0.006075395
-0.09240331 , 0.08486702  , -9.787619   , 0.000753872 , -0.002524841, -0.00107419107, -0.2282594  , -0.13415128 , 0.4516651   , -0.008894606, -0.009244526, 2.63026738  , 4.48        , 3           , 12          , 0.067161195 , 0
-0.08856184 , 0.109105013 , -9.7630825  , 0.00201740745, -0.000826851057, 0.0006295637, -0.2282594  , -0.13415128 , 0.4516651   , -0.00887449 , -0.009252739, 2.630274    , 4.49        , 3           , 50          , 0           , 0
-0.07414896 , 0.09905344  , -9.776121   , -0.00138591649, 0.000281378161, 0.000474385539, -0.228326812, -0.134083867, 0.451462865 , -0.008914192, -0.009235126, 2.6302793   , 4.5         , 3           , 11          , 0.00601008255, 0.00601005135
-0.09689255 , 0.08673688  , -9.791263   , -0.0005363001, -0.00013523837, 0.00090149173, -0.228394225, -0.134016454, 0.451732516 , -0.00891963951, -0.009236398, 2.63028836  , 4.51        , 3           , 12          , 0.06824278  , 0
-0.105501726, 0.08594011  , -9.792687   , 0.0008822701, -0.00139273051, 0.00118866109, -0.228394225, -0.134083867, 0.4515977   , -0.008910928, -0.009250219, 2.63030028  , 4.52        , 3           , 50          , 0           , 0
-0.08577957 , 0.0993065462, -9.810559   , -0.000107899723, -0.00125863752, -0.000510956044, -0.228394225, -0.134083867, 0.4515977   , -0.008911961, -0.00926285 , 2.630295    , 4.53        , 3           , 11          , 0.00601008255, 0.00601005135
-0.04875963 , 0.10101454  , -9.776823   , -0.0012336697, -0.0021109737, -0.000941331848, -0.2282594  , -0.1342861  , 0.451530278 , -0.008924212, -0.009284043, 2.630286    , 4.54        , 3           , 12          , 0.06824278  , 0
-0.07868998 , 0.09641783  , -9.781591   , -0.002080216, -0.00211670017, 0.000326136069, -0.228529051, -0.134016454, 0.451732516 , -0.008945046, -0.00930518 , 2.63028932  , 4.55        , 3           , 50          , 0           , 0
-0.09363768 , 0.09123235  , -9.797546   , -0.000252968777, -0.0004148958, 5.476236E-05, -0.228461638, -0.134083867, 0.451732516 , -0.008947582, -0.0093093235, 2.63029027  , 4.56        , 3           , 11          , 0.00601008255, 0.00601005135
-0.08694816 , 0.08392814  , -9.795717   , 0.000169195788, -0.000130466215, -8.40971E-05, -0.22873129 , -0.134083867, 0.4515977   , -0.00894588 , -0.009310637, 2.63028932  , 4.57        , 3           , 12          , 0.06824278  , 0
-0.08062773 , 0.08651679  , -9.782551   , 0.00129898475, -0.000122825964, 6.24393942E-05, -0.22873129 , -0.134083867, 0.4515977   , -0.008932897, -0.009311859, 2.63028979  , 4.58        , 3           , 50          , 0           , 0
-0.0916123241, 0.0811927542, -9.771358   , 0.00299305632, -0.000111368492, -0.0007772714, -0.228461638, -0.134083867, 0.4516651   , -0.008902893, -0.009313043, 2.63028216  , 4.59        , 3           , 11          , 0.00601008255, 0.00601005135
-0.07580114 , 0.07472838  , -9.782563   , 0.0008632404, 0.00101633614, -0.000926444365, -0.228394225, -0.133881629, 0.451732516 , -0.008912593, -0.0092542395, 2.630273    , 4.6         , 3           , 12          , 0.069327116 , 0
-0.08873154 , 0.08620365  , -9.79527    , -0.000124393409, 0.0008688694, -0.000648733054, -0.228394225, -0.133949041, 0.451260626 , -0.008913777, -0.009245607, 2.63026643  , 4.61        , 3           , 50          , 0           , 0
-0.08621222 , 0.0712822452, -9.79486    , -0.000544140756, 0.0001620938, 5.455031E-05, -0.228394225, -0.133949041, 0.451260626 , -0.008919223, -0.009243982, 2.63026738  , 4.62        , 3           , 11          , 0.00594654027, 0.0059464965
-0.0692336857, 0.088675946 , -9.793303   , -0.00224304688, 0.0009953284, -0.000234587016, -0.228394225, -0.134083867, 0.4516651   , -0.00894163 , -0.009234053, 2.63026452  , 4.63        , 3           , 12          , 0.069327116 , 0
-0.09362394 , 0.0845482349, -9.822433   , -0.000698634365, 0.00269522122, -0.00121362135, -0.228394225, -0.133949041, 0.4516651   , -0.008948502, -0.00920721 , 2.6302526   , 4.64        , 3           , 50          , 0           , 0
-0.08879593 , 0.07722446  , -9.808414   , 0.00183668931, 0.00397945242, -0.00162362249, -0.228124574, -0.134083867, 0.451462865 , -0.008929983, -0.00916756 , 2.630236    , 4.65        , 3           , 11          , 0.00594654027, 0.0059464965
-0.06383222 , 0.09081801  , -9.778337   , -0.000275980361, 0.002979653 , -0.000504868454, -0.228124574, -0.134083867, 0.451462865 , -0.008932694, -0.00913781 , 2.63023067  , 4.66        , 3           , 12          , 0.069327116 , 0
-0.08113921 , 0.08022564  , -9.788457   , -0.00125570223, 0.00128357951, 0.00019426248, -0.2282594  , -0.133949041, 0.451462865 , -0.008945268, -0.009124957, 2.630232    , 4.67        , 3           , 50          , 0           , 0
-0.0788195357, 0.08247598  , -9.794758   , -0.0004003025, -0.000400082237, -0.000228196586, -0.228326812, -0.133814216, 0.4516651   , -0.008949248, -0.009128978, 2.63023019  , 4.68        , 3           , 11          , 0.00594654027, 0.0059464965
-0.09267705 , 0.100193337 , -9.782134   , -0.000531965459, -0.00223120814, 0.0006159367, -0.228326812, -0.134083867, 0.4515977   , -0.008954627, -0.009151233, 2.63023686  , 4.69        , 3           , 12          , 0.069327116 , 0
-0.102864787, 0.08138008  , -9.787714   , 0.00130160258, -0.00107496709, 0.000908911752, -0.228326812, -0.134083867, 0.4515977   , -0.00893157348, -0.009106381, 2.63024545  , 4.7         , 3           , 50          , 0           , 0
-0.104698867, 0.08316815  , -9.776421   , -0.000256127358, -0.0003815634, -0.00065120263, -0.228461638, -0.134016454, 0.451530278 , -0.008934076, -0.009110255, 2.63023925  , 4.71        , 3           , 11          , 0.005884948 , 0.00588490162
-0.09173756 , 0.100656539 , -9.788905   , -0.00180508522, -0.00137754832, -0.00150757679, -0.228191987, -0.133881629, 0.4515977   , -0.00895199 , -0.009124165, 2.63022447  , 4.72        , 3           , 12          , 0.0704138651, 0
-0.0655250549, 0.09450594  , -9.79551    , -0.00109873631, -0.00123198621, 0.000191157276, -0.228191987, -0.133881629, 0.451462865 , -0.008962995, -0.009136466, 2.63022637  , 4.73        , 3           , 50          , 0           , 0
-0.0864176154, 0.0933592   , -9.784374   , -0.003079906, -0.0004006608, 0.000183240569, -0.228191987, -0.133881629, 0.451462865 , -0.008993812, -0.009140457, 2.63022828  , 4.74        , 3           , 11          , 0.005884948 , 0.00588490162
-0.09546034 , 0.09079792  , -9.79620552 , -0.00209428184, 0.000169153951, 4.744893E-05, -0.228394225, -0.1342187  , 0.451530278 , -0.00901476 , -0.009138761, 2.63022876  , 4.75        , 3           , 12          , 0.0704138651, 0
-0.08973598 , 0.078546226 , -9.795761   , 0.00115620717, -0.000231226688, 0.0009095551, -0.228394225, -0.134083867, 0.451395452 , -0.00900328 , -0.009140992, 2.63023782  , 4.76        , 3           , 50          , 0           , 0
-0.09095451 , 0.08358531  , -9.813828   , 0.00143707683, 5.224757E-05, 0.000628768466, -0.228326812, -0.134083867, 0.451530278 , -0.008988966, -0.009140412, 2.630244    , 4.77        , 3           , 11          , 0.005884948 , 0.00588490162
-0.113243006, 0.109577283 , -9.817055   , -0.00110410457, -0.000246510725, -0.0006549364, -0.228326812, -0.134083867, 0.451530278 , -0.008999948, -0.009142936, 2.63023782  , 4.78        , 3           , 12          , 0.0704138651, 0
-0.06609585 , 0.116212644 , -9.807628   , -0.00209276169, -0.000253196369, -0.0009420831, -0.228057161, -0.134083867, 0.4515977   , -0.00902078953, -0.009145553, 2.63022828  , 4.79        , 3           , 50          , 0           , 0
-0.07510445 , 0.09456012  , -9.778408   , 0.000147402257, 0.000469983119, -0.0003651553, -0.228394225, -0.133881629, 0.451462865 , -0.009071296, -0.009128012, 2.63022542  , 4.8         , 3           , 11          , 0.00582475727, 0.005824729
-0.09257055 , 0.0780362561, -9.768665   , 0.00170120224, 0.000339704246, -0.000781935349, -0.228461638, -0.133949041, 0.451395452 , -0.009054214, -0.009124685, 2.63021779  , 4.81        , 3           , 12          , 0.0715027   , 0
-0.0946313739, 0.08804713  , -9.786267   , -0.0009802141, 3.99956152E-05, -0.000371074129, -0.228461638, -0.133949041, 0.451395452 , -0.009063982, -0.009124319, 2.630214    , 4.82        , 3           , 50          , 0           , 0
-0.1127387  , 0.08112146  , -9.81038952 , -0.00337719359, -0.0006801511, -0.000100815385, -0.228866115, -0.134083867, 0.451328039 , -0.009097745, -0.009131129, 2.630213    , 4.83        , 3           , 11          , 0.00582475727, 0.005824729
-0.103101395, 0.09138026  , -9.808466   , -0.0021099213, 3.235573E-05, -0.000376341719, -0.2282594  , -0.133881629, 0.451530278 , -0.00911881 , -0.00913084 , 2.63020921  , 4.84        , 3           , 12          , 0.0715027   , 0
-0.0765972137, 0.0842011   , -9.7789135  , -0.00013781272, 0.00103120331, -0.000365604385, -0.2282594  , -0.134083867, 0.451328039 , -0.009120155, -0.009120563, 2.63020539  , 4.85        , 3           , 50          , 0           , 0
-0.07513529 , 0.09319609  , -9.77524948 , -0.001114376, -0.00136878411, -0.000232633465, -0.2282594  , -0.134083867, 0.451328039 , -0.009131276, -0.009134273, 2.630203    , 4.86        , 3           , 11          , 0.00582475727, 0.005824729
-0.08017036 , 0.0927640945, -9.763538   , 0.000296979677, -0.00121845223, -0.000367100583, -0.2282594  , -0.133814216, 0.451328039 , -0.009128274, -0.00914649 , 2.63019967  , 4.87        , 3           , 12          , 0.0715027   , 0
-0.09366282 , 0.09255102  , -9.787146   , 0.002401241 , 0.00161152333, -0.000352884235, -0.228326812, -0.133814216, 0.451462865 , -0.009104228, -0.009130407, 2.63019586  , 4.88        , 3           , 50          , 0           , 0
-0.09502238 , 0.09345869  , -9.783989   , 0.0004251132, 0.00145737187, -7.97822649E-05, -0.228191987, -0.134016454, 0.451328039 , -0.009099969, -0.009115842, 2.630195    , 4.89        , 3           , 11          , 0.00582475727, 0.005824729
-0.09164591 , 0.08116554  , -9.763222   , 0.0004261132, 0.000190022227, -0.000787960656, -0.228191987, -0.134016454, 0.451328039 , -0.009111707, -0.00911502 , 2.63018775  , 4.9         , 3           , 12          , 0.0725933239, 0
-0.103936367, 0.07366822  , -9.77193451 , -0.0004183793, -0.0003788378, -0.000792779261, -0.228191987, -0.133949041, 0.4511932   , -0.009115818, -0.00911888 , 2.63017964  , 4.91        , 3           , 50          , 0           , 0
-0.08949985 , 0.09793061  , -9.791159   , -0.003668542, 2.15443833E-05, -0.00108981074, -0.228326812, -0.134016454, 0.4515977   , -0.009152405, -0.009118764, 2.63016915  , 4.92        , 3           , 11          , 0.005766116 , 0.0057660914
-0.09873803 , 0.08315952  , -9.794456   , -0.00239791046, 0.000170923711, -0.0003773239, -0.2282594  , -0.133949041, 0.451395452 , -0.009176349, -0.009117089, 2.63016534  , 4.93        , 3           , 12          , 0.0725933239, 0
-0.09202176 , 0.08435764  , -9.771799   , 0.000707591069, 0.000614285236, 0.00119176938, -0.2282594  , -0.133949041, 0.451395452 , -0.009169381, -0.009110837, 2.63017678  , 4.94        , 3           , 50          , 0           , 0
-0.0869909748, 0.08657156  , -9.776723   , 0.000286041875, 0.000189072671, 0.001189143 , -0.228326812, -0.134083867, 0.450990975 , -0.009166631, -0.009108838, 2.6301887   , 4.95        , 3           , 11          , 0.005766116 , 0.0057660914
-0.0549384579, 0.07585093  , -9.786467   , 0.000857250241, -0.00107414986, 0.00133109314, -0.2282594  , -0.133881629, 0.451530278 , -0.00915818 , -0.009119457, 2.630202    , 4.96        , 3           , 12          , 0.0725933239, 0
-0.07256536 , 0.0760839358, -9.794284   , 0.0009994054, -0.00121397618, 0.00175534061, -0.228191987, -0.13367939 , 0.451260626 , -0.009148346, -0.009131434, 2.6302197   , 4.97        , 3           , 50          , 0           , 0
-0.08396405 , 0.100181535 , -9.808735   , -0.000418097421, -0.000238050765, 0.0009026625, -0.2282594  , -0.134083867, 0.4511258   , -0.00915261 , -0.009133733, 2.63022923  , 4.98        , 3           , 11          , 0.005766116 , 0.0057660914
-0.0881214  , 0.09480649  , -9.806077   , 0.000277151179, 0.00173767481, -0.000927501242, -0.2282594  , -0.134083867, 0.4511258   , -0.00914975349, -0.009116443, 2.6302197   , 4.99        , 3           , 12          , 0.0725933239, 0
-0.09777936 , 0.08944081  , -9.78718948 , 0.00071664626, -0.0005009354, 5.997763E-05, -0.2282594  , -0.13415128 , 0.451462865 , -0.009128658, -0.00908418 , 2.63022017  , 5           , 3           , 50          , 0           , 0
-0.07754494 , 0.105081871 , -9.812281   , -0.0006861005, -0.00234065671, 0.000615647354, -0.228326812, -0.133881629, 0.451530278 , -0.009135577, -0.009107529, 2.63022637  , 5.01        , 3           , 11          , 0.00570902042, 0.005709001
-0.0917328149, 0.09441148  , -9.810173   , -0.00112564582, 0.0007536915, -0.000370435882, -0.228461638, -0.134353518, 0.451260626 , -0.009146798, -0.009100026, 2.63022256  , 5.02        , 3           , 12          , 0.07368547  , 0
-0.09245971 , 0.08169687  , -9.784018   , 0.000707629661, 0.00118845189, -0.00106756878, -0.228461638, -0.134353518, 0.451260626 , -0.009139623, -0.00908824 , 2.630212    , 5.03        , 3           , 50          , 0           , 0
-0.08654707 , 0.08209555  , -9.788941   , 0.0019831846, 0.000211567749, -0.00148696755, -0.228596464, -0.133949041, 0.451395452 , -0.009119658, -0.00908626 , 2.63019681  , 5.04        , 3           , 11          , 0.00570902042, 0.005709001
-0.09616807 , 0.10123492  , -9.811084   , 0.00169878569, 0.00077279174, -7.472918E-05, -0.228394225, -0.134083867, 0.451530278 , -0.009102661, -0.009078542, 2.63019586  , 5.05        , 3           , 12          , 0.07368547  , 0
-0.07683817 , 0.0857171   , -9.825915   , -0.000703362341, 0.00117890735, 0.00090360886, -0.228191987, -0.1342861  , 0.451395452 , -0.009109778, -0.00906667 , 2.63020539  , 5.06        , 3           , 50          , 0           , 0
-0.0846595243, 0.07945809  , -9.816057   , -0.000133752066, 0.000197249014, 0.0006928209, -0.228191987, -0.1342861  , 0.451395452 , -0.009111177, -0.009064633, 2.630212    , 5.07        , 3           , 11          , 0.00570902042, 0.005709001
-0.07892907 , 0.08060184  , -9.773974   , 0.00239722664, 0.00232617534, 1.58423745E-06, -0.2282594  , -0.133881629, 0.451328039 , -0.009087203, -0.009041373, 2.630212    , 5.08        , 3           , 12          , 0.07368547  , 0
-0.0842157751, 0.08747976  , -9.787998   , 0.0008585162, -0.000640763144, -1.02153408E-05, -0.228529051, -0.133881629, 0.451462865 , -0.009078617, -0.009047782, 2.630212    , 5.09        , 3           , 50          , 0           , 0
-0.08597958 , 0.08084412  , -9.821034   , -0.00236621173, -0.00445580436, 0.00025144234, -0.228461638, -0.1337468  , 0.451462865 , -0.009087845, -0.009064567, 2.630215    , 5.1         , 3           , 11          , 0.00565343071, 0.005653413
