Acc X       , Acc Y       , Acc Z       , Gyro X      , Gyro Y      , Gyro Z      , Magn X      , Magn Y      , Magn Z      , Euler X     , Euler Y     , Euler Z     , Time        , Status      , LowRate X   , LowRate Y   , LowRate Z    
-0.118261926, 0.0481566936, -9.783901   , 0.0009330306, -0.00175353023, 0.000132977249, -0.178036943, -0.163745448, 0.439193755 , -0.007438206, -0.0114167389, 2.42182088  , 0           , 3           , 11          , 0.0346410163, 0.0346410163
-0.108429417, 0.0728568658, -9.783273   , -0.0009105738, -0.000217338151, -0.000155733549, -0.178239182, -0.163947687, 0.438991517 , -0.00744729536, -0.0114189247, 2.421819    , 0.01        , 3           , 12          , 0.0346410163, 0
-0.09859587 , 0.0587995872, -9.796814   , 7.9766236E-05, -0.000633002142, -0.000575581333, -0.177902117, -0.164082512, 0.439193755 , -0.007446432, -0.0114252977, 2.42181325  , 0.02        , 3           , 50          , 0           , 0
-0.09730741 , 0.0524781123, -9.799994   , 0.000223152208, -0.00105439418, -0.000434305024, -0.17796953 , -0.163947687, 0.439261168 , -0.007444151, -0.0114358738, 2.42180943  , 0.03        , 3           , 11          , 0.0346410163, 0.0346410163
-0.113526374, 0.06434045  , -9.782443   , 0.0005006185, -6.70068E-05, -0.000572738, -0.17796953 , -0.164217338, 0.43905893  , -0.00743907969, -0.0114365863, 2.42180371  , 0.04        , 3           , 12          , 0.0346410163, 0
-0.101484358, 0.08093566  , -9.794485   , 0.0003514117, 0.00148064445, -0.0011360849, -0.17796953 , -0.164217338, 0.43905893  , -0.00743543543, -0.0114218658, 2.42179227  , 0.05        , 3           , 50          , 0           , 0
-0.130649075, 0.09354843  , -9.820418   , 0.000208841477, 0.00190204044, 0.00013532622, -0.177902117, -0.163812861, 0.438991517 , -0.00743336 , -0.0114028351, 2.42179322  , 0.06        , 3           , 11          , 0.0346410163, 0.0346410163
-0.116435476, 0.0761937648, -9.808178   , -0.000352200819, 0.00119430956, 0.000696682546, -0.1778347  , -0.163678035, 0.439193755 , -0.00743696047, -0.0113908406, 2.4218      , 0.07        , 3           , 12          , 0.0346410163, 0
-0.107322879, 0.09264852  , -9.768718   , 0.000214869768, 0.0006349967, -0.000290432625, -0.177767292, -0.163812861, 0.438789278 , -0.007434779, -0.0113845123, 2.421797    , 0.08        , 3           , 50          , 0           , 0
-0.112571418, 0.105806269 , -9.771867   , 0.000360346778, -0.000208743179, -0.000149807354, -0.177767292, -0.163812861, 0.438789278 , -0.007431156, -0.0113866115, 2.42179561  , 0.09        , 3           , 11          , 0.0346410163, 0.0346410163
-0.136651948, 0.09218395  , -9.79651451 , -0.000337274716, -0.0019029082, -1.44357191E-05, -0.178036943, -0.163678035, 0.439126343 , -0.007434529, -0.0114056431, 2.42179561  , 0.1         , 3           , 12          , 0.0346410163, 0
-0.123733632, 0.08203794  , -9.776571   , 0.00163368462, -0.0006224943, 0.0004205417, -0.177902117, -0.163880274, 0.439193755 , -0.00741824042, -0.0114118354, 2.4218      , 0.11        , 3           , 50          , 0           , 0
-0.1212381  , 0.06263377  , -9.784767   , 0.00204707752, 0.00135132368, -0.000422057667, -0.177902117, -0.163947687, 0.43905893  , -0.00739772152, -0.0113983536, 2.42179561  , 0.12        , 3           , 11          , 0.0346410163, 0.0346410163
-0.111058459, 0.07295982  , -9.804535   , 0.000209419726, 0.00162047148, -0.00127779611, -0.177902117, -0.163947687, 0.43905893  , -0.007395479, -0.0113822427, 2.42178273  , 0.13        , 3           , 12          , 0.0346410163, 0
-0.104043387, 0.0900223255, -9.803959   , 0.0007674665, 0.00303211762, -0.0009904553, -0.177902117, -0.163812861, 0.438991517 , -0.00738769 , -0.0113519952, 2.42177224  , 0.14        , 3           , 50          , 0           , 0
-0.111605719, 0.06619333  , -9.80321    , -0.000210246115, 0.000913696247, -0.000433244073, -0.1778347  , -0.163812861, 0.439193755 , -0.00738974242, -0.0113428934, 2.42176843  , 0.15        , 3           , 11          , 0.0346410163, 0.0346410163
-0.12566708 , 0.0703549758, -9.784318   , -0.00358350016, -0.00234722253, -0.00073657505, -0.177902117, -0.163947687, 0.439126343 , -0.00742549635, -0.0113664176, 2.4217608   , 0.16        , 3           , 12          , 0.0346410163, 0
-0.113844305, 0.07025759  , -9.796432   , -0.003021353, -0.00178027211, -0.0005918045, -0.177902117, -0.163947687, 0.439126343 , -0.00745564373, -0.0113842636, 2.421755    , 0.17        , 3           , 50          , 0           , 0
-0.129166692, 0.0749604255, -9.799693   , -0.000483530224, -0.000918386329, -0.000296112732, -0.17796953 , -0.163812861, 0.438991517 , -0.007460446, -0.0113934688, 2.42175221  , 0.18        , 3           , 11          , 0.0346410163, 0.0346410163
-0.124305442, 0.06721725  , -9.795168   , -0.001750966, -0.00163089391, -0.000303123757, -0.177902117, -0.163812861, 0.439261168 , -0.00747792376, -0.0114097986, 2.42174935  , 0.19        , 3           , 12          , 0.0346410163, 0
-0.1361033  , 0.06822752  , -9.786216   , 0.000220319271, -0.000350482122, 0.000696927542, -0.1778347  , -0.163812861, 0.439126343 , -0.00747581571, -0.01141336 , 2.42175651  , 0.2         , 3           , 50          , 0           , 0
-0.11344672 , 0.07377834  , -9.771555   , 0.002048753 , 0.00121054216, 0.00127294916, -0.1778347  , -0.163812861, 0.439126343 , -0.00745547237, -0.0114011606, 2.42176938  , 0.21        , 3           , 11          , 0.03466991  , 0.03466991
-0.1137412  , 0.08373165  , -9.77829552 , 0.00162179093, 0.00191159092, 0.00155459624, -0.177902117, -0.163947687, 0.43905893  , -0.00743943 , -0.0113819288, 2.42178464  , 0.22        , 3           , 12          , 0.0346687958, 0
-0.103096806, 0.097632885 , -9.789457   , 0.0004846686, 0.00317098829, -0.000426481129, -0.1778347  , -0.163880274, 0.439126343 , -0.007434532, -0.01135025 , 2.42177987  , 0.23        , 3           , 50          , 0           , 0
-0.09450626 , 0.09082659  , -9.80795    , -0.000919427956, 0.00147204637, -0.00100074441, -0.178104356, -0.163880274, 0.43905893  , -0.00744361151, -0.0113356048, 2.42176986  , 0.24        , 3           , 11          , 0.03466991  , 0.03466991
-0.115393735, 0.08388142  , -9.816727   , -0.00189820828, -0.000364808482, 0.000121975565, -0.178104356, -0.163880274, 0.43905893  , -0.00746260677, -0.0113392435, 2.42177129  , 0.25        , 3           , 12          , 0.0346687958, 0
-0.09857999 , 0.0677394643, -9.771917   , -0.00105838722, 0.00104874454, -0.0007195163, -0.17796953 , -0.163812861, 0.43905893  , -0.00747310929, -0.0113288071, 2.42176366  , 0.26        , 3           , 50          , 0           , 0
-0.09838826 , 0.07235832  , -9.803988   , 0.00233122427, 0.00107166672, 0.000143899437, -0.178036943, -0.163745448, 0.439126343 , -0.007449812, -0.01131808 , 2.42176557  , 0.27        , 3           , 11          , 0.03466991  , 0.03466991
-0.125391543, 0.0799516141, -9.820887   , 0.004032629 , -0.000183913755, 0.00113872939, -0.177699879, -0.163745448, 0.439261168 , -0.00740961451, -0.0113198347, 2.421777    , 0.28        , 3           , 12          , 0.0346687958, 0
-0.0936441645, 0.09256615  , -9.791665   , 0.00375319738, -0.0008897388, 0.000288715179, -0.178036943, -0.163812861, 0.4389241   , -0.00737211667, -0.0113287121, 2.42177987  , 0.29        , 3           , 50          , 0           , 0
-0.09835327 , 0.0768501759, -9.798094   , 0.001321641 , -0.000898029, -0.000428417319, -0.178036943, -0.163812861, 0.4389241   , -0.007987569, -0.01117399 , 2.42178273  , 0.3         , 3           , 11          , 0.0347534381, 0.0347534381
-0.147508472, 0.05088345  , -9.821629   , 0.0004670641, 0.000504064956, -0.0009952734, -0.17796953 , -0.163610622, 0.4389241   , -0.007982788, -0.0111690275, 2.42177272  , 0.31        , 3           , 12          , 0.0347538441, 0
-0.131700948, 0.0898697153, -9.796487   , 0.00102867757, 0.00121179875, -0.000567748561, -0.178036943, -0.163745448, 0.43905893  , -0.007972437, -0.0111569557, 2.42176652  , 0.32        , 3           , 50          , 0           , 0
-0.118970871, 0.05948541  , -9.795612   , 0.001310363 , 0.00149527693, 0.0005641522, -0.178036943, -0.163812861, 0.4388567   , -0.007959395, -0.0111419577, 2.42177224  , 0.33        , 3           , 11          , 0.0347534381, 0.0347534381
-0.122521393, 0.0658349842, -9.792901   , 0.003849127 , 0.00221638125, 0.00128343317, -0.178036943, -0.163812861, 0.4388567   , -0.007921045, -0.0111196917, 2.421785    , 0.34        , 3           , 12          , 0.0347538441, 0
-0.126979426, 0.061927557 , -9.82278252 , 0.0041279057, 0.00292220316, 0.00100329751, -0.17796953 , -0.163812861, 0.439193755 , -0.007879875, -0.0110903922, 2.42179513  , 0.35        , 3           , 50          , 0           , 0
-0.11922054 , 0.06947501  , -9.813199   , 0.00173298  , 0.001638923 , 1.26974555E-06, -0.178104356, -0.1640151  , 0.438991517 , -0.007862543, -0.0110740038, 2.42179513  , 0.36        , 3           , 11          , 0.0347534381, 0.0347534381
-0.125036523, 0.07629627  , -9.808696   , 0.0018832545, -0.000190295192, -8.923962E-07, -0.17796953 , -0.163745448, 0.43905893  , -0.00784371048, -0.0110759074, 2.42179513  , 0.37        , 3           , 12          , 0.0347538441, 0
-0.1217232  , 0.0893197656, -9.801837   , -0.00022584846, -0.00189400674, 0.00125804543, -0.17796953 , -0.163745448, 0.43905893  , -0.0078461105, -0.01109475 , 2.42180753  , 0.38        , 3           , 50          , 0           , 0
-0.109197192, 0.0827988759, -9.785045   , -0.000214859669, -0.004146528, 0.000972036563, -0.178036943, -0.163880274, 0.4389241   , -0.007848372, -0.0111361379, 2.421818    , 0.39        , 3           , 11          , 0.0347534381, 0.0347534381
-0.09975872 , 0.08129145  , -9.772323   , 0.00139376277, -0.000379756, -0.000427616731, -0.1778347  , -0.1640151  , 0.439193755 , -0.007794797, -0.0115570845, 2.42181325  , 0.4         , 3           , 12          , 0.034895312 , 0
-0.0988514051, 0.08619209  , -9.75692749 , 0.000964502 , 0.000884424837, 0.0007025104, -0.177902117, -0.163812861, 0.439193755 , -0.007785232, -0.0115481867, 2.42182     , 0.41        , 3           , 50          , 0           , 0
-0.126245081, 0.06490263  , -9.771237   , 0.00321950833, 0.00181479158, 0.0009263591, -0.177902117, -0.163812861, 0.439193755 , -0.00775314076, -0.0115299672, 2.421829    , 0.42        , 3           , 11          , 0.0177084785, 0.0177085754
-0.109038852, 0.0927468762, -9.791782   , 0.0001847174, 0.00130151515, -0.00106631941, -0.17796953 , -0.163812861, 0.43905893  , -0.00775117055, -0.0115170358, 2.421818    , 0.43        , 3           , 12          , 0.034895312 , 0
-0.125591412, 0.0820214152, -9.76528549 , 0.0008147428, 0.00250246678, -0.000213899737, -0.1778347  , -0.1634758  , 0.439193755 , -0.007742996, -0.0114920288, 2.421816    , 0.44        , 3           , 50          , 0           , 0
-0.130034089, 0.08125088  , -9.788826   , 0.00252497918, -0.000372108829, 0.00219112239, -0.178036943, -0.163678035, 0.438991517 , -0.00771799963, -0.011495579, 2.421838    , 0.45        , 3           , 11          , 0.0177084785, 0.0177085754
-0.128277764, 0.07002643  , -9.811459   , 0.0007609716, -0.00108797022, -0.00184435211, -0.178036943, -0.163678035, 0.438991517 , -0.007710178, -0.0115065994, 2.42182     , 0.46        , 3           , 12          , 0.034895312 , 0
-0.123592876, 0.0532133766, -9.792961   , 0.00111184386, -0.000311270764, 0.0010544965, -0.17796953 , -0.163880274, 0.4388567   , -0.00769918226, -0.0115096308, 2.42183042  , 0.47        , 3           , 50          , 0           , 0
-0.103760734, 0.0894328058, -9.764184   , 0.00168235856, -0.00157449674, -4.337744E-06, -0.17796953 , -0.163745448, 0.439261168 , -0.00768235931, -0.0115253758, 2.42183042  , 0.48        , 3           , 11          , 0.0177084785, 0.0177085754
-0.09727295 , 0.0587549172, -9.788217   , 6.04768757E-05, -0.00207821955, -0.0006483788, -0.178239182, -0.1640151  , 0.438991517 , -0.007681681, -0.0115462067, 2.42182374  , 0.49        , 3           , 12          , 0.034895312 , 0
-0.141843468, 0.07421754  , -9.802958   , -0.001564565, 1.26635541E-05, -0.00037033885, -0.178239182, -0.1640151  , 0.438991517 , -0.007652975, -0.0115936389, 2.42182     , 0.5         , 3           , 50          , 0           , 0
-0.119134091, 0.07802573  , -9.806836   , -0.00107001408, 8.640041E-05, 0.0007622241, -0.177902117, -0.163812861, 0.438991517 , -0.00766376359, -0.0115927169, 2.42182755  , 0.51        , 3           , 11          , 0.0134476516, 0.0134476861
-0.09687334 , 0.08496705  , -9.801664   , -0.002906441, 7.398252E-05, -0.0003764858, -0.177902117, -0.163947687, 0.439193755 , -0.00769278454, -0.0115920063, 2.42182374  , 0.52        , 3           , 12          , 0.03509208  , 0
-0.130488   , 0.0848261   , -9.777063   , -0.00256167143, 0.0018361538, 0.0004048503, -0.177767292, -0.1634758  , 0.439126343 , -0.00771844666, -0.0115736136, 2.42182755  , 0.53        , 3           , 50          , 0           , 0
-0.1170574  , 0.07695473  , -9.764338   , -0.00241660583, 0.0011331978, 0.0010401333, -0.177767292, -0.1634758  , 0.439126343 , -0.007742732, -0.0115622012, 2.421838    , 0.54        , 3           , 11          , 0.0134476516, 0.0134476861
-0.0879350454, 0.07985575  , -9.788961   , -0.000367368921, 0.0007246954, 0.000272052042, -0.17796953 , -0.163880274, 0.439126343 , -0.007746436, -0.0115549322, 2.42184043  , 0.55        , 3           , 12          , 0.03509208  , 0
-0.129017875, 0.07954449  , -9.821368   , 0.003515714 , 0.000750956067, -0.0002042805, -0.1778347  , -0.163812861, 0.43905893  , -0.00771125453, -0.0115474388, 2.421838    , 0.56        , 3           , 50          , 0           , 0
-0.116116256, 0.07206307  , -9.788758   , 0.0007665053, -0.000323539, -0.00156080083, -0.177902117, -0.163745448, 0.439193755 , -0.007703411, -0.0115507934, 2.42182279  , 0.57        , 3           , 11          , 0.0134476516, 0.0134476861
-0.0971315056, 0.06601113  , -9.799486   , 0.0007639993, 0.000380378537, 0.000135508715, -0.177699879, -0.163745448, 0.438991517 , -0.00769578665, -0.0115469806, 2.42182374  , 0.58        , 3           , 12          , 0.03509208  , 0
-0.117645174, 0.050515987 , -9.81643    , -0.0013442809, -0.00160490093, 0.000405131548, -0.177699879, -0.163745448, 0.438991517 , -0.00770927826, -0.0115629984, 2.42182851  , 0.59        , 3           , 50          , 0           , 0
-0.101614363, 0.06386901  , -9.817608   , -0.00131407753, -0.0009025052, -0.000583071436, -0.177902117, -0.163745448, 0.43905893  , -0.007619891, -0.011576606, 2.42182136  , 0.6         , 3           , 11          , 0.01135898  , 0.0113589959
-0.0889195949, 0.07132171  , -9.79714    , 0.00149473082, 0.00235459558, 0.000423969235, -0.177699879, -0.163812861, 0.439193755 , -0.007604992, -0.0115530267, 2.42182565  , 0.61        , 3           , 12          , 0.0353427939, 0
-0.108341895, 0.04265012  , -9.79108    , 0.00192429544, 0.00116080907, 0.000424100348, -0.17796953 , -0.163880274, 0.4389241   , -0.00758579746, -0.011541388, 2.42182946  , 0.62        , 3           , 50          , 0           , 0
-0.112679943, 0.054908555 , -9.798294   , 0.00116006762, -0.00144892256, -0.000360513077, -0.17796953 , -0.163880274, 0.4389241   , -0.007574155, -0.0115559045, 2.42182612  , 0.63        , 3           , 11          , 0.01135898  , 0.0113589959
-0.108231723, 0.0881929845, -9.782303   , -0.00222567283, -0.00210536248, 4.651351E-05, -0.17796953 , -0.163812861, 0.43905893  , -0.00759641873, -0.0115769552, 2.4218266   , 0.64        , 3           , 12          , 0.0353427939, 0
-0.111576088, 0.0684490949, -9.803201   , -0.000338845217, 0.001708655 , -0.00121015764, -0.1778347  , -0.163880274, 0.43905893  , -0.007599665, -0.0115599586, 2.4218142   , 0.65        , 3           , 50          , 0           , 0
-0.124319121, 0.0587255172, -9.819159   , 0.00191659166, 0.002568631 , -0.0008451484, -0.1778347  , -0.163880274, 0.438991517 , -0.007580399, -0.0115343379, 2.42180562  , 0.66        , 3           , 11          , 0.01135898  , 0.0113589959
-0.1136109  , 0.08339086  , -9.811292   , -0.000612277363, 8.775033E-05, 0.0004812551, -0.1778347  , -0.163880274, 0.438991517 , -0.00758657837, -0.0115334243, 2.42181039  , 0.67        , 3           , 12          , 0.0353427939, 0
-0.114247896, 0.06360753  , -9.829909   , 0.00030570972, 0.000164351266, 0.00126262172, -0.178036943, -0.163947687, 0.4389241   , -0.00758366659, -0.0115316845, 2.42182326  , 0.68        , 3           , 50          , 0           , 0
-0.120600745, 0.0752758   , -9.789231   , 0.0007267473, 0.0006599543, 0.0009828189, -0.17796953 , -0.163610622, 0.43905893  , -0.00757651124, -0.0115250088, 2.42183328  , 0.69        , 3           , 11          , 0.01135898  , 0.0113589959
-0.128292948, 0.0798338354, -9.776163   , 0.000902076135, 0.003470709 , -0.000425472623, -0.177699879, -0.1640151  , 0.439193755 , -0.007463939, -0.0115027279, 2.42182755  , 0.7         , 3           , 12          , 0.0356458947, 0
-0.131474286, 0.07138082  , -9.800631   , -0.0009234691, 0.00141694816, -0.000225275755, -0.177699879, -0.1640151  , 0.439193755 , -0.007473147, -0.0114885736, 2.42182517  , 0.71        , 3           , 50          , 0           , 0
-0.110383168, 0.05133777  , -9.817727   , 0.0014084836, 0.0008695712, -0.00169860059, -0.177902117, -0.163947687, 0.4389241   , -0.007458867, -0.0114800064, 2.421808    , 0.72        , 3           , 11          , 0.01013713  , 0.0101371361
-0.106196478, 0.09370951  , -9.819327   , 0.0007089564, -0.0004726382, -0.00184522278, -0.178036943, -0.163880274, 0.439261168 , -0.007451565, -0.01148487 , 2.42178941  , 0.73        , 3           , 12          , 0.0356458947, 0
-0.112433046, 0.0711772144, -9.80636    , -0.0007113005, 0.00134798931, -0.000224396543, -0.178036943, -0.1640151  , 0.439328581 , -0.007458653, -0.0114714056, 2.4217875   , 0.74        , 3           , 50          , 0           , 0
-0.127926722, 0.06859963  , -9.791122   , -0.00119832915, -0.000203963122, -0.00100606575, -0.178036943, -0.1640151  , 0.439328581 , -0.00747052068, -0.0114735207, 2.421777    , 0.75        , 3           , 11          , 0.01013713  , 0.0101371361
-0.104471318, 0.0633409   , -9.78508949 , 0.000846759242, 0.0005138016, 0.0006997917, -0.17796953 , -0.163947687, 0.43905893  , -0.007462133, -0.0114683313, 2.42178464  , 0.76        , 3           , 12          , 0.0356458947, 0
-0.114334926, 0.0644297   , -9.805951   , 0.0009217962, -0.000471200852, -7.8375866E-05, -0.177902117, -0.1640151  , 0.439126343 , -0.007452907, -0.0114730485, 2.42178369  , 0.77        , 3           , 50          , 0           , 0
-0.129517943, 0.07861879  , -9.812788   , -0.00121054531, 0.00218933844, -0.00163808675, -0.178104356, -0.163678035, 0.4389241   , -0.00746482238, -0.0114512788, 2.421767    , 0.78        , 3           , 11          , 0.01013713  , 0.0101371361
-0.115862131, 0.0905693546, -9.791391   , 0.000904927438, 0.00283718668, -0.0009208896, -0.178104356, -0.163678035, 0.4389241   , -0.007455665, -0.0114229759, 2.42175746  , 0.79        , 3           , 12          , 0.0356458947, 0
-0.114698969, 0.07611202  , -9.790086   , 0.000135403723, -0.0003241413, 0.0006949679, -0.17796953 , -0.163947687, 0.43905893  , -0.00746950228, -0.0115236975, 2.42176461  , 0.8         , 3           , 50          , 0           , 0
-0.108371362, 0.07067217  , -9.804524   , 0.0010512186, 0.000174806555, 0.00133571681, -0.178104356, -0.163745448, 0.43905893  , -0.00745914457, -0.01152185 , 2.421778    , 0.81        , 3           , 11          , 0.009381295 , 0.009381295
-0.1000774  , 0.08363719  , -9.797627   , -0.000147923973, -0.000185270081, 0.000340696075, -0.178036943, -0.163745448, 0.439328581 , -0.007460663, -0.011523677, 2.42178178  , 0.82        , 3           , 12          , 0.0359996445, 0
-0.11337056 , 0.0733937   , -9.791443   , 0.000342774962, 0.000592377735, 0.0008386346, -0.177767292, -0.1640151  , 0.438721865 , -0.00745733175, -0.01151769 , 2.42179     , 0.83        , 3           , 50          , 0           , 0
-0.09364256 , 0.05961167  , -9.787281   , 0.0013287107, 0.000951015041, -0.000568901, -0.177767292, -0.1640151  , 0.438721865 , -0.00744397938, -0.0115082236, 2.42178416  , 0.84        , 3           , 11          , 0.009381295 , 0.009381295
-0.104536727, 0.0606098   , -9.777869   , 0.00048614238, 0.000100592479, 0.000344093045, -0.177902117, -0.163880274, 0.439328581 , -0.00743915746, -0.0115071945, 2.4217875   , 0.85        , 3           , 12          , 0.0359996445, 0
-0.105251923, 0.0710407645, -9.790939   , 0.0007720948, -0.000601410051, 0.0004149595, -0.177767292, -0.163947687, 0.439126343 , -0.00743148429, -0.0115131773, 2.42179179  , 0.86        , 3           , 50          , 0           , 0
-0.120543867, 0.04906138  , -9.776684   , -0.0002908169, 9.53386843E-05, -0.00015396894, -0.17796953 , -0.1640151  , 0.438991517 , -0.007434375, -0.0115122339, 2.42179036  , 0.87        , 3           , 11          , 0.009381295 , 0.009381295
-0.110161036, 0.07963784  , -9.780997   , -0.00134672155, -0.000474952016, 0.000546568248, -0.17796953 , -0.1640151  , 0.438991517 , -0.007447905, -0.0115169426, 2.42179561  , 0.88        , 3           , 12          , 0.0359996445, 0
-0.124616548, 0.07224722  , -9.813681   , -0.00474110432, 0.000276425562, -0.00194024469, -0.178104356, -0.163745448, 0.4388567   , -0.00749509363, -0.0115143238, 2.421776    , 0.89        , 3           , 50          , 0           , 0
-0.1257521  , 0.0586809851, -9.80109    , -0.00278506684, 9.930011E-06, -0.00136724464, -0.17796953 , -0.163947687, 0.439126343 , -0.0074556563, -0.0115112849, 2.42176175  , 0.9         , 3           , 11          , 0.008915577 , 0.008915576
-0.0921727046, 0.06414957  , -9.799907   , 0.0005401294, -0.00123466877, -0.0006473795, -0.177767292, -0.163812861, 0.439328581 , -0.00745018153, -0.01152368 , 2.421755    , 0.91        , 3           , 12          , 0.0364021547, 0
-0.106140278, 0.07418978  , -9.785057   , 0.0015327424, -0.00200228649, -0.0001495231, -0.177767292, -0.163812861, 0.439328581 , -0.00743483845, -0.0115437107, 2.42175412  , 0.92        , 3           , 50          , 0           , 0
-0.118012592, 0.09782947  , -9.79589748 , 0.0005365405, -0.000460363575, -0.000222379982, -0.178104356, -0.163947687, 0.439126343 , -0.007429447, -0.0115483319, 2.42175221  , 0.93        , 3           , 11          , 0.008915577 , 0.008915576
-0.106929429, 0.08545351  , -9.777332   , -0.0006690603, 0.0005169948, -0.000932801864, -0.178036943, -0.163745448, 0.439328581 , -0.00743603054, -0.01154323 , 2.42174268  , 0.94        , 3           , 12          , 0.0364021547, 0
-0.101502195, 0.06931608  , -9.827528   , 0.00116011093, 0.00193723664, -0.000286362978, -0.1778347  , -0.164082512, 0.4388567   , -0.007424394, -0.01152388 , 2.42173982  , 0.95        , 3           , 50          , 0           , 0
-0.118368648, 0.0725453347, -9.790129   , -0.0002466325, 0.0008718186, -1.20374316E-05, -0.1778347  , -0.164082512, 0.4388567   , -0.00742685748, -0.0115151629, 2.42173934  , 0.96        , 3           , 11          , 0.008915577 , 0.008915576
-0.123653725, 0.08165634  , -9.797363   , -0.00010832939, 0.00143590313, -0.000222414048, -0.178036943, -0.164082512, 0.439126343 , -0.007427915, -0.0115008205, 2.421737    , 0.97        , 3           , 12          , 0.0364021547, 0
-0.09573892 , 0.06691563  , -9.804895   , 0.00250399276, 0.00159435568, 0.000778865651, -0.17796953 , -0.163678035, 0.439126343 , -0.007402963, -0.0114848176, 2.42174459  , 0.98        , 3           , 50          , 0           , 0
-0.1074966  , 0.04437606  , -9.770726   , -0.000108948465, 0.00171747187, 0.00112007291, -0.177767292, -0.164352164, 0.439261168 , -0.00740418 , -0.0114675611, 2.421756    , 0.99        , 3           , 11          , 0.008915577 , 0.008915576
-0.139806747, 0.09446482  , -9.792914   , -0.001384996, -0.00219683349, -0.000587772054, -0.177767292, -0.164352164, 0.439261168 , -0.00735903857, -0.0114435321, 2.42174935  , 1           , 3           , 12          , 0.03685143  , 0
-0.1291644  , 0.0780867338, -9.790189   , -0.00166807894, -0.00205796072, -0.0005182376, -0.177902117, -0.164082512, 0.439193755 , -0.00737566128, -0.0114641506, 2.42174459  , 1.01        , 3           , 50          , 0           , 0
-0.118914261, 0.0680119246, -9.782016   , -0.00174407288, -0.001143356, -0.002000478, -0.177902117, -0.163947687, 0.439193755 , -0.00739287352, -0.0114757307, 2.42172456  , 1.02        , 3           , 11          , 0.008640733 , 0.008640729
-0.119253367, 0.07301922  , -9.793749   , 0.000160784548, -0.000567327545, 0.000198944355, -0.178104356, -0.163678035, 0.439396    , -0.00739128748, -0.0114813894, 2.42172647  , 1.03        , 3           , 12          , 0.03685143  , 0
-0.115603432, 0.0725527555, -9.801859   , 0.00100482837, 1.53052042E-06, -0.0005732151, -0.178104356, -0.163678035, 0.439396    , -0.007381174, -0.0114814164, 2.42172074  , 1.04        , 3           , 50          , 0           , 0
-0.143469289, 0.09045757  , -9.796123   , 0.0008587101, 0.00119723193, 0.00119382993, -0.177902117, -0.163947687, 0.439193755 , -0.007372722, -0.0114693567, 2.42173266  , 1.05        , 3           , 11          , 0.008640733 , 0.008640729
-0.104466222, 0.0927300155, -9.802594   , 0.00205736328, 0.001557306 , 0.00134123792, -0.178239182, -0.163678035, 0.439261168 , -0.00735230045, -0.0114536854, 2.42174554  , 1.06        , 3           , 12          , 0.03685143  , 0
-0.09971085 , 0.08043753  , -9.786791   , 0.00247922377, 0.00177134143, 7.212023E-05, -0.177565053, -0.1640151  , 0.439396    , -0.0073275147, -0.0114359669, 2.42174649  , 1.07        , 3           , 50          , 0           , 0
-0.116751663, 0.08702217  , -9.80678    , 0.00205472  , 0.002050044 , 0.0009888256, -0.177565053, -0.1640151  , 0.439396    , -0.00730707869, -0.011415395, 2.421756    , 1.08        , 3           , 11          , 0.008640733 , 0.008640729
-0.107365288, 0.08056267  , -9.797243   , 0.005093597 , 0.00150744617, 0.00100211473, -0.1778347  , -0.163812861, 0.439126343 , -0.007256256, -0.0114002479, 2.421766    , 1.09        , 3           , 12          , 0.03685143  , 0
-0.111989483, 0.07384252  , -9.795499   , 0.002854584 , -0.0008709238, 0.0006366828, -0.178036943, -0.163745448, 0.439126343 , -0.00738314725, -0.0114572663, 2.42177415  , 1.1         , 3           , 50          , 0           , 0
-0.111714616, 0.09013385  , -9.810345   , 0.002634463 , 0.0007466414, 0.000143749625, -0.177902117, -0.163745448, 0.439328581 , -0.00735681877, -0.0114497915, 2.42177558  , 1.11        , 3           , 11          , 0.00848487  , 0.008484866
-0.128077641, 0.0835791156, -9.816824   , 0.0024890895, 0.00151998876, -0.00042079034, -0.178239182, -0.163812861, 0.439261168 , -0.007331878, -0.0114346221, 2.42177129  , 1.12        , 3           , 12          , 0.03734538  , 0
-0.108249292, 0.0494204052, -9.791956   , 0.00255402015, 0.00257633324, -0.00119581178, -0.178239182, -0.163812861, 0.439261168 , -0.0073062  , -0.0114089474, 2.421759    , 1.13        , 3           , 50          , 0           , 0
-0.100498959, 0.0529438   , -9.793238   , 0.00135940418, 0.00144195615, -0.0009912414, -0.177767292, -0.163880274, 0.439328581 , -0.007292491, -0.0113946  , 2.42174935  , 1.14        , 3           , 11          , 0.00848487  , 0.008484866
-0.1149869  , 0.0598101057, -9.772077   , -0.000332579744, 0.001148937 , 0.00104881963, -0.177902117, -0.163812861, 0.4394634   , -0.007295936, -0.0113830343, 2.42175984  , 1.15        , 3           , 12          , 0.03734538  , 0
-0.1247242  , 0.07037458  , -9.79335    , -0.00181677029, 0.00120929559, -0.000865113747, -0.178104356, -0.163947687, 0.439261168 , -0.007314004, -0.0113710044, 2.42175126  , 1.16        , 3           , 50          , 0           , 0
-0.110276416, 0.0621366724, -9.809093   , -0.00175090181, 0.00226564449, -1.554488E-05, -0.178104356, -0.163947687, 0.439261168 , -0.00733151054, -0.01134835 , 2.42175031  , 1.17        , 3           , 11          , 0.00848487  , 0.008484866
-0.118963763, 0.06663278  , -9.774339   , -0.00075349136, 0.0005125486, 0.000339524064, -0.1778347  , -0.164149925, 0.439396    , -0.00733908266, -0.011343196, 2.42175412  , 1.18        , 3           , 12          , 0.03734538  , 0
-0.11323452 , 0.08600175  , -9.784158   , 0.00122521666, 0.000244354858, 0.0009133836, -0.1778347  , -0.163880274, 0.4394634   , -0.007326933, -0.0113406861, 2.42176318  , 1.19        , 3           , 50          , 0           , 0
-0.0986340046, 0.08770731  , -9.805283   , 0.000523949566, -0.000306300761, -0.000998243, -0.177902117, -0.163880274, 0.439328581 , -0.00731764 , -0.0114042973, 2.42175317  , 1.2         , 3           , 11          , 0.008407936 , 0.008407934
-0.110191613, 0.0684543   , -9.809519   , -0.00075291784, 0.000952148752, -0.0004371417, -0.177902117, -0.163880274, 0.439328581 , -0.007325117, -0.0113948071, 2.4217484   , 1.21        , 3           , 12          , 0.0378818735, 0
-0.09470728 , 0.07861226  , -9.79805851 , -0.00102443725, -0.00130228291, -0.0008657363, -0.178036943, -0.1640151  , 0.43953082  , -0.007335263, -0.0114078941, 2.42173982  , 1.22        , 3           , 50          , 0           , 0
-0.106429309, 0.0787912756, -9.81035    , 0.00151518744, -0.00072196027, 0.0001358652, -0.178036943, -0.163880274, 0.4394634   , -0.00732012838, -0.0114151025, 2.42174172  , 1.23        , 3           , 11          , 0.008407936 , 0.008407934
-0.1008113  , 0.06645341  , -9.784144   , 0.003836618 , 0.00105357915, 0.000361344981, -0.178374   , -0.163947687, 0.439396    , -0.00728180353, -0.01140454 , 2.42174459  , 1.24        , 3           , 12          , 0.0378818735, 0
-0.100018248, 0.08547052  , -9.806206   , 0.00305720069, 0.00147067115, -0.0007717754, -0.178374   , -0.163947687, 0.439396    , -0.007251141, -0.01138989 , 2.421737    , 1.25        , 3           , 50          , 0           , 0
-0.112998992, 0.07198353  , -9.776078   , -0.0009680749, 0.00144345092, -0.001991326, -0.17796953 , -0.163947687, 0.439328581 , -0.00726059265, -0.0113756  , 2.421717    , 1.26        , 3           , 11          , 0.008407936 , 0.008407934
-0.110416539, 0.09185447  , -9.78998852 , -0.0013067011, -0.00130419212, -0.0005845157, -0.17796953 , -0.163812861, 0.43953082  , -0.00727359438, -0.0113886846, 2.42171121  , 1.27        , 3           , 12          , 0.0378818735, 0
-0.115039594, 0.08156441  , -9.800011   , -0.00228965958, -0.0024371373, -0.000661494967, -0.178036943, -0.164149925, 0.4394634   , -0.00729641831, -0.011413102, 2.42170453  , 1.28        , 3           , 50          , 0           , 0
-0.09847145 , 0.06827376  , -9.796774   , -0.000192631851, 0.00173026964, -0.00170473312, -0.178036943, -0.164149925, 0.4394634   , -0.00729814824, -0.0113959238, 2.42168736  , 1.29        , 3           , 11          , 0.008407936 , 0.008407934
-0.101328611, 0.0623892844, -9.781452   , -0.00174868619, 0.001081917 , -0.000934406067, -0.178104356, -0.1640151  , 0.439396    , -0.0074026417, -0.0113112265, 2.42167878  , 1.3         , 3           , 12          , 0.0384587422, 0
-0.112342969, 0.07705276  , -9.8095     , -0.00251693325, -0.0006831185, -0.00143518043, -0.178239182, -0.163745448, 0.439396    , -0.00742764957, -0.011318163, 2.421665    , 1.31        , 3           , 50          , 0           , 0
-0.131409764, 0.07545025  , -9.803324   , -0.00188365253, 2.509786E-05, 0.0008291673, -0.17796953 , -0.163947687, 0.4394634   , -0.00744658 , -0.01131785 , 2.421673    , 1.32        , 3           , 11          , 0.008369008 , 0.008369004
-0.118695572, 0.0789015442, -9.800502   , -0.00166963763, -0.000466209865, 0.000405589351, -0.17796953 , -0.163947687, 0.4394634   , -0.007463322, -0.0113224825, 2.42167687  , 1.33        , 3           , 12          , 0.0384587422, 0
-0.112131916, 0.0652464554, -9.788304   , -0.00187446922, -0.00180507451, 0.00103824981, -0.177632466, -0.1640151  , 0.439261168 , -0.00748218643, -0.0113404542, 2.42168784  , 1.34        , 3           , 50          , 0           , 0
-0.106669858, 0.06609857  , -9.792327   , 0.0008070284, -0.00150536525, 0.0007686572, -0.177902117, -0.163880274, 0.4394634   , -0.00747420453, -0.0113554494, 2.421696    , 1.35        , 3           , 11          , 0.008369008 , 0.008369004
-0.129043147, 0.08577293  , -9.795128   , 0.00107967854, 0.00039710704, 0.000137193812, -0.17796953 , -0.163610622, 0.439396    , -0.00746342447, -0.0113514671, 2.421697    , 1.36        , 3           , 12          , 0.0384587422, 0
-0.135885134, 0.07331417  , -9.823255   , 0.00277297129, 0.000549346558, -0.0008435687, -0.177902117, -0.163812861, 0.439193755 , -0.007435598, -0.0113460375, 2.42168832  , 1.37        , 3           , 50          , 0           , 0
-0.1060778  , 0.0653134137, -9.828936   , 0.00192216528, 0.001247529 , -0.000917069, -0.177902117, -0.163812861, 0.439193755 , -0.00741627 , -0.0113336314, 2.42167926  , 1.38        , 3           , 11          , 0.008369008 , 0.008369004
-0.1099521  , 0.08739509  , -9.807178   , -0.00194638455, -0.00166477228, -2.13779349E-05, -0.178104356, -0.163880274, 0.439396    , -0.00743573438, -0.0113502787, 2.42167926  , 1.39        , 3           , 12          , 0.0384587422, 0
-0.123545818, 0.0812974051, -9.824934   , 0.0004884815, -0.00149022008, 0.0013325396, -0.178036943, -0.164082512, 0.439261168 , -0.007471995, -0.0114256507, 2.421693    , 1.4         , 3           , 50          , 0           , 0
-0.11871697 , 0.08022325  , -9.791003   , 0.00295069953, 0.000215879481, 0.000216516724, -0.17796953 , -0.1640151  , 0.439126343 , -0.00744251255, -0.0114234751, 2.421695    , 1.41        , 3           , 11          , 0.008349144 , 0.008349142
-0.130243227, 0.06813725  , -9.779842   , -0.00128752308, 0.000398400036, -0.001144965, -0.17796953 , -0.1640151  , 0.439126343 , -0.0074552563, -0.0114195757, 2.42168355  , 1.42        , 3           , 12          , 0.0390738249, 0
-0.114702694, 0.07610901  , -9.789183   , 0.00053435564, 0.00308568031, -0.00226243259, -0.17796953 , -0.163880274, 0.4394634   , -0.007449653, -0.0113888886, 2.42166066  , 1.43        , 3           , 50          , 0           , 0
-0.09471288 , 0.07860772  , -9.796702   , 0.00102194014, 0.004426456 , -0.00232870085, -0.178036943, -0.163880274, 0.4394634   , -0.00743916538, -0.0113447988, 2.4216373   , 1.44        , 3           , 11          , 0.008349144 , 0.008349142
-0.111173116, 0.066618    , -9.796879   , 0.000186360441, 0.00223860121, -0.0007820585, -0.177699879, -0.164149925, 0.439261168 , -0.007437211, -0.0113224722, 2.42162919  , 1.45        , 3           , 12          , 0.0390738249, 0
-0.132044032, 0.0619179979, -9.802481   , -0.00170083076, -0.00171620364, -0.00136209792, -0.177699879, -0.164149925, 0.439261168 , -0.007454066, -0.0113397352, 2.42161584  , 1.46        , 3           , 50          , 0           , 0
-0.105991371, 0.08145205  , -9.798133   , -0.00311790686, -0.0006698829, -0.000872614735, -0.178104356, -0.163745448, 0.439261168 , -0.00748514663, -0.0113464976, 2.42160726  , 1.47        , 3           , 11          , 0.008349144 , 0.008349142
-0.111828655, 0.0922732055, -9.775534   , -0.00256848754, 0.00236075954, -0.00164229423, -0.1778347  , -0.1640151  , 0.439396    , -0.00751064159, -0.0113230152, 2.42159057  , 1.48        , 3           , 12          , 0.0390738249, 0
-0.117013894, 0.06761662  , -9.805055   , -0.001637298, -0.000237508182, -0.000935684249, -0.178036943, -0.1640151  , 0.439396    , -0.00752690854, -0.0113254609, 2.42158151  , 1.49        , 3           , 50          , 0           , 0
-0.08855161 , 0.0574108474, -9.82115    , -0.0008063979, -0.00183860981, -0.000369207584, -0.178036943, -0.1640151  , 0.439396    , -0.00756312441, -0.0114112413, 2.42157769  , 1.5         , 3           , 11          , 0.008332824 , 0.00833282247
-0.103572406, 0.09449525  , -9.793993   , -0.00122757652, -0.00240460667, -0.0009371259, -0.178104356, -0.163947687, 0.439665645 , -0.00757529633, -0.0114353579, 2.421569    , 1.51        , 3           , 12          , 0.0397249833, 0
-0.127594262, 0.0871694   , -9.812738   , -0.00144989963, -1.27295152E-05, 0.00139650912, -0.177767292, -0.163610622, 0.43953082  , -0.007589954, -0.01143538 , 2.42158246  , 1.52        , 3           , 50          , 0           , 0
-0.1378442  , 0.06741302  , -9.806119   , -0.00188244891, 0.00146261451, -0.0013579285, -0.177767292, -0.163745448, 0.439396    , -0.00760862324, -0.0114208562, 2.421569    , 1.53        , 3           , 11          , 0.008332824 , 0.00833282247
-0.107954584, 0.07242308  , -9.79005051 , -0.00138096511, -1.22601932E-05, -0.00149917067, -0.177767292, -0.163745448, 0.439396    , -0.00762226153, -0.0114210928, 2.42155385  , 1.54        , 3           , 12          , 0.0397249833, 0
-0.106744379, 0.06871628  , -9.765648   , 0.000101197431, 0.0002793362, -7.91357452E-05, -0.177767292, -0.163880274, 0.43953082  , -0.00762124 , -0.0114183053, 2.42155337  , 1.55        , 3           , 50          , 0           , 0
-0.10056816 , 0.08271904  , -9.7913065  , 0.000119749529, -0.00345140067, 5.63833164E-05, -0.1778347  , -0.163745448, 0.43953082  , -0.007620053, -0.0114528155, 2.42155385  , 1.56        , 3           , 11          , 0.008332824 , 0.00833282247
-0.107386492, 0.07965281  , -9.794987   , -0.00130720332, -0.000574911, -0.0008640002, -0.177902117, -0.163745448, 0.4394634   , -0.00763302669, -0.0114586307, 2.42154527  , 1.57        , 3           , 12          , 0.0397249833, 0
-0.09946556 , 0.0619637445, -9.795451   , -0.00151859352, -0.000646734436, -0.0007238276, -0.177902117, -0.163745448, 0.4394634   , -0.007648131, -0.0114651527, 2.42153859  , 1.58        , 3           , 50          , 0           , 0
-0.109542221, 0.08735502  , -9.79678    , -0.00145020382, -8.312398E-05, 0.00026625063, -0.177767292, -0.163745448, 0.439126343 , -0.00766266324, -0.011465963, 2.421541    , 1.59        , 3           , 11          , 0.008332824 , 0.00833282247
-0.116993167, 0.07298961  , -9.792829   , 0.000220615912, 0.0013792828, -0.000712054258, -0.17796953 , -0.163880274, 0.4394634   , -0.0076796324, -0.0114009893, 2.42153382  , 1.6         , 3           , 12          , 0.0404101051, 0
-0.113860764, 0.0706906   , -9.791006   , 0.00163113023, 0.00174078962, -0.000493024, -0.177767292, -0.163880274, 0.43953082  , -0.0076632644, -0.01138362 , 2.421529    , 1.61        , 3           , 50          , 0           , 0
-0.118575081, 0.083016336 , -9.816754   , -0.00315303123, -0.00167045859, 0.000115090079, -0.1778347  , -0.163947687, 0.439126343 , -0.0076948097, -0.011400315, 2.42153     , 1.62        , 3           , 11          , 0.0083104   , 0.0083104
-0.111972913, 0.07608769  , -9.792325   , -0.00145730586, -0.00172938616, 0.00153557048, -0.1778347  , -0.163947687, 0.439126343 , -0.00770955952, -0.0114174895, 2.42154574  , 1.63        , 3           , 12          , 0.0404101051, 0
-0.103315338, 0.07424557  , -9.811251   , 0.0005098202, 0.000325331319, 0.00197174144, -0.17796953 , -0.163678035, 0.43953082  , -0.00770468637, -0.0114140846, 2.42156529  , 1.64        , 3           , 50          , 0           , 0
-0.11856287 , 0.0767773241, -9.839831   , -0.000903619046, 0.000315775134, -0.000295142934, -0.17796953 , -0.163610622, 0.4394634   , -0.007713688, -0.0114109516, 2.42156243  , 1.65        , 3           , 11          , 0.0083104   , 0.0083104
-0.113999173, 0.0874656141, -9.813989   , -0.0003349097, -0.0005251018, -0.0008588858, -0.177902117, -0.163880274, 0.439328581 , -0.00771694 , -0.0114162685, 2.42155385  , 1.66        , 3           , 12          , 0.0404101051, 0
-0.127791017, 0.08076106  , -9.785195   , 0.00134496985, 0.002583577 , 0.000283938745, -0.177902117, -0.163880274, 0.439328581 , -0.00770352129, -0.0113904113, 2.42155671  , 1.67        , 3           , 50          , 0           , 0
-0.109156154, 0.0828321353, -9.794988   , 0.00162830111, 0.00230391975, -0.0005627905, -0.177902117, -0.163880274, 0.439193755 , -0.007687172, -0.0113674169, 2.421551    , 1.68        , 3           , 11          , 0.0083104   , 0.0083104
-0.111979634, 0.0796530545, -9.779203   , -5.38768945E-05, -0.0002416267, -0.000857134932, -0.178104356, -0.163678035, 0.43953082  , -0.00768761337, -0.0113699  , 2.42154241  , 1.69        , 3           , 12          , 0.0404101051, 0
-0.1257564  , 0.06046291  , -9.794303   , -0.00207506865, -0.00141047291, 0.001392589 , -0.1778347  , -0.163947687, 0.439193755 , -0.00777118 , -0.0114197386, 2.42155719  , 1.7         , 3           , 50          , 0           , 0
-0.121498972, 0.0726143   , -9.79964352 , 0.00159222365, -0.0008225203, -0.00113226043, -0.1778347  , -0.163947687, 0.439193755 , -0.007755128, -0.0114280516, 2.42154622  , 1.71        , 3           , 11          , 0.008277647 , 0.008277649
-0.111658387, 0.0630262047, -9.800513   , 0.000751498039, -0.00195450569, 0.0005572778, -0.178036943, -0.1640151  , 0.439328581 , -0.007747678, -0.0114475517, 2.421552    , 1.72        , 3           , 12          , 0.0411271453, 0
-0.0976700038, 0.06103716  , -9.7945385  , 0.00214994443, 0.000589124335, -0.00140999421, -0.1778347  , -0.163745448, 0.439396    , -0.00772601645, -0.0114417681, 2.42153764  , 1.73        , 3           , 50          , 0           , 0
-0.105299   , 0.0678781644, -9.789597   , -0.0009510117, -0.000558144937, -0.00114367891, -0.1778347  , -0.164217338, 0.439328581 , -0.00773539674, -0.0114474371, 2.42152619  , 1.74        , 3           , 11          , 0.008277647 , 0.008277649
-0.14300783 , 0.08956658  , -9.801095   , -0.00180428324, 0.0008439554, 0.000549764838, -0.1778347  , -0.164217338, 0.439328581 , -0.00775350165, -0.0114389565, 2.42153144  , 1.75        , 3           , 12          , 0.0411271453, 0
-0.126646057, 0.0618254878, -9.793852   , -0.000390918285, 0.000571939338, 0.000273378 , -0.178104356, -0.163812861, 0.439193755 , -0.007757441, -0.0114332149, 2.4215343   , 1.76        , 3           , 50          , 0           , 0
-0.0978535637, 0.0497296527, -9.785999   , 0.00100604491, 0.003678706 , 0.00056727347, -0.177632466, -0.1640151  , 0.43953082  , -0.007747443, -0.0113963857, 2.42153955  , 1.77        , 3           , 11          , 0.008277647 , 0.008277649
-0.101300061, 0.0606270246, -9.794115   , 0.0024267952, 0.00171729468, -0.00140694156, -0.177902117, -0.163880274, 0.439396    , -0.00772301434, -0.011379322, 2.42152524  , 1.78        , 3           , 12          , 0.0411271453, 0
-0.1287387  , 0.0767204   , -9.787931   , -0.00152046245, 0.0005643002, 0.000550647848, -0.177902117, -0.163880274, 0.439396    , -0.007738281, -0.0113736363, 2.421531    , 1.79        , 3           , 50          , 0           , 0
-0.112670243, 0.09055028  , -9.796791   , -0.00087488 , 0.00220685173, -0.001705829, -0.178104356, -0.163745448, 0.4394634   , -0.007631972, -0.01141604 , 2.42151237  , 1.8         , 3           , 11          , 0.0082329195, 0.008232921
-0.0868953  , 0.09245164  , -9.781218   , -0.0008672574, 0.0007990295, -0.000577848637, -0.177902117, -0.163812861, 0.439261168 , -0.007640578, -0.0114080943, 2.42150617  , 1.81        , 3           , 12          , 0.04187412  , 0
-0.102022849, 0.07596167  , -9.789537   , 0.00140256784, -0.00115664315, 0.000559799 , -0.1778347  , -0.164217338, 0.439396    , -0.0076266164, -0.0114196176, 2.421512    , 1.82        , 3           , 50          , 0           , 0
-0.112044252, 0.07290544  , -9.785107   , 0.00196086662, -2.6567548E-05, -0.00113105611, -0.1778347  , -0.164217338, 0.439396    , -0.00760687934, -0.01141997 , 2.42150044  , 1.83        , 3           , 11          , 0.0082329195, 0.008232921
-0.110477418, 0.08510988  , -9.796797   , 0.0027990418, 0.0019501209, 6.081973E-06, -0.177902117, -0.163880274, 0.439193755 , -0.00757888751, -0.0114004677, 2.42150044  , 1.84        , 3           , 12          , 0.04187412  , 0
-0.11494416 , 0.08967607  , -9.797264   , 0.00111358613, -3.2297452E-05, -0.001135007, -0.177902117, -0.163745448, 0.439396    , -0.007567622, -0.0114008775, 2.421489    , 1.85        , 3           , 50          , 0           , 0
-0.113658495, 0.07442529  , -9.828504   , -0.00198212 , -0.00230582873, -0.0014355022, -0.177902117, -0.163880274, 0.439261168 , -0.00758728245, -0.0114240432, 2.42147517  , 1.86        , 3           , 11          , 0.0082329195, 0.008232921
-0.07594045 , 0.0576541834, -9.803426   , -0.002563212, 0.0010691348, -0.000585316331, -0.177902117, -0.163880274, 0.439261168 , -0.007612846, -0.0114133973, 2.421469    , 1.87        , 3           , 12          , 0.04187412  , 0
-0.08073618 , 0.0458851829, -9.77594    , 0.00337988185, -0.0011432718, 0.00113409245, -0.1778347  , -0.163812861, 0.439396    , -0.00757917762, -0.0114247436, 2.42148042  , 1.88        , 3           , 50          , 0           , 0
-0.09892949 , 0.06872116  , -9.79406452 , -0.0005699117, -0.00201470638, 0.00111435377, -0.1778347  , -0.163880274, 0.439396    , -0.007585007, -0.0114448052, 2.42149186  , 1.89        , 3           , 11          , 0.0082329195, 0.008232921
-0.09867538 , 0.0872274339, -9.796697   , -0.003923276, 0.001474563 , 0.00138670788, -0.17796953 , -0.163947687, 0.439396    , -0.007555418, -0.01125404 , 2.42150521  , 1.9         , 3           , 12          , 0.0426491052, 0
-0.143809825, 0.09858813  , -9.797447   , 0.000319117942, 9.538268E-05, -0.00029093257, -0.177699879, -0.163812861, 0.439261168 , -0.00755219441, -0.0112531055, 2.42150235  , 1.91        , 3           , 50          , 0           , 0
-0.114917465, 0.08791228  , -9.809474   , 0.0005912973, 0.00206824578, -0.00113419071, -0.177699879, -0.163812861, 0.439261168 , -0.00754615152, -0.0112325093, 2.42149043  , 1.92        , 3           , 11          , 0.008176878 , 0.008176875
-0.09820741 , 0.0600812137, -9.776919   , 0.00115770812, 0.00179050129, -0.00084945315, -0.178104356, -0.163678035, 0.439328581 , -0.007534478, -0.0112146679, 2.42148185  , 1.93        , 3           , 12          , 0.0426491052, 0
-0.119085938, 0.08520635  , -9.795506   , 0.00201442069, -0.000174725777, -0.00141361484, -0.177902117, -0.163880274, 0.439193755 , -0.007514176, -0.0112165241, 2.421468    , 1.94        , 3           , 50          , 0           , 0
-0.103480183, 0.07321931  , -9.774193   , -0.00195612013, 0.00317731663, -0.00114430732, -0.177902117, -0.163610622, 0.439396    , -0.00753360568, -0.0111848358, 2.421456    , 1.95        , 3           , 11          , 0.008176878 , 0.008176875
-0.11014621 , 0.07697176  , -9.793211   , -0.002227395, 0.00092288584, -0.00114909571, -0.177902117, -0.163610622, 0.439396    , -0.00755575 , -0.0111756967, 2.42144418  , 1.96        , 3           , 12          , 0.0426491052, 0
-0.125168383, 0.05922812  , -9.831367   , -0.00138208666, 0.00149174966, 0.0002684102, -0.17796953 , -0.163678035, 0.439396    , -0.00756959943, -0.0111607583, 2.421447    , 1.97        , 3           , 50          , 0           , 0
-0.104457565, 0.0918443352, -9.80757    , 0.0003196074, 9.538501E-05, 0.0005566797, -0.178036943, -0.163745448, 0.439261168 , -0.0075664646, -0.0111597618, 2.42145276  , 1.98        , 3           , 11          , 0.008176878 , 0.008176875
-0.0915346146, 0.08036302  , -9.793055   , -0.000809358433, -0.000193823085, -0.000579171756, -0.177902117, -0.163745448, 0.439126343 , -0.00757449353, -0.0111617437, 2.421447    , 1.99        , 3           , 12          , 0.0426491052, 0
-0.133471191, 0.0596464463, -9.79301    , 0.0005511162, 0.00322069786, -1.70912244E-06, -0.177902117, -0.163745448, 0.439126343 , -0.007617305, -0.0110936556, 2.421447    , 2           , 3           , 50          , 0           , 0
-0.1136717  , 0.07932446  , -9.8095     , 0.000860844855, -0.002127125, 0.00140405062, -0.1778347  , -0.1640151  , 0.439261168 , -0.007608855, -0.01111482 , 2.42146134  , 2.01        , 3           , 11          , 0.008110632 , 0.008110627
-0.111628525, 0.06305038  , -9.807744   , -2.09594145E-06, 0.0009643594, 0.0008397981, -0.177767292, -0.163880274, 0.439193755 , -0.007608968, -0.0111051118, 2.42147     , 2.02        , 3           , 12          , 0.0434502773, 0
-0.12891525 , 0.0622941479, -9.791157   , 0.0008373987, 0.00237791077, -0.0005667687, -0.177767292, -0.163745448, 0.439396    , -0.00760052865, -0.0110813789, 2.42146373  , 2.03        , 3           , 50          , 0           , 0
-0.115696684, 0.06488923  , -9.8037     , -0.002254867, -0.000458747469, 0.000262017915, -0.177767292, -0.163745448, 0.439396    , -0.00762310531, -0.0110859443, 2.421466    , 2.04        , 3           , 11          , 0.008110632 , 0.008110627
-0.115783431, 0.09107946  , -9.809015   , -0.000550711, -0.00241824379, -1.56555325E-05, -0.17796953 , -0.163812861, 0.439126343 , -0.007628613, -0.011110127, 2.42146659  , 2.05        , 3           , 12          , 0.0434502773, 0
-0.112363584, 0.07435795  , -9.813127   , 0.00253876671, 0.0009815444, -0.0008435743, -0.1778347  , -0.1640151  , 0.439396    , -0.00760313123, -0.0111003751, 2.42145848  , 2.06        , 3           , 50          , 0           , 0
-0.107288606, 0.0859810337, -9.798575   , -0.000282387336, 0.0003993161, -0.000292536482, -0.177902117, -0.163947687, 0.439396    , -0.007605923, -0.0110964049, 2.42145514  , 2.07        , 3           , 11          , 0.008110632 , 0.008110627
-0.09877555 , 0.07777292  , -9.802613   , 0.000551857636, 0.00293912971, -0.00113229279, -0.177902117, -0.163947687, 0.439396    , -0.00760027673, -0.0110671008, 2.42144322  , 2.08        , 3           , 12          , 0.0434502773, 0
-0.125186861, 0.07215729  , -9.785212   , 0.00281545427, 0.00210971385, -0.00112305908, -0.178036943, -0.163745448, 0.43905893  , -0.007571996, -0.0110460892, 2.42143226  , 2.09        , 3           , 50          , 0           , 0
-0.104704447, 0.07557568  , -9.799503   , -0.00198528264, -0.000792241655, -0.0005849662, -0.17796953 , -0.163812861, 0.439328581 , -0.00761136 , -0.0111307632, 2.421427    , 2.1         , 3           , 11          , 0.008034887 , 0.008034885
-0.100019917, 0.09082538  , -9.788557   , 0.0008295537, 0.00119781517, -3.68460337E-06, -0.177767292, -0.163947687, 0.439261168 , -0.007603063, -0.0111187836, 2.42142653  , 2.11        , 3           , 12          , 0.04427589  , 0
-0.113458641, 0.06260992  , -9.804596   , -0.00481626857, 0.000314913545, -0.00257416232, -0.177767292, -0.163947687, 0.439261168 , -0.007650939, -0.0111158313, 2.42140079  , 2.12        , 3           , 50          , 0           , 0
-0.11836952 , 0.073883675 , -9.785604   , -0.00366655621, -0.00361935562, -0.00172735716, -0.177902117, -0.163880274, 0.439261168 , -0.00768741546, -0.0111521557, 2.421384    , 2.13        , 3           , 11          , 0.008034887 , 0.008034885
-0.09797652 , 0.07231974  , -9.794043   , -0.001141858, 5.81851928E-05, -1.46388775E-05, -0.177767292, -0.163745448, 0.439261168 , -0.00769883255, -0.0111515746, 2.421384    , 2.14        , 3           , 12          , 0.04427589  , 0
-0.10220772 , 0.06286771  , -9.78643    , -0.00113258942, -0.00191277277, -0.000865288661, -0.1778347  , -0.163610622, 0.439328581 , -0.00771006336, -0.0111707682, 2.42137551  , 2.15        , 3           , 50          , 0           , 0
-0.130058542, 0.0758748651, -9.800148   , -0.00338888983, -0.00249118125, -0.000311617, -0.177767292, -0.163812861, 0.43905893  , -0.007743919, -0.0111957062, 2.42137265  , 2.16        , 3           , 11          , 0.008034887 , 0.008034885
-0.121892363, 0.072221376 , -9.815468   , -0.0005785615, 0.000343569351, -0.000294108322, -0.177767292, -0.163812861, 0.43905893  , -0.00774967251, -0.011192292, 2.42136979  , 2.17        , 3           , 12          , 0.04427589  , 0
-0.112366438, 0.0730165839, -9.816748   , -0.00115398888, 0.002310701 , -0.00170639216, -0.177767292, -0.163745448, 0.4394634   , -0.00776101975, -0.0111693172, 2.42135215  , 2.18        , 3           , 50          , 0           , 0
-0.08063003 , 0.08339048  , -9.792055   , 0.0022445505, 0.000925807049, 0.00254530343, -0.177767292, -0.163745448, 0.439193755 , -0.007738856, -0.0111598624, 2.42137742  , 2.19        , 3           , 11          , 0.008034887 , 0.008034885
-0.0908239  , 0.06635763  , -9.790396   , -0.00170639658, 0.00203820551, -0.00142694742, -0.1778347  , -0.163947687, 0.439261168 , -0.00773963146, -0.0111204945, 2.421363    , 2.2         , 3           , 12          , 0.0451242775, 0
-0.08989649 , 0.06815009  , -9.789929   , 0.00027321605, 0.00148844416, -0.00170113437, -0.1778347  , -0.163947687, 0.439261168 , -0.0077367085, -0.0111057432, 2.421346    , 2.21        , 3           , 50          , 0           , 0
-0.11807698 , 0.08885028  , -9.809043   , -0.000286639872, 0.000639933 , -0.0002923825, -0.177767292, -0.163745448, 0.439328581 , -0.00773954252, -0.0110993674, 2.421343    , 2.22        , 3           , 11          , 0.007953473 , 0.0079534715
-0.128180817, 0.08528091  , -9.786083   , 0.0016942037, -0.000191394065, -0.000849540753, -0.177902117, -0.163812861, 0.439396    , -0.00772250537, -0.0111013455, 2.42133451  , 2.23        , 3           , 12          , 0.0451242775, 0
-0.125586018, 0.07666958  , -9.783839   , 0.000848317 , -0.0004786891, -0.0008539255, -0.177767292, -0.163947687, 0.439193755 , -0.007713929, -0.0111061977, 2.421326    , 2.24        , 3           , 50          , 0           , 0
-0.124663293, 0.06953125  , -9.810982   , 0.000847575662, -0.000197120811, 0.0002766582, -0.177767292, -0.163947687, 0.439193755 , -0.007705482, -0.011108146, 2.42132878  , 2.25        , 3           , 11          , 0.007953473 , 0.0079534715
-0.123235606, 0.07760578  , -9.801897   , -0.00225863 , -0.000218128218, 0.00110978435, -0.1778347  , -0.163947687, 0.439328581 , -0.00772819249, -0.0111102415, 2.42134023  , 2.26        , 3           , 12          , 0.0451242775, 0
-0.104975514, 0.08688699  , -9.807594   , 1.0379561E-05, -0.00217380468, 0.000834744831, -0.1778347  , -0.163678035, 0.439328581 , -0.007728183, -0.0111319153, 2.42134833  , 2.27        , 3           , 50          , 0           , 0
-0.114662528, 0.0774806   , -9.7946     , 0.00169854867, -0.00103608845, -0.000568305, -0.1778347  , -0.163947687, 0.439328581 , -0.007711135, -0.0111423191, 2.421343    , 2.28        , 3           , 11          , 0.007953473 , 0.0079534715
-0.107538782, 0.07283415  , -9.779649   , 0.000279607775, 0.000362187828, -0.000290182536, -0.1778347  , -0.163947687, 0.439328581 , -0.00770830642, -0.01113872 , 2.42133975  , 2.29        , 3           , 12          , 0.0451242775, 0
-0.09426001 , 0.08128059  , -9.7881     , -0.000858525163, -0.000524944044, 0.0005507198, -0.177767292, -0.163745448, 0.439126343 , -0.00773711363, -0.0111975232, 2.42134547  , 2.3         , 3           , 50          , 0           , 0
-0.119090408, 0.0816319138, -9.805916   , 0.0002609346, 0.001453649 , -0.0002885872, -0.177902117, -0.163678035, 0.439193755 , -0.00773447147, -0.01118301 , 2.42134213  , 2.31        , 3           , 11          , 0.007866251 , 0.00786625
-0.112312779, 0.07752356  , -9.815372   , 0.00222644419, 0.003719538 , -0.000840972236, -0.177902117, -0.163812861, 0.439193755 , -0.00771211 , -0.01114588 , 2.42133355  , 2.32        , 3           , 12          , 0.045993872 , 0
-0.108778186, 0.07740998  , -9.794104   , 0.00111346482, 0.0003331171, -0.0008514471, -0.177902117, -0.163812861, 0.439193755 , -0.007700881, -0.0111426152, 2.421325    , 2.33        , 3           , 50          , 0           , 0
-0.130035788, 0.0514181741, -9.7735815  , -0.000296459562, 4.20060824E-05, 0.000554221566, -0.17796953 , -0.163745448, 0.439193755 , -0.00770390732, -0.0111421552, 2.42133069  , 2.34        , 3           , 11          , 0.007866251 , 0.00786625
-0.11509683 , 0.0472232252, -9.785688   , -0.000570685545, -0.00164929486, 0.000267763418, -0.178036943, -0.163678035, 0.439193755 , -0.007709645, -0.0111586237, 2.42133355  , 2.35        , 3           , 12          , 0.045993872 , 0
-0.09711341 , 0.0678112   , -9.798121   , -0.00113267684, -0.00193467294, 0.002807533 , -0.1778347  , -0.163543209, 0.439126343 , -0.00772128627, -0.011177754, 2.42136216  , 2.36        , 3           , 50          , 0           , 0
-0.09026434 , 0.0695632845, -9.806198   , -0.000581585569, 0.000321654923, -0.00170696131, -0.1778347  , -0.163543209, 0.439126343 , -0.007726912, -0.0111746695, 2.421345    , 2.37        , 3           , 11          , 0.007866251 , 0.00786625
-0.109733135, 0.07113171  , -9.802273   , -0.00170998764, 0.000314021279, 0.000548070762, -0.1778347  , -0.163880274, 0.438991517 , -0.007744074, -0.0111714862, 2.42135024  , 2.38        , 3           , 12          , 0.045993872 , 0
-0.113069512, 0.05719684  , -9.806423   , 0.000264790346, 0.00060895225, -0.0008549641, -0.177767292, -0.163745448, 0.439396    , -0.007741329, -0.0111654634, 2.42134166  , 2.39        , 3           , 50          , 0           , 0
-0.09747234 , 0.0487736538, -9.771536   , -0.00502441125, 1.2021279E-05, -0.000316572754, -0.1778347  , -0.163745448, 0.439126343 , -0.007673436, -0.0111613739, 2.42133737  , 2.4         , 3           , 11          , 0.00777373835, 0.00777373556
-0.106165156, 0.0656889752, -9.806335   , 0.000335054618, 0.00145613751, 0.0002756934, -0.1778347  , -0.163745448, 0.439126343 , -0.00767011475, -0.0111467922, 2.42134023  , 2.41        , 3           , 12          , 0.04688318  , 0
-0.102910288, 0.07018444  , -9.81262    , 0.00118438178, 0.00118030561, 0.00140936032, -0.1778347  , -0.163880274, 0.43905893  , -0.00765842572, -0.0111348815, 2.42135358  , 2.42        , 3           , 50          , 0           , 0
-0.113103457, 0.06431094  , -9.775207   , 6.03391927E-05, -0.000235165935, -0.00085837685, -0.178036943, -0.163745448, 0.439261168 , -0.00765772862, -0.0111372992, 2.421345    , 2.43        , 3           , 11          , 0.00777373835, 0.00777373556
-0.114430442, 0.0714938939, -9.75982    , -0.00136278372, 0.00200780574, -0.0005789526, -0.177767292, -0.163947687, 0.439193755 , -0.007671289, -0.0111172665, 2.42133927  , 2.44        , 3           , 12          , 0.04688318  , 0
-0.116146326, 0.07427044  , -9.774284   , 0.001458207 , 0.00259003323, -0.00141252775, -0.177902117, -0.163812861, 0.439126343 , -0.00765654771, -0.0110914735, 2.421325    , 2.45        , 3           , 50          , 0           , 0
-0.1055782  , 0.0782901943, -9.798595   , 0.004015783 , -0.00020841934, 0.00170289748, -0.177902117, -0.163812861, 0.439126343 , -0.0076165786, -0.0110934274, 2.42134213  , 2.46        , 3           , 11          , 0.00777373835, 0.00777373556
-0.108573377, 0.0571179725, -9.798706   , -0.0007930954, 0.00116693345, 0.000552529236, -0.17796953 , -0.163812861, 0.439261168 , -0.007624569, -0.011081717, 2.42134786  , 2.47        , 3           , 12          , 0.04688318  , 0
-0.119086161, 0.04466243  , -9.815109   , -0.000502794166, -0.0005205494, -0.0002963697, -0.17796953 , -0.1634758  , 0.439261168 , -0.007629564, -0.0110869445, 2.42134452  , 2.48        , 3           , 50          , 0           , 0
-0.119355731, 0.0631165653, -9.800571   , 0.00117856823, 0.002024993 , -0.00141471263, -0.177565053, -0.164082512, 0.439126343 , -0.00761762029, -0.0110668028, 2.42133021  , 2.49        , 3           , 11          , 0.00777373835, 0.00777373556
-0.111182116, 0.06705706  , -9.793261   , 0.00268529542, 0.00144099933, -0.00225790124, -0.177565053, -0.164082512, 0.439126343 , -0.007437116, -0.0111030815, 2.421306    , 2.5         , 3           , 12          , 0.0477908067, 0
-0.126484737, 0.0682051   , -9.812809   , 0.0009961474, 0.000303278561, -0.00255007623, -0.177699879, -0.163947687, 0.439126343 , -0.00742687052, -0.01110024 , 2.42128015  , 2.51        , 3           , 50          , 0           , 0
-0.113671355, 0.07977108  , -9.808143   , 0.000153775909, -0.000265571347, 0.00111809233, -0.178036943, -0.163678035, 0.439396    , -0.0074254577, -0.0111028114, 2.42129159  , 2.52        , 3           , 11          , 0.00767880538, 0.00767880166
-0.09799419 , 0.0736444741, -9.78545    , -0.00265581068, -0.003381889, -3.00002575E-05, -0.177699879, -0.163880274, 0.439328581 , -0.00745201437, -0.0111366315, 2.42129159  , 2.53        , 3           , 12          , 0.0477908067, 0
-0.09628552 , 0.06104237  , -9.800855   , -0.004634845, -0.00311369775, -0.00116893463, -0.177699879, -0.163880274, 0.439328581 , -0.00749823451, -0.0111678541, 2.42128015  , 2.54        , 3           , 50          , 0           , 0
-0.106649   , 0.06656182  , -9.79594    , 0.00183932006, 0.00143527577, -1.55242742E-06, -0.17796953 , -0.163880274, 0.439328581 , -0.00747984042, -0.0111535015, 2.42128015  , 2.55        , 3           , 11          , 0.00767880538, 0.00767880166
-0.12258821 , 0.0586392432, -9.799711   , 0.00127258315, 0.00171301863, -0.0008513646, -0.17796953 , -0.1640151  , 0.439328581 , -0.007467018, -0.0111364359, 2.421271    , 2.56        , 3           , 12          , 0.0477908067, 0
-0.09320152 , 0.0613822453, -9.778683   , -0.000969287648, -0.00168103806, 0.00054558  , -0.1778347  , -0.163812861, 0.439328581 , -0.007476775, -0.0111532044, 2.42127681  , 2.57        , 3           , 50          , 0           , 0
-0.107509263, 0.072411716 , -9.788239   , -0.00209481316, -0.00253337342, 0.000539010449, -0.1778347  , -0.163812861, 0.439328581 , -0.00749778468, -0.0111784972, 2.421282    , 2.58        , 3           , 11          , 0.00767880538, 0.00767880166
-0.1206468  , 0.06586512  , -9.808254   , -0.00182927726, 0.0008473169, 0.000262997055, -0.177902117, -0.163880274, 0.439126343 , -0.00751610566, -0.0111700036, 2.421285    , 2.59        , 3           , 12          , 0.0477908067, 0
-0.128579378, 0.08042032  , -9.815033   , 0.000480417017, 0.002547214 , -0.00141978252, -0.17796953 , -0.163543209, 0.439126343 , -0.00740831625, -0.0111528467, 2.42126966  , 2.6         , 3           , 50          , 0           , 0
-0.104950838, 0.09003144  , -9.803514   , -0.00149468728, 0.00225228141, -0.000581822533, -0.1778347  , -0.164149925, 0.439261168 , -0.00742319645, -0.0111303683, 2.42126346  , 2.61        , 3           , 11          , 0.00758306356, 0.00758305844
-0.0941299349, 0.06583785  , -9.758784   , -0.000366374035, 0.00254148641, -0.000576120859, -0.1778347  , -0.164149925, 0.439261168 , -0.007426794, -0.0111049945, 2.42125726  , 2.62        , 3           , 12          , 0.04871542  , 0
-0.117150396, 0.05947171  , -9.797857   , 0.00275007938, 0.000591540651, -0.000564672169, -0.178104356, -0.163947687, 0.439261168 , -0.00739923073, -0.0110991215, 2.42125154  , 2.63        , 3           , 50          , 0           , 0
-0.108540028, 0.05937676  , -9.7996     , -0.00317686517, -0.0002932648, -0.0008761671, -0.178171769, -0.163880274, 0.439261168 , -0.00743090175, -0.0111021195, 2.421243    , 2.64        , 3           , 11          , 0.00758306356, 0.00758305844
-0.109485589, 0.0882936   , -9.807624   , -0.000907203357, -0.0022489382, -2.10568833E-05, -0.177902117, -0.163745448, 0.439328581 , -0.0074399733, -0.011124609, 2.421243    , 2.65        , 3           , 12          , 0.04871542  , 0
-0.130572021, 0.0744919553, -9.7897625  , 0.001360249 , -0.00392305 , -0.000578199746, -0.177902117, -0.163745448, 0.439328581 , -0.0074263094, -0.011163881, 2.42123723  , 2.66        , 3           , 50          , 0           , 0
-0.133770585, 0.07048846  , -9.795679   , 0.0007720236, 0.0008597375, -8.38202E-06, -0.177767292, -0.163880274, 0.439193755 , -0.00741858874, -0.011155284, 2.42123723  , 2.67        , 3           , 11          , 0.00758306356, 0.00758305844
-0.11124137 , 0.06254554  , -9.793281   , -0.00177899771, 0.0025319343, -0.001430318, -0.177767292, -0.163880274, 0.439396    , -0.00743621774, -0.0111300731, 2.421223    , 2.68        , 3           , 12          , 0.04871542  , 0
-0.09352595 , 0.03344563  , -9.789197   , -0.001766778, -2.15286855E-06, -0.00199929858, -0.177902117, -0.163947687, 0.439328581 , -0.007453663, -0.0111302435, 2.421203    , 2.69        , 3           , 50          , 0           , 0
-0.0833393037, 0.04824087  , -9.796289   , -0.00113084191, -0.000584493857, 0.00139200641, -0.1778347  , -0.163745448, 0.439193755 , -0.00734649459, -0.011177158, 2.42121577  , 2.7         , 3           , 11          , 0.007486323 , 0.00748631638
-0.1106818  , 0.06575121  , -9.809082   , 0.000569458236, -0.00169929361, 0.00168070965, -0.1778347  , -0.163745448, 0.439193755 , -0.00734098954, -0.0111940261, 2.42123246  , 2.71        , 3           , 12          , 0.04965579  , 0
-0.136717126, 0.08722128  , -9.79653549 , -0.002533218, -0.00256499927, 0.00138238422, -0.177902117, -0.163880274, 0.439261168 , -0.007366479, -0.0112195741, 2.42124677  , 2.72        , 3           , 50          , 0           , 0
-0.130587667, 0.06332052  , -9.8219     , 0.003943246 , 0.00142084179, 0.00170128606, -0.1778347  , -0.163947687, 0.439126343 , -0.0073272367, -0.0112052411, 2.42126346  , 2.73        , 3           , 11          , 0.007486323 , 0.00748631638
-0.124848418, 0.05866884  , -9.800632   , -0.00254813675, 0.000250646845, -0.000308501272, -0.177767292, -0.1640151  , 0.43905893  , -0.0073526823, -0.0112027572, 2.42126     , 2.74        , 3           , 12          , 0.04965579  , 0
-0.125118852, 0.07846131  , -9.781569   , 0.0008376187, 0.00111826567, 0.001121291 , -0.177767292, -0.1640151  , 0.43905893  , -0.00734443124, -0.011191492, 2.42127156  , 2.75        , 3           , 50          , 0           , 0
-0.112675607, 0.08831418  , -9.802676   , 0.00283158664, -0.00252871588, -0.000852893747, -0.177902117, -0.163678035, 0.439261168 , -0.007316022, -0.0112168416, 2.421263    , 2.76        , 3           , 11          , 0.007486323 , 0.00748631638
-0.117434345, 0.0761287957, -9.785587   , 0.001964953 , 0.0014074659, -0.0005682321, -0.17796953 , -0.163947687, 0.439328581 , -0.007296308, -0.0112028094, 2.42125726  , 2.77        , 3           , 12          , 0.04965579  , 0
-0.0994153246, 0.07450224  , -9.767377   , -0.002275631, 0.00222351169, -0.0005866843, -0.177902117, -0.163812861, 0.439126343 , -0.007318997, -0.0111806169, 2.42125154  , 2.78        , 3           , 50          , 0           , 0
-0.100700572, 0.06743584  , -9.808093   , 0.000275226776, 0.000551314 , 0.0005527142, -0.177902117, -0.163812861, 0.439126343 , -0.007316306, -0.0111750644, 2.42125726  , 2.79        , 3           , 11          , 0.007486323 , 0.00748631638
-0.125806153, 0.08623676  , -9.810017   , -0.0002857876, 0.000808861747, 0.00168044888, -0.177902117, -0.163947687, 0.439126343 , -0.0073108566, -0.0112042716, 2.42127347  , 2.8         , 3           , 12          , 0.05061075  , 0
-0.122494385, 0.06451781  , -9.803754   , -0.00394716347, -0.00146849314, -3.53677024E-05, -0.1778347  , -0.163745448, 0.43953082  , -0.00735032558, -0.0112189595, 2.42127347  , 2.81        , 3           , 50          , 0           , 0
-0.117814451, 0.07351489  , -9.811815   , 0.003953165 , -7.19173158E-06, -0.00112647365, -0.1778347  , -0.163812861, 0.439261168 , -0.00731066661, -0.0112191141, 2.421262    , 2.82        , 3           , 11          , 0.007389995 , 0.00738998828
-0.12550436 , 0.08119923  , -9.789244   , 0.00310358661, 0.0005502108, -0.000281944056, -0.1778347  , -0.163812861, 0.439261168 , -0.0072796  , -0.0112136342, 2.42125916  , 2.83        , 3           , 12          , 0.05061075  , 0
-0.121821381, 0.08254494  , -9.799605   , 0.000555679435, 0.00165927911, -0.00113967317, -0.1778347  , -0.163678035, 0.439261168 , -0.00727391336, -0.0111971218, 2.42124772  , 2.84        , 3           , 50          , 0           , 0
-0.110447139, 0.08825888  , -9.794071   , -0.0022607143, -4.92133549E-05, -0.00200305879, -0.17796953 , -0.163812861, 0.439328581 , -0.00729629537, -0.0111977616, 2.42122769  , 2.85        , 3           , 11          , 0.007389995 , 0.00738998828
-0.115392089, 0.08611451  , -9.80993748 , 0.00111700362, 0.00250779744, -5.587819E-06, -0.177902117, -0.163745448, 0.439328581 , -0.00728512229, -0.0111726839, 2.42122769  , 2.86        , 3           , 12          , 0.05061075  , 0
-0.135579139, 0.0816705748, -9.760392   , 0.0008381062, 0.00166118878, -0.00113835628, -0.177902117, -0.163745448, 0.439328581 , -0.007276614, -0.0111561539, 2.42121625  , 2.87        , 3           , 50          , 0           , 0
-0.121064089, 0.0761652738, -9.783807   , -0.0008464593, -3.96533869E-05, 0.00167651311, -0.1778347  , -0.163745448, 0.439328581 , -0.007285265, -0.0111564286, 2.42123246  , 2.88        , 3           , 11          , 0.007389995 , 0.00738998828
-0.102932245, 0.07329109  , -9.797239   , 0.00310948887, -0.0005760479, 0.000281394925, -0.178036943, -0.163610622, 0.439193755 , -0.00725420145, -0.0111621693, 2.42123532  , 2.89        , 3           , 12          , 0.05061075  , 0
-0.09891049 , 0.06918289  , -9.797226   , -4.37333219E-05, -8.628203E-05, 0.00139802287, -0.177902117, -0.163745448, 0.439193755 , -0.007339911, -0.0112633426, 2.42125058  , 2.9         , 3           , 50          , 0           , 0
-0.09975505 , 0.0710283741, -9.806265   , -0.0006071041, -0.0006532385, -0.0008657786, -0.177902117, -0.163745448, 0.439193755 , -0.00734588457, -0.0112699382, 2.421242    , 2.91        , 3           , 11          , 0.007293758 , 0.00729375053
-0.121537805, 0.07302916  , -9.788795   , -0.0039886036, -0.00208398025, 0.000246398267, -0.17796953 , -0.164082512, 0.439396    , -0.00738580059, -0.0112907607, 2.42124486  , 2.92        , 3           , 12          , 0.05157922  , 0
-0.0882951543, 0.05412198  , -9.78364849 , -0.000903960434, 0.0021604998, -0.00171036867, -0.178171769, -0.163610622, 0.4394634   , -0.007394645, -0.0112692825, 2.42122722  , 2.93        , 3           , 50          , 0           , 0
-0.09561223 , 0.0443285629, -9.797755   , 0.0010721226, 0.002455437 , -0.0008531037, -0.177902117, -0.163745448, 0.439328581 , -0.007383826, -0.0112447906, 2.42121863  , 2.94        , 3           , 11          , 0.007293758 , 0.00729375053
-0.1164762  , 0.0766071156, -9.796877   , -0.0009051913, 0.00244206586, -0.00142739725, -0.177699879, -0.1640151  , 0.439261168 , -0.00739271473, -0.0112204766, 2.42120385  , 2.95        , 3           , 12          , 0.05157922  , 0
-0.0837183  , 0.08483255  , -9.80744    , -0.00146102835, 0.0007488586, -0.000302484725, -0.177699879, -0.1640151  , 0.439261168 , -0.00740729 , -0.0112130083, 2.421201    , 2.96        , 3           , 50          , 0           , 0
-0.0878014863, 0.08398111  , -9.808378   , 0.0016596067, -0.00204578228, -0.0002923378, -0.177902117, -0.163745448, 0.439328581 , -0.00739066256, -0.0112334872, 2.42119813  , 2.97        , 3           , 11          , 0.007293758 , 0.00729375053
-0.102595322, 0.06783568  , -9.786411   , 0.000521209149, -0.0003640335, -0.000860077, -0.178104356, -0.164082512, 0.4394634   , -0.00738535449, -0.011237191, 2.42118955  , 2.98        , 3           , 12          , 0.05157922  , 0
-0.112056755, 0.0711099058, -9.787827   , -0.00174206134, 0.000465383579, -0.0003042356, -0.1778347  , -0.163947687, 0.439261168 , -0.00740274 , -0.0112325605, 2.42118669  , 2.99        , 3           , 50          , 0           , 0
-0.111779377, 0.08829598  , -9.800409   , 0.00165682286, -0.0011620872, -8.247822E-06, -0.1778347  , -0.163947687, 0.439261168 , -0.007383741, -0.01116683 , 2.42118669  , 3           , 3           , 11          , 0.0071994965, 0.00719949044
-0.103301525, 0.07782759  , -9.803099   , -0.0008956812, 0.00107324612, 0.0008309837, -0.17796953 , -0.164082512, 0.439396    , -0.0073927897, -0.0111560337, 2.42119431  , 3.01        , 3           , 12          , 0.0525601655, 0
-0.14025715 , 0.057499148 , -9.801659   , -0.00286216941, -0.00119264738, -0.000311856, -0.17796953 , -0.163678035, 0.439261168 , -0.00742137758, -0.0111679835, 2.42119145  , 3.02        , 3           , 50          , 0           , 0
-0.142651871, 0.05206353  , -9.787236   , 0.000527530559, -0.00145129673, -0.00170917413, -0.177902117, -0.1640151  , 0.439396    , -0.007415912, -0.0111826239, 2.42117476  , 3.03        , 3           , 11          , 0.0071994965, 0.00719949044
-0.1004224  , 0.0632718951, -9.778731   , -0.0048317723, -0.002895412, -0.00201890315, -0.177902117, -0.1640151  , 0.439396    , -0.00746400561, -0.0112117268, 2.42115474  , 3.04        , 3           , 12          , 0.0525601655, 0
-0.115641527, 0.07653904  , -9.779696   , 0.0005145694, 0.0013643587, -9.610143E-06, -0.177902117, -0.164149925, 0.439261168 , -0.00745885726, -0.0111980876, 2.42115426  , 3.05        , 3           , 50          , 0           , 0
-0.117854938, 0.0716966838, -9.807756   , -2.73275873E-05, -0.00314449915, 0.001110963 , -0.177902117, -0.164217338, 0.439396    , -0.00745925773, -0.011229448, 2.4211657   , 3.06        , 3           , 11          , 0.0071994965, 0.00719949044
-0.109263219, 0.07158661  , -9.804979   , 0.00165747537, -0.001162084, 0.00112190214, -0.177699879, -0.163947687, 0.439328581 , -0.007442811, -0.0112409862, 2.42117715  , 3.07        , 3           , 12          , 0.0525601655, 0
-0.105878949, 0.05974612  , -9.784663   , 0.00305018248, 0.00250780559, -0.00112617179, -0.177699879, -0.163947687, 0.439328581 , -0.00741218 , -0.0112159923, 2.4211657   , 3.08        , 3           , 50          , 0           , 0
-0.108899012, 0.07284857  , -9.779207   , -0.00231469632, 0.00218995032, -0.00143416482, -0.177902117, -0.163880274, 0.439261168 , -0.007435165, -0.0111941975, 2.4211514   , 3.09        , 3           , 11          , 0.0071994965, 0.00719949044
-0.125625074, 0.07172809  , -9.790188   , 0.000828174641, -0.0006168669, 0.0008359587, -0.177767292, -0.164082512, 0.439328581 , -0.00738406042, -0.0112252692, 2.421159    , 3.1         , 3           , 12          , 0.0535526462, 0
-0.144655108, 0.07194076  , -9.7871685  , 0.0008230137, 0.0002278238, -0.0008579641, -0.177767292, -0.163880274, 0.439396    , -0.007375733, -0.0112230545, 2.42115045  , 3.11        , 3           , 50          , 0           , 0
-0.109567016, 0.0891203061, -9.785021   , -1.99216011E-05, -0.0006226006, -0.0005806793, -0.177767292, -0.163880274, 0.439396    , -0.007375868, -0.0112293232, 2.42114472  , 3.12        , 3           , 11          , 0.00710604433, 0.00710604
-0.110340945, 0.0580672435, -9.806398   , 0.00081941  , 0.000790949969, -0.002269784, -0.177902117, -0.163812861, 0.439193755 , -0.00736741954, -0.01122158 , 2.42112184  , 3.13        , 3           , 12          , 0.0535526462, 0
-0.115609437, 0.06942342  , -9.810461   , 0.00138155  , 0.00163947209, 0.000276989071, -0.17796953 , -0.163678035, 0.439328581 , -0.007353632, -0.0112051647, 2.4211247   , 3.14        , 3           , 50          , 0           , 0
-0.123951435, 0.08714351  , -9.817681   , 0.000248075725, 0.00219495781, -0.00142263551, -0.177902117, -0.163812861, 0.439261168 , -0.00735099055, -0.0111833205, 2.42111039  , 3.15        , 3           , 11          , 0.00710604433, 0.00710604
-0.106824934, 0.0855381638, -9.802643   , -2.23833122E-05, -5.946879E-05, -1.47366954E-05, -0.177902117, -0.163812861, 0.439261168 , -0.007351212, -0.0111839166, 2.42111039  , 3.16        , 3           , 12          , 0.0535526462, 0
-0.0916776955, 0.07087374  , -9.788576   , -0.00115037034, -0.000348672271, 0.0005446367, -0.177767292, -0.163947687, 0.439261168 , -0.00736277737, -0.0111873625, 2.421116    , 3.17        , 3           , 50          , 0           , 0
-0.109474733, 0.0878560543, -9.811692   , 0.00110346812, 0.000792867853, 0.000556907849, -0.177767292, -0.163947687, 0.439261168 , -0.00735180452, -0.0111793932, 2.42112136  , 3.18        , 3           , 11          , 0.00710604433, 0.00710604
-0.134675011, 0.0593412556, -9.831891   , 0.0005359898, 0.00135217875, 0.0008376793, -0.1778347  , -0.163947687, 0.439328581 , -0.00734653743, -0.0111658117, 2.42112947  , 3.19        , 3           , 12          , 0.0535526462, 0
-0.123386346, 0.06275407  , -9.812807   , 0.00193450309, 0.00189336669, -0.0008502426, -0.1778347  , -0.163947687, 0.439328581 , -0.0073479386, -0.0112136  , 2.421121    , 3.2         , 3           , 50          , 0           , 0
-0.1069441  , 0.0756219   , -9.805397   , -0.000319913728, 0.00103339553, 0.000550607452, -0.177902117, -0.163880274, 0.439328581 , -0.0073511973, -0.0112032285, 2.4211266   , 3.21        , 3           , 11          , 0.00701502664, 0.00701502152
-0.119355828, 0.06043839  , -9.809171   , 0.001661093 , 0.000202069336, 0.000275986618, -0.17796953 , -0.163745448, 0.439193755 , -0.0073346165, -0.0112011861, 2.42112947  , 3.22        , 3           , 12          , 0.05455576  , 0
-0.130207688, 0.07084416  , -9.779831   , 0.000528271368, 0.000757558038, -0.000293487974, -0.177767292, -0.163880274, 0.439396    , -0.0073293  , -0.0111936321, 2.4211266   , 3.23        , 3           , 50          , 0           , 0
-0.1036751  , 0.08414599  , -9.802172   , 0.00165806769, 0.0004836266, -0.002548954, -0.177767292, -0.1640151  , 0.439193755 , -0.00731243426, -0.011188983, 2.42110085  , 3.24        , 3           , 11          , 0.00701502664, 0.00701502152
-0.113710545, 0.07973933  , -9.798652   , 0.001654123 , 0.00160989456, 0.0002781563, -0.177767292, -0.1640151  , 0.439193755 , -0.007295923, -0.0111728627, 2.42110372  , 3.25        , 3           , 12          , 0.05455576  , 0
-0.111162931, 0.07287515  , -9.779224   , 0.000516956148, 0.00301007787, -0.000572553952, -0.1778347  , -0.163745448, 0.439328581 , -0.00729068741, -0.0111428043, 2.42109752  , 3.26        , 3           , 50          , 0           , 0
-0.12068139 , 0.06449806  , -9.804192   , 0.00165814185, 0.0007651987, -5.68298856E-06, -0.178104356, -0.163745448, 0.4394634   , -0.00727410335, -0.0111351516, 2.421097    , 3.27        , 3           , 11          , 0.00701502664, 0.00701502152
-0.102015153, 0.07373615  , -9.798587   , -3.1747717E-05, -9.095395E-05, 0.000832726 , -0.178036943, -0.1640151  , 0.439328581 , -0.0072745136, -0.011136001, 2.42110562  , 3.28        , 3           , 12          , 0.05455576  , 0
-0.107878566, 0.08453613  , -9.769659   , -3.560343E-05, 0.000753742759, 0.001399103 , -0.178036943, -0.1640151  , 0.439328581 , -0.00727502536, -0.0111283613, 2.42112     , 3.29        , 3           , 50          , 0           , 0
-0.119788006, 0.07072644  , -9.781108   , 0.0005308567, -0.00320326886, -0.000864618, -0.177767292, -0.163880274, 0.439261168 , -0.00730588473, -0.0112017766, 2.42111135  , 3.3         , 3           , 11          , 0.006925128 , 0.00692512235
-0.118240029, 0.0775594   , -9.805474   , -0.002580925, -0.00209801551, -2.97563074E-05, -0.177767292, -0.163745448, 0.439665645 , -0.007331691, -0.0112227583, 2.42111135  , 3.31        , 3           , 12          , 0.0555686764, 0
-0.139947608, 0.07783572  , -9.811967   , -4.84264056E-05, -0.000391440262, -0.00171052513, -0.1778347  , -0.164082512, 0.439193755 , -0.00733198458, -0.0112267975, 2.42109418  , 3.32        , 3           , 50          , 0           , 0
-0.109768361, 0.0688714162, -9.800926   , -0.00258108787, -0.00209801644, -0.00031229356, -0.1778347  , -0.164082512, 0.439193755 , -0.00735776126, -0.0112478007, 2.42109132  , 3.33        , 3           , 11          , 0.006925128 , 0.00692512235
-0.119584441, 0.0762476   , -9.813175   , -0.003997894, -0.00126287353, -0.001165189, -0.17796953 , -0.163880274, 0.439193755 , -0.007397611, -0.0112605151, 2.42107987  , 3.34        , 3           , 12          , 0.0555686764, 0
-0.128974244, 0.09073862  , -9.79601    , 0.0013591107, 0.0007443746, -6.979914E-06, -0.178036943, -0.163812861, 0.4394634   , -0.00738401851, -0.0112530719, 2.4210794   , 3.35        , 3           , 50          , 0           , 0
-0.103848688, 0.0737392753, -9.793177   , -0.00201672385, -0.002094199, -0.00115727214, -0.177699879, -0.163880274, 0.4394634   , -0.007404057, -0.0112740984, 2.421068    , 3.36        , 3           , 11          , 0.006925128 , 0.00692512235
-0.108873866, 0.0715298951, -9.789608   , 0.000237767323, -0.000952655857, -1.4851249E-05, -0.177699879, -0.163880274, 0.4394634   , -0.00740167825, -0.0112836258, 2.421068    , 3.37        , 3           , 12          , 0.0555686764, 0
-0.12857917 , 0.08577668  , -9.797836   , -0.0009029289, 0.00129222567, 0.000265889976, -0.17796953 , -0.163880274, 0.4394634   , -0.00741073675, -0.0112706833, 2.42107034  , 3.38        , 3           , 50          , 0           , 0
-0.133239776, 0.07010002  , -9.816016   , 0.00134623842, 0.003278459 , -0.000568149262, -0.178104356, -0.1640151  , 0.43953082  , -0.0073972065, -0.0112379426, 2.42106462  , 3.39        , 3           , 11          , 0.006925128 , 0.00692512235
-0.09714754 , 0.06956894  , -9.784103   , -0.000620852865, -0.002415527, -0.0005862056, -0.1778347  , -0.163947687, 0.439396    , -0.007443825, -0.0113732135, 2.42105985  , 3.4         , 3           , 12          , 0.0565906055, 0
-0.0915481  , 0.0772276446, -9.799848   , 0.00189745368, 0.00238827  , -0.000284438865, -0.1778347  , -0.163947687, 0.439396    , -0.00742481556, -0.011349353, 2.42105651  , 3.41        , 3           , 50          , 0           , 0
-0.126493543, 0.07400052  , -9.791993   , 0.00217988086, 0.00239018  , -0.000283121917, -0.178171769, -0.164082512, 0.439396    , -0.00740298256, -0.011325473, 2.42105317  , 3.42        , 3           , 11          , 0.00683720456, 0.006837199
-0.110187769, 0.071135506 , -9.801824   , 0.00217725569, 0.0029533112, 2.8318027E-07, -0.177902117, -0.163880274, 0.439598233 , -0.00738120638, -0.0112959407, 2.42105317  , 3.43        , 3           , 12          , 0.0565906055, 0
-0.118831061, 0.06450855  , -9.813669   , 0.00246328651, 0.00239209482, 0.00141341984, -0.177902117, -0.164217338, 0.43953082  , -0.00735673169, -0.0112719163, 2.42106748  , 3.44        , 3           , 50          , 0           , 0
-0.118896917, 0.06624058  , -9.791967   , 0.0013408009, 0.0006950589, -0.000572213845, -0.177902117, -0.164217338, 0.43953082  , -0.00734325964, -0.0112650078, 2.42106128  , 3.45        , 3           , 11          , 0.00683720456, 0.006837199
-0.114718512, 0.07743525  , -9.781041   , 0.005303629 , -0.0009675897, 0.000291231845, -0.177767292, -0.1640151  , 0.439598233 , -0.007290257, -0.0112746609, 2.42106462  , 3.46        , 3           , 12          , 0.0565906055, 0
-0.112222239, 0.0616024733, -9.777925   , 0.000498355 , -0.000155363115, 0.0005526833, -0.178104356, -0.163812861, 0.439733058 , -0.0072853365, -0.0112761753, 2.42107034  , 3.47        , 3           , 50          , 0           , 0
-0.132913858, 0.0699919   , -9.785278   , 0.00133555126, 0.00182132062, -5.403359E-06, -0.178036943, -0.1640151  , 0.439598233 , -0.00727198 , -0.0112579623, 2.42106938  , 3.48        , 3           , 11          , 0.00683720456, 0.006837199
-0.114444785, 0.0621089265, -9.786526   , 0.00161117117, 0.00323105743, 0.0002806207, -0.177767292, -0.163880274, 0.439396    , -0.007255896, -0.0112256333, 2.42107224  , 3.49        , 3           , 12          , 0.0565906055, 0
-0.0994198844, 0.0606616959, -9.810825   , -0.00119573716, 0.0009254541, -0.00171411829, -0.177767292, -0.163880274, 0.439396    , -0.00725058233, -0.01129534 , 2.421055    , 3.5         , 3           , 50          , 0           , 0
-0.109202333, 0.0783312   , -9.79817    , 0.003887367 , 0.00124140247, -0.000277292158, -0.17796953 , -0.164082512, 0.439598233 , -0.007211677, -0.0112829469, 2.42105222  , 3.51        , 3           , 11          , 0.006752059 , 0.006752054
-0.112217583, 0.09545471  , -9.780948   , 0.0007904303, -0.000750562758, -0.000294815982, -0.178104356, -0.163880274, 0.439800471 , -0.007203739, -0.0112904757, 2.42104936  , 3.52        , 3           , 12          , 0.05762083  , 0
-0.109643817, 0.081023775 , -9.792287   , 0.00105982169, 0.00178543059, -0.0011372061, -0.178036943, -0.163880274, 0.439598233 , -0.0071930117, -0.0112727024, 2.421038    , 3.53        , 3           , 50          , 0           , 0
-0.1317154  , 0.0853945   , -9.807353   , -0.0009086389, 8.267115E-05, -0.0008664908, -0.178036943, -0.163880274, 0.439598233 , -0.00720200036, -0.0112719368, 2.42102885  , 3.54        , 3           , 11          , 0.006752059 , 0.006752054
-0.1295737  , 0.07634187  , -9.80647    , 0.0018963652, 0.00376211153, -0.002825443, -0.177902117, -0.164149925, 0.439665645 , -0.007182716, -0.01123452 , 2.42100072  , 3.55        , 3           , 12          , 0.05762083  , 0
-0.116400935, 0.08514877  , -9.787802   , 0.00107236765, -0.0007486552, -0.0011411116, -0.177767292, -0.163880274, 0.439598233 , -0.007171864, -0.011242087, 2.42098927  , 3.56        , 3           , 50          , 0           , 0
-0.11121998 , 0.06122384  , -9.802776   , 0.000215655586, 0.001216572 , -0.0005769498, -0.1778347  , -0.1640151  , 0.439598233 , -0.007169641, -0.0112299621, 2.42098355  , 3.57        , 3           , 11          , 0.006752059 , 0.006752054
-0.106097065, 0.0394836254, -9.7965     , 0.00105071627, 0.00375638972, -4.01883153E-06, -0.1778347  , -0.1640151  , 0.439598233 , -0.007159131, -0.0111924  , 2.4209826   , 3.58        , 3           , 12          , 0.05762083  , 0
-0.118915014, 0.06444052  , -9.79333    , 0.00163836346, -0.000744829769, 0.000839284563, -0.178171769, -0.1640151  , 0.439598233 , -0.007142842, -0.01119979 , 2.42099118  , 3.59        , 3           , 50          , 0           , 0
-0.117201172, 0.09149365  , -9.793205   , -0.0006177721, -0.000786332937, -0.002561935, -0.178104356, -0.1640151  , 0.439867884 , -0.00713619962, -0.0112704579, 2.420966    , 3.6         , 3           , 11          , 0.006669062 , 0.00666905474
-0.1253525  , 0.09248105  , -9.7901     , -0.0008887207, -0.00304076169, -0.00200164854, -0.178104356, -0.164149925, 0.439598233 , -0.00714486325, -0.0113010053, 2.42094636  , 3.61        , 3           , 12          , 0.0586586669, 0
-0.12823537 , 0.0821122751, -9.782934   , -0.00203466648, 0.000330381445, -0.00115409656, -0.178104356, -0.164149925, 0.439598233 , -0.00716508 , -0.0112977838, 2.42093444  , 3.62        , 3           , 50          , 0           , 0
-0.131137714, 0.06547879  , -9.79116    , 0.0007820534, 0.00203887536, 0.000274363585, -0.178171769, -0.163880274, 0.439665645 , -0.00715728849, -0.0112773757, 2.42093682  , 3.63        , 3           , 11          , 0.006669062 , 0.00666905474
-0.128999889, 0.08625431  , -9.804165   , 0.00363280741, -0.00329176127, 0.0002792882, -0.178374   , -0.163543209, 0.439800471 , -0.00712099439, -0.0113102729, 2.42094016  , 3.64        , 3           , 12          , 0.0586586669, 0
-0.11827343 , 0.08288856  , -9.780142   , 0.0002273729, -0.000217469686, -0.0014269664, -0.178104356, -0.163812861, 0.439733058 , -0.007118558, -0.011312549, 2.42092586  , 3.65        , 3           , 50          , 0           , 0
-0.1077898  , 0.088625215 , -9.77823    , -0.00204458786, 0.00230133627, -0.00143359648, -0.178104356, -0.163812861, 0.439733058 , -0.007138841, -0.0112896385, 2.420911    , 3.66        , 3           , 11          , 0.006669062 , 0.00666905474
-0.1187898  , 0.06989817  , -9.806415   , -0.00287588127, -0.000801606337, -0.0003121706, -0.178239182, -0.164419577, 0.439598233 , -0.00716756331, -0.0112976786, 2.42090821  , 3.67        , 3           , 12          , 0.0586586669, 0
-0.115250252, 0.06130796  , -9.813654   , -0.00118533941, 5.45493967E-05, -2.04299577E-05, -0.178171769, -0.163745448, 0.439867884 , -0.007179415, -0.0112971328, 2.42090821  , 3.68        , 3           , 50          , 0           , 0
-0.122588992, 0.0626557544, -9.786587   , -0.000624830951, 0.0009030638, -0.000299031526, -0.178239182, -0.1640151  , 0.4399353   , -0.00718562864, -0.0112881223, 2.42090535  , 3.69        , 3           , 11          , 0.006669062 , 0.00666905474
-0.12200661 , 0.06900436  , -9.797855   , -0.00202912721, -0.00308524538, 0.0005358239, -0.178239182, -0.1640151  , 0.4399353   , -0.007235862, -0.011409523, 2.420911    , 3.7         , 3           , 12          , 0.0597034581, 0
-0.09841755 , 0.0705491751, -9.80264    , -0.00232746638, 0.000291629171, 0.0019524016, -0.178104356, -0.164284751, 0.439665645 , -0.00725935865, -0.0114064636, 2.420931    , 3.71        , 3           , 50          , 0           , 0
-0.09985856 , 0.07228355  , -9.776881   , 0.00106978207, -0.00165641459, -0.000860207365, -0.178036943, -0.163947687, 0.439733058 , -0.00724856369, -0.0114230886, 2.42092252  , 3.72        , 3           , 11          , 0.00658749556, 0.00658748858
-0.1145308  , 0.05668302  , -9.782934   , 0.00163512549, -0.00165259209, -9.961281E-06, -0.178036943, -0.163880274, 0.439867884 , -0.00723221246, -0.0114396159, 2.42092252  , 3.73        , 3           , 12          , 0.0597034581, 0
-0.116145156, 0.038191177 , -9.77986    , 0.00134835322, -0.0008098079, -0.000292513636, -0.178036943, -0.163880274, 0.439867884 , -0.00721869525, -0.0114477342, 2.42091966  , 3.74        , 3           , 50          , 0           , 0
-0.132448658, 0.0691039339, -9.791155   , -0.000906968256, -0.00138821162, 0.00195638253, -0.177902117, -0.164217338, 0.439733058 , -0.00722799124, -0.0114614749, 2.42093921  , 3.75        , 3           , 11          , 0.00658749556, 0.00658748858
-0.135250747, 0.06460316  , -9.784867   , 0.00107199175, -0.00193797576, 0.000552045938, -0.178171769, -0.164082512, 0.439867884 , -0.00721733551, -0.0114808148, 2.420945    , 3.76        , 3           , 12          , 0.0597034581, 0
-0.125703722, 0.0636300445, -9.797003   , 0.00501063326, 0.00118597958, 0.0005752563, -0.17796953 , -0.163947687, 0.439867884 , -0.00716729229, -0.0114689143, 2.42095017  , 3.77        , 3           , 50          , 0           , 0
-0.09143405 , 0.07508829  , -9.83466    , 0.0005116465, -0.00278648944, 0.00111318519, -0.17796953 , -0.164284751, 0.439733058 , -0.007162307, -0.0114966985, 2.42096162  , 3.78        , 3           , 11          , 0.00658749556, 0.00658748858
-0.095527254, 0.08092399  , -9.811615   , 0.00218587578, 0.00116687757, -0.0002855253, -0.17796953 , -0.164284751, 0.439733058 , -0.00714041525, -0.01148505 , 2.42095876  , 3.79        , 3           , 12          , 0.0597034581, 0
-0.11929474 , 0.07253934  , -9.785165   , 0.00134932087, -0.000248295342, -0.00113935932, -0.178036943, -0.163947687, 0.439665645 , -0.007116059, -0.0114916964, 2.42094731  , 3.8         , 3           , 50          , 0           , 0
-0.1289281  , 0.0600519963, -9.795234   , -0.00147199631, -0.000830524543, -0.000870859, -0.178104356, -0.163812861, 0.439867884 , -0.00713067967, -0.0115000624, 2.42093873  , 3.81        , 3           , 11          , 0.00650792476, 0.00650791964
-0.107175276, 0.05534883  , -9.81407    , 0.0044442853, 0.00230680383, 0.0002917196, -0.178104356, -0.164217338, 0.439733058 , -0.007086268, -0.0114769777, 2.42094159  , 3.82        , 3           , 12          , 0.060754627 , 0
-0.09907848 , 0.09396827  , -9.787181   , 0.00247812364, 4.09118948E-05, -0.000286045135, -0.178104356, -0.164217338, 0.439733058 , -0.00706145447, -0.0114765866, 2.42093873  , 3.83        , 3           , 50          , 0           , 0
-0.123156846, 0.0883820057, -9.786484   , 0.00162879645, 0.000316743943, -0.00141971186, -0.178239182, -0.164149925, 0.439733058 , -0.007045005, -0.0114735179, 2.42092443  , 3.84        , 3           , 11          , 0.00650792476, 0.00650791964
-0.123245031, 0.07492004  , -9.808235   , 0.00134866824, -0.0002482985, -0.00226950925, -0.178171769, -0.163880274, 0.439800471 , -0.007031258, -0.01147616 , 2.42090154  , 3.85        , 3           , 12          , 0.060754627 , 0
-0.125175774, 0.06948818  , -9.796521   , 0.00275234971, 0.00173221307, 4.126632E-07, -0.178036943, -0.163880274, 0.4400027   , -0.00700373342, -0.0114588393, 2.42090154  , 3.86        , 3           , 50          , 0           , 0
-0.124555163, 0.04960724  , -9.790724   , 0.00614163466, 0.0017551335, 0.000298753352, -0.178036943, -0.163880274, 0.4400027   , -0.00694234949, -0.011441268, 2.4209044   , 3.87        , 3           , 11          , 0.00650792476, 0.00650791964
-0.117148988, 0.06393635  , -9.783827   , 0.00247770874, 0.000322481676, 0.00140961364, -0.178104356, -0.163745448, 0.439867884 , -0.0069177337, -0.011437946, 2.42091823  , 3.88        , 3           , 12          , 0.060754627 , 0
-0.113237008, 0.07751907  , -9.81086    , 0.00191671052, -0.0005260351, 0.000840602966, -0.178036943, -0.163678035, 0.439867884 , -0.00689866254, -0.0114431465, 2.42092681  , 3.89        , 3           , 50          , 0           , 0
-0.126116663, 0.06456034  , -9.803781   , -8.442573E-05, 0.00253807148, 0.000271083176, -0.177902117, -0.1640151  , 0.439867884 , -0.006921565, -0.0114690084, 2.42093015  , 3.9         , 3           , 11          , 0.006430799 , 0.00643078936
-0.09607484 , 0.07371089  , -9.811648   , -7.647682E-05, 0.00113025052, 0.00196413836, -0.177902117, -0.1640151  , 0.439867884 , -0.00692255376, -0.011457569, 2.42094922  , 3.91        , 3           , 12          , 0.0618116036, 0
-0.101582676, 0.07148264  , -9.800853   , 0.0007714707, 0.0005728402, -0.00170576572, -0.177902117, -0.163947687, 0.439867884 , -0.00691464171, -0.0114519587, 2.420932    , 3.92        , 3           , 50          , 0           , 0
-0.127322733, 0.07898289  , -9.79469    , -0.00150132 , 0.00365478569, 0.00167892175, -0.17796953 , -0.163880274, 0.439867884 , -0.006929846, -0.0114152944, 2.42094874  , 3.93        , 3           , 11          , 0.006430799 , 0.00643078936
-0.115431391, 0.0909924954, -9.784606   , -0.00177160173, 0.0008372164, -0.00143464666, -0.178036943, -0.164082512, 0.440070122 , -0.006947397, -0.0114070252, 2.42093444  , 3.94        , 3           , 12          , 0.0618116036, 0
-0.122133262, 0.08400349  , -9.82943249 , -0.0009247362, 0.0011245159, 0.0002649627, -0.178036943, -0.164082512, 0.440070122 , -0.006956673, -0.0113957589, 2.42093682  , 3.95        , 3           , 50          , 0           , 0
-0.12182235 , 0.07361716  , -9.828118   , -0.00148261967, -0.000287129282, 0.00026015917, -0.17796953 , -0.164149925, 0.439733058 , -0.00697153 , -0.0113986125, 2.42093968  , 3.96        , 3           , 11          , 0.006430799 , 0.00643078936
-0.117413118, 0.069450736 , -9.812282   , 0.0001949756, 0.0028215386, -0.00255254051, -0.17796953 , -0.164082512, 0.440204948 , -0.006969288, -0.0113705723, 2.420914    , 3.97        , 3           , 12          , 0.0618116036, 0
-0.1067032  , 0.06383979  , -9.791432   , 0.00133172737, 0.001702925 , -6.171438E-06, -0.17844142 , -0.163947687, 0.439867884 , -0.00695596775, -0.011353544, 2.420914    , 3.98        , 3           , 50          , 0           , 0
-0.139575258, 0.0724090338, -9.809727   , 0.00134427333, -0.0008311607, -1.0076852E-05, -0.17844142 , -0.163947687, 0.439867884 , -0.00694252271, -0.0113618551, 2.420914    , 3.99        , 3           , 11          , 0.006430799 , 0.00643078936
-0.119170517, 0.0766571462, -9.802321   , 0.002729135 , 0.00112052064, -0.000282920373, -0.177902117, -0.163947687, 0.439665645 , -0.006961447, -0.0114275394, 2.420912    , 4           , 3           , 12          , 0.06287387  , 0
-0.11385458 , 0.0613222569, -9.822684   , 0.00104842521, -0.00142501865, 0.00196557213, -0.178104356, -0.163812861, 0.4399353   , -0.006951189, -0.0114416517, 2.42093158  , 4.01        , 3           , 50          , 0           , 0
-0.115000136, 0.0468552262, -9.810549   , -0.001490213, -0.002286908, 0.0002571931, -0.178104356, -0.163880274, 0.439867884 , -0.00696612336, -0.0114645027, 2.420934    , 4.02        , 3           , 11          , 0.006355697 , 0.00635568472
-0.131567314, 0.0614857264, -9.809711   , -0.0009415981, 0.001095695 , 0.00111264677, -0.178104356, -0.164082512, 0.439800471 , -0.006975665, -0.0114534665, 2.42094541  , 4.03        , 3           , 12          , 0.06287387  , 0
-0.100505747, 0.0538309775, -9.788714   , 0.00216100388, 0.00167982862, -0.001132299, -0.178104356, -0.164082512, 0.439800471 , -0.006953925, -0.0114367474, 2.420934    , 4.04        , 3           , 50          , 0           , 0
-0.104665279, 0.08319536  , -9.784557   , 0.00358092343, 0.000281556946, 0.000284803333, -0.178171769, -0.163880274, 0.439867884 , -0.006918148, -0.0114339124, 2.42093682  , 4.05        , 3           , 11          , 0.006355697 , 0.00635568472
-0.1243467  , 0.06941556  , -9.777985   , 0.00216174521, 0.00139826036, -0.00226288266, -0.177902117, -0.163745448, 0.439867884 , -0.00689627044, -0.011420087, 2.420914    , 4.06        , 3           , 12          , 0.06287387  , 0
-0.126522288, 0.07040643  , -9.796528   , -0.00150571018, 0.000810306869, -2.05710821E-05, -0.177767292, -0.163880274, 0.439733058 , -0.006911325, -0.0114119835, 2.420914    , 4.07        , 3           , 50          , 0           , 0
-0.109839149, 0.08882566  , -9.830223   , 0.00159352529, 0.00223913952, -0.0008515273, -0.177767292, -0.163880274, 0.439733058 , -0.00689529069, -0.0113896513, 2.42090535  , 4.08        , 3           , 11          , 0.006355697 , 0.00635568472
-0.119648539, 0.0753029659, -9.800523   , 0.00244440977, 0.00168174319, 0.00056424283, -0.17796953 , -0.163947687, 0.439867884 , -0.00687091053, -0.0113727981, 2.4209106   , 4.09        , 3           , 12          , 0.06287387  , 0
-0.1374328  , 0.06692781  , -9.797529   , 0.00187413825, -0.0005944091, 0.0002756678, -0.178171769, -0.163812861, 0.440137535 , -0.00689708628, -0.0114329411, 2.420914    , 4.1         , 3           , 50          , 0           , 0
-0.123722516, 0.07936884  , -9.787883   , 0.000472088432, -0.0025749132, 0.0008311206, -0.1778347  , -0.163812861, 0.4400027   , -0.00689246366, -0.0114586325, 2.42092252  , 4.11        , 3           , 11          , 0.006282571 , 0.00628256332
-0.11613971 , 0.0680269   , -9.796007   , -0.00293736532, 0.00134407461, -0.0005912948, -0.1778347  , -0.163812861, 0.4400027   , -0.006921768, -0.0114452308, 2.4209168   , 4.12        , 3           , 12          , 0.06394093  , 0
-0.09497381 , 0.06098863  , -9.789546   , 0.00242767669, 0.00166193058, -7.64353956E-07, -0.1778347  , -0.163880274, 0.439598233 , -0.00689749 , -0.0114286123, 2.4209168   , 4.13        , 3           , 50          , 0           , 0
-0.104920082, 0.07138378  , -9.7602005  , 0.0010284147, -0.0008817034, 0.000553820631, -0.17796953 , -0.163947687, 0.4400027   , -0.00688727 , -0.0114373919, 2.42092252  , 4.14        , 3           , 11          , 0.006282571 , 0.00628256332
-0.112820037, 0.08462635  , -9.779188   , 0.00060334336, -0.000743789133, -0.000719356351, -0.17796953 , -0.164217338, 0.4399353   , -0.006881156, -0.0114448778, 2.420915    , 4.15        , 3           , 12          , 0.06394093  , 0
-0.120801613, 0.0933392644, -9.792773   , -0.0002420908, -0.00117186783, -0.00114776439, -0.17796953 , -0.164217338, 0.4399353   , -0.006883447, -0.011456673, 2.42090344  , 4.16        , 3           , 50          , 0           , 0
-0.1300162  , 0.07769459  , -9.80466    , 0.0003179654, -0.000182569827, -0.00100234291, -0.177767292, -0.163947687, 0.439867884 , -0.006880152, -0.0114585673, 2.420894    , 4.17        , 3           , 11          , 0.006282571 , 0.00628256332
-0.114459872, 0.09192802  , -9.797703   , 0.00200944929, 0.000532804639, -0.000287012837, -0.177902117, -0.164149925, 0.439867884 , -0.00686002476, -0.01145326 , 2.420891    , 4.18        , 3           , 12          , 0.06394093  , 0
-0.123260513, 0.0766928941, -9.798737   , 0.0007296751, 0.002213598 , -0.00113794778, -0.178036943, -0.163812861, 0.4399353   , -0.006852596, -0.0114312014, 2.4208796   , 4.19        , 3           , 50          , 0           , 0
-0.124219082, 0.0730897859, -9.797403   , -1.29707814E-05, 0.00218885113, -0.000575826736, -0.178036943, -0.163812861, 0.4399353   , -0.00695623225, -0.0114654377, 2.42087483  , 4.2         , 3           , 11          , 0.006211785 , 0.00621177768
-0.116309315, 0.0905792   , -9.79275    , 0.00211166637, 0.0009361337, -0.00028536492, -0.178104356, -0.1640151  , 0.439733058 , -0.00693508144, -0.0114560956, 2.420872    , 4.21        , 3           , 12          , 0.06501233  , 0
-0.1112973  , 0.09009981  , -9.801754   , 0.00296419673, -0.000184398174, -0.0008482247, -0.178036943, -0.163880274, 0.4399353   , -0.00690534338, -0.0114579974, 2.42086339  , 4.22        , 3           , 50          , 0           , 0
-0.140286833, 0.08775277  , -9.80786    , 0.00197771238, -0.0006134311, -0.0009947537, -0.177902117, -0.164217338, 0.4399353   , -0.00688545126, -0.0114642009, 2.42085385  , 4.23        , 3           , 11          , 0.006211785 , 0.00621177768
-0.133964211, 0.09078953  , -9.793789   , 1.79225026E-06, -0.000908367569, -0.00156948122, -0.177902117, -0.164217338, 0.4399353   , -0.00688525429, -0.0114733912, 2.42083764  , 4.24        , 3           , 12          , 0.06501233  , 0
-0.114821531, 0.0666393638, -9.790579   , -0.00127073 , -0.0004946125, -0.0007271441, -0.177902117, -0.163880274, 0.439800471 , -0.00689787837, -0.0114783878, 2.420831    , 4.25        , 3           , 50          , 0           , 0
-0.126581892, 0.07303624  , -9.773466   , 0.0002769155, 0.000782938 , 0.000270932884, -0.178104356, -0.163947687, 0.440204948 , -0.00689514 , -0.01147054 , 2.42083335  , 4.26        , 3           , 11          , 0.006211785 , 0.00621177768
-0.127610132, 0.0608960167, -9.782564   , 0.000555694161, 0.00148875988, -9.202677E-06, -0.178036943, -0.163880274, 0.439867884 , -0.00688958028, -0.011455656, 2.42083287  , 4.27        , 3           , 12          , 0.06501233  , 0
-0.113367684, 0.0671471357, -9.812261   , -0.0005754887, 0.00176268467, -0.000155305228, -0.178171769, -0.164082512, 0.439733058 , -0.006895316, -0.01143804 , 2.42083144  , 4.28        , 3           , 50          , 0           , 0
-0.112454563, 0.0698207244, -9.805462   , -0.000147992789, 0.000920852763, -0.0007197065, -0.178171769, -0.164082512, 0.439733058 , -0.00689671235, -0.0114288814, 2.42082429  , 4.29        , 3           , 11          , 0.006211785 , 0.00621177768
-0.111073375, 0.0729477257, -9.800919   , 0.0006845924, -0.0005073979, -0.00128286064, -0.178104356, -0.163880274, 0.439867884 , -0.00695109554, -0.0115093039, 2.42081285  , 4.3         , 3           , 12          , 0.06608763  , 0
-0.116565846, 0.07385636  , -9.783783   , 0.00138905784, -8.027305E-05, -0.00043130503, -0.178104356, -0.163745448, 0.440137535 , -0.0069371555, -0.0115101365, 2.420808    , 4.31        , 3           , 50          , 0           , 0
-0.133777812, 0.06825085  , -9.801112   , 0.0039260583, 0.00106318062, 0.0008537018, -0.177767292, -0.163947687, 0.439733058 , -0.00689799152, -0.0114994459, 2.42081666  , 4.32        , 3           , 11          , 0.006142786 , 0.006142778
-0.101053543, 0.08403699  , -9.779102   , 0.0051992326, 0.000649428635, 0.00114151451, -0.177767292, -0.163947687, 0.439733058 , -0.00684613129, -0.0114928745, 2.420828    , 4.33        , 3           , 12          , 0.06608763  , 0
-0.08238944 , 0.0603175834, -9.7682085  , 0.00238037715, -0.0004959323, 0.000844071852, -0.17796953 , -0.163812861, 0.440070122 , -0.006822424, -0.0114977788, 2.42083669  , 4.34        , 3           , 50          , 0           , 0
-0.112485841, 0.07291983  , -9.787823   , 0.00182339817, -0.002189145, -8.777897E-06, -0.178036943, -0.163678035, 0.4399353   , -0.006804192, -0.0115196677, 2.42083669  , 4.35        , 3           , 11          , 0.006142786 , 0.006142778
-0.133414149, 0.0637098253, -9.793897   , 0.003097233 , -0.0028844655, -0.0009928177, -0.177902117, -0.163947687, 0.4400027   , -0.00677310862, -0.0115485787, 2.42082715  , 4.36        , 3           , 12          , 0.06608763  , 0
-0.114373259, 0.07064754  , -9.776547   , 0.00139328453, -0.00106575387, -0.0015629736, -0.177902117, -0.163947687, 0.4400027   , -0.00675899535, -0.0115593411, 2.42081141  , 4.37        , 3           , 50          , 0           , 0
-0.105735637, 0.06700385  , -9.796383   , -0.000310255971, 0.0007529596, -0.00142678584, -0.17796953 , -0.163880274, 0.439665645 , -0.006761932, -0.0115519091, 2.420797    , 4.38        , 3           , 11          , 0.006142786 , 0.006142778
-0.116376549, 0.08025865  , -9.809517   , 0.000258201355, 0.00019365325, -1.23325663E-05, -0.17796953 , -0.163880274, 0.439867884 , -0.00675934833, -0.0115499739, 2.42079663  , 4.39        , 3           , 12          , 0.06608763  , 0
-0.129532725, 0.04877551  , -9.794381   , 0.001233614 , -0.000647791, 0.000414966373, -0.178374   , -0.163880274, 0.4399353   , -0.006798669, -0.0115665607, 2.42080188  , 4.4         , 3           , 50          , 0           , 0
-0.108908668, 0.07239441  , -9.778306   , 0.000663265935, 0.000474649685, 0.000555336941, -0.178374   , -0.163880274, 0.4399353   , -0.0067921  , -0.0115617784, 2.42080712  , 4.41        , 3           , 11          , 0.006075404 , 0.006075397
-0.121875055, 0.07803796  , -9.800981   , 0.00024032261, 0.000331002171, 0.000553144549, -0.17796953 , -0.163812861, 0.4399353   , -0.006789761, -0.0115584293, 2.42081285  , 4.42        , 3           , 12          , 0.0671664253, 0
-0.108325504, 0.07472648  , -9.802698   , 0.00193648529, -7.988789E-05, -0.0002872171, -0.178239182, -0.164217338, 0.440070122 , -0.00677036261, -0.011559248, 2.42081     , 4.43        , 3           , 50          , 0           , 0
-0.102525361, 0.076819405 , -9.774623   , 0.00221579755, 0.000485150667, -0.0008501072, -0.178036943, -0.164284751, 0.439867884 , -0.006748107, -0.0115544535, 2.4208014   , 4.44        , 3           , 11          , 0.006075404 , 0.006075397
-0.1179445  , 0.07162411  , -9.786062   , 0.00277606165, 0.00133366382, -0.00155251508, -0.178036943, -0.164284751, 0.439867884 , -0.00672016526, -0.0115412222, 2.42078614  , 4.45        , 3           , 12          , 0.0671664253, 0
-0.103794239, 0.07422974  , -9.804926   , 0.00348077156, 0.00176078978, -0.000277153333, -0.17796953 , -0.163947687, 0.439867884 , -0.006685323, -0.0115236342, 2.42078328  , 4.46        , 3           , 50          , 0           , 0
-0.120051734, 0.079365626 , -9.799605   , 0.0009488886, -8.656853E-05, 0.00126213  , -0.178036943, -0.163610622, 0.439800471 , -0.00667598145, -0.0115244156, 2.42079568  , 4.47        , 3           , 11          , 0.006075404 , 0.006075397
-0.100487657, 0.05563105  , -9.787351   , -3.41480263E-05, -0.00136030011, -0.000157119488, -0.177902117, -0.163745448, 0.439867884 , -0.006676304, -0.0115380278, 2.42079377  , 4.48        , 3           , 12          , 0.0671664253, 0
-0.12380667 , 0.07394444  , -9.784741   , 0.0006700728, -0.0009331765, 0.000270630029, -0.177902117, -0.163745448, 0.439867884 , -0.006669636, -0.0115473419, 2.42079663  , 4.49        , 3           , 50          , 0           , 0
-0.1102465  , 0.0724269748, -9.783287   , 0.00135773607, -0.000507080171, 0.00098111  , -0.177767292, -0.163880274, 0.439867884 , -0.00670664664, -0.0115554631, 2.42080712  , 4.5         , 3           , 11          , 0.00600985344, 0.006009841
-0.113600008, 0.05803188  , -9.784729   , 0.00206511584, -0.0007838707, 0.0008426997, -0.17796953 , -0.163880274, 0.4400027   , -0.00668609142, -0.0115632461, 2.42081571  , 4.51        , 3           , 12          , 0.06824835  , 0
-0.1325408  , 0.05787051  , -9.804762   , 0.001083058 , -0.00205759774, 0.00111867522, -0.177902117, -0.164082512, 0.439800471 , -0.006675394, -0.0115837455, 2.42082715  , 4.52        , 3           , 50          , 0           , 0
-0.122462347, 0.06499013  , -9.81008    , 0.00108031428, -0.00163525331, -1.082376E-05, -0.177902117, -0.164082512, 0.439800471 , -0.006664589, -0.0116000995, 2.42082715  , 4.53        , 3           , 11          , 0.00600985344, 0.006009841
-0.112663932, 0.0589386746, -9.789238   , 0.00150247884, -0.00135082344, -0.000149683226, -0.17796953 , -0.163947687, 0.439867884 , -0.006649548, -0.0116136149, 2.42082572  , 4.54        , 3           , 12          , 0.06824835  , 0
-0.103836834, 0.0746415854, -9.793173   , 0.0005104184, -0.000653596, -0.000294476369, -0.178171769, -0.164149925, 0.439867884 , -0.00664441055, -0.01162017 , 2.42082286  , 4.55        , 3           , 50          , 0           , 0
-0.109742023, 0.0742489547, -9.790055   , 0.000921267958, 0.00188335346, -0.000712401641, -0.177902117, -0.1640151  , 0.4399353   , -0.00663511362, -0.0116013829, 2.42081571  , 4.56        , 3           , 11          , 0.00600985344, 0.006009841
-0.118845351, 0.07297762  , -9.782899   , 0.00106030877, 0.00230665551, -0.000852361, -0.177767292, -0.1640151  , 0.439598233 , -0.006624411, -0.0115783745, 2.42080712  , 4.57        , 3           , 12          , 0.06824835  , 0
-0.106780969, 0.0895909742, -9.800365   , 0.0007839102, 0.0010377015, -0.00127943687, -0.177767292, -0.1640151  , 0.439598233 , -0.006616423, -0.0115680816, 2.42079377  , 4.58        , 3           , 50          , 0           , 0
-0.09668508 , 0.062429864 , -9.809441   , -0.00048073745, -0.000237936212, -0.001287316, -0.178036943, -0.163947687, 0.439733058 , -0.00662108138, -0.0115705477, 2.42078137  , 4.59        , 3           , 11          , 0.00600985344, 0.006009841
-0.119704567, 0.0649915   , -9.820001   , -0.00148626359, -9.646353E-05, -0.00171532482, -0.17796953 , -0.163812861, 0.440137535 , -0.00668546557, -0.0115488525, 2.42076421  , 4.6         , 3           , 12          , 0.06933303  , 0
-0.129180625, 0.07628816  , -9.792005   , 6.212322E-05, 0.0008995187, -0.00184783165, -0.177902117, -0.163812861, 0.439800471 , -0.006684631, -0.0115399808, 2.420746    , 4.61        , 3           , 50          , 0           , 0
-0.124843553, 0.09787744  , -9.786458   , -0.00148224493, -0.0009411593, -0.001999164, -0.177902117, -0.163812861, 0.439800471 , -0.00669922447, -0.0115495259, 2.420726    , 4.62        , 3           , 11          , 0.00594617566, 0.005946161
-0.09922446 , 0.0728715062, -9.81936    , -0.00120072253, -0.000657682, -0.00114980072, -0.178036943, -0.1640151  , 0.439800471 , -0.0067110993, -0.01155618 , 2.42071462  , 4.63        , 3           , 12          , 0.06933303  , 0
-0.111515954, 0.0716222748, -9.807709   , 0.001469905 , 0.00203533471, 0.000279519823, -0.178171769, -0.163745448, 0.439800471 , -0.006696431, -0.0115358084, 2.42071748  , 4.64        , 3           , 50          , 0           , 0
-0.1353733  , 0.05513049  , -9.78536    , 0.0007675305, 0.00118586235, -0.0005726866, -0.17796953 , -0.1640151  , 0.439867884 , -0.00668868935, -0.0115239881, 2.42071176  , 4.65        , 3           , 11          , 0.00594617566, 0.005946161
-0.136952609, 0.07631807  , -9.773984   , 0.0012050292, -0.001626924, -0.0007163193, -0.17796953 , -0.1640151  , 0.439867884 , -0.006676557, -0.0115403039, 2.42070413  , 4.66        , 3           , 12          , 0.06933303  , 0
-0.130928785, 0.0808239654, -9.792903   , 0.00290036853, -0.00175624632, -0.000567366, -0.178104356, -0.163880274, 0.439733058 , -0.006647491, -0.0115579031, 2.42069936  , 4.67        , 3           , 50          , 0           , 0
-0.102865443, 0.08048684  , -9.790429   , 0.00373735675, 0.0003612225, -0.0002776232, -0.1778347  , -0.164082512, 0.439800471 , -0.00661008339, -0.01155431 , 2.4206965   , 4.68        , 3           , 11          , 0.00594617566, 0.005946161
-0.118725426, 0.07887736  , -9.793269   , 0.00120203348, -0.0009230089, 0.000132377987, -0.177902117, -0.163880274, 0.439867884 , -0.00659808 , -0.0115635321, 2.42069745  , 4.69        , 3           , 12          , 0.06933303  , 0
-0.11837741 , 0.07075282  , -9.793753   , 0.00132250984, -0.00234426558, 0.000413730828, -0.177902117, -0.163880274, 0.439867884 , -0.00667297654, -0.0116324378, 2.42070317  , 4.7         , 3           , 50          , 0           , 0
-0.1171098  , 0.0639681   , -9.793319   , 0.000755565241, -0.001925738, 0.0004117479, -0.177699879, -0.163947687, 0.439800471 , -0.00666547241, -0.0116516659, 2.420708    , 4.71        , 3           , 11          , 0.005884221 , 0.005884204
-0.1392689  , 0.09854556  , -9.800576   , -0.000944156549, -0.00109250727, -0.00129007676, -0.177902117, -0.163880274, 0.439867884 , -0.00667476375, -0.0116626769, 2.42069459  , 4.72        , 3           , 12          , 0.07042013  , 0
-0.114483118, 0.08566028  , -9.812192   , 0.000603778055, 4.4258526E-05, -0.0009985606, -0.177902117, -0.163947687, 0.439665645 , -0.00666860957, -0.0116623025, 2.420685    , 4.73        , 3           , 50          , 0           , 0
-0.10088823 , 0.06326662  , -9.77557    , -0.000515726162, -0.0017935487, 0.0009711135, -0.177902117, -0.163947687, 0.439665645 , -0.006673882, -0.0116801728, 2.42069459  , 4.74        , 3           , 11          , 0.005884221 , 0.005884204
-0.114318356, 0.06667487  , -9.802778   , -0.00178557937, -0.00208371039, 0.000399678451, -0.1778347  , -0.163880274, 0.439800471 , -0.006691786, -0.0117009832, 2.420699    , 4.75        , 3           , 12          , 0.07042013  , 0
-0.126885638, 0.07539406  , -9.802385   , 0.000182636722, -0.000380952144, -0.000294843136, -0.177767292, -0.163678035, 0.439733058 , -0.006689926, -0.0117048109, 2.420696    , 4.76        , 3           , 50          , 0           , 0
-0.139053747, 0.05467953  , -9.772734   , 0.00159222749, 0.000191728992, 0.000136415547, -0.177902117, -0.163880274, 0.439598233 , -0.006674018, -0.0117028849, 2.42069745  , 4.77        , 3           , 11          , 0.005884221 , 0.005884204
-0.140435115, 0.0461961739, -9.794475   , 0.000322989916, -0.000239215486, -0.000576505146, -0.177902117, -0.163880274, 0.439598233 , -0.006670722, -0.0117053147, 2.42069173  , 4.78        , 3           , 12          , 0.07042013  , 0
-0.115034662, 0.08067571  , -9.804081   , -0.000381149235, -0.000666338834, -0.0008629858, -0.1778347  , -0.163880274, 0.43953082  , -0.00667443359, -0.011712037, 2.42068315  , 4.79        , 3           , 50          , 0           , 0
-0.11238163 , 0.08282399  , -9.781453   , -0.00208988762, 4.78674474E-06, -0.00115221436, -0.1778347  , -0.163812861, 0.439733058 , -0.006729201, -0.0117809838, 2.42067266  , 4.8         , 3           , 11          , 0.005823969 , 0.00582395168
-0.114050686, 0.05580715  , -9.792425   , -0.002512052, -0.000279642874, -0.00101335486, -0.1778347  , -0.163880274, 0.439733058 , -0.00675420137, -0.01178385 , 2.42066264  , 4.81        , 3           , 12          , 0.0715093538, 0
-0.111990236, 0.0702711046, -9.806813   , -0.00180520641, -0.00041565008, -0.00086901075, -0.1778347  , -0.164217338, 0.43953082  , -0.006772152, -0.0117880646, 2.42065358  , 4.82        , 3           , 50          , 0           , 0
-0.09746272 , 0.0741492659, -9.80307    , -0.00194699084, -0.0004166078, -0.00185855024, -0.1778347  , -0.164217338, 0.43953082  , -0.00679140352, -0.0117923561, 2.42063546  , 4.83        , 3           , 11          , 0.005823969 , 0.00582395168
-0.127480522, 0.06724994  , -9.793837   , -0.0006795553, 0.0002958997, -0.00185153936, -0.178036943, -0.163812861, 0.439598233 , -0.006797979, -0.0117895221, 2.42061687  , 4.84        , 3           , 12          , 0.0715093538, 0
-0.111349352, 0.09541384  , -9.771901   , 0.000730732456, 0.0007277983, -0.00142049743, -0.178036943, -0.163880274, 0.439396    , -0.00679050433, -0.0117823426, 2.42060256  , 4.85        , 3           , 50          , 0           , 0
-0.114568487, 0.0811276   , -9.805883   , -0.000397662341, 0.000438593 , -0.00156746793, -0.177902117, -0.163880274, 0.4394634   , -0.006794295, -0.0117780622, 2.42058682  , 4.86        , 3           , 11          , 0.005823969 , 0.00582395168
-0.116252623, 0.0590084121, -9.7974     , 0.000737495255, -0.0005392422, -0.000574837846, -0.177902117, -0.163880274, 0.4394634   , -0.006786854, -0.0117834928, 2.420581    , 4.87        , 3           , 12          , 0.0715093538, 0
-0.125692   , 0.06944209  , -9.781158   , 0.00342034269, -0.000380312529, 0.000285502319, -0.17796953 , -0.163745448, 0.43953082  , -0.006752684, -0.0117872767, 2.420584    , 4.88        , 3           , 50          , 0           , 0
-0.113403663, 0.06131543  , -9.822228   , 0.0005917289, 0.0004452822, -8.90276E-06, -0.178104356, -0.163880274, 0.43953082  , -0.006746766, -0.011782825, 2.420584    , 4.89        , 3           , 11          , 0.005823969 , 0.00582395168
-0.117272377, 0.08340164  , -9.80182648 , -0.000267471885, 0.000858091 , 0.000270501332, -0.1778347  , -0.1640151  , 0.439328581 , -0.006782473, -0.0117868194, 2.4205873   , 4.9         , 3           , 12          , 0.07260037  , 0
-0.116236053, 0.06125359  , -9.794228   , 0.0015640388, 0.00171520049, 0.000139094569, -0.1778347  , -0.1640151  , 0.439328581 , -0.006766848, -0.011769658, 2.42058873  , 4.91        , 3           , 50          , 0           , 0
-0.135195419, 0.0637552738, -9.801142   , -0.00196321961, 0.0009874114, -0.0005847955, -0.178036943, -0.163745448, 0.439733058 , -0.0067864093, -0.011759826, 2.420583    , 4.92        , 3           , 11          , 0.005765271 , 0.005765252
-0.119552679, 0.05135186  , -9.790226   , -0.00323167839, 0.000415684743, -0.00115666457, -0.17796953 , -0.1640151  , 0.439733058 , -0.00681858975, -0.0117557459, 2.420571    , 4.93        , 3           , 12          , 0.07260037  , 0
-0.102113843, 0.07901239  , -9.757435   , -0.000130396322, 0.00156295556, -0.000857905, -0.17796953 , -0.164486989, 0.439396    , -0.00681979163, -0.0117401741, 2.42056251  , 4.94        , 3           , 50          , 0           , 0
-0.109765947, 0.0746759   , -9.782822   , 0.00143159716, 2.48573087E-05, 0.0008421762, -0.17796953 , -0.164486989, 0.439396    , -0.00680557452, -0.0117398687, 2.42057061  , 4.95        , 3           , 11          , 0.005765271 , 0.005765252
-0.09916381 , 0.08184766  , -9.80531    , 0.00271157874, -0.001796721, 0.000845281756, -0.177767292, -0.164217338, 0.4394634   , -0.00677855965, -0.0117577771, 2.4205792   , 4.96        , 3           , 12          , 0.07260037  , 0
-0.140286848, 0.08775276  , -9.807861   , 0.002562372 , -0.000249069737, 0.000281935 , -0.17796953 , -0.164486989, 0.439665645 , -0.00675297 , -0.0117602488, 2.420582    , 4.97        , 3           , 50          , 0           , 0
-0.130875438, 0.0772964   , -9.817324   , 0.00184716249, 0.00157632807, 0.000140194519, -0.177767292, -0.164352164, 0.43953082  , -0.006734513, -0.0117444759, 2.420584    , 4.98        , 3           , 11          , 0.005765271 , 0.005765252
-0.0997802  , 0.07234706  , -9.795864   , 0.000157606526, 0.000438605057, -0.00085832394, -0.177767292, -0.164352164, 0.43953082  , -0.006732836, -0.0117401481, 2.42057538  , 4.99        , 3           , 12          , 0.07260037  , 0
-0.0747645646, 0.08553631  , -9.779798   , 0.00029350078, -0.00223862822, 0.000127291423, -0.1778347  , -0.164284751, 0.439261168 , -0.006794474, -0.0117737623, 2.42057729  , 5           , 3           , 50          , 0           , 0
-0.10939908 , 0.06433494  , -9.795067   , 0.00227019959, -0.002084474, 0.0008430706, -0.178036943, -0.164082512, 0.439598233 , -0.006771874, -0.0117945485, 2.42058587  , 5.01        , 3           , 11          , 0.00570809934, 0.005708083
-0.128767326, 0.06821656  , -9.808306   , 0.0009883342, 1.86668331E-05, -7.213532E-06, -0.1778347  , -0.164284751, 0.43953082  , -0.00676199049, -0.0117943613, 2.42058587  , 5.02        , 3           , 12          , 0.0736929253, 0
-0.106790617, 0.0891367942, -9.799463   , 0.000842775742, 0.000862406334, -0.000289107556, -0.1778347  , -0.164284751, 0.43953082  , -0.00675352849, -0.0117857559, 2.420583    , 5.03        , 3           , 50          , 0           , 0
-0.115537509, 0.08108683  , -9.790524   , 0.001128606 , 0.000160403259, -0.000430144224, -0.177902117, -0.164217338, 0.439328581 , -0.006742191, -0.01178418 , 2.42057824  , 5.04        , 3           , 11          , 0.00570809934, 0.005708083
-0.09567233 , 0.07634293  , -9.790844   , 0.000140275137, 0.000153719142, -0.0001522161, -0.17796953 , -0.163880274, 0.439665645 , -0.0067407703, -0.0117826555, 2.42057681  , 5.05        , 3           , 12          , 0.0736929253, 0
-0.109934486, 0.0584707446, -9.793738   , 0.0005616169, 0.00071971654, 0.000698239543, -0.1778347  , -0.163812861, 0.43953082  , -0.006735235, -0.01177541 , 2.420584    , 5.06        , 3           , 50          , 0           , 0
-0.108907424, 0.063914746 , -9.805912   , 0.00254610856, -0.0008155223, 0.000422534067, -0.1778347  , -0.163812861, 0.43953082  , -0.00670982525, -0.0117835365, 2.42058778  , 5.07        , 3           , 11          , 0.00570809934, 0.005708083
