Acc X       , Acc Y       , Acc Z       , Gyro X      , Gyro Y      , Gyro Z      , Magn X      , Magn Y      , Magn Z      , Euler X     , Euler Y     , Euler Z     , Time        , Status      , LowRate X   , LowRate Y   , LowRate Z    
-0.004952005, 0.02423013  , -9.772738   , -6.41215156E-05, -0.0007874565, -0.000435138, 0.3949036   , 0.163678035 , 0.3408386   , -0.00357159972, -0.000672249, -0.395756   , 0           , 3           , 11          , 0.0346410163, 0.0346410163
0.00695121661, 0.0295541137, -9.787089   , -0.000211852719, 0.000478630158, -0.000857649953, 0.395105839 , 0.163812861 , 0.340906024 , -0.003573713, -0.000667493441, -0.3957646  , 0.01        , 3           , 12          , 0.0346410163, 0
0.00673991675, 0.0511799268, -9.776606   , -0.000490549835, -0.000227191369, -0.000436245638, 0.3949036   , 0.164284751 , 0.340366721 , -0.00357861537, -0.0006697808, -0.395768881, 0.02        , 3           , 50          , 0           , 0
-0.00102280546, 0.04095126  , -9.793882   , -0.0030239902, -0.00179298548, 0.000820933841, 0.3949036   , 0.164284751 , 0.340366721 , -0.00360886031, -0.0006876809, -0.395760775, 0.03        , 3           , 11          , 0.0346410163, 0.0346410163
-0.008974141, 0.0176256   , -9.807148   , -0.00259448471, -0.0030571653, 0.000114612958, 0.3959822   , 0.163947687 , 0.340906024 , -0.00363480579, -0.000718248135, -0.395759344, 0.04        , 3           , 12          , 0.0346410163, 0
0.005669757 , 0.04034478  , -9.77123451 , -0.003159294, -0.003201771, -0.00101838773, 0.395105839 , 0.163745448 , 0.3413105   , -0.00366639136, -0.000750302745, -0.395769358, 0.05        , 3           , 50          , 0           , 0
0.006159731 , 0.0452794433, -9.764431   , -0.00302086864, -0.00263768574, -0.00101686129, 0.395105839 , 0.1640151   , 0.340366721 , -0.00369659252, -0.000776717, -0.3957796  , 0.06        , 3           , 11          , 0.0346410163, 0.0346410163
-0.009754665, 0.0355915762, -9.779961   , -0.0006291384, -0.0007912773, -0.0007203094, 0.395105839 , 0.1640151   , 0.340366721 , -0.00370287779, -0.000784656266, -0.395786762, 0.07        , 3           , 12          , 0.0346410163, 0
0.0075371014, 0.03813731  , -9.792021   , 0.0009236753, -0.000639989157, -0.000430311746, 0.395645142 , 0.1640151   , 0.3408386   , -0.003693638, -0.0007910721, -0.395791054, 0.08        , 3           , 50          , 0           , 0
-0.00467183441, 0.032491453 , -9.814736   , 0.00106497016, -0.0006390338, -0.000288384646, 0.3954429   , 0.163745448 , 0.341108263 , -0.00368298637, -0.000797473069, -0.3957939  , 0.09        , 3           , 11          , 0.0346410163, 0.0346410163
0.00650062645, 0.0300075635, -9.786187   , 0.00191643275, -0.001477999, -0.000285735645, 0.395173252 , 0.164486989 , 0.340366721 , -0.00366382021, -0.0008122628, -0.395796537, 0.1         , 3           , 12          , 0.0346410163, 0
-0.00540767051, 0.0304820146, -9.75192451 , 0.000578227162, -0.00219098479, -0.00057561323, 0.395173252 , 0.164486989 , 0.340366721 , -0.00365803251, -0.000834193546, -0.395802259, 0.11        , 3           , 50          , 0           , 0
-0.00228950288, 0.0214762148, -9.768209   , 0.00121372472, -0.00204590149, 0.000698985357, 0.395577729 , 0.163812861 , 0.3407712   , -0.00364590134, -0.0008546269, -0.395795345, 0.12        , 3           , 11          , 0.0346410163, 0.0346410163
-0.00712463539, 0.0292405412, -9.779062   , 0.000285816233, -0.000151547516, -0.000361881132, 0.3953755   , 0.163678035 , 0.341108263 , -0.00364304 , -0.00085615553, -0.395798922, 0.13        , 3           , 12          , 0.0346410163, 0
-0.006604056, 0.0377708152, -9.768175   , -3.16911451E-06, 0.00111358427, -0.0008556859, 0.3949036   , 0.164217338 , 0.3402993   , -0.00364306476, -0.0008450509, -0.3958075  , 0.14        , 3           , 50          , 0           , 0
-0.00547703728, 0.0473129749, -9.79163    , 0.00112063228, 0.00238826848, -0.0002127563, 0.3949036   , 0.164217338 , 0.3402993   , -0.003631856, -0.000821176334, -0.39580965 , 0.15        , 3           , 11          , 0.0346410163, 0.0346410163
0.02333204  , 0.02987438  , -9.805041   , 0.00252647512, 0.00359446835, -0.0008400366, 0.3954429   , 0.164352164 , 0.3407038   , -0.00360658462, -0.0007852621, -0.395818233, 0.16        , 3           , 12          , 0.0346410163, 0
-0.009900595, 0.0247609168, -9.779102   , -0.0013462163, 0.00152686215, 0.000127590625, 0.3954429   , 0.163678035 , 0.341108263 , -0.00362004759, -0.000769989, -0.395817041, 0.17        , 3           , 50          , 0           , 0
-0.004741555, 0.03913022  , -9.776292   , -0.0008456114, 0.000122376077, -0.000931789866, 0.394971    , 0.164082512 , 0.3402993   , -0.003628497, -0.0007687991, -0.39582634 , 0.18        , 3           , 11          , 0.0346410163, 0.0346410163
0.00107201468, 0.0340924039, -9.77446    , 0.000211724531, 0.000551887555, -0.000361125625, 0.394971    , 0.164082512 , 0.3402993   , -0.00362637662, -0.0007632933, -0.395829916, 0.19        , 3           , 12          , 0.0346410163, 0
-0.00370111782, 0.0450314134, -9.790271   , -0.002182359, -0.0009425641, -0.00171665091, 0.39584738  , 0.163678035 , 0.3408386   , -0.00364816142, -0.0007726828, -0.395847082, 0.2         , 3           , 50          , 0           , 0
-0.0128338477, 0.0392727666, -9.790363   , -0.00239221752, -0.0010847731, 0.000471809879, 0.395308077 , 0.163610622 , 0.340973437 , -0.003672087, -0.000783513, -0.3958423  , 0.21        , 3           , 11          , 0.03466991  , 0.03466991
-0.0173866414, 0.0460009649, -9.7628     , -0.00111930619, -0.00156891928, -0.000300001353, 0.394768775 , 0.164419577 , 0.340501547 , -0.00368327787, -0.00079921307, -0.395845175, 0.22        , 3           , 12          , 0.0346697569, 0
-0.0165951513, 0.0302756354, -9.785458   , -0.00055650284, -0.00114275154, -0.000226082382, 0.394768775 , 0.164419577 , 0.340501547 , -0.00368884113, -0.0008106489, -0.395847559, 0.23        , 3           , 50          , 0           , 0
-0.002326916, 0.018767789 , -9.767769   , -0.00112548273, -9.069726E-05, 0.001680039 , 0.395577729 , 0.163745448 , 0.3407712   , -0.00370010966, -0.000811493839, -0.395830631, 0.24        , 3           , 11          , 0.03466991  , 0.03466991
0.00239491882, 0.0340477265, -9.76586151 , -0.000709417043, 0.00103841862, -0.001777334, 0.395173252 , 0.163880274 , 0.3412431   , -0.00370718958, -0.0008011755, -0.3958485  , 0.25        , 3           , 12          , 0.0346697569, 0
-0.00921945553, 0.0360993966, -9.798486   , -6.045399E-05, -0.00142097217, 0.000482131873, 0.394768775 , 0.164352164 , 0.34056896  , -0.003707798, -0.0008153673, -0.3958435  , 0.26        , 3           , 50          , 0           , 0
0.0001322059, 0.0331825837, -9.769047   , -0.002030249, -0.00277177338, 0.00145973335, 0.394768775 , 0.164352164 , 0.34056896  , -0.00372811267, -0.0008430307, -0.395828962, 0.27        , 3           , 11          , 0.03466991  , 0.03466991
-0.026065344, 0.0317573473, -9.790497   , -0.001475439, -0.0007969993, 0.000970964262, 0.395308077 , 0.163947687 , 0.34056896  , -0.003742876, -0.000850964338, -0.3958192  , 0.28        , 3           , 12          , 0.0346697569, 0
0.0014445018, 0.0237559639, -9.788059   , -0.0006311691, -0.000298533239, -1.32065452E-05, 0.395105839 , 0.164217338 , 0.341175675 , -0.00374918757, -0.00085395 , -0.3958192  , 0.29        , 3           , 50          , 0           , 0
-0.0108754318, 0.0269471724, -9.755145   , -5.217985E-05, 0.000274754537, -8.033014E-05, 0.3948362   , 0.164352164 , 0.3402993   , -0.00340030086, -0.0007206653, -0.395820379, 0.3         , 3           , 11          , 0.0347535126, 0.0347535163
-0.0140000861, 0.0546202958, -9.788049   , 0.00114712946, 0.000494045846, -3.77339916E-06, 0.3948362   , 0.164352164 , 0.3402993   , -0.003388829, -0.000715725066, -0.395820379, 0.31        , 3           , 12          , 0.0347557776, 0
-0.00537949055, 0.0104190875, -9.82342148 , 0.00191974349, 0.00134399452, 0.000213053092, 0.395577729 , 0.163947687 , 0.3407712   , -0.00336963288, -0.0007022779, -0.395818233, 0.32        , 3           , 50          , 0           , 0
0.0104940832, 0.01784214  , -9.80519    , 0.0001657687, -0.0009204636, 0.000271985133, 0.395105839 , 0.1640151   , 0.340906024 , -0.00336797722, -0.0007114732, -0.3958156  , 0.33        , 3           , 11          , 0.0347535126, 0.0347535163
0.0214220118, 0.0298155155, -9.781101   , 0.00186918315, -0.00259839185, 0.00112489564, 0.394701362 , 0.164352164 , 0.340501547 , -0.00334929349, -0.000737419236, -0.395804167, 0.34        , 3           , 12          , 0.0347557776, 0
0.0125501137, 0.03899777  , -9.796951   , 0.00115200493, -0.000350645947, 0.0011957091, 0.394701362 , 0.164352164 , 0.340501547 , -0.00333778257, -0.0007408857, -0.395792246, 0.35        , 3           , 50          , 0           , 0
-0.00582402665, 0.04918941  , -9.811512   , 2.72395155E-05, -0.00141415629, 0.0006943735, 0.395577729 , 0.164149925 , 0.340366721 , -0.00333751552, -0.0007550042, -0.3957851  , 0.36        , 3           , 11          , 0.0347535126, 0.0347535163
-0.00494421367, 0.0246827938, -9.773189   , -0.000183672426, -0.00183794182, -0.00135566178, 0.395173252 , 0.163745448 , 0.34151274  , -0.00333934161, -0.000773428648, -0.395798683, 0.37        , 3           , 12          , 0.0347557776, 0
-0.0235408489, 0.05649117  , -9.774554   , 0.00128721946, 0.000565388764, -0.00134505937, 0.3948362   , 0.164284751 , 0.340636373 , -0.003326459, -0.0007678197, -0.395812273, 0.38        , 3           , 50          , 0           , 0
-0.0144227538, 0.0274967924, -9.7718935  , 0.003681734 , 0.001989453 , 0.000151626 , 0.3948362   , 0.164284751 , 0.340636373 , -0.00328964274, -0.0007479202, -0.395810843, 0.39        , 3           , 11          , 0.0347535126, 0.0347535163
-0.01962697 , 0.00237848237, -9.798252   , 0.0005061853, -0.0007703002, 0.000344515371, 0.395510316 , 0.163947687 , 0.340434134 , -0.003394802, -0.000691169, -0.395807266, 0.4         , 3           , 12          , 0.0348982252, 0
-0.0139711453, 0.02079527  , -9.793161   , -0.000343697757, -0.000283292233, 5.87864924E-05, 0.395240664 , 0.163880274 , 0.341175675 , -0.00339823938, -0.0006939998, -0.395806551, 0.41        , 3           , 50          , 0           , 0
-0.0117021771, 0.0225581769, -9.788617   , 0.00107198453, -0.00104804756, -0.000430262618, 0.394768775 , 0.164149925 , 0.340434134 , -0.0033875166, -0.000704494771, -0.395810843, 0.42        , 3           , 11          , 0.0177341569, 0.0177341439
-0.0392019376, 0.0341385342, -9.782      , 0.0006510878, -0.00147325709, 0.000697261 , 0.394768775 , 0.164149925 , 0.340434134 , -0.00338101061, -0.0007192036, -0.3958037  , 0.43        , 3           , 12          , 0.0348982252, 0
-0.0163669251, 0.0465291739, -9.789005   , -5.485696E-05, -0.00147803128, 0.000905871741, 0.395510316 , 0.163947687 , 0.3407038   , -0.003381566, -0.00073395326, -0.39579463 , 0.44        , 3           , 50          , 0           , 0
-0.0134376753, 0.0591673069, -9.80023    , 0.00170246209, 1.212004E-05, -1.86597617E-06, 0.395240664 , 0.163812861 , 0.341175675 , -0.003364541, -0.00073383213, -0.39579463 , 0.45        , 3           , 11          , 0.0177341569, 0.0177341439
-0.0291263275, 0.0399167873, -9.790937   , 0.000432753557, -0.0003484338, -0.0009265814, 0.3949036   , 0.164352164 , 0.3402319   , -0.003360207, -0.0007373476, -0.395803928, 0.46        , 3           , 12          , 0.0348982252, 0
-0.0181711912, 0.0131538883, -9.78735    , -0.00168577756, -0.000221974289, -0.000300532236, 0.3949036   , 0.164352164 , 0.3402319   , -0.00337706227, -0.0007395774, -0.395807028, 0.47        , 3           , 50          , 0           , 0
0.0148823559, 0.010534279 , -9.794339   , -6.389214E-05, 0.000140962788, -0.0008574924, 0.395577729 , 0.164082512 , 0.340434134 , -0.00337769487, -0.0007381967, -0.3958156  , 0.48        , 3           , 11          , 0.0177341569, 0.0177341439
-0.0197058264, 0.03169956  , -9.79542    , 0.000430455 , 0.000214698637, -7.810123E-05, 0.395173252 , 0.163880274 , 0.341175675 , -0.00337338983, -0.0007360524, -0.395816326, 0.49        , 3           , 12          , 0.0348982252, 0
-0.002886287, 0.03825201  , -9.789841   , 0.00165814382, -0.000871760945, -0.0009925277, 0.394701362 , 0.164149925 , 0.3402319   , -0.0032474366, -0.000931459945, -0.39582634 , 0.5         , 3           , 50          , 0           , 0
0.00161963515, 0.0163840633, -9.74379349 , 0.00038736398, -0.000809962163, -0.000150732987, 0.394701362 , 0.164149925 , 0.3402319   , -0.0032435616, -0.00093956443, -0.39582777 , 0.51        , 3           , 11          , 0.0134631516, 0.013463147
-0.010245421, 0.0346734226, -9.77364    , -0.00124275964, 0.000375705917, -0.000580267166, 0.395510316 , 0.163880274 , 0.340434134 , -0.00325598381, -0.0009358262, -0.395833731, 0.52        , 3           , 12          , 0.03509599  , 0
-0.0234952867, 0.0525109358, -9.798527   , 0.00116180221, -0.000311969867, 0.000206819925, 0.3953755   , 0.1634758   , 0.34104085  , -0.00324436743, -0.000938939163, -0.395831585, 0.53        , 3           , 50          , 0           , 0
-0.0108743859, 0.05588665  , -9.773105   , 0.001022969 , -0.0008760569, -0.000501050032, 0.3949036   , 0.164082512 , 0.3402993   , -0.00323413336, -0.000947715947, -0.3958366  , 0.54        , 3           , 11          , 0.0134631516, 0.013463147
-0.0212312248, 0.030241102 , -9.759278   , 0.00151040894, 0.0005351116, -0.0002140384, 0.3949036   , 0.164082512 , 0.3402993   , -0.00321902731, -0.000942372, -0.395838737, 0.55        , 3           , 12          , 0.03509599  , 0
-0.004767347, 0.0395556651, -9.768605   , -0.000742525, -0.0008879958, -0.00107435591, 0.3954429   , 0.164149925 , 0.340636373 , -0.00322644226, -0.0009512864, -0.395849466, 0.56        , 3           , 50          , 0           , 0
-0.008394116, 0.03602375  , -9.779043   , 0.000102460515, -0.0004599194, -0.00142292609, 0.395240664 , 0.163745448 , 0.340973437 , -0.00322540384, -0.000955931551, -0.395863771, 0.57        , 3           , 11          , 0.0134631516, 0.013463147
-0.008863693, 0.03601546  , -9.774979   , 2.7464197E-05, 0.0005250833, -0.000574124, 0.3948362   , 0.164082512 , 0.3402993   , -0.00322512351, -0.0009506992, -0.3958695  , 0.58        , 3           , 12          , 0.03509599  , 0
-0.009784519, 0.03556738  , -9.772728   , -0.0008162719, -0.000114166054, 0.000127292355, 0.3948362   , 0.164082512 , 0.3402993   , -0.00323328748, -0.0009518367, -0.395868063, 0.59        , 3           , 50          , 0           , 0
0.000144315884, 0.0242653936, -9.800722   , -0.000220628615, 0.000230234087, 0.0002720583, 0.395510316 , 0.164149925 , 0.3407038   , -0.0033497652, -0.000985029, -0.3958652  , 0.6         , 3           , 11          , 0.0113658542, 0.01136585
0.0108430665, 0.0110574551, -9.801599   , -0.002894519, -0.00168847607, -0.000167187667, 0.395240664 , 0.163812861 , 0.340973437 , -0.00337870885, -0.00100191927, -0.395866871, 0.61        , 3           , 12          , 0.0353477262, 0
-0.0135310628, 0.0564135462, -9.78623    , -0.00218713935, -0.00196526665, -0.000305597961, 0.394971    , 0.164419577 , 0.340164483 , -0.003400577, -0.00102158228, -0.39586997 , 0.62        , 3           , 50          , 0           , 0
-0.0227324665, 0.04345763  , -9.792683   , -0.000781730341, -0.0005478903, 0.000126962448, 0.394971    , 0.164419577 , 0.340164483 , -0.00340839545, -0.00102705683, -0.39586854 , 0.63        , 3           , 11          , 0.0113658542, 0.01136585
0.008813718 , 0.0309135187, -9.795205   , -0.0002877689, -0.0005445492, -0.000365173415, 0.3953755   , 0.164217338 , 0.34056896  , -0.00341126928, -0.00103251461, -0.395872355, 0.64        , 3           , 12          , 0.0353477262, 0
0.00461036433, 0.0263939146, -9.778533   , -0.000218189132, -0.00026250488, 0.000271299039, 0.395038426 , 0.163880274 , 0.340973437 , -0.00341345416, -0.00103513047, -0.3958695  , 0.65        , 3           , 50          , 0           , 0
-0.00118887238, 0.05815021  , -9.808727   , 7.269847E-07, -0.00180968316, -0.000718980969, 0.394768775 , 0.164419577 , 0.340434134 , -0.00341343926, -0.00105325168, -0.395876646, 0.66        , 3           , 11          , 0.0113658542, 0.01136585
0.00394326448, 0.0337393768, -9.81331    , -0.000367659115, 0.00121475221, -0.00135167164, 0.394768775 , 0.164419577 , 0.340434134 , -0.00341710169, -0.0010411503, -0.395890236, 0.67        , 3           , 12          , 0.0353477262, 0
-0.00317026279, 0.0197215471, -9.779976   , -8.22218E-05, 0.0007239262, -0.000362233055, 0.3953755   , 0.164149925 , 0.340501547 , -0.00341792 , -0.00103392347, -0.3958938  , 0.68        , 3           , 50          , 0           , 0
-0.00214576442, 0.03185874  , -9.769974   , -0.0009882636, -0.00153479853, 0.0008307997, 0.395308077 , 0.163678035 , 0.340906024 , -0.0034278112, -0.001049243, -0.395885468, 0.69        , 3           , 11          , 0.0113658542, 0.01136585
-0.0114459647, 0.038834393 , -9.798943   , -0.00092226587, -0.00138882478, 0.00026641952, 0.394768775 , 0.164149925 , 0.3402319   , -0.00344538223, -0.0009038828, -0.395882845, 0.7         , 3           , 12          , 0.0356518775, 0
-0.01106189 , 0.039219752 , -9.780859   , -0.0014241169, 8.60482E-05 , -0.000228047415, 0.394768775 , 0.164149925 , 0.3402319   , -0.00345962145, -0.000903030159, -0.395885229, 0.71        , 3           , 50          , 0           , 0
-0.0129134255, 0.0401009843, -9.768213   , 0.00111749477, 0.0003144157, 0.00119681773, 0.3953755   , 0.163812861 , 0.34056896  , -0.00344845722, -0.00089984457, -0.39587307 , 0.72        , 3           , 11          , 0.0101425461, 0.0101425461
-0.0240220483, 0.0533490181, -9.777736   , 0.00330884941, -0.0003746993, -0.000418651325, 0.395308077 , 0.163678035 , 0.341175675 , -0.003415365, -0.000903605833, -0.395877361, 0.73        , 3           , 12          , 0.0356518775, 0
-0.0190578438, 0.046135623 , -9.796711   , 0.00457591424, 0.000478592323, 0.000153651621, 0.3949036   , 0.164352164 , 0.340164483 , -0.00336960726, -0.0008988147, -0.3958757  , 0.74        , 3           , 50          , 0           , 0
-0.008068013, 0.058605507 , -9.78618    , 0.00147627469, -0.00109102821, -0.00092273677, 0.3949036   , 0.164352164 , 0.340164483 , -0.00335483626, -0.000909755938, -0.395885   , 0.75        , 3           , 11          , 0.0101425461, 0.0101425461
-0.0141495494, 0.0491429754, -9.769089   , 0.000343078776, -0.000253969658, 0.0002740815, 0.3954429   , 0.164082512 , 0.340366721 , -0.003351408, -0.000912286458, -0.39588213 , 0.76        , 3           , 12          , 0.0356518775, 0
-0.0255954377, 0.03221225  , -9.793203   , 0.000771434861, -0.00123658311, -7.999245E-06, 0.395240664 , 0.163880274 , 0.34104085  , -0.00334369321, -0.000924652442, -0.395882368, 0.77        , 3           , 50          , 0           , 0
-0.024131842, 0.03585239  , -9.807188   , 0.00217619119, 0.000180790128, -0.000705588551, 0.394701362 , 0.164352164 , 0.3402993   , -0.00332192518, -0.000922868, -0.395889282, 0.78        , 3           , 11          , 0.0101425461, 0.0101425461
0.006578633 , 0.03721237  , -9.782088   , -0.0007979809, 0.00185012456, -0.00128188764, 0.394701362 , 0.164352164 , 0.3402993   , -0.00332989288, -0.000904409448, -0.395902157, 0.79        , 3           , 12          , 0.0356518775, 0
0.0110202311, 0.0339648724, -9.771219   , 0.00135906192, 0.00387460622, -0.000773790642, 0.3953755   , 0.163947687 , 0.3402993   , -0.003469792, -0.0009190112, -0.395910025, 0.8         , 3           , 50          , 0           , 0
-0.0106920544, 0.0328983143, -9.780883   , 0.000593681063, 0.00168722658, 6.683709E-05, 0.395510316 , 0.1640151   , 0.341175675 , -0.00346385571, -0.00090213673, -0.3959093  , 0.81        , 3           , 11          , 0.009385509 , 0.009385517
0.00676020933, 0.0534281135, -9.774336   , -0.000880225, -8.258188E-05, 0.000269114156, 0.394768775 , 0.1640151   , 0.3402319   , -0.00347266044, -0.0009029532, -0.3959067  , 0.82        , 3           , 12          , 0.0360067151, 0
0.00120949978, 0.043577157 , -9.777582   , -0.00116869865, 0.00111215923, 5.773834E-05, 0.394768775 , 0.1640151   , 0.3402319   , -0.0034843476, -0.0008918297, -0.3959062  , 0.83        , 3           , 50          , 0           , 0
-0.0155248931, 0.0437889546, -9.782229   , -0.0007510423, 0.00224128249, -0.0006448941, 0.395308077 , 0.163543209 , 0.34056896  , -0.00349185243, -0.0008694398, -0.395912647, 0.84        , 3           , 11          , 0.009385509 , 0.009385517
0.00638094731, 0.05706381  , -9.780652   , -0.00144782208, 0.000335942634, -0.000863018446, 0.3953755   , 0.163678035 , 0.34104085  , -0.003506323, -0.000866110437, -0.39592123 , 0.85        , 3           , 12          , 0.0360067151, 0
0.0265426561, 0.0401365459, -9.781923   , -0.00130158884, -0.000578186533, -1.6158061E-05, 0.394701362 , 0.164149925 , 0.340164483 , -0.00351933879, -0.0008718927, -0.395921469, 0.86        , 3           , 50          , 0           , 0
0.01240811  , 0.0335265   , -9.77979851 , -0.00328212488, 0.000182749121, 0.0004702573, 0.394701362 , 0.164149925 , 0.340164483 , -0.00355216418, -0.000870048534, -0.3959167  , 0.87        , 3           , 11          , 0.009385509 , 0.009385517
-0.0160096958, 0.0357340276, -9.800345   , -0.00482999673, -0.00102440943, -0.000315807963, 0.3953755   , 0.164082512 , 0.3402993   , -0.00360046164, -0.0008803039, -0.3959198  , 0.88        , 3           , 12          , 0.0360067151, 0
-0.0099824  , 0.05006246  , -9.788489   , -0.000242710928, -0.000641418039, -0.00100020913, 0.3954429   , 0.163745448 , 0.340973437 , -0.00360288 , -0.000886754133, -0.3959298  , 0.89        , 3           , 50          , 0           , 0
0.0164848138, 0.03571174  , -9.772979   , -0.00231148419, -0.00070975133, -0.000938631652, 0.394971    , 0.164352164 , 0.340366721 , -0.00375564 , -0.000773637847, -0.395938873, 0.9         , 3           , 11          , 0.008918102 , 0.008918105
0.00688407756, 0.02191176  , -9.795257   , -0.00266236719, -0.0010640932, -0.000234476625, 0.394971    , 0.164352164 , 0.340366721 , -0.00378226186, -0.0007842875, -0.395941257, 0.91        , 3           , 12          , 0.03641035  , 0
-0.0233338363, 0.0366472937, -9.778252   , -0.00259251334, -0.00113401236, -0.002141384, 0.3953755   , 0.163880274 , 0.340501547 , -0.00380816986, -0.000795708736, -0.395962715, 0.92        , 3           , 50          , 0           , 0
-0.0169604048, 0.04284969  , -9.766425   , 0.00177712063, 0.0007961635, 0.000354160758, 0.3953755   , 0.163947687 , 0.340973437 , -0.00379040116, -0.000787733763, -0.395959139, 0.93        , 3           , 11          , 0.008918102 , 0.008918105
-0.00150730461, 0.04093087  , -9.786202   , 0.00326360972, 0.000172672328, 0.00141961372, 0.395105839 , 0.164284751 , 0.340501547 , -0.003757776, -0.0007859534, -0.395944834, 0.94        , 3           , 12          , 0.03641035  , 0
-0.0375614762, 0.052651532 , -9.791401   , 8.76648337E-05, -0.000271166035, 0.00013272879, 0.395105839 , 0.164284751 , 0.340501547 , -0.00375690055, -0.000788660138, -0.395943642, 0.95        , 3           , 50          , 0           , 0
-0.0126159349, 0.0541789   , -9.795724   , -0.0009742609, 0.000144015648, -0.00114297739, 0.395308077 , 0.163812861 , 0.3402993   , -0.003766634, -0.0007872629, -0.3959551  , 0.96        , 3           , 11          , 0.008918102 , 0.008918105
-0.00243206415, 0.0351234078, -9.800245   , -0.000337758684, 7.7925084E-05, 6.066132E-05, 0.3953755   , 0.163610622 , 0.34104085  , -0.00377001218, -0.000786481367, -0.39595437 , 0.97        , 3           , 12          , 0.03641035  , 0
-0.0105101159, 0.04197275  , -9.796211   , -0.00286832219, -0.00233257026, -0.000943760562, 0.394971    , 0.163947687 , 0.34009707  , -0.00379868783, -0.0008098427, -0.395963669, 0.98        , 3           , 50          , 0           , 0
-0.03000106 , 0.0412914567, -9.794103   , -0.0008259217, -0.0009812822, 0.00154005107, 0.394971    , 0.163947687 , 0.34009707  , -0.00380696 , -0.000819596869, -0.3959484  , 0.99        , 3           , 11          , 0.008918102 , 0.008918105
0.01421477  , 0.0299307983, -9.790195   , -0.0003406628, 0.00177838956, -0.000218989531, 0.395105839 , 0.164217338 , 0.340366721 , -0.003891521, -0.000876907434, -0.395950556, 1           , 3           , 12          , 0.0368607938, 0
0.00194203539, 0.0313748643, -9.774464   , 0.000157499264, 0.00100742839, -7.660954E-05, 0.395173252 , 0.163678035 , 0.340906024 , -0.003889945, -0.0008668363, -0.395951271, 1.01        , 3           , 50          , 0           , 0
-0.0164523944, 0.0393183157, -9.791295   , 0.003336154 , 0.0007473503, -0.000132862217, 0.3948362   , 0.164149925 , 0.340366721 , -0.00385658187, -0.0008593679, -0.3959527  , 1.02        , 3           , 11          , 0.008639247 , 0.008639268
-0.0156939682, 0.0293687452, -9.787264   , 0.00178686972, -0.000248636265, -0.0015543116, 0.3948362   , 0.164149925 , 0.340366721 , -0.00383870048, -0.000861914, -0.3959682  , 1.03        , 3           , 12          , 0.0368607938, 0
-0.01605251 , 0.03837743  , -9.781353   , 0.00263662729, -0.0005948592, -0.0002794847, 0.395240664 , 0.163812861 , 0.340434134 , -0.003812332, -0.0008678736, -0.39597106 , 1.04        , 3           , 50          , 0           , 0
0.00834820047, 0.03135487  , -9.790687   , 0.0006516017, 0.00108116318, 0.000278975378, 0.395240664 , 0.163812861 , 0.3408386   , -0.0038058185, -0.000857051346, -0.3959682  , 1.05        , 3           , 11          , 0.008639247 , 0.008639268
-0.000417901174, 0.02507474  , -9.771344   , -0.002099498, 0.000569802651, 0.000477279 , 0.394701362 , 0.163880274 , 0.3402993   , -0.003826817, -0.000851335062, -0.39596343 , 1.06        , 3           , 12          , 0.0368607938, 0
-0.00413262565, 0.0486247838, -9.783931   , -0.000191578467, 0.000230737453, 0.000132454021, 0.394701362 , 0.163880274 , 0.3402993   , -0.003828734, -0.000849022646, -0.395962238, 1.07        , 3           , 50          , 0           , 0
-0.0106657045, 0.03068792  , -9.794451   , 0.00130085752, -0.0016597982, 0.0006308795, 0.395308077 , 0.164082512 , 0.3402319   , -0.003815731, -0.0008655964, -0.3959558  , 1.08        , 3           , 11          , 0.008639247 , 0.008639268
-0.0153706176, 0.0532873236, -9.789421   , 0.00108018389, 2.81575249E-05, -0.000215116917, 0.3954429   , 0.163947687 , 0.340906024 , -0.00380492769, -0.0008653233, -0.395957947, 1.09        , 3           , 12          , 0.0368607938, 0
-0.00737620145, 0.0468165576, -9.771759   , 0.00197580084, 0.000392179674, 7.228206E-05, 0.394566536 , 0.163947687 , 0.340164483 , -0.00380950561, -0.0008545105, -0.395957232, 1.1         , 3           , 50          , 0           , 0
-0.000242443755, 0.0354829654, -9.780792   , -0.002115799, -0.000409820059, -0.0003718129, 0.394566536 , 0.163947687 , 0.340164483 , -0.00383066037, -0.000858622952, -0.395961046, 1.11        , 3           , 11          , 0.008483457 , 0.008483475
-0.03527709 , 0.0250419732, -9.774323   , -0.000640744052, 0.00107842241, -0.0009983302, 0.395105839 , 0.164284751 , 0.340164483 , -0.003837059, -0.0008478769, -0.39597106 , 1.12        , 3           , 12          , 0.0373559669, 0
-0.008016259, 0.0279234182, -9.786758   , 0.0005525183, 0.00249436451, -0.00113183237, 0.395173252 , 0.163678035 , 0.34104085  , -0.0038315244, -0.00082297693, -0.3959825  , 1.13        , 3           , 50          , 0           , 0
0.0238593034, 0.04242722  , -9.782839   , 0.00127440889, -0.0005980741, -0.0002857009, 0.394701362 , 0.1640151   , 0.340164483 , -0.00381877786, -0.000828968768, -0.395985365, 1.14        , 3           , 11          , 0.008483457 , 0.008483475
0.015307514 , 0.0461404473, -9.7837925  , -0.00233032554, 0.000151878048, -0.00023066398, 0.394701362 , 0.1640151   , 0.340164483 , -0.00384207931, -0.0008274587, -0.3959875  , 1.15        , 3           , 12          , 0.0373559669, 0
-0.00952994451, 0.0496105254, -9.78984451 , -0.000428289874, 0.00100946473, -0.0005030103, 0.395308077 , 0.164352164 , 0.34009707  , -0.00384635851, -0.0008173836, -0.395992517, 1.16        , 3           , 50          , 0           , 0
-0.0144453421, 0.0221222788, -9.783668   , 0.00106476143, -0.00102185365, -0.000146070757, 0.3953755   , 0.163610622 , 0.340636373 , -0.00383570953, -0.000827607641, -0.395993948, 1.17        , 3           , 11          , 0.008483457 , 0.008483475
-0.0261601452, 0.0245389249, -9.790526   , 0.00205485336, -0.001296733, 0.000211276347, 0.3948362   , 0.1640151   , 0.3402993   , -0.00381516269, -0.000840566761, -0.3959918  , 1.18        , 3           , 12          , 0.0373559669, 0
-0.0179224741, 0.0370119847, -9.771429   , 0.00106219947, -0.000529115438, -0.000357214361, 0.3948362   , 0.1640151   , 0.3402993   , -0.00380453747, -0.0008458714, -0.395995378, 1.19        , 3           , 50          , 0           , 0
-0.0114998482, 0.03655898  , -9.79307652 , 0.001302342 , -0.0009736279, -0.00120460126, 0.395105839 , 0.164082512 , 0.34009707  , -0.00376109267, -0.0008825037, -0.396007538, 1.2         , 3           , 11          , 0.008403288 , 0.0084033
-0.005954963, 0.0486369655, -9.781233   , 0.00192790362, 0.0009312315, -0.00204632175, 0.395510316 , 0.163880274 , 0.3407038   , -0.00374179543, -0.000873268, -0.396028042, 1.21        , 3           , 12          , 0.03789374  , 0
-0.008057867, 0.0296751037, -9.770931   , -0.00153002655, 0.000767057 , -0.000155543108, 0.3949036   , 0.1640151   , 0.3402319   , -0.00375709427, -0.000865603331, -0.3960297  , 1.22        , 3           , 50          , 0           , 0
-0.0116823427, 0.0292695072, -9.771865   , 2.278689E-05, 0.0009183451, 0.000134454443, 0.3949036   , 0.1640151   , 0.3402319   , -0.00375686749, -0.000856414845, -0.39602828 , 1.23        , 3           , 11          , 0.008403288 , 0.0084033
-0.0141850673, 0.0388481468, -9.793541   , -0.0005305441, -0.00147877971, -0.000436942675, 0.395038426 , 0.163880274 , 0.340164483 , -0.00376216881, -0.0008712189, -0.396032572, 1.24        , 3           , 12          , 0.03789374  , 0
0.0046886   , 0.03136716  , -9.781674   , -0.0035585945, -0.00318870344, -0.00101877819, 0.395173252 , 0.163812861 , 0.340973437 , -0.00379774626, -0.0009031445, -0.3960426  , 1.25        , 3           , 50          , 0           , 0
0.0109887719, 0.0241196733, -9.795217   , 0.00206476822, 0.0019176671, -0.00112589751, 0.394566536 , 0.163812861 , 0.340164483 , -0.00377708883, -0.0008840106, -0.396054029, 1.26        , 3           , 11          , 0.008403288 , 0.0084033
-0.00372986123, 0.0414373279, -9.794806   , 0.00122831343, -0.0003405854, -0.00169839477, 0.394566536 , 0.163812861 , 0.340164483 , -0.00376479048, -0.000887480448, -0.3960712  , 1.27        , 3           , 12          , 0.03789374  , 0
-0.02865812 , 0.0105389971, -9.7784     , -0.00104315777, 0.002178223 , -0.000857412349, 0.395308077 , 0.163880274 , 0.3402319   , -0.00377521454, -0.000865730748, -0.396079779, 1.28        , 3           , 50          , 0           , 0
-0.0142747266, 0.036097385 , -9.780444   , 0.000667641754, -0.00118910056, -0.00170233042, 0.395308077 , 0.163610622 , 0.340906024 , -0.00376852346, -0.0008776859, -0.3960967  , 1.29        , 3           , 11          , 0.008403288 , 0.0084033
-0.0309353732, 0.0377079956, -9.798645   , -0.0006672197, -0.000930161, -0.00114352175, 0.394971    , 0.163745448 , 0.340164483 , -0.00368687022, -0.000901759369, -0.39610815 , 1.3         , 3           , 12          , 0.0384719521, 0
-0.0336264558, 0.00703663938, -9.792916   , 0.00327716116, 0.0010675349, -0.000839509536, 0.394971    , 0.163745448 , 0.340164483 , -0.003654091, -0.000891114934, -0.396116734, 1.31        , 3           , 50          , 0           , 0
-0.0104075912, 0.0220442079, -9.774597   , -0.0001083572, 0.000481489085, 0.000556506566, 0.395173252 , 0.164082512 , 0.3402319   , -0.0036551794, -0.0008862797, -0.396111   , 1.32        , 3           , 11          , 0.008365467 , 0.008365477
-0.00399517454, 0.022921985 , -9.78946    , -0.00152023928, 0.000190368621, -0.0014282742, 0.3954429   , 0.163745448 , 0.3408386   , -0.00367036927, -0.000884428329, -0.396125317, 1.33        , 3           , 12          , 0.0384719521, 0
-0.0122112352, 0.0144835925, -9.800858   , -0.00152451 , 0.0013166354, 0.0008337611, 0.3949036   , 0.163812861 , 0.3402993   , -0.00368562178, -0.00087123143, -0.396116972, 1.34        , 3           , 50          , 0           , 0
-0.01010378 , 0.047286    , -9.767711   , -0.000959894, 0.00103888218, -0.00198941375, 0.3949036   , 0.163812861 , 0.3402993   , -0.003695203, -0.0008609159, -0.396137   , 1.35        , 3           , 11          , 0.008365467 , 0.008365477
0.00766433962, 0.0137652839, -9.790766   , -0.00151122257, -0.00149901863, -0.0003007279, 0.395105839 , 0.164217338 , 0.3402319   , -0.003710313, -0.000875917147, -0.39613986 , 1.36        , 3           , 12          , 0.0384719521, 0
-0.0149727231, 0.0144791994, -9.790031   , 0.00187494815, -0.0009129697, -0.0005665943, 0.395510316 , 0.163880274 , 0.341175675 , -0.00369155779, -0.00088506774, -0.396145582, 1.37        , 3           , 50          , 0           , 0
-0.0111218914, 0.0311368275, -9.79219151 , 0.00188363809, -0.00260235858, -4.123198E-06, 0.3949036   , 0.164217338 , 0.3402319   , -0.003672722, -0.0009110912, -0.396145582, 1.38        , 3           , 11          , 0.008365467 , 0.008365477
-0.003654276, 0.0504255779, -9.784371   , 0.00187413208, -0.000912973657, -0.001979282, 0.3949036   , 0.164217338 , 0.3402319   , -0.00365396217, -0.000920293736, -0.396165371, 1.39        , 3           , 12          , 0.0384719521, 0
-0.02572438 , 0.026751576 , -9.779215   , 0.000841214671, -0.0009268491, -0.00113704731, 0.395105839 , 0.164082512 , 0.3402319   , -0.00353620667, -0.00093666563, -0.396176815, 1.4         , 3           , 50          , 0           , 0
-0.00262080878, 0.02693616  , -9.780394   , 0.00113126414, -0.00233276142, -7.75035E-06, 0.3954429   , 0.163678035 , 0.3408386   , -0.00352489413, -0.00095999334, -0.396176815, 1.41        , 3           , 11          , 0.008346573 , 0.008346583
0.0187218636, 0.03209258  , -9.777948   , 0.004228527 , -0.000340794621, 0.0005748485, 0.395038426 , 0.163947687 , 0.3402319   , -0.00348261441, -0.0009633812, -0.3961711  , 1.42        , 3           , 12          , 0.03908845  , 0
-0.0051061213, 0.04500957  , -9.778981   , 0.000564527 , -0.00205501867, -0.000857562467, 0.395038426 , 0.163947687 , 0.3402319   , -0.00347696082, -0.000983961, -0.396179438, 1.43        , 3           , 50          , 0           , 0
-0.0218733139, 0.04117763  , -9.788617   , 0.00140500069, -0.0006414625, -0.000568904565, 0.395240664 , 0.164217338 , 0.34009707  , -0.00346290553, -0.0009903953, -0.39618516 , 1.44        , 3           , 11          , 0.008346573 , 0.008346583
-0.0117607107, 0.0465395153, -9.807953   , 0.00111641944, 0.0007644567, 0.00084463536, 0.3953755   , 0.163812861 , 0.340906024 , -0.00345174922, -0.0009827217, -0.396176815, 1.45        , 3           , 12          , 0.03908845  , 0
-0.0181764327, 0.0487835146, -9.782229   , -0.00116439455, 0.0049726516, -7.00354576E-06, 0.3948362   , 0.164217338 , 0.340164483 , -0.00346339331, -0.0009329957, -0.396177053, 1.46        , 3           , 50          , 0           , 0
-0.010591425, 0.0378897153, -9.789449   , 0.0019602594, 0.001333314 , -0.000280695647, 0.3948362   , 0.164217338 , 0.340164483 , -0.003443788, -0.0009196723, -0.3961799  , 1.47        , 3           , 11          , 0.008346573 , 0.008346583
-0.0109838517, 0.0388366356, -9.801199   , -1.319898E-05, 0.000475245644, -0.00142136589, 0.395240664 , 0.164149925 , 0.340164483 , -0.00344390655, -0.0009149689, -0.39619422 , 1.48        , 3           , 12          , 0.03908845  , 0
-0.0175599735, 0.0257747546, -9.785484   , -0.00087393 , 0.003285169 , -0.0005733649, 0.395645142 , 0.163745448 , 0.340973437 , -0.00345264119, -0.000882137159, -0.396199942, 1.49        , 3           , 50          , 0           , 0
-0.0142120728, 0.04016531  , -9.782687   , 0.00192200742, 0.00297963712, -0.00112583383, 0.3948362   , 0.163812861 , 0.3402319   , -0.00346740568, -0.0009021987, -0.3962114  , 1.5         , 3           , 11          , 0.008331249 , 0.008331252
-0.005062877, 0.0454909578, -9.788018   , 0.001081445 , 0.00184765249, 0.0008462417, 0.3948362   , 0.163812861 , 0.3402319   , -0.00345659885, -0.000883693, -0.3962028  , 1.51        , 3           , 12          , 0.0397411063, 0
-0.005407312, 0.0233407039, -9.775006   , -0.00258116121, -0.000148136693, -0.00058660307, 0.3948362   , 0.164082512 , 0.3402993   , -0.00348240556, -0.00088519475, -0.396208763, 1.52        , 3           , 50          , 0           , 0
0.0133995768, 0.0438515246, -9.767545   , 0.001379206 , -0.0012476535, 0.000842785463, 0.395577729 , 0.163610622 , 0.3408386   , -0.00346862059, -0.0008976419, -0.39620018 , 1.53        , 3           , 11          , 0.008331249 , 0.008331252
0.004601755 , 0.0548792072, -9.795589   , 0.001087273 , 0.0004398215, -0.00113369012, 0.3949036   , 0.1640151   , 0.340366721 , -0.00345773785, -0.00089328317, -0.396211624, 1.54        , 3           , 12          , 0.0397411063, 0
0.005797388 , 0.044019    , -9.790653   , 0.000802874041, 0.00100104557, 0.000278548076, 0.3949036   , 0.1640151   , 0.340366721 , -0.00344971148, -0.000883262954, -0.396209   , 1.55        , 3           , 50          , 0           , 0
-0.00535107637, 0.056342043 , -9.793401   , -0.00174314936, 0.00182855129, 0.000267997471, 0.3949036   , 0.164419577 , 0.339894831 , -0.00346714468, -0.0008649683, -0.396206379, 1.56        , 3           , 11          , 0.008331249 , 0.008331252
-0.0292771645, 0.06516238  , -9.783603   , -4.628994E-05, 0.00127687852, -0.000572580961, 0.395645142 , 0.163745448 , 0.340973437 , -0.003467603, -0.0008522193, -0.3962121  , 1.57        , 3           , 12          , 0.0397411063, 0
-0.00110948458, 0.0346321166, -9.793005   , -0.00173109293, -0.0007055369, -0.000583520159, 0.3948362   , 0.163947687 , 0.340164483 , -0.00348490872, -0.00085929496, -0.396217823, 1.58        , 3           , 50          , 0           , 0
0.00290423818, 0.03230282  , -9.785301   , 0.00110546942, -0.0029389523, 0.00140394  , 0.3948362   , 0.163947687 , 0.340164483 , -0.00347386673, -0.0008886354, -0.396203756, 1.59        , 3           , 11          , 0.008331249 , 0.008331252
-0.0125893857, 0.0573248565, -9.792095   , -0.000168245024, 0.00132950977, -0.000854820362, 0.3949036   , 0.1640151   , 0.3402319   , -0.00362021429, -0.000812878, -0.3962121  , 1.6         , 3           , 12          , 0.04042781  , 0
-0.0173167214, 0.04471857  , -9.784048   , -0.000724571466, -0.000363699917, -0.000577520346, 0.3953755   , 0.163880274 , 0.3407038   , -0.003627455, -0.0008165359, -0.396218061, 1.61        , 3           , 50          , 0           , 0
-0.004926866, 0.0229114518, -9.783139   , -0.000442144665, -0.000361789949, -0.0005762034, 0.3949036   , 0.164082512 , 0.3402319   , -0.00363187166, -0.0008201747, -0.396223783, 1.62        , 3           , 11          , 0.008310496 , 0.0083105
-0.00575573649, 0.02834043  , -9.78448    , -0.000444443227, 0.000201342467, 0.000272276724, 0.3949036   , 0.164082512 , 0.3402319   , -0.00363631849, -0.000818151631, -0.396221161, 1.63        , 3           , 12          , 0.04042781  , 0
0.005287446 , 0.03728275  , -9.798368   , 0.000960142468, 0.00190028676, 0.00169415236, 0.395105839 , 0.164082512 , 0.3402319   , -0.00362673076, -0.0007990872, -0.396204233, 1.64        , 3           , 50          , 0           , 0
0.0023332797, 0.0237317234, -9.783985   , 0.001253484 , -0.0006318968, -0.00113381073, 0.395577729 , 0.163745448 , 0.3408386   , -0.00361418631, -0.000805447169, -0.396215439, 1.65        , 3           , 11          , 0.008310496 , 0.0083105
-0.0116951745, 0.0270273574, -9.775942   , 0.003227847 , -5.53961763E-05, -0.000841186848, 0.395105839 , 0.164082512 , 0.340164483 , -0.00358190131, -0.0008060314, -0.396223783, 1.66        , 3           , 12          , 0.04042781  , 0
-0.0180923715, 0.05152973  , -9.79397    , 0.0003924266, 0.002178025 , -0.0008508847, 0.395105839 , 0.164082512 , 0.340164483 , -0.00357796974, -0.0007842817, -0.396232367, 1.67        , 3           , 50          , 0           , 0
0.0146879144, 0.042439796 , -9.754885   , -0.00213236059, -0.00121794431, -0.0003028693, 0.395105839 , 0.164217338 , 0.339962244 , -0.00359929143, -0.000796472, -0.396235466, 1.68        , 3           , 11          , 0.008310496 , 0.0083105
0.00131510291, 0.022758415 , -9.759589   , -0.00439242739, -0.00123322709, -0.00144355476, 0.395779967 , 0.1640151   , 0.3407712   , -0.003643204, -0.0008088565, -0.396249771, 1.69        , 3           , 12          , 0.04042781  , 0
-0.00260919146, 0.0300700236, -9.773149   , -0.00243865023, 0.00278834254, 0.000267209631, 0.3948362   , 0.163610622 , 0.3402319   , -0.00367333717, -0.0006996887, -0.396247149, 1.7         , 3           , 50          , 0           , 0
-0.0174663849, 0.03388489  , -9.782286   , 0.00124298281, 0.000842217938, 0.0008463672, 0.3948362   , 0.163610622 , 0.3402319   , -0.00366091356, -0.0006912355, -0.3962388  , 1.71        , 3           , 11          , 0.008279357 , 0.008279368
0.0173676684, 0.03523635  , -9.768907   , 0.00153065939, -0.000282133784, 0.0002808734, 0.394971    , 0.164149925 , 0.34009707  , -0.003645609, -0.000694046554, -0.396235943, 1.72        , 3           , 12          , 0.04114654  , 0
-0.006822889, 0.0491244569, -9.788921   , -0.00298340968, -0.00143895741, -0.00115462055, 0.395510316 , 0.163812861 , 0.3407712   , -0.00367543474, -0.0007084782, -0.3962474  , 1.73        , 3           , 50          , 0           , 0
-0.0123153329, 0.04244516  , -9.796223   , -0.00156783487, -0.00199253485, -1.87539554E-05, 0.394971    , 0.164217338 , 0.340501547 , -0.00369111286, -0.0007284041, -0.396247625, 1.74        , 3           , 11          , 0.008279357 , 0.008279368
0.014261283 , 0.0348783433, -9.785655   , -0.00214637676, 0.0005377255, -0.00199524476, 0.394971    , 0.164217338 , 0.340501547 , -0.00371256238, -0.000723100733, -0.396267653, 1.75        , 3           , 12          , 0.04114654  , 0
0.0156614389, 0.0384670757, -9.784274   , 0.0006882134, -0.00113255577, 0.00140577089, 0.395105839 , 0.164486989 , 0.34009707  , -0.00370569061, -0.0007343741, -0.396253347, 1.76        , 3           , 50          , 0           , 0
-0.004242777, 0.03826946  , -9.790302   , -0.00130090525, 0.00110659038, -0.000295201, 0.395712554 , 0.163745448 , 0.3407712   , -0.003718697, -0.000723319245, -0.396256447, 1.77        , 3           , 11          , 0.008279357 , 0.008279368
-0.0102761257, 0.0283996314, -9.786322   , -0.004109187, -0.00200972217, 0.0008170061, 0.3948362   , 0.163880274 , 0.3402319   , -0.00375979533, -0.000743385754, -0.3962481  , 1.78        , 3           , 12          , 0.04114654  , 0
-0.0061424654, 0.03197008  , -9.788988   , -0.000741790747, 0.00223666988, -0.000573368859, 0.3948362   , 0.163880274 , 0.3402319   , -0.003767209, -0.0007210408, -0.396254063, 1.79        , 3           , 50          , 0           , 0
-0.0139889531, 0.0270297434, -9.768728   , -0.00100591872, 0.001737916 , -0.00198801118, 0.395038426 , 0.163947687 , 0.3402319   , -0.003756532, -0.0006195347, -0.396273851, 1.8         , 3           , 11          , 0.008238044 , 0.008238059
0.009234555 , 0.0331140719, -9.780277   , -0.00240903627, 3.897841E-05, -0.0008670493, 0.395779967 , 0.1634758   , 0.3407712   , -0.00378061645, -0.0006191774, -0.396282673, 1.81        , 3           , 12          , 0.0418952964, 0
0.00377985463, 0.02958981  , -9.786662   , -0.0009957601, 4.85337259E-05, 0.00111729768, 0.394768775 , 0.163745448 , 0.340366721 , -0.0037905816, -0.0006186499, -0.396271467, 1.82        , 3           , 50          , 0           , 0
0.0142082851, 0.0312646   , -9.784315   , 0.00127169222, -0.0016255785, 0.000560154556, 0.394768775 , 0.163745448 , 0.340366721 , -0.003777868, -0.0006348845, -0.396265745, 1.83        , 3           , 11          , 0.008238044 , 0.008238059
0.00166657288, 0.04178991  , -9.784367   , -0.0009969021, 4.852825E-05, -0.0008604647, 0.395038426 , 0.164284751 , 0.340029657 , -0.00378783164, -0.000634431664, -0.396274328, 1.84        , 3           , 12          , 0.0418952964, 0
-0.0266358722, 0.0263110511, -9.779224   , 0.000122720827, 0.0020271223, -0.00141723431, 0.395779967 , 0.163678035 , 0.340636373 , -0.00378659554, -0.0006142143, -0.396288633, 1.85        , 3           , 50          , 0           , 0
-0.02557262 , 0.0353551954, -9.78867    , 0.00211037137, -0.00021203098, -0.00225909986, 0.395038426 , 0.163880274 , 0.3402319   , -0.003765478, -0.0006164199, -0.396311283, 1.86        , 3           , 11          , 0.008238044 , 0.008238059
0.00706752576, 0.0381290168, -9.787957   , -0.0007096407, -0.0007942537, 0.00026970022, 0.395038426 , 0.163880274 , 0.3402319   , -0.003772576, -0.0006243522, -0.396308422, 1.87        , 3           , 12          , 0.0418952964, 0
0.0184903   , 0.0438822545, -9.794173   , -0.002397721, -0.00221354142, -0.0005879833, 0.395105839 , 0.164419577 , 0.3402993   , -0.00379654975, -0.0006465097, -0.396314383, 1.88        , 3           , 50          , 0           , 0
0.0136572961, 0.0244950913, -9.782086   , -0.000426472456, -0.001073912, -0.00085956644, 0.395712554 , 0.163745448 , 0.340636373 , -0.00380080868, -0.0006572813, -0.396322966, 1.89        , 3           , 11          , 0.008238044 , 0.008238059
-0.0102381893, 0.0369110331, -9.768206   , -0.000106768282, -0.0004116457, 0.000273104029, 0.395038426 , 0.163745448 , 0.340366721 , -0.003749941, -0.0005331924, -0.3963201  , 1.9         , 3           , 12          , 0.0426721871, 0
-0.0124286925, 0.03788981  , -9.783134   , 0.00101146055, 0.00184851349, -0.000283231464, 0.395038426 , 0.163745448 , 0.340366721 , -0.00373982429, -0.000514717947, -0.396322966, 1.91        , 3           , 50          , 0           , 0
0.0228828266, 0.0423803926, -9.765671   , -0.00011627435, 0.00127773918, -0.0017020544, 0.395173252 , 0.164284751 , 0.340164483 , -0.00374097843, -0.0005020043, -0.396340132, 1.92        , 3           , 11          , 0.008181955 , 0.008181977
0.0221794918, 0.053713657 , -9.778737   , 0.000187048063, -0.00238068355, 0.00309675816, 0.395645142 , 0.164082512 , 0.3407038   , -0.003739124, -0.000525695155, -0.3963089  , 1.93        , 3           , 12          , 0.0426721871, 0
-0.01930175 , 0.0262985714, -9.800863   , -0.000113412, 0.000996181 , 0.000840348657, 0.395038426 , 0.163947687 , 0.3402993   , -0.00374026247, -0.000515701948, -0.396300554, 1.94        , 3           , 50          , 0           , 0
0.00387465768, 0.03680824  , -9.786631   , 0.00157598814, 0.00185233168, -0.000845672563, 0.395038426 , 0.163947687 , 0.3402993   , -0.003724498, -0.0004972103, -0.396309137, 1.95        , 3           , 11          , 0.008181955 , 0.008181977
-0.0132312132, 0.0411083847, -9.798043   , 0.000459316245, -0.0006893917, -7.233495E-06, 0.395105839 , 0.164217338 , 0.340029657 , -0.00371990469, -0.0005041045, -0.396309137, 1.96        , 3           , 12          , 0.0426721871, 0
-0.00247497763, 0.0350886323, -9.78985    , -0.0009679888, 0.00239827554, 0.000273492624, 0.395712554 , 0.163610622 , 0.3407038   , -0.00372958626, -0.000480111717, -0.3963065  , 1.97        , 3           , 50          , 0           , 0
-0.0115040364, 0.04101909  , -9.777691   , 0.0018548856, 0.00269894022, 0.000287095871, 0.395712554 , 0.163610622 , 0.3407038   , -0.003711038, -0.000453111774, -0.3963039  , 1.98        , 3           , 11          , 0.008181955 , 0.008181977
-0.0160778463, 0.0343397558, -9.788149   , 0.00158033334, 0.001007637 , -0.0005644369, 0.395038426 , 0.164082512 , 0.340164483 , -0.003695232, -0.000443056168, -0.396309376, 1.99        , 3           , 12          , 0.0426721871, 0
-0.0299431849, 0.0164168868, -9.777482   , -0.0026578086, -0.0009974495, 0.001107983 , 0.394971    , 0.164486989 , 0.340029657 , -0.0037389088, -0.0004605095, -0.39629817 , 2           , 3           , 50          , 0           , 0
-0.00626142276, 0.0274101831, -9.774543   , -0.00321954768, -0.00156439806, 0.00166955614, 0.395712554 , 0.163947687 , 0.3407712   , -0.003771112, -0.000476090761, -0.396281481, 2.01        , 3           , 11          , 0.008114873 , 0.008114894
-0.006387256, 0.0134713585, -9.788613   , -0.00180765148, -0.0018364212, -0.00114966778, 0.395712554 , 0.163947687 , 0.3407712   , -0.003789183, -0.000494498236, -0.396292925, 2.02        , 3           , 12          , 0.04347539  , 0
-0.000213017687, 0.0323823579, -9.797979   , -0.0006915579, 0.0009868711, -0.000574985635, 0.395105839 , 0.163745448 , 0.340366721 , -0.003796096, -0.000484651362, -0.396298647, 2.03        , 3           , 50          , 0           , 0
0.0101444144, 0.03132151  , -9.787057   , -0.0009774253, 0.00154808827, -0.0017055847, 0.3948362   , 0.164082512 , 0.34009707  , -0.00380586181, -0.000469235441, -0.3963158  , 2.04        , 3           , 11          , 0.008114873 , 0.008114894
0.009240545 , 0.0611648373, -9.802308   , 0.0001588369, 0.000429472333, -6.827991E-06, 0.395779967 , 0.163678035 , 0.3407038   , -0.00380427367, -0.0004649411, -0.396316051, 2.05        , 3           , 12          , 0.04347539  , 0
-0.0223985426, 0.0415706076, -9.769636   , -0.000120223638, -0.0004171367, -0.00142213388, 0.395779967 , 0.163678035 , 0.3407038   , -0.00380546926, -0.000469166524, -0.396330118, 2.06        , 3           , 50          , 0           , 0
-0.0272196922, 0.0230857357, -9.757545   , 0.00326560671, 0.000732054235, 0.00255092932, 0.3949036   , 0.163880274 , 0.340366721 , -0.00377282477, -0.000461749354, -0.3963046  , 2.07        , 3           , 11          , 0.008114873 , 0.008114894
0.0206100326, 0.0379362851, -9.77791    , -0.004055588, -0.00410422 , -0.000598599669, 0.395173252 , 0.164284751 , 0.3402319   , -0.003813378, -0.0005028139, -0.396310568, 2.08        , 3           , 12          , 0.04347539  , 0
0.00515274238, 0.06164872  , -9.797817   , -0.00265755667, -0.00127902 , -0.0008702132, 0.395645142 , 0.163812861 , 0.340906024 , -0.003839949, -0.0005156372, -0.396319151, 2.09        , 3           , 50          , 0           , 0
-0.0006740475, 0.03639815  , -9.78305149 , -0.00241241744, 0.00325418147, 0.0005508453, 0.395645142 , 0.163812861 , 0.340906024 , -0.00388658978, -0.000445684622, -0.396313667, 2.1         , 3           , 11          , 0.008039157 , 0.008039177
-0.01612096 , 0.0289486181, -9.794951   , 0.000431040564, -0.0006686313, -7.13553163E-06, 0.395105839 , 0.164149925 , 0.3402319   , -0.00388227915, -0.000452371169, -0.396313667, 2.11        , 3           , 12          , 0.0443031639, 0
-0.004643024, 0.0463516638, -9.777164   , 0.000415706541, 0.00242858473, -2.3622415E-06, 0.394971    , 0.164149925 , 0.34009707  , -0.003878122, -0.000428085536, -0.3963139  , 2.12        , 3           , 50          , 0           , 0
-0.00468250271, 0.0382853672, -9.793469   , 0.0009758886, 0.00327709713, -0.0008460388, 0.3959148   , 0.163610622 , 0.3408386   , -0.00386835961, -0.000395347655, -0.3963225  , 2.13        , 3           , 11          , 0.008039157 , 0.008039177
-0.008814399, 0.03203825  , -9.799855   , -0.00354326656, 0.00324653625, -0.00143218471, 0.3959148   , 0.163610622 , 0.3408386   , -0.00390378735, -0.0003629382, -0.3963368  , 2.14        , 3           , 12          , 0.0443031639, 0
-0.0103559  , 0.0238714963, -9.781369   , 0.004086514 , 0.00273498264, 0.0011453419, 0.394971    , 0.163880274 , 0.340164483 , -0.003862926, -0.000335544115, -0.3963256  , 2.15        , 3           , 50          , 0           , 0
0.0121672833, 0.0127992453, -9.787571   , 0.00353002362, 0.001041772 , 0.00114010437, 0.395105839 , 0.164352164 , 0.3402319   , -0.00382762938, -0.0003250826, -0.396314144, 2.16        , 3           , 11          , 0.008039157 , 0.008039177
0.0209810771, 0.0307231359, -9.781101   , 0.0009924535, -0.000101684273, -0.0011337836, 0.395779967 , 0.1640151   , 0.3407712   , -0.00381770125, -0.000326142821, -0.3963256  , 2.17        , 3           , 12          , 0.0443031639, 0
0.018706087 , 0.02583089  , -9.794247   , 0.0009954047, -0.0006648137, -0.000852113764, 0.395779967 , 0.1640151   , 0.3407712   , -0.00380774448, -0.000332823431, -0.396333933, 2.18        , 3           , 50          , 0           , 0
-0.00189187564, 0.009821092 , -9.792211   , -0.000156606635, 0.00383258774, -0.000850438664, 0.394768775 , 0.164217338 , 0.340501547 , -0.003809308, -0.0002945302, -0.396342516, 2.19        , 3           , 11          , 0.008039157 , 0.008039177
-0.0283888467, 0.0268258024, -9.79189    , 0.00277691567, 0.00221877545, -0.00083969417, 0.3948362   , 0.164352164 , 0.34009707  , -0.00363209052, -0.000188678969, -0.3963511  , 2.2         , 3           , 12          , 0.0451538563, 0
0.000349364243, 0.04451731  , -9.785722   , 0.000232701277, 0.0024831458, -0.00254633767, 0.39584738  , 0.163678035 , 0.3407038   , -0.00362975919, -0.000163940073, -0.3963766  , 2.21        , 3           , 50          , 0           , 0
-0.00459019 , 0.03702111  , -9.820141   , 0.000807476055, 0.0005160108, -0.00226420374, 0.39584738  , 0.163678035 , 0.3407038   , -0.003621681, -0.000158862153, -0.39639926 , 2.22        , 3           , 11          , 0.00795706  , 0.007957081
-0.02030975 , 0.04891592  , -9.813884   , 0.00390046858, 0.0036342442, 0.0005804305, 0.3948362   , 0.163745448 , 0.3402993   , -0.00358267641, -0.000122498954, -0.396393538, 2.23        , 3           , 12          , 0.0451538563, 0
-0.000229907208, 0.0296905674, -9.802511   , 0.00335594686, -0.000311482931, 0.00198440882, 0.395038426 , 0.164149925 , 0.340164483 , -0.00354911946, -0.000125542982, -0.396373749, 2.24        , 3           , 50          , 0           , 0
0.01075763  , 0.03903415  , -9.801485   , 0.00250580418, -3.565481E-05, -0.000561945, 0.395645142 , 0.163610622 , 0.3407038   , -0.00352406059, -0.00012591941, -0.396379232, 2.25        , 3           , 11          , 0.00795706  , 0.007957081
0.00482697226, 0.039513588 , -9.789324   , 0.000230565871, 0.00304627884, -0.00141531962, 0.395645142 , 0.163610622 , 0.3407038   , -0.00352175324, -9.55066062E-05, -0.396393538, 2.26        , 3           , 12          , 0.0451538563, 0
-0.006628054, 0.02793166  , -9.79398    , -0.000895122532, 0.00219394313, -0.00170442672, 0.395038426 , 0.163678035 , 0.3402993   , -0.00353070325, -7.362745E-05, -0.3964107  , 2.27        , 3           , 50          , 0           , 0
-0.02538142 , 0.01683756  , -9.78422451 , -0.000311168, -0.00146257831, -1.22093188E-05, 0.3949036   , 0.164217338 , 0.340164483 , -0.0035338148, -8.825358E-05, -0.3964107  , 2.28        , 3           , 11          , 0.00795706  , 0.007957081
-0.006462512, 0.04770521  , -9.770845   , -0.000887499948, 0.00078612077, -0.0005764464, 0.395577729 , 0.164149925 , 0.340906024 , -0.00354268937, -8.04128358E-05, -0.396416426, 2.29        , 3           , 12          , 0.0451538563, 0
-0.0241901428, 0.0402686521, -9.778695   , -0.000319198676, 0.00186927337, 0.000557894236, 0.395577729 , 0.164149925 , 0.340906024 , -0.003532974, -0.000133975816, -0.39641118 , 2.3         , 3           , 50          , 0           , 0
-0.00371833774, 0.04189301  , -9.79616    , -0.00142126321, -0.004051241, -0.002281861, 0.3949036   , 0.163812861 , 0.340434134 , -0.00354718324, -0.000174568675, -0.39643383 , 2.31        , 3           , 11          , 0.007869866 , 0.007869892
0.005166527 , 0.0300431624, -9.792072   , -0.00538492342, -0.001825453, 0.000246010721, 0.395105839 , 0.164352164 , 0.3402993   , -0.003601033, -0.00019281439, -0.3964312  , 2.32        , 3           , 12          , 0.046025902 , 0
0.000942551 , 0.0228287429, -9.779027   , -0.00285455934, 0.00044425574, -0.0003037401, 0.395712554 , 0.163745448 , 0.340906024 , -0.00362957828, -0.000188382866, -0.3964343  , 2.33        , 3           , 50          , 0           , 0
-0.011889223, 0.04420363  , -9.784008   , -0.00228896434, 0.00016650738, -0.00143169006, 0.395712554 , 0.163745448 , 0.340906024 , -0.003652465, -0.000186769932, -0.3964486  , 2.34        , 3           , 11          , 0.007869866 , 0.007869892
-0.00210586376, 0.0603833348, -9.798781   , 0.00023975267, 0.00299935183, -2.811168E-06, 0.395173252 , 0.163947687 , 0.340434134 , -0.00365006737, -0.000156776689, -0.396448851, 2.35        , 3           , 12          , 0.046025902 , 0
0.005165709 , 0.0416476056, -9.754509   , 0.000528245 , 0.00187500392, 0.000844382448, 0.395038426 , 0.164217338 , 0.340164483 , -0.00364478654, -0.000137995929, -0.396440268, 2.36        , 3           , 50          , 0           , 0
-0.011663259, 0.0324094221, -9.766428   , 0.0005258721, 0.0021565645, -0.0008504083, 0.395779967 , 0.163610622 , 0.3408386   , -0.003639526, -0.000116461364, -0.396448851, 2.37        , 3           , 11          , 0.007869866 , 0.007869892
-0.020773463, 0.0217591636, -9.78778648 , -0.003699052, -0.000124604325, -0.000308558752, 0.395779967 , 0.163610622 , 0.3408386   , -0.0036765167, -0.000117718708, -0.39645195 , 2.38        , 3           , 12          , 0.046025902 , 0
-0.0183657035, 0.0347932875, -9.780933   , -0.0019966166, -0.00180253736, -0.00115087326, 0.395173252 , 0.164082512 , 0.340636373 , -0.0036964817, -0.000135786308, -0.3964634  , 2.39        , 3           , 50          , 0           , 0
-0.01993994 , 0.0501824245, -9.78947    , 0.0008259232, -0.000164288911, -5.21846232E-06, 0.395105839 , 0.164284751 , 0.3402319   , -0.00367862056, -0.0002498387, -0.396463633, 2.4         , 3           , 11          , 0.00777707342, 0.00777709624
0.0157524776, 0.0104949139, -9.785745   , 0.000265829876, -0.00129437307, -0.00142227521, 0.395712554 , 0.163610622 , 0.3408386   , -0.00367595861, -0.000262834626, -0.3964777  , 2.41        , 3           , 12          , 0.0469178259, 0
0.00327898539, 0.0326806232, -9.764957   , -1.15991934E-05, -0.00214097463, -1.22067859E-05, 0.395712554 , 0.163610622 , 0.3408386   , -0.00367607479, -0.000284244685, -0.3964777  , 2.42        , 3           , 50          , 0           , 0
0.001188321 , 0.0426673   , -9.775328   , 0.00251720683, 0.00041029873, -0.0008440612, 0.3949036   , 0.1640151   , 0.3407038   , -0.00365090021, -0.0002801726, -0.396486282, 2.43        , 3           , 11          , 0.00777707342, 0.00777709624
-0.006701242, 0.0247479   , -9.786309   , 0.00250835344, 0.002099687 , -0.00168907014, 0.3949036   , 0.164486989 , 0.3402993   , -0.003625812, -0.000259237277, -0.3965032  , 2.44        , 3           , 12          , 0.0469178259, 0
-0.00152989849, 0.03555637  , -9.797977   , 0.000814608065, 0.00208823127, -0.0002842842, 0.395712554 , 0.163543209 , 0.3407038   , -0.00361766526, -0.0002383654, -0.396506071, 2.45        , 3           , 50          , 0           , 0
-0.008494183, 0.0292474125, -9.77636051 , -0.00172386726, 0.001226342 , -0.00171012606, 0.395712554 , 0.163543209 , 0.3407038   , -0.00363489985, -0.000226164091, -0.396523237, 2.46        , 3           , 11          , 0.00777707342, 0.00777709624
-0.00345384213, 0.0292373281, -9.790785   , -0.000855024, -0.00299140112, -0.0005825341, 0.3949036   , 0.163812861 , 0.340434134 , -0.00364344846, -0.000256099156, -0.396528959, 2.47        , 3           , 12          , 0.0469178259, 0
-0.003605498, 0.02331188  , -9.772732   , -0.00030443666, -0.0001719319, -0.00114063593, 0.395038426 , 0.1640151   , 0.340164483 , -0.00364649 , -0.000257859967, -0.3965404  , 2.48        , 3           , 50          , 0           , 0
0.00695966324, 0.0309000127, -9.784823   , 0.000824202958, 0.000117274525, -0.0005698593, 0.395712554 , 0.163880274 , 0.340636373 , -0.00363824633, -0.000256707979, -0.396546125, 2.49        , 3           , 11          , 0.00777707342, 0.00777709624
-0.0003108941, 0.0260541476, -9.794391   , 0.00114177051, 0.0009631881, -0.00113230385, 0.395712554 , 0.163880274 , 0.340636373 , -0.003560938, -0.00024824345, -0.396557331, 2.5         , 3           , 12          , 0.0478282422, 0
0.0025281487, 0.03772648  , -9.786637   , 0.0003024391, -0.000450362422, 0.0005568005, 0.395308077 , 0.163678035 , 0.340434134 , -0.00355791557, -0.000252727361, -0.396551847, 2.51        , 3           , 50          , 0           , 0
-0.0008337628, 0.05717305  , -9.787938   , -0.004504393, 0.000643428531, 0.0005361483, 0.395105839 , 0.164082512 , 0.3402319   , -0.00360296061, -0.000246273965, -0.396546364, 2.52        , 3           , 11          , 0.007682834 , 0.00768286828
-0.0140667986, 0.0501027331, -9.78626    , 0.00395742245, 0.002953249 , 0.0008616654, 0.395779967 , 0.163610622 , 0.3407038   , -0.003563388, -0.00021671076, -0.396538019, 2.53        , 3           , 12          , 0.0478282422, 0
-0.0264440533, 0.0336080864, -9.802695   , 0.00113701029, 0.002089453 , 0.000282119174, 0.395779967 , 0.163610622 , 0.3407038   , -0.00355201866, -0.000195806322, -0.396535158, 2.54        , 3           , 50          , 0           , 0
-0.0217295121, 0.0190507881, -9.784188   , 0.0022749186, 0.000407701 , 2.24582618E-06, 0.3953755   , 0.163745448 , 0.340501547 , -0.00352926948, -0.000191729283, -0.396535158, 2.55        , 3           , 11          , 0.007682834 , 0.00768286828
-0.0206281859, 0.0316965841, -9.791359   , 0.0005829825, -0.000166889658, -0.0002890609, 0.395105839 , 0.164149925 , 0.340366721 , -0.00352343917, -0.000193408458, -0.396538258, 2.56        , 3           , 12          , 0.0478282422, 0
-0.0106249154, 0.040540684 , -9.772715   , 0.000874589 , -0.00185436639, 0.00112233975, 0.395712554 , 0.163880274 , 0.3407712   , -0.003514696, -0.000211912527, -0.3965268  , 2.57        , 3           , 50          , 0           , 0
-0.0269106124, 0.00510997  , -9.780218   , 0.0017046521, 0.00153014262, 0.0002838852, 0.395712554 , 0.163880274 , 0.3407712   , -0.00349765 , -0.000196601235, -0.3965242  , 2.58        , 3           , 11          , 0.007682834 , 0.00768286828
-0.0255280416, 0.0300351158, -9.816713   , 0.0005800313, 0.0003962397, -0.000570730539, 0.395240664 , 0.163678035 , 0.34056896  , -0.003491848, -0.000192658743, -0.396529675, 2.59        , 3           , 12          , 0.0478282422, 0
-0.008661657, 0.0419817232, -9.805237   , 0.00119234121, -0.002805098, -0.000290716416, 0.3948362   , 0.164419577 , 0.340164483 , -0.00342476554, -0.000406845647, -0.396532536, 2.6         , 3           , 50          , 0           , 0
-0.003379994, 0.0333143175, -9.795741   , 0.00203223643, -0.00110997306, 0.00141106267, 0.395645142 , 0.163880274 , 0.340973437 , -0.00340444921, -0.000417897129, -0.396518469, 2.61        , 3           , 11          , 0.0075863   , 0.007586324
-0.00680357264, 0.0500328019, -9.790725   , 0.004845516 , 0.00116164819, 0.001710241 , 0.395645142 , 0.163880274 , 0.340973437 , -0.003356001, -0.000406222884, -0.3965013  , 2.62        , 3           , 12          , 0.0487558432, 0
-0.0268096346, 0.0457355231, -9.78502    , 0.00174153456, 0.000295936072, -0.0008483842, 0.395038426 , 0.163745448 , 0.34056896  , -0.00333858258, -0.000403291924, -0.3965099  , 2.63        , 3           , 50          , 0           , 0
-0.008708533, 0.0441755   , -9.786696   , 0.00230441615, 0.0008628901, 0.000567804731, 0.395105839 , 0.164217338 , 0.340366721 , -0.003315541, -0.000394644274, -0.396504164, 2.64        , 3           , 11          , 0.0075863   , 0.007586324
-0.0232013911, 0.0443425737, -9.785903   , 0.0006128062, 0.000288300856, 0.000841572764, 0.395712554 , 0.163610622 , 0.3407712   , -0.00330941612, -0.0003917334, -0.396495819, 2.65        , 3           , 12          , 0.0487558432, 0
-0.0370574  , 0.0264272615, -9.777494   , -0.00136065215, -0.0005697672, -0.00029909733, 0.395712554 , 0.163610622 , 0.3407712   , -0.00332302158, -0.000397440919, -0.39649868 , 2.66        , 3           , 50          , 0           , 0
-0.0144606913, 0.0189853944, -9.790009   , -0.000790963939, -0.00141063938, 0.0008323844, 0.3953755   , 0.163745448 , 0.3407038   , -0.00333093456, -0.000411519519, -0.396490335, 2.67        , 3           , 11          , 0.0075863   , 0.007586324
-0.00424081273, 0.04094916  , -9.782156   , 0.000331610179, 4.82500764E-06, 0.0005572844, 0.395038426 , 0.164149925 , 0.3402319   , -0.00332762045, -0.0004114527, -0.396484852, 2.68        , 3           , 12          , 0.0487558432, 0
-0.0134423524, 0.032902997 , -9.772767   , -0.000529521436, 0.00253317459, -0.0017030607, 0.395645142 , 0.163543209 , 0.3407712   , -0.0033329085, -0.000386177766, -0.39650178 , 2.69        , 3           , 50          , 0           , 0
-0.00569459423, 0.0252655223, -9.80935    , -0.000816151034, -8.847861E-05, -0.00199112762, 0.395645142 , 0.163543209 , 0.3407712   , -0.00337068224, -0.00054029387, -0.3965218  , 2.7         , 3           , 11          , 0.00748892827, 0.00748894969
0.004084547 , 0.0107177924, -9.811144   , 0.00115500891, 0.00133272214, -1.97708141E-06, 0.395105839 , 0.163745448 , 0.3407038   , -0.003359132, -0.0005269668, -0.3965218  , 2.71        , 3           , 12          , 0.0496993959, 0
0.00844169  , 0.0367868245, -9.796088   , 0.00116460363, -0.000638234254, -0.000287551869, 0.395105839 , 0.164486989 , 0.3402993   , -0.00334748463, -0.0005333588, -0.396524668, 2.72        , 3           , 50          , 0           , 0
0.00304411352, 0.0475920662, -9.770321   , -0.00278699887, -0.0009465343, 0.00138880184, 0.39584738  , 0.163610622 , 0.34104085  , -0.00337536237, -0.0005427774, -0.396510839, 2.73        , 3           , 11          , 0.00748892827, 0.00748894969
-0.0175774172, 0.0248679221, -9.784132   , 0.00200696057, 0.0004937591, 0.00084828434, 0.39584738  , 0.163610622 , 0.34104085  , -0.003355297, -0.000537811255, -0.396502256, 2.74        , 3           , 12          , 0.0496993959, 0
-0.000441043638, 0.021485189 , -9.777236   , -0.003356109, -0.000387231034, -0.00115580135, 0.3953755   , 0.164149925 , 0.3407038   , -0.00338885165, -0.0005417225, -0.396513939, 2.75        , 3           , 50          , 0           , 0
-0.0006061224, 0.0400239863, -9.788008   , 0.00115705538, 0.00105116  , 0.001127739 , 0.394971    , 0.164149925 , 0.340164483 , -0.00337728742, -0.0005311728, -0.396502733, 2.76        , 3           , 11          , 0.00748892827, 0.00748894969
-0.0183342136, 0.0370505564, -9.781375   , 0.00199113716, 0.00359097286, 5.44521026E-06, 0.3959148   , 0.163947687 , 0.3408386   , -0.00335737574, -0.0004952631, -0.396502733, 2.77        , 3           , 12          , 0.0496993959, 0
-0.0164769813, 0.0388520434, -9.786778   , 0.0011614894, -7.510575E-05, -0.000851759, 0.3959148   , 0.163947687 , 0.3408386   , -0.003345757, -0.000496042834, -0.396511316, 2.78        , 3           , 50          , 0           , 0
0.0104773585, 0.0280946363, -9.768085   , 0.000880041451, -7.70110055E-05, 0.000842148846, 0.395173252 , 0.163812861 , 0.3407712   , -0.00333696068, -0.0004967847, -0.396502733, 2.79        , 3           , 11          , 0.00748892827, 0.00748894969
0.00686221244, 0.0276965946, -9.771277   , 0.00199952582, 0.00161167816, 2.38223583E-06, 0.3948362   , 0.1645544   , 0.340501547 , -0.003319499, -0.000496116641, -0.396502733, 2.8         , 3           , 12          , 0.0506577455, 0
0.008329183 , 0.0384810641, -9.763086   , 0.00229187426, -0.000357366836, 0.0002831991, 0.395779967 , 0.163880274 , 0.340906024 , -0.00329658156, -0.000499680929, -0.396499872, 2.81        , 3           , 50          , 0           , 0
-0.0332354978, 0.0341344327, -9.801389   , -0.0002452959, -0.00121924945, 0.0011176574, 0.395779967 , 0.163880274 , 0.340906024 , -0.00329904049, -0.000511836552, -0.396488667, 2.82        , 3           , 11          , 0.00739273  , 0.00739274267
-0.0206457675, 0.0356994979, -9.774167   , -0.0019600254, 0.00271119853, -1.43190846E-05, 0.3953755   , 0.163880274 , 0.340636373 , -0.00331864064, -0.0004847252, -0.3964889  , 2.83        , 3           , 12          , 0.0506577455, 0
0.00697874743, 0.03403993  , -9.77938652 , -0.00139377767, 0.00243345369, -1.21191551E-05, 0.395173252 , 0.164284751 , 0.34056896  , -0.00333257788, -0.000460391137, -0.396489143, 2.84        , 3           , 50          , 0           , 0
-0.013060635, 0.01989594  , -9.797226   , 0.0008629375, 0.002730292 , -0.00226144958, 0.3959822   , 0.163947687 , 0.340906024 , -0.00332393846, -0.000433163717, -0.3965118  , 2.85        , 3           , 11          , 0.00739273  , 0.00739274267
-0.0064484356, 0.0414677076, -9.794374   , -0.00081686757, -9.681464E-05, -0.000861002947, 0.3959822   , 0.163947687 , 0.340906024 , -0.00333210337, -0.0004341604, -0.396520376, 2.86        , 3           , 12          , 0.0506577455, 0
-0.03241036 , 0.0287024342, -9.799146   , 0.0008675203, 0.00216717087, 0.0008455949, 0.395240664 , 0.163947687 , 0.340906024 , -0.003323432, -0.000412460737, -0.396512032, 2.87        , 3           , 50          , 0           , 0
-0.01250385 , 0.03202635  , -9.783611   , 0.0003093103, 0.000755523564, 0.000275716331, 0.3949036   , 0.164352164 , 0.3402993   , -0.00332034 , -0.00040489636, -0.3965094  , 2.88        , 3           , 11          , 0.00739273  , 0.00739274267
-0.00339210033, 0.0422315076, -9.764065   , 0.002016091 , -0.00176710391, -0.0002853622, 0.3954429   , 0.163678035 , 0.3408386   , -0.00330017786, -0.0004225768, -0.39651227 , 2.89        , 3           , 12          , 0.0506577455, 0
-0.0121500548, 0.0292627234, -9.768253   , -0.00195703865, -0.0001449766, -0.000583864632, 0.3954429   , 0.163678035 , 0.3408386   , -0.00334010948, -0.000501761329, -0.396518   , 2.9         , 3           , 50          , 0           , 0
-0.0214027278, 0.0349378474, -9.813046   , 0.002824049 , 0.003829401 , -0.0016855516, 0.395173252 , 0.163947687 , 0.340906024 , -0.003311861, -0.0004635236, -0.39653492 , 2.91        , 3           , 11          , 0.007296508 , 0.00729652541
-0.0238623358, 0.032574106 , -9.772849   , -0.002234794, -0.0009915794, 0.00026112888, 0.395105839 , 0.164419577 , 0.3402993   , -0.00333420979, -0.000473430642, -0.3965323  , 2.92        , 3           , 12          , 0.0516298227, 0
-0.03532505 , 0.0232177079, -9.76845551 , 0.0005896374, -0.000972478942, 0.00055683573, 0.395712554 , 0.1640151   , 0.340973437 , -0.00332831661, -0.000483136828, -0.396526575, 2.93        , 3           , 50          , 0           , 0
0.00952995  , 0.04942204  , -9.800095   , 0.001995706 , 0.00016332895, -0.000282456138, 0.395712554 , 0.1640151   , 0.340973437 , -0.003308358, -0.000481513, -0.396529436, 2.94        , 3           , 11          , 0.007296508 , 0.00729652541
-0.000226735152, 0.03147854  , -9.797531   , -0.00476843445, -0.00269816048, -3.586465E-05, 0.395240664 , 0.164082512 , 0.340906024 , -0.003356042, -0.0005084956, -0.3965299  , 2.95        , 3           , 12          , 0.0516298227, 0
-0.0183287133, 0.0343769081, -9.79133    , -0.00139406847, 0.000140406075, -0.00142840925, 0.394971    , 0.164419577 , 0.340501547 , -0.00336997584, -0.0005071396, -0.396544218, 2.96        , 3           , 50          , 0           , 0
-0.0186533742, 0.0514473654, -9.767759   , -0.001957528, -0.000144978985, -0.001431477, 0.395779967 , 0.163947687 , 0.34104085  , -0.00338954362, -0.0005086378, -0.396558523, 2.97        , 3           , 11          , 0.007296508 , 0.00729652541
-0.03207008 , 0.0303913523, -9.76614    , 0.000305979629, -0.000692823, 0.0008384901, 0.395779967 , 0.163947687 , 0.34104085  , -0.00338648842, -0.0005155376, -0.39654994 , 2.98        , 3           , 12          , 0.0516298227, 0
0.00465845224, 0.0233084243, -9.80024    , 0.001129977 , 0.00381794386, -0.000845840841, 0.395240664 , 0.163812861 , 0.34104085  , -0.00337518472, -0.000477387075, -0.396558523, 2.99        , 3           , 50          , 0           , 0
0.007159868 , 0.01194332  , -9.783997   , 0.000862585148, -0.000458915019, -0.00226651342, 0.394971    , 0.164217338 , 0.340366721 , -0.00337655866, -0.000584146648, -0.396581173, 3           , 3           , 11          , 0.00720194634, 0.00720197149
-0.0315880664, 0.02192907  , -9.800523   , 0.001143366 , 0.000106130552, -0.0002865662, 0.395712554 , 0.163678035 , 0.34104085  , -0.00336512318, -0.000583094952, -0.396584034, 3.01        , 3           , 12          , 0.0526146181, 0
-0.0143985907, 0.0248382688, -9.786368   , 0.000849787146, 0.00235674134, -0.000284411683, 0.395712554 , 0.163678035 , 0.34104085  , -0.00335662416, -0.000559537264, -0.3965869  , 3.02        , 3           , 50          , 0           , 0
0.02184573  , 0.0257694945, -9.786991   , -0.002251495, 0.00120947044, -0.000583171146, 0.395308077 , 0.163745448 , 0.340973437 , -0.00337913586, -0.000547462143, -0.396592855, 3.03        , 3           , 11          , 0.00720194634, 0.00720197149
-0.01351728 , 0.0248079784, -9.780485   , 0.003108876 , 0.00237201946, -0.0008389512, 0.395173252 , 0.164217338 , 0.34056896  , -0.00334804249, -0.000523770461, -0.3966012  , 3.04        , 3           , 12          , 0.0526146181, 0
-0.00645923568, 0.009395881 , -9.784112   , 0.00283423485, 0.000962288 , 0.0005702495, 0.395510316 , 0.163812861 , 0.3408386   , -0.00331970328, -0.000514128653, -0.396595716, 3.05        , 3           , 50          , 0           , 0
0.0101151178, 0.0295123681, -9.785709   , -0.0005447143, -0.001313157, -0.00114425 , 0.395510316 , 0.163812861 , 0.3408386   , -0.00332514453, -0.000527298253, -0.396607161, 3.06        , 3           , 11          , 0.00720194634, 0.00720197149
-0.0195008088, 0.0167639218, -9.78282452 , -0.00252088625, -0.00132652291, 0.0002592187, 0.3954429   , 0.1640151   , 0.341108263 , -0.00335035473, -0.0005405547, -0.3966043  , 3.07        , 3           , 12          , 0.0526146181, 0
-0.0123261968, 0.042882707 , -9.792153   , 0.00340203964, 0.000402978476, 0.0008545529, 0.394971    , 0.1640151   , 0.3407712   , -0.00331633887, -0.0005364964, -0.396595955, 3.08        , 3           , 50          , 0           , 0
-0.01361457 , 0.0518823676, -9.780375   , 0.00114155689, 0.000669265341, 0.00140952645, 0.395712554 , 0.163745448 , 0.34104085  , -0.00330493087, -0.0005297571, -0.3965819  , 3.09        , 3           , 11          , 0.00720194634, 0.00720197149
-0.006925475, 0.04145337  , -9.788502   , -0.00252411282, 0.0009022218, -0.000302441942, 0.395712554 , 0.163745448 , 0.34104085  , -0.00331324316, -0.000569479365, -0.396584749, 3.1         , 3           , 12          , 0.05361118  , 0
-0.0104505718, 0.054518804 , -9.770395   , 0.00285470579, -0.00159557373, 1.21162157E-06, 0.3954429   , 0.163812861 , 0.340973437 , -0.00328469649, -0.0005854352, -0.396584749, 3.11        , 3           , 50          , 0           , 0
0.00980187953, 0.0443603247, -9.772091   , 0.000315489131, -0.00217589457, -0.0002940459, 0.3949036   , 0.1645544   , 0.340434134 , -0.00328153954, -0.0006072036, -0.3965876  , 3.12        , 3           , 11          , 0.00710947067, 0.007109506
0.005640817 , 0.03139432  , -9.792968   , 0.000861316163, 0.0017698392, 0.0005622753, 0.395779967 , 0.163678035 , 0.341108263 , -0.00327292969, -0.000589486852, -0.396582127, 3.13        , 3           , 12          , 0.05361118  , 0
-0.0251073334, 0.0371454135, -9.785947   , 0.00086919067, 8.044613E-05, -0.000287940551, 0.395779967 , 0.163678035 , 0.341108263 , -0.003264236, -0.000588691735, -0.396585   , 3.14        , 3           , 50          , 0           , 0
-0.00329714175, 0.036952246 , -9.804312   , 0.00284060277, 0.00122007658, -0.000276986277, 0.395308077 , 0.163745448 , 0.34104085  , -0.00323582836, -0.000576500257, -0.396587849, 3.15        , 3           , 11          , 0.00710947067, 0.007109506
-0.0188692622, 0.0240450539, -9.803128   , 0.00199364824, 0.00121434825, 0.000284137641, 0.394971    , 0.1640151   , 0.34056896  , -0.0032158934, -0.0005643476, -0.396585   , 3.16        , 3           , 12          , 0.05361118  , 0
-0.009250847, 0.036520306 , -9.789444   , 0.00226599118, 0.00318721216, -0.0002765826, 0.3959148   , 0.163678035 , 0.340973437 , -0.00319323223, -0.0005324845, -0.396587849, 3.17        , 3           , 50          , 0           , 0
-0.009272026, 0.03561045  , -9.787188   , 0.003115318 , 0.00291137979, 0.0008570839, 0.3959148   , 0.163678035 , 0.340973437 , -0.00316208345, -0.000503343646, -0.3965795  , 3.18        , 3           , 11          , 0.00710947067, 0.007109506
-0.0215239115, 0.0375177525, -9.77507    , -0.0013872725, -0.00049796293, -1.68066472E-05, 0.395308077 , 0.163610622 , 0.34104085  , -0.00317595573, -0.0005083237, -0.3965795  , 3.19        , 3           , 12          , 0.05361118  , 0
0.00218999851, 0.05166155  , -9.769858   , 0.000296826882, -0.00333507429, -0.0005784157, 0.394971    , 0.164284751 , 0.340501547 , -0.003223936, -0.0006113932, -0.396585226, 3.2         , 3           , 50          , 0           , 0
-0.00312993466, 0.0513709523, -9.798827   , 0.00338981953, -0.000216840825, 0.00226621865, 0.395712554 , 0.163812861 , 0.3408386   , -0.003190052, -0.0006134889, -0.396562576, 3.21        , 3           , 11          , 0.007017561 , 0.007017593
-0.00156403985, 0.0373141   , -9.783958   , 0.00282415  , -0.00022066466, 0.000850897166, 0.395712554 , 0.163812861 , 0.3408386   , -0.003161816, -0.000615668541, -0.396554   , 3.22        , 3           , 12          , 0.0546186343, 0
-0.0102843447, 0.0248221736, -9.795828   , 0.0005644091, -0.00023594599, 0.000275286759, 0.395308077 , 0.1640151   , 0.341108263 , -0.003156173, -0.000618019258, -0.396551371, 3.23        , 3           , 50          , 0           , 0
-0.00402810425, 0.0237880033, -9.778609   , 0.00226847641, -0.00191387115, 0.002258347 , 0.394633949 , 0.164284751 , 0.340636373 , -0.003133503, -0.000637086865, -0.396528482, 3.24        , 3           , 11          , 0.007017561 , 0.007017593
-0.0259013735, 0.016788451 , -9.767958   , 0.001980562 , -0.00107109209, -1.9678555E-06, 0.395577729 , 0.163745448 , 0.340906024 , -0.00311369728, -0.0006477978, -0.396528482, 3.25        , 3           , 12          , 0.0546186343, 0
-0.0117333382, 0.02074753  , -9.786818   , 0.000288299721, -0.00164568436, -0.000858349667, 0.395577729 , 0.163745448 , 0.340906024 , -0.00311080879, -0.000664281251, -0.396537066, 3.26        , 3           , 50          , 0           , 0
0.0113960216, 0.0205066614, -9.795681   , 6.36233744E-06, -0.00164759194, -1.20542827E-05, 0.395173252 , 0.163610622 , 0.340973437 , -0.003110745, -0.0006807574, -0.396537066, 3.27        , 3           , 11          , 0.007017561 , 0.007017593
0.0139519069, 0.0448195748, -9.78878    , 0.0028294   , -0.00134692644, 0.000284086476, 0.395038426 , 0.163880274 , 0.3407038   , -0.003082453, -0.0006942178, -0.3965342  , 3.28        , 3           , 12          , 0.0546186343, 0
-0.0175991561, 0.0257430114, -9.775993   , 0.00139939552, 0.00202229945, -0.00169505319, 0.395645142 , 0.163610622 , 0.3407038   , -0.00306844735, -0.000674047042, -0.396551371, 3.29        , 3           , 50          , 0           , 0
-0.0189543385, 0.0275469217, -9.771024   , 0.000553774764, 0.00117634994, -0.00170028687, 0.395645142 , 0.163610622 , 0.3407038   , -0.00306841 , -0.000652559451, -0.3965683  , 3.3         , 3           , 11          , 0.00692741247, 0.00692744367
-0.0266517848, 0.0249591134, -9.77968    , 0.0025260027, 0.002315984 , -0.000276645325, 0.394971    , 0.1640151   , 0.341108263 , -0.00304314843, -0.000629408343, -0.396571159, 3.31        , 3           , 12          , 0.0556361564, 0
-0.0108961873, 0.0464956276, -9.798002   , 0.000287171424, -0.00192277366, -0.000858764746, 0.3949036   , 0.1640151   , 0.34056896  , -0.00304027135, -0.00064866204, -0.396579742, 3.32        , 3           , 50          , 0           , 0
0.0143200057, 0.0335868821, -9.804192   , -6.8968734E-06, 0.000327834743, -0.00170422264, 0.395779967 , 0.163947687 , 0.340906024 , -0.00304032932, -0.0006454355, -0.39659667 , 3.33        , 3           , 11          , 0.00692741247, 0.00692744367
0.00101276673, 0.029580893 , -9.774479   , 0.000265608774, 0.00230069971, -0.00198240578, 0.395779967 , 0.163947687 , 0.340906024 , -0.00303766038, -0.0006224889, -0.3966167  , 3.34        , 3           , 12          , 0.0556361564, 0
-0.0104432348, 0.0166591238, -9.783208   , -0.0002753093, -0.00220815418, 0.000833392143, 0.395240664 , 0.163610622 , 0.34104085  , -0.00304041873, -0.000644545, -0.3966081  , 3.35        , 3           , 50          , 0           , 0
0.009593425 , 0.0245520044, -9.78483    , 0.005354126 , 0.001490387 , -0.0008298527, 0.394971    , 0.164284751 , 0.340501547 , -0.00298687234, -0.000629666145, -0.3966167  , 3.36        , 3           , 11          , 0.00692741247, 0.00692744367
-0.01338552 , 0.03919795  , -9.766414   , 0.003379022 , 0.00119545439, 8.106988E-06, 0.3953755   , 0.164149925 , 0.340973437 , -0.00295308232, -0.000617711456, -0.3966167  , 3.37        , 3           , 12          , 0.0556361564, 0
-0.005682544, 0.03152419  , -9.792149   , 0.00196393672, 0.00174903416, -0.00028014704, 0.3953755   , 0.164149925 , 0.340973437 , -0.00293344143, -0.000600229658, -0.396619558, 3.38        , 3           , 50          , 0           , 0
0.0201182887, 0.03567829  , -9.775662   , 0.001972953 , 5.96464379E-05, 0.00084739906, 0.395240664 , 0.163947687 , 0.340906024 , -0.00291371671, -0.0005996083, -0.396610975, 3.39        , 3           , 11          , 0.00692741247, 0.00692744367
-0.00453140261, 0.045995757 , -9.805639   , 0.00223611668, 0.0009284945, -0.00112770265, 0.394701362 , 0.1645544   , 0.3402319   , -0.0029227566, -0.00054025295, -0.396622419, 3.4         , 3           , 12          , 0.05666299  , 0
-0.0107115656, 0.0266336054, -9.796276   , 0.00195729337, 0.0003634584, 0.000282799738, 0.395712554 , 0.163880274 , 0.3407038   , -0.00290318555, -0.0005366102, -0.396619558, 3.41        , 3           , 50          , 0           , 0
5.34448773E-05, 0.0224063657, -9.784459   , -0.00086615904, 0.000344362576, 0.00168231782, 0.395712554 , 0.163880274 , 0.3407038   , -0.002911856, -0.0005331176, -0.396602869, 3.42        , 3           , 11          , 0.00683987467, 0.006839884
-0.0128360391, 0.03882464  , -9.791269   , -0.0019847888, -0.00219737017, -0.0008696924, 0.3953755   , 0.163947687 , 0.340973437 , -0.002931699, -0.0005551167, -0.396611452, 3.43        , 3           , 12          , 0.05666299  , 0
0.00690928567, 0.030859191 , -9.77262    , -0.00142313808, -0.0013488502, 0.0008294679, 0.394566536 , 0.164217338 , 0.340434134 , -0.00294593466, -0.000568580639, -0.3966031  , 3.44        , 3           , 50          , 0           , 0
-0.0198944733, 0.0261905   , -9.766968   , -0.00142706814, -0.0007857255, -0.00114742643, 0.395308077 , 0.163812861 , 0.3408386   , -0.00296019879, -0.000576471735, -0.396614552, 3.45        , 3           , 11          , 0.00683987467, 0.006839884
-0.02516514 , 0.0295106117, -9.796373   , 0.000552782 , -0.00105391373, 0.00140419544, 0.395308077 , 0.163812861 , 0.3408386   , -0.002954679, -0.0005869693, -0.396600485, 3.46        , 3           , 12          , 0.05666299  , 0
0.003013406 , 0.0413182862, -9.783003   , -0.00113079022, -0.00331789488, 0.00111028482, 0.395308077 , 0.163745448 , 0.3408386   , -0.002965994, -0.000620115257, -0.396589279, 3.47        , 3           , 50          , 0           , 0
-0.0217448343, 0.0511014424, -9.788122   , -0.000866396469, 6.27895351E-05, -0.00114349078, 0.394768775 , 0.164419577 , 0.340434134 , -0.00297465059, -0.000619521248, -0.396600723, 3.48        , 3           , 11          , 0.00683987467, 0.006839884
-0.0159022938, 0.0474261642, -9.788999   , 0.00393026229, 0.00122152444, 0.0005758577, 0.395712554 , 0.163745448 , 0.3407038   , -0.00293535134, -0.000607289, -0.396594763, 3.49        , 3           , 12          , 0.05666299  , 0
-0.007210004, 0.0247078612, -9.772754   , -0.00344842882, 2.61320965E-05, -0.00115538063, 0.395712554 , 0.163745448 , 0.3407038   , -0.003063085, -0.0006522566, -0.3966062  , 3.5         , 3           , 50          , 0           , 0
-0.00154014106, 0.04447508  , -9.766752   , 0.000511449 , -0.001073387, -0.000573604251, 0.395308077 , 0.163745448 , 0.34104085  , -0.00305796647, -0.000663007842, -0.396611929, 3.51        , 3           , 11          , 0.00675417669, 0.006754185
-0.0213079564, 0.0497442   , -9.788578   , -0.00232036738, 0.0005969076, 0.000828517135, 0.394701362 , 0.164486989 , 0.340434134 , -0.0030811755, -0.0006570134, -0.396603823, 3.52        , 3           , 12          , 0.05769841  , 0
-0.0107341809, 0.0288470313, -9.783611   , -0.00148087274, 0.00201045931, -0.00057804957, 0.395712554 , 0.163812861 , 0.3407038   , -0.00309598073, -0.0006369268, -0.396609545, 3.53        , 3           , 50          , 0           , 0
-0.0014150627, 0.0120669995, -9.790842   , -6.176868E-05, 0.0006121835, -0.0005736345, 0.395712554 , 0.163812861 , 0.3407038   , -0.00309659471, -0.000630822731, -0.396615267, 3.54        , 3           , 11          , 0.00675417669, 0.006754185
0.00159416639, 0.03458964  , -9.789821   , 0.001069214 , 0.000197471818, -0.00198170519, 0.3953755   , 0.163678035 , 0.340906024 , -0.00308589 , -0.0006289093, -0.396635056, 3.55        , 3           , 12          , 0.05769841  , 0
-0.00556758046, 0.0459005535, -9.77401    , 0.00149432966, -8.122788E-05, -0.001838895, 0.3948362   , 0.164082512 , 0.340434134 , -0.00307093514, -0.0006297782, -0.3966534  , 3.56        , 3           , 50          , 0           , 0
-0.00308390823, 0.0255940668, -9.78221    , 0.00149604992, -0.000362791383, -0.00127425394, 0.395645142 , 0.164149925 , 0.3407712   , -0.00305596669, -0.000633445161, -0.3966663  , 3.57        , 3           , 11          , 0.00675417669, 0.006754185
-0.0188717134, 0.03341643  , -9.772355   , -5.96777681E-05, 0.0001898359, -0.0005742856, 0.395645142 , 0.164149925 , 0.3407712   , -0.00305655971, -0.000631564239, -0.396672   , 3.58        , 3           , 12          , 0.05769841  , 0
-0.021250017, 0.0524692424, -9.793989   , 0.00120714249, 0.00104312645, -0.000425788865, 0.395240664 , 0.163947687 , 0.341108263 , -0.00304448558, -0.000621146057, -0.3966763  , 3.59        , 3           , 50          , 0           , 0
-0.0297593456, 0.0606803745, -9.790857   , 0.00243481155, 0.00342565961, -0.00112254708, 0.394768775 , 0.164149925 , 0.340434134 , -0.00309417071, -0.0006332061, -0.3966875  , 3.6         , 3           , 11          , 0.006671305 , 0.00667131459
0.00432953425, 0.03457286  , -9.794319   , 0.000319479965, 0.002848205 , -0.0009920232, 0.395712554 , 0.163880274 , 0.3408386   , -0.00309096975, -0.0006047548, -0.396697521, 3.61        , 3           , 12          , 0.05874175  , 0
-0.007559087, 0.0288143549, -9.784945   , 0.000477910828, -0.000529619, -0.0001489595, 0.395712554 , 0.163880274 , 0.3408386   , -0.00308618974, -0.0006100555, -0.396698952, 3.62        , 3           , 50          , 0           , 0
-0.00758256 , 0.02477819  , -9.792191   , 0.001326133 , -0.00066467037, 0.0002785804, 0.3953755   , 0.163543209 , 0.341108263 , -0.00307292957, -0.0006166936, -0.3966961  , 3.63        , 3           , 11          , 0.006671305 , 0.00667131459
-0.003492369, 0.0300988015, -9.778579   , -0.000375805772, 0.000731693348, -0.000433495152, 0.394768775 , 0.164149925 , 0.340636373 , -0.00307668466, -0.000609389856, -0.396700621, 3.64        , 3           , 12          , 0.05874175  , 0
-0.0159775838, 0.0464724526, -9.773635   , -0.0002407392, 0.00185890566, -0.001419982, 0.395510316 , 0.163745448 , 0.3407038   , -0.00307908352, -0.000590844662, -0.3967147  , 3.65        , 3           , 50          , 0           , 0
-0.0101650907, 0.0374166146, -9.784475   , 0.000186096717, 0.00129864248, -0.000712530862, 0.395510316 , 0.163745448 , 0.3407038   , -0.00307721854, -0.000577880244, -0.39672184 , 3.66        , 3           , 11          , 0.006671305 , 0.00667131459
-0.00696904538, 0.0405253656, -9.780822   , -0.000655489042, 0.00030743872, 0.0006946869, 0.3954429   , 0.163678035 , 0.34104085  , -0.00308377761, -0.0005747844, -0.396714926, 3.67        , 3           , 12          , 0.05874175  , 0
-0.0144511657, 0.024349317 , -9.77507    , 0.00159859448, 0.00144898018, 0.00113076437, 0.3943643   , 0.164486989 , 0.3402993   , -0.00306779775, -0.0005602599, -0.39670372 , 3.68        , 3           , 50          , 0           , 0
-0.0171626061, 0.0239391327, -9.777804   , 0.00258458965, 0.00187801069, 0.00042968092, 0.395779967 , 0.163812861 , 0.340636373 , -0.00304195425, -0.0005414667, -0.396699667, 3.69        , 3           , 11          , 0.006671305 , 0.00667131459
0.00187545456, 0.0219475552, -9.788515   , 0.0007378808, 0.000713814341, -0.0004282458, 0.395779967 , 0.163812861 , 0.340636373 , -0.00307393749, -0.0005970805, -0.396703482, 3.7         , 3           , 12          , 0.0597923622, 0
-0.0170318  , 0.0294013284, -9.792245   , 3.66925633E-05, -0.000276438426, -0.0004330569, 0.395510316 , 0.163947687 , 0.341108263 , -0.003073568, -0.000599858235, -0.396707773, 3.71        , 3           , 50          , 0           , 0
-0.02225621 , 0.04748849  , -9.785431   , 0.0011665629, -0.0002687978, -0.0001452518, 0.394566536 , 0.164352164 , 0.340434134 , -0.00306190155, -0.0006025507, -0.396709442, 3.72        , 3           , 11          , 0.00658964133, 0.00658966554
0.0121589666, 0.0493190773, -9.77883148 , -0.000103742241, -0.000418175623, -0.000292663724, 0.395308077 , 0.164149925 , 0.340501547 , -0.00306293718, -0.000606741349, -0.3967123  , 3.73        , 3           , 12          , 0.0597923622, 0
0.0188611187, 0.0389006734, -9.790123   , -0.000674498151, 0.0007042633, -0.0008586367, 0.395308077 , 0.164149925 , 0.340501547 , -0.00306967669, -0.000599725056, -0.3967209  , 3.74        , 3           , 50          , 0           , 0
-0.002427549, 0.0311099123, -9.814274   , 0.00101555442, 0.00156041677, -0.00141450844, 0.395308077 , 0.1640151   , 0.341108263 , -0.003059513, -0.0005841643, -0.396734953, 3.75        , 3           , 11          , 0.00658964133, 0.00658966554
-0.0305256937, 0.0323115475, -9.805443   , 0.00130736851, -0.000267844734, -0.000850937155, 0.3948362   , 0.164149925 , 0.340366721 , -0.00304643437, -0.000586868729, -0.396743536, 3.76        , 3           , 12          , 0.0597923622, 0
-0.0333365537, 0.02601825  , -9.802778   , 0.00159511948, -0.00111062452, 0.00112684048, 0.395577729 , 0.163880274 , 0.34056896  , -0.00303048966, -0.0005979407, -0.39673233 , 3.77        , 3           , 50          , 0           , 0
0.0070941383, 0.008765606 , -9.778134   , 0.0018787774, -0.00139028032, 0.000845186063, 0.395577729 , 0.163880274 , 0.34056896  , -0.003011707, -0.0006118178, -0.396723747, 3.78        , 3           , 11          , 0.00658964133, 0.00658966554
-0.0136444569, 0.0166706257, -9.775548   , 0.00370754441, -0.000110826113, -0.0004157198, 0.395038426 , 0.163678035 , 0.341108263 , -0.00297462917, -0.0006129387, -0.396728039, 3.79        , 3           , 12          , 0.0597923622, 0
-0.0164767522, 0.0366204828, -9.794019   , 0.004689111 , 0.002274047 , -0.0011137632, 0.394768775 , 0.164149925 , 0.3402319   , -0.00291425083, -0.0006284226, -0.396738768, 3.8         , 3           , 50          , 0           , 0
-0.00368531048, 0.0437051766, -9.798411   , 0.001587621 , 0.001267561 , -0.0005646935, 0.3953755   , 0.163812861 , 0.3407038   , -0.002898371, -0.000615763362, -0.3967445  , 3.81        , 3           , 11          , 0.006510696 , 0.00651073176
-0.00722300261, 0.052296903 , -9.791622   , -0.00080173614, -0.000860407832, 0.000833545462, 0.3953755   , 0.163812861 , 0.3407038   , -0.00290639373, -0.0006243432, -0.396736145, 3.82        , 3           , 12          , 0.0608497   , 0
0.00616810424, 0.03635923  , -9.795202   , -0.0006496155, -0.00311197434, 0.000406926323, 0.3954429   , 0.163812861 , 0.341108263 , -0.002912892, -0.000655451, -0.3967321  , 3.83        , 3           , 50          , 0           , 0
-0.01598655 , 0.039323587 , -9.794456   , 0.00230967463, -0.00182487641, 0.000563975656, 0.394971    , 0.164149925 , 0.340501547 , -0.00288979919, -0.0006736833, -0.39672637 , 3.84        , 3           , 11          , 0.006510696 , 0.00651073176
-0.02426124 , 0.0348548368, -9.778718   , 0.000314156758, 0.00182209769, -0.000145945523, 0.3953755   , 0.163812861 , 0.34056896  , -0.00288665714, -0.000655466632, -0.3967278  , 3.85        , 3           , 12          , 0.0608497   , 0
0.00198661722, 0.0260547791, -9.802509   , -0.00263996515, -0.000591262535, -0.001011074, 0.3953755   , 0.163812861 , 0.34056896  , -0.00291305 , -0.00066140847, -0.3967378  , 3.86        , 3           , 50          , 0           , 0
0.005222698 , 0.035444878 , -9.788433   , 0.00117935182, -0.00169173372, 0.0007001935, 0.3954429   , 0.163543209 , 0.340906024 , -0.00290126121, -0.00067830534, -0.3967309  , 3.87        , 3           , 11          , 0.006510696 , 0.00651073176
-0.0220196731, 0.0272221845, -9.797716   , 0.0017395711, -0.0007024347, 0.00112815236, 0.3948362   , 0.163947687 , 0.340366721 , -0.00288387272, -0.000685297069, -0.3967197  , 3.88        , 3           , 12          , 0.0608497   , 0
-0.0145027246, 0.017612284 , -9.784139   , -0.000234747131, -0.00141972117, -0.0002948384, 0.395308077 , 0.164149925 , 0.34056896  , -0.00288621825, -0.000699502649, -0.396722555, 3.89        , 3           , 50          , 0           , 0
0.00356325228, 0.01647015  , -9.775869   , 0.00103061728, -0.00226741284, -0.0009965552, 0.395308077 , 0.164149925 , 0.34056896  , -0.002900127, -0.0007523084, -0.3967321  , 3.9         , 3           , 11          , 0.006433824 , 0.006433852
0.0154248672, 0.023545824 , -9.774393   , 0.0007421621, -0.00100227888, -0.000572113146, 0.395240664 , 0.163745448 , 0.3412431   , -0.002892701, -0.0007623477, -0.3967378  , 3.91        , 3           , 12          , 0.0619131848, 0
-0.0131172305, 0.0541449077, -9.78397751 , -0.0002500245, -0.000164266166, 0.000272191741, 0.394633949 , 0.164149925 , 0.340434134 , -0.00289520319, -0.0007639825, -0.3967352  , 3.92        , 3           , 50          , 0           , 0
-0.00331845041, 0.04095213  , -9.786217   , 0.0001779609, -0.00100609579, 0.0005554027, 0.395712554 , 0.163543209 , 0.340636373 , -0.002893428, -0.0007740273, -0.3967297  , 3.93        , 3           , 11          , 0.006433824 , 0.006433852
-0.00279479567, 0.04859221  , -9.778949   , 0.00101228745, 0.00153371785, -0.0001430847, 0.395712554 , 0.163543209 , 0.340636373 , -0.002883304, -0.0007586943, -0.396731138, 3.94        , 3           , 12          , 0.0619131848, 0
-0.031781368, 0.0426767543, -9.797275   , -0.00011696748, 0.00138529437, -0.0005723755, 0.395308077 , 0.1634758   , 0.341108263 , -0.00288446946, -0.0007448579, -0.39673686 , 3.95        , 3           , 50          , 0           , 0
0.00665346161, 0.0426292047, -9.78296852 , -0.00109849148, -2.92160621E-05, -0.0005791544, 0.395038426 , 0.164217338 , 0.340434134 , -0.00289545 , -0.00074516685, -0.396742582, 3.96        , 3           , 11          , 0.006433824 , 0.006433852
-0.000708388165, 0.0327995159, -9.78623    , 0.00016500699, 0.00152798789, -0.00014703552, 0.395510316 , 0.164352164 , 0.340636373 , -0.002893799, -0.0007298913, -0.396744   , 3.97        , 3           , 12          , 0.0619131848, 0
-0.00445499644, 0.0260460526, -9.777699   , -0.00124597771, 0.00123687193, -0.0005778604, 0.395510316 , 0.164352164 , 0.340636373 , -0.00290625473, -0.0007175394, -0.396749973, 3.98        , 3           , 50          , 0           , 0
0.00355549343, 0.0512050427, -9.773014   , -0.00222938485, 0.000103924314, -0.00143181777, 0.3953755   , 0.163610622 , 0.340906024 , -0.00292853755, -0.0007165419, -0.396764278, 3.99        , 3           , 11          , 0.006433824 , 0.006433852
0.0009639253, 0.0290949624, -9.764086   , -0.000572253834, 0.00111163151, -0.0007160464, 0.3949036   , 0.164419577 , 0.340636373 , -0.003022151, -0.0006767595, -0.396771669, 4           , 3           , 12          , 0.06298233  , 0
-0.00933995 , 0.0319846049, -9.782231   , 0.00197012117, 0.0009880379, -0.0009869486, 0.3954429   , 0.164082512 , 0.34056896  , -0.00300244312, -0.0006669089, -0.396781445, 4.01        , 3           , 50          , 0           , 0
0.0291402172, 0.0301883947, -9.784657   , 0.00240220688, -0.0006984873, -0.000846307958, 0.3954429   , 0.164082512 , 0.34056896  , -0.00297841569, -0.0006739191, -0.396790028, 4.02        , 3           , 11          , 0.006358289 , 0.00635831058
0.0145887258, 0.03432512  , -9.756728   , 0.0005640527, -0.000147769926, -0.000147656436, 0.395308077 , 0.163745448 , 0.340906024 , -0.00297277421, -0.0006754011, -0.396791458, 4.03        , 3           , 12          , 0.06298233  , 0
-0.00874454 , 0.045931723 , -9.772226   , -0.0005640975, -0.00043697402, 0.0001291794, 0.394701362 , 0.164082512 , 0.34056896  , -0.00297841616, -0.000679767, -0.396790028, 4.04        , 3           , 50          , 0           , 0
-0.0005364334, 0.040973153 , -9.802014   , -0.0008396802, -0.00170592417, 0.00111479091, 0.395308077 , 0.163880274 , 0.340434134 , -0.00298682065, -0.0006967929, -0.396778822, 4.05        , 3           , 11          , 0.006358289 , 0.00635831058
-0.0226825476, 0.0479615778, -9.790403   , 0.00113816792, -0.00183333619, 0.00140632992, 0.395308077 , 0.163880274 , 0.340434134 , -0.002975449, -0.000715084141, -0.396764755, 4.06        , 3           , 12          , 0.06298233  , 0
-0.0333723649, 0.0331308469, -9.771111   , 0.000431611261, -0.00183811341, 0.000555425242, 0.395510316 , 0.163610622 , 0.341175675 , -0.002971137, -0.000733448949, -0.396759033, 4.07        , 3           , 50          , 0           , 0
-0.005679597, 0.0355437323, -9.77993    , -0.0009790845, -0.002270014, -0.000581960136, 0.395105839 , 0.164149925 , 0.340501547 , -0.00298092375, -0.0007561662, -0.396764755, 4.08        , 3           , 11          , 0.006358289 , 0.00635831058
0.002549882 , 0.0368514   , -9.794776   , -0.0019721312, -0.00129121961, -1.99758233E-05, 0.3953755   , 0.163812861 , 0.340434134 , -0.00300064473, -0.0007690789, -0.396765   , 4.09        , 3           , 12          , 0.06298233  , 0
0.008971369 , 0.04755623  , -9.780219   , -0.00257325312, 0.000400585355, 0.000262541667, 0.3953755   , 0.163812861 , 0.340434134 , -0.0031031922, -0.0007480269, -0.396762371, 4.1         , 3           , 50          , 0           , 0
-0.007256651, 0.024670057 , -9.761455   , -0.0007355506, -9.348241E-06, -1.20866735E-05, 0.3954429   , 0.163880274 , 0.34104085  , -0.00311054755, -0.0007481206, -0.3967626  , 4.11        , 3           , 11          , 0.00628530234, 0.006285336
0.0108181247, 0.0177325048, -9.774      , 0.000396737247, -0.0004240536, 0.000840142544, 0.3949036   , 0.164082512 , 0.340434134 , -0.0031065864, -0.000752335, -0.396754026, 4.12        , 3           , 12          , 0.06405666  , 0
0.00161393371, 0.0310348552, -9.806107   , 0.00110046857, 3.067771E-06, 0.000420279684, 0.3953755   , 0.163947687 , 0.3402993   , -0.003095585, -0.000752291235, -0.396749973, 4.13        , 3           , 50          , 0           , 0
0.009509623 , 0.0547617674, -9.77792549 , 0.000252327853, 0.000138119547, 0.000134008224, 0.3953755   , 0.163947687 , 0.3402993   , -0.00309306243, -0.000750905834, -0.396748543, 4.14        , 3           , 11          , 0.00628530234, 0.006285336
0.00199644174, 0.0394532531, -9.761774   , 0.000672156864, 0.00084489584, -0.000428006548, 0.3954429   , 0.1640151   , 0.34104085  , -0.00308633759, -0.000742470147, -0.396753073, 4.15        , 3           , 12          , 0.06405666  , 0
-0.0192319918, 0.0375138521, -9.781832   , 0.000954175834, 0.00084680377, -0.00113303307, 0.394633949 , 0.1640151   , 0.34056896  , -0.00307678757, -0.0007340372, -0.396764278, 4.16        , 3           , 50          , 0           , 0
0.0166507438, 0.040756043 , -9.797364   , 0.000399117329, -0.0009871856, 0.000132931 , 0.395173252 , 0.163812861 , 0.340434134 , -0.003072797, -0.0007439048, -0.396762848, 4.17        , 3           , 11          , 0.00628530234, 0.006285336
0.03507415  , 0.03417511  , -9.783239   , -0.000160775729, -0.001976483, 0.00027004708, 0.395173252 , 0.163812861 , 0.340434134 , -0.00307440688, -0.0007636612, -0.396760225, 4.18        , 3           , 12          , 0.06405666  , 0
0.00338039547, 0.0336554945, -9.786648   , -0.0007380494, 0.00041299747, -0.000717779447, 0.395510316 , 0.163880274 , 0.341108263 , -0.003081782, -0.0007595534, -0.396767378, 4.19        , 3           , 50          , 0           , 0
-0.0242619924, 0.0312834233, -9.790032   , 0.000930088863, 0.00145294762, -0.0009909206, 0.394701362 , 0.164419577 , 0.340434134 , -0.00313251629, -0.0006243428, -0.3967781  , 4.2         , 3           , 11          , 0.00621425128, 0.00621427968
-0.0287890956, 0.0349079929, -9.778752   , 0.002072876 , -0.00121428154, -0.00127231283, 0.395308077 , 0.164082512 , 0.340501547 , -0.00311177969, -0.0006365253, -0.396790743, 4.21        , 3           , 12          , 0.0651357248, 0
-0.0126650352, 0.0207369924, -9.780496   , -0.000328448921, -0.00108973368, -0.00128328975, 0.395308077 , 0.164082512 , 0.340501547 , -0.00311505585, -0.000647462439, -0.396803617, 4.22        , 3           , 50          , 0           , 0
0.00251093227, 0.0345880836, -9.792526   , 0.000229471974, 0.000462697615, -6.85063242E-06, 0.3953755   , 0.163610622 , 0.341108263 , -0.003112761, -0.000642835745, -0.396803617, 4.23        , 3           , 11          , 0.00621425128, 0.00621427968
0.00559188146, 0.0282302164, -9.791173   , 0.0017804394, 0.00103633467, 0.000707604 , 0.394566536 , 0.164082512 , 0.340501547 , -0.0030949614, -0.000632450567, -0.3967967  , 4.24        , 3           , 12          , 0.0651357248, 0
-0.00430016126, 0.03375946  , -9.790773   , 0.000793628569, 0.000607300259, -3.99979854E-06, 0.3954429   , 0.164082512 , 0.340434134 , -0.003087025, -0.0006263777, -0.3967967  , 4.25        , 3           , 50          , 0           , 0
0.0178676248, 0.0410718024, -9.761646   , 0.000933611067, 0.0008898211, 0.0002796301, 0.3954429   , 0.164082512 , 0.340434134 , -0.00307769026, -0.0006174709, -0.396794081, 4.26        , 3           , 11          , 0.00621425128, 0.00621427968
-0.00139551982, 0.0535192639, -9.773042   , -0.00202752533, 2.507195E-05, 0.0005470378, 0.395510316 , 0.163947687 , 0.34104085  , -0.00309796887, -0.0006172033, -0.396788359, 4.27        , 3           , 12          , 0.0651357248, 0
-0.00404682942, 0.0562822521, -9.780282   , -0.005410701, -0.00126489229, -3.57930439E-05, 0.394971    , 0.163745448 , 0.340366721 , -0.003152076, -0.000629853341, -0.396788836, 4.28        , 3           , 50          , 0           , 0
0.00521906838, 0.0381200463, -9.778932   , -0.00202490087, -0.000538059161, 0.0002636325, 0.394971    , 0.163745448 , 0.340366721 , -0.0031723266, -0.000635225559, -0.3967862  , 4.29        , 3           , 11          , 0.00621425128, 0.00621427968
0.009219956 , 0.03354859  , -9.775303   , 0.00104878866, 0.0004892926, -0.00028543963, 0.395308077 , 0.163678035 , 0.3402319   , -0.00324183935, -0.0005703291, -0.3967893  , 4.3         , 3           , 12          , 0.0662191   , 0
-0.003718011, 0.0423396267, -9.794802   , 0.0006267056, 0.000204863434, -5.31149453E-06, 0.395308077 , 0.1634758   , 0.341108263 , -0.00323557248, -0.000568280637, -0.396789551, 4.31        , 3           , 50          , 0           , 0
-0.0209438186, 0.0407400429, -9.795843   , 0.000357929646, -0.002471913, 0.0006955928, 0.394566536 , 0.1640151   , 0.3402993   , -0.003231997, -0.0005929771, -0.3967824  , 4.32        , 3           , 11          , 0.006144928 , 0.006144962
-0.0265377667, 0.0304076951, -9.790053   , 7.074988E-05, -0.00162913022, -0.000293303485, 0.394566536 , 0.1640151   , 0.3402993   , -0.003231288, -0.000609277864, -0.396785259, 4.33        , 3           , 12          , 0.0662191   , 0
-0.006262931, 0.02026735  , -9.797172   , 0.00076177204, 0.00133207615, -0.0009917984, 0.3954429   , 0.164082512 , 0.3402319   , -0.003223664, -0.0005959892, -0.396795273, 4.34        , 3           , 50          , 0           , 0
0.000243828617, 0.03282669  , -9.797523   , 0.000905239547, 0.000910684234, -0.000709253363, 0.3954429   , 0.163745448 , 0.341108263 , -0.00321460748, -0.0005869053, -0.396802425, 4.35        , 3           , 11          , 0.006144928 , 0.006144962
0.008411936 , 0.0394408181, -9.780257   , -0.000212663086, -0.00134947337, 0.000412157271, 0.3948362   , 0.164082512 , 0.340636373 , -0.00321673672, -0.0006003867, -0.396798134, 4.36        , 3           , 12          , 0.0662191   , 0
-0.008827132, 0.0324742869, -9.795334   , -0.00190620089, -0.00150171423, 0.000969113549, 0.3948362   , 0.164082512 , 0.340636373 , -0.00323580462, -0.0006153725, -0.3967886  , 4.37        , 3           , 50          , 0           , 0
-0.0365251638, 0.0305034742, -9.783802   , -0.00106957566, 0.00047496715, -0.0005778543, 0.395173252 , 0.163880274 , 0.3402319   , -0.003246497, -0.0006106416, -0.396794319, 4.38        , 3           , 11          , 0.006144928 , 0.006144962
-0.009255558, 0.0351774357, -9.792614   , 0.000628551934, -0.0002174852, -0.000429768726, 0.395308077 , 0.163880274 , 0.341108263 , -0.00324020861, -0.0006128304, -0.3967986  , 4.39        , 3           , 12          , 0.0662191   , 0
-0.0142155746, 0.037930727 , -9.789024   , -0.00191143854, -0.00221512653, 0.0005442454, 0.394971    , 0.164082512 , 0.3402319   , -0.00328430976, -0.0006629694, -0.3967929  , 4.4         , 3           , 50          , 0           , 0
-0.00276114047, 0.016110044 , -9.78089    , -0.00276093581, -0.00165772345, 0.00153004366, 0.394971    , 0.164082512 , 0.3402319   , -0.00331192976, -0.000679495861, -0.3967774  , 4.41        , 3           , 11          , 0.006077749 , 0.0060777925
0.0205948744, 0.0401557572, -9.767053   , 0.000197086367, -0.000229845886, 0.000698428834, 0.395240664 , 0.163812861 , 0.3402319   , -0.00330996374, -0.00068177114, -0.396770477, 4.42        , 3           , 12          , 0.06730641  , 0
-0.0172770154, 0.0505532958, -9.774983   , 0.001327372 , -0.000503775, -0.0007094248, 0.395308077 , 0.163745448 , 0.34104085  , -0.00329668517, -0.0006868323, -0.3967774  , 4.43        , 3           , 50          , 0           , 0
-0.0189254619, 0.0262312721, -9.782329   , 0.00118857587, -0.000927076, -0.0001456592, 0.394768775 , 0.164217338 , 0.340366721 , -0.00328479824, -0.000696107745, -0.396778822, 4.44        , 3           , 11          , 0.006077749 , 0.0060777925
0.003610158 , 0.0494639352, -9.792004   , -0.000499423, -0.00234636315, -0.000862074, 0.394768775 , 0.164217338 , 0.340366721 , -0.0032897864, -0.000719599542, -0.3967874  , 4.45        , 3           , 12          , 0.06730641  , 0
-0.00210337713, 0.0260905288, -9.79892349 , -0.001766614, -0.00305886939, -0.00044527906, 0.3953755   , 0.1640151   , 0.3402319   , -0.0033074487, -0.0007502026, -0.3967917  , 4.46        , 3           , 50          , 0           , 0
0.008809202 , 0.0349270143, -9.78117752 , -7.861518E-05, -0.00163958257, 0.000271135883, 0.395173252 , 0.164082512 , 0.3408386   , -0.003308237, -0.0007665893, -0.396789074, 4.47        , 3           , 11          , 0.006077749 , 0.0060777925
-0.015156596, 0.03791263  , -9.780444   , 0.0009008993, 0.000197276051, 0.000419834483, 0.394633949 , 0.164284751 , 0.340164483 , -0.00329923141, -0.000764602853, -0.396784782, 4.48        , 3           , 12          , 0.06730641  , 0
-0.0267506447, 0.0172910467, -9.780167   , -0.00136388373, 0.00116747175, -0.000436794566, 0.394633949 , 0.164284751 , 0.340164483 , -0.00331286667, -0.0007529425, -0.3967893  , 4.49        , 3           , 50          , 0           , 0
0.0150187006, 0.0311768651, -9.761258   , -0.00305086141, -0.0005370835, -0.000447297178, 0.394971    , 0.163880274 , 0.34009707  , -0.00334572652, -0.0007695112, -0.3967936  , 4.5         , 3           , 11          , 0.00601203367, 0.00601207558
-0.00482067466, 0.0354953036, -9.768623   , -0.001355196, -0.0006664044, 0.000266731076, 0.3953755   , 0.163880274 , 0.340973437 , -0.00335928076, -0.000776166329, -0.396790743, 4.51        , 3           , 12          , 0.06839727  , 0
-0.0002801232, 0.05992756  , -9.803742   , 0.000193190863, 0.00032957783, 0.0001342242, 0.394633949 , 0.164284751 , 0.340366721 , -0.00335735 , -0.000772866, -0.396789551, 4.52        , 3           , 50          , 0           , 0
-0.00137247238, 0.0544306375, -9.775749   , 0.0006184698, 5.087891E-05, 0.0005595719, 0.394633949 , 0.164284751 , 0.340366721 , -0.00335116964, -0.0007723384, -0.396784067, 4.53        , 3           , 11          , 0.00601203367, 0.00601207558
-0.0453014448, 0.0179661848, -9.782112   , 0.0003397355, -0.000795728643, -0.000290659227, 0.394971    , 0.164284751 , 0.3402319   , -0.00334777031, -0.000780305651, -0.396786928, 4.54        , 3           , 12          , 0.06839727  , 0
-0.0264767539, 0.03224254  , -9.799086   , 5.333427E-05, -9.372816E-05, -0.00113850366, 0.395308077 , 0.163880274 , 0.340906024 , -0.00334722782, -0.0007812808, -0.396798134, 4.55        , 3           , 50          , 0           , 0
-0.00590582751, 0.0143819582, -9.792674   , 0.00132080726, 0.0007595655, 0.000140142991, 0.394633949 , 0.164419577 , 0.340029657 , -0.0033340205, -0.0007736806, -0.396796942, 4.56        , 3           , 11          , 0.00601203367, 0.00601207558
-0.01443074 , 0.0216877647, -9.788641   , 0.00132384  , 0.00019643642, 0.000563081237, 0.394633949 , 0.164419577 , 0.340029657 , -0.00332078687, -0.000771697436, -0.39679122 , 4.57        , 3           , 12          , 0.06839727  , 0
0.00176906493, 0.04678282  , -9.793385   , 0.00118336792, -8.60867658E-05, -0.0005681611, 0.395173252 , 0.163947687 , 0.34009707  , -0.0033089486, -0.0007725772, -0.396796942, 4.58        , 3           , 50          , 0           , 0
-0.008323314, 0.0334030166, -9.804817   , 0.0020276974, 0.000482772622, -0.0008458797, 0.395105839 , 0.163745448 , 0.340906024 , -0.003288665, -0.0007677773, -0.3968053  , 4.59        , 3           , 11          , 0.00601203367, 0.00601207558
-0.0160427261, 0.0339218639, -9.798094   , 0.001596013 , 0.00160014187, 1.510648E-06, 0.394633949 , 0.164082512 , 0.3402319   , -0.003281837, -0.0007704016, -0.3968053  , 4.6         , 3           , 12          , 0.06949136  , 0
0.00336219463, 0.0291772448, -9.79661    , 0.0003290666, 0.0008876367, 0.000842112 , 0.394633949 , 0.164082512 , 0.3402319   , -0.00327855349, -0.000761497766, -0.396796942, 4.61        , 3           , 50          , 0           , 0
-0.0239487868, 0.0240234025, -9.779213   , -0.0006574994, 0.000458603259, 0.000554314349, 0.394971    , 0.164284751 , 0.339894831 , -0.003285132, -0.00075689354, -0.39679122 , 4.62        , 3           , 11          , 0.0059483503, 0.00594838755
-0.0112343663, 0.02524314  , -9.78363    , -0.001081058, 0.000455738715, 0.000693607668, 0.395240664 , 0.163745448 , 0.3407712   , -0.00329594826, -0.0007523133, -0.3967843  , 4.63        , 3           , 12          , 0.06949136  , 0
-0.006116017, 0.03243785  , -9.793957   , -0.0009349657, -0.000528784061, 0.0006927474, 0.394633949 , 0.163880274 , 0.340029657 , -0.003305303, -0.000757578469, -0.3967774  , 4.64        , 3           , 50          , 0           , 0
-0.019255463, 0.0334776863, -9.789082   , -0.0005146845, 3.720843E-05, -0.000293290534, 0.394633949 , 0.163880274 , 0.340029657 , -0.00331044756, -0.000757216, -0.3967805  , 4.65        , 3           , 11          , 0.0059483503, 0.00594838755
0.00393589959, 0.0364115164, -9.802903   , 4.853039E-05, 0.000322592241, -0.000714028836, 0.395038426 , 0.164217338 , 0.340029657 , -0.003309957, -0.0007540137, -0.396787643, 4.66        , 3           , 12          , 0.06949136  , 0
-0.00168145634, 0.0323091   , -9.771324   , 0.0006158457, -0.0002367196, -0.0012773379, 0.395105839 , 0.163340971 , 0.3408386   , -0.00330378884, -0.0007564232, -0.39680028 , 4.67        , 3           , 50          , 0           , 0
-0.004652909, 0.0481290445, -9.769021   , -0.00121406349, -0.00151617918, -0.00199419446, 0.394499123 , 0.163947687 , 0.3402993   , -0.00331591442, -0.000771650753, -0.3968203  , 4.68        , 3           , 11          , 0.0059483503, 0.00594838755
0.010652489 , 0.03805625  , -9.778891   , -0.001214397, -0.001234609, -0.000157266913, 0.394499123 , 0.163947687 , 0.3402993   , -0.00332805724, -0.000784002, -0.396821737, 4.69        , 3           , 12          , 0.06949136  , 0
0.000317874365, 0.04226004  , -9.785279   , 0.000604363449, 0.00103839033, 0.00133808737, 0.3948362   , 0.163947687 , 0.340029657 , -0.00334326248, -0.000748108141, -0.396808624, 4.7         , 3           , 50          , 0           , 0
0.01543737  , 0.0253413543, -9.771674   , 0.00124128442, 0.000549944059, -0.00035493364, 0.3954429   , 0.163678035 , 0.3408386   , -0.00333084678, -0.0007426205, -0.3968122  , 4.71        , 3           , 11          , 0.00588638  , 0.00588641828
-0.00552679133, 0.0129778367, -9.779118   , 0.0008193273, 0.000124729326, -0.00106390356, 0.3944317   , 0.163947687 , 0.3402993   , -0.00332264556, -0.000741408556, -0.3968227  , 4.72        , 3           , 12          , 0.0705883354, 0
-0.0181285068, 0.01542022  , -9.7905035  , -0.001508173, -0.000383766339, -0.0009342589, 0.3944317   , 0.163947687 , 0.3402993   , -0.00333772087, -0.0007452773, -0.396832228, 4.73        , 3           , 50          , 0           , 0
0.00248173065, 0.0354571268, -9.782579   , 0.000117075004, -0.000724742538, -0.00170420716, 0.395240664 , 0.1640151   , 0.34009707  , -0.00333653716, -0.000752581633, -0.396849155, 4.74        , 3           , 11          , 0.00588638  , 0.00588641828
0.007098    , 0.04663437  , -9.768034   , 0.00152176479, 0.00090380956, -0.000706246065, 0.395240664 , 0.163610622 , 0.340973437 , -0.00332131423, -0.0007435671, -0.3968563  , 4.75        , 3           , 12          , 0.0705883354, 0
0.0182767417, 0.0374603048, -9.762563   , 0.000257154228, -0.000231042257, 0.0005575105, 0.3944317   , 0.163745448 , 0.339962244 , -0.00331874681, -0.000745859055, -0.3968506  , 4.76        , 3           , 50          , 0           , 0
0.00619364064, 0.0457532778, -9.771208   , 0.00188437116, -0.0009943667, -0.0004249916, 0.3944317   , 0.163745448 , 0.339962244 , -0.00329989986, -0.0007558169, -0.396854877, 4.77        , 3           , 11          , 0.00588638  , 0.00588641828
-0.000237729386, 0.0368258357, -9.777622   , 0.000469448831, -0.000440786447, -0.000430708285, 0.394971    , 0.163880274 , 0.340029657 , -0.00329520227, -0.0007602388, -0.396859169, 4.78        , 3           , 12          , 0.0705883354, 0
-0.006208981, 0.0328088738, -9.77       , 0.000607729657, 0.000193690925, -7.59018E-05, 0.395308077 , 0.163947687 , 0.3407712   , -0.00328912423, -0.0007583043, -0.396859884, 4.79        , 3           , 50          , 0           , 0
0.0122832293, 0.02851546  , -9.765357   , 0.0008830902, 0.00014551451, -0.000427869876, 0.394701362 , 0.1640151   , 0.340164483 , -0.00330360979, -0.000691253, -0.396864653, 4.8         , 3           , 11          , 0.0058260886, 0.005826135
-0.0238513388, 0.027226815 , -9.792758   , -0.00102333515, 0.000273407873, 0.000693607668, 0.394701362 , 0.1640151   , 0.340164483 , -0.003313848, -0.000688495929, -0.3968575  , 4.81        , 3           , 12          , 0.07168792  , 0
-0.0198126063, 0.0284885857, -9.779614   , 0.0002631084, -0.003026391, -0.0007888865, 0.394971    , 0.164217338 , 0.339894831 , -0.00331121124, -0.000718785857, -0.396865368, 4.82        , 3           , 50          , 0           , 0
-0.0237934962, 0.0272736829, -9.806768   , 0.0006917687, -0.00393861 , 5.92908946E-05, 0.3953755   , 0.163678035 , 0.3407038   , -0.00330429384, -0.000758169743, -0.396864653, 4.83        , 3           , 11          , 0.0058260886, 0.005826135
-0.0121414457, 0.06088642  , -9.779422   , 0.000386589236, 0.000564519258, -0.0007120611, 0.394566536 , 0.164149925 , 0.3402993   , -0.0033004228, -0.000752548047, -0.3968718  , 4.84        , 3           , 12          , 0.07168792  , 0
0.00181162066, 0.05395891  , -9.7807     , 0.00264495821, 0.00079097267, -0.000701200159, 0.394566536 , 0.164149925 , 0.3402993   , -0.00327396835, -0.000744661666, -0.396878958, 4.85        , 3           , 50          , 0           , 0
0.00294820033, 0.00116806291, -9.78543    , 0.00173077849, 0.000151246379, 0.0002824246, 0.3949036   , 0.164082512 , 0.339894831 , -0.00325666275, -0.000743139943, -0.3968761  , 4.86        , 3           , 11          , 0.0058260886, 0.005826135
-0.0252355859, 0.0249900334, -9.793682   , 0.00115979661, 0.00134407729, -7.153682E-05, 0.395173252 , 0.163745448 , 0.3407038   , -0.003245064, -0.0007297016, -0.3968768  , 4.87        , 3           , 12          , 0.07168792  , 0
-0.0132729169, 0.0401818976, -9.790814   , -0.00116285053, 6.128232E-05, 0.00182277348, 0.394701362 , 0.164082512 , 0.339962244 , -0.00325670629, -0.000729029533, -0.3968587  , 4.88        , 3           , 50          , 0           , 0
-0.009304955, 0.0364764668, -9.776337   , 0.0014526156, -0.000695358438, 0.000421074539, 0.394701362 , 0.164082512 , 0.339962244 , -0.00324218278, -0.000735969341, -0.3968544  , 4.89        , 3           , 11          , 0.0058260886, 0.005826135
-0.0274547618, 0.0326408222, -9.7801075  , 0.002159173 , -0.00161038374, 0.001199949 , 0.395240664 , 0.164082512 , 0.339962244 , -0.003235423, -0.000767612539, -0.396842241, 4.9         , 3           , 12          , 0.0727898255, 0
-0.0313094333, 0.0133019835, -9.785641   , 0.00181231194, -0.00295020686, 0.000419263466, 0.395308077 , 0.164082512 , 0.34056896  , -0.00321730273, -0.000797100831, -0.39683795 , 4.91        , 3           , 50          , 0           , 0
-0.0174961388, 0.0365388878, -9.766456   , -0.000173444278, -0.00141497434, -0.00149469636, 0.394768775 , 0.1640151   , 0.34009707  , -0.00321902521, -0.0008112986, -0.396852732, 4.92        , 3           , 11          , 0.005767554 , 0.00576759549
-0.00218789745, 0.0278074425, -9.772702   , -0.00144311541, -0.00163474213, -0.001147776, 0.394768775 , 0.1640151   , 0.34009707  , -0.00323344721, -0.000827683, -0.396864176, 4.93        , 3           , 12          , 0.0727898255, 0
0.00147203356, 0.0282417759, -9.780357   , -0.00144235918, -0.00170513149, -0.00044154076, 0.395038426 , 0.163880274 , 0.339894831 , -0.00324786664, -0.0008447484, -0.396868467, 4.94        , 3           , 50          , 0           , 0
-0.003837294, 0.0373331234, -9.781715   , -0.00137546728, -0.000789563637, 0.000972886046, 0.395308077 , 0.163745448 , 0.3407712   , -0.00326162972, -0.0008526124, -0.3968587  , 4.95        , 3           , 11          , 0.005767554 , 0.00576759549
0.00432865229, 0.0359112   , -9.789794   , -0.00221361988, -0.00283664535, -0.0007294356, 0.3949036   , 0.164217338 , 0.34009707  , -0.00328375958, -0.0008810026, -0.396866083, 4.96        , 3           , 12          , 0.0727898255, 0
-0.00726474 , 0.0161828548, -9.786802   , -0.001230376, -0.0017036983, -0.00015801577, 0.3949036   , 0.164217338 , 0.34009707  , -0.00329606212, -0.00089804444, -0.3968675  , 4.97        , 3           , 50          , 0           , 0
-0.0194416884, 0.02618518  , -9.766966   , 0.0004517056, 0.00063066883, -0.001841759, 0.3949036   , 0.1640151   , 0.339827418 , -0.00329152821, -0.0008917985, -0.396885872, 4.98        , 3           , 11          , 0.005767554 , 0.00576759549
0.000366453081, 0.0525654666, -9.763993   , 0.00128969538, 0.002677749 , -0.0004219748, 0.395240664 , 0.1640151   , 0.34056896  , -0.00327862753, -0.00086503505, -0.396890163, 4.99        , 3           , 12          , 0.0727898255, 0
0.0037256768, 0.0192798562, -9.806592   , -0.001097359, -0.0004344216, -0.000579202955, 0.394633949 , 0.163745448 , 0.340164483 , -0.003295262, -0.0008650813, -0.396896124, 5           , 3           , 50          , 0           , 0
0.0120318253, 0.0335938074, -9.798333   , -0.0006738634, -0.00036116445, -0.000223947369, 0.394633949 , 0.163745448 , 0.340164483 , -0.00330199837, -0.00086870027, -0.39689827 , 5.01        , 3           , 11          , 0.00571044767, 0.00571047841
-0.0146869207, 0.0405991   , -9.775909   , 0.0003779186, 0.00112421485, -0.000216730608, 0.3948362   , 0.164284751 , 0.33976     , -0.00329821766, -0.000857465551, -0.396900415, 5.02        , 3           , 12          , 0.07389379  , 0
