Acc X       , Acc Y       , Acc Z       , Gyro X      , Gyro Y      , Gyro Z      , Magn X      , Magn Y      , Magn Z      , Euler X     , Euler Y     , Euler Z     , Time        , Status      , LowRate X   , LowRate Y   , LowRate Z    
-0.123738952, 0.07221391  , -9.806894   , -0.00166476972, -0.00303888856, -5.699785E-05, -0.173789948, -0.162329778, 0.438721865 , -0.00740029057, -0.0119052334, 2.41503263  , 0           , 3           , 11          , 0.0346410163, 0.0346410163
-0.09547592 , 0.0471171141, -9.82215    , -0.00168255833, 0.0003398872, -0.00188828423, -0.173857361, -0.162397191, 0.438519627 , -0.007416892, -0.0119019747, 2.41501355  , 0.01        , 3           , 12          , 0.0346410163, 0
-0.0902027041, 0.07987929  , -9.788075   , -0.0008445464, 0.002316575 , -0.00103368354, -0.173722535, -0.161992714, 0.43858704  , -0.00742521277, -0.0118788863, 2.415003    , 0.02        , 3           , 50          , 0           , 0
-0.117993891, 0.0729231462, -9.769785   , -0.00140472862, 0.00146806217, -0.000190006744, -0.173992187, -0.16212754 , 0.438789278 , -0.007439236, -0.01186422 , 2.41500115  , 0.03        , 3           , 11          , 0.0346410163, 0.0346410163
-0.101709522, 0.0637919   , -9.794558   , -0.00139595673, -0.000221326336, 0.0005137333, -0.173655123, -0.162060127, 0.438519627 , -0.00745325768, -0.0118663935, 2.415006    , 0.04        , 3           , 12          , 0.0346410163, 0
-0.118679337, 0.0807001   , -9.798685   , -0.000402910024, -0.00120012078, -4.825124E-05, -0.173655123, -0.162060127, 0.438519627 , -0.007457282, -0.0118783992, 2.415006    , 0.05        , 3           , 50          , 0           , 0
-0.137646   , 0.0533645563, -9.789      , 0.000157064555, -0.000210822967, -4.409858E-05, -0.173857361, -0.162262365, 0.438654453 , -0.00745570567, -0.0118805114, 2.415005    , 0.06        , 3           , 11          , 0.0346410163, 0.0346410163
-0.105637431, 0.07377868  , -9.7986145  , 1.35526025E-05, 0.0003513545, 0.000803723233, -0.173857361, -0.162060127, 0.4388567   , -0.00745566562, -0.0118769389, 2.41501355  , 0.07        , 3           , 12          , 0.0346410163, 0
-0.103846729, 0.0764189661, -9.78503    , -0.0008350775, 0.000486403966, -0.000330160547, -0.173924774, -0.162329778, 0.43858704  , -0.007463976, -0.0118720988, 2.41500974  , 0.08        , 3           , 50          , 0           , 0
-0.100728489, 0.07767928  , -9.768276   , 0.0001480481, 0.00147856434, -0.00117164478, -0.173924774, -0.162329778, 0.43858704  , -0.007462355, -0.0118574  , 2.41499829  , 0.09        , 3           , 11          , 0.0346410163, 0.0346410163
-0.12725234 , 0.04831592  , -9.799788   , 0.0005791479, 7.360623E-05, -0.0003242262, -0.173857361, -0.162194952, 0.438519627 , -0.00745652569, -0.0118566882, 2.41499448  , 0.1         , 3           , 12          , 0.0346410163, 0
-0.129456937, 0.0804536343, -9.821819   , -0.000824051443, -0.00162533124, 0.0006554666, -0.173992187, -0.1624646  , 0.438789278 , -0.00746484473, -0.0118728923, 2.41500115  , 0.11        , 3           , 50          , 0           , 0
-0.141542986, 0.0673935562, -9.787616   , 0.000581973058, -0.000348737842, 0.000946541433, -0.173722535, -0.162397191, 0.43858704  , -0.00745913759, -0.0118763093, 2.41501069  , 0.12        , 3           , 11          , 0.0346410163, 0.0346410163
-0.126087278, 0.06904766  , -9.796531   , 0.00170491787, 0.000925942557, 0.000106149586, -0.173722535, -0.162397191, 0.43858704  , -0.00744210137, -0.0118670417, 2.41501164  , 0.13        , 3           , 12          , 0.0346410163, 0
-0.111967109, 0.07386066  , -9.800922   , 0.0007125309, 0.00162316835, -0.0006037185, -0.173655123, -0.162194952, 0.43858704  , -0.00743490271, -0.0118508562, 2.415006    , 0.14        , 3           , 50          , 0           , 0
-0.09905522 , 0.0574605279, -9.799536   , 0.000145133934, 0.00218247948, -0.000181678261, -0.173857361, -0.162329778, 0.438789278 , -0.007433428, -0.0118290447, 2.415004    , 0.15        , 3           , 11          , 0.0346410163, 0.0346410163
-0.098689355, 0.05336763  , -9.791414   , -0.0009817852, 0.00161170983, -0.000187813857, -0.173789948, -0.162194952, 0.438789278 , -0.007443222, -0.0118129412, 2.415002    , 0.16        , 3           , 12          , 0.0346410163, 0
-0.111132994, 0.07557753  , -9.777858   , -0.00111578393, 0.00020293046, 0.000233164115, -0.173789948, -0.162194952, 0.438789278 , -0.00745440554, -0.0118108941, 2.415004    , 0.17        , 3           , 50          , 0           , 0
-0.107802182, 0.08191994  , -9.79679    , 0.000584108231, -0.0009118712, -0.000184476274, -0.173924774, -0.162262365, 0.438721865 , -0.00744854426, -0.0118200276, 2.415002    , 0.18        , 3           , 11          , 0.0346410163, 0.0346410163
-0.109268486, 0.0720287   , -9.802265   , 0.0007214288, -0.0002070054, -0.00088907656, -0.173857361, -0.16212754 , 0.4388567   , -0.00744122546, -0.0118221641, 2.41499352  , 0.19        , 3           , 12          , 0.0346410163, 0
-0.132980332, 0.06324278  , -9.790731   , -0.00040663837, -0.000496207038, -0.000470970146, -0.173924774, -0.16212754 , 0.43858704  , -0.00744519243, -0.0118270963, 2.41498876  , 0.2         , 3           , 50          , 0           , 0
-0.1361984  , 0.09575005  , -9.785197   , -0.0009633355, -0.0020486326, 0.000371621718, -0.173924774, -0.16212754 , 0.43858704  , -0.00745487073, -0.0118475556, 2.41499257  , 0.21        , 3           , 11          , 0.03466991  , 0.03466991
-0.1253479  , 0.09114573  , -9.795528   , -0.00196097186, -0.000225145, 0.000228564284, -0.173722535, -0.1624646  , 0.438721865 , -0.007474508, -0.0118497871, 2.41499543  , 0.22        , 3           , 12          , 0.0346688069, 0
-0.115325011, 0.0661572441, -9.77973652 , -0.00351603958, 4.591375E-05, -0.000343319844, -0.173857361, -0.162060127, 0.43858704  , -0.007509628, -0.011849354, 2.41499162  , 0.23        , 3           , 50          , 0           , 0
-0.129330069, 0.06322293  , -9.797483   , -0.00181672547, -0.000787318859, 0.0006521611, -0.173924774, -0.162262365, 0.438721865 , -0.007527873, -0.01185718 , 2.41499829  , 0.24        , 3           , 11          , 0.03466991  , 0.03466991
-0.1192764  , 0.06451991  , -9.81548    , 1.55634552E-05, -7.099143E-05, 0.000661806 , -0.173924774, -0.162262365, 0.438721865 , -0.007527797, -0.0118578384, 2.415005    , 0.25        , 3           , 12          , 0.0346688069, 0
-0.09593058 , 0.0898964   , -9.794857   , -0.00026362302, -0.000776815345, 0.000235598 , -0.173857361, -0.162397191, 0.438654453 , -0.007530462, -0.0118655888, 2.41500783  , 0.26        , 3           , 50          , 0           , 0
-0.105575532, 0.07427518  , -9.812171   , 0.000305531372, -0.00147690414, 0.00164983422, -0.173857361, -0.161992714, 0.43858704  , -0.0075276047, -0.0118802339, 2.415024    , 0.27        , 3           , 11          , 0.03466991  , 0.03466991
-0.116978563, 0.07255509  , -9.797802   , -0.0002617024, -0.000917591969, 0.002354412 , -0.173655123, -0.162060127, 0.438789278 , -0.007530502, -0.0118892295, 2.415048    , 0.28        , 3           , 12          , 0.0346688069, 0
-0.118716426, 0.0784383   , -9.796886   , -0.0011161532, 0.000343716732, 0.000798457942, -0.173655123, -0.162060127, 0.438789278 , -0.00754175847, -0.0118857315, 2.41505551  , 0.29        , 3           , 50          , 0           , 0
-0.120783009, 0.0581668243, -9.799699   , -0.000696277944, 0.000349513721, -0.0003296555, -0.173857361, -0.1624646  , 0.4384522   , -0.007612793, -0.0118217953, 2.41505313  , 0.3         , 3           , 11          , 0.0347534381, 0.0347534344
-0.119439989, 0.05501398  , -9.806029   , 0.000430151849, 0.0009202814, -0.00117113255, -0.173722535, -0.162194952, 0.4384522   , -0.0076083513, -0.01181268 , 2.41504121  , 0.31        , 3           , 12          , 0.03475387  , 0
-0.0942729339, 0.0763602555, -9.80077648 , 0.000148829873, 0.0007775908, -0.000466322759, -0.173722535, -0.162329778, 0.438654453 , -0.007606807, -0.011804942, 2.41503644  , 0.32        , 3           , 50          , 0           , 0
-0.125171065, 0.0708310455, -9.793352   , -0.000136510833, 0.00147959637, 0.0005223265, -0.173655123, -0.162329778, 0.438654453 , -0.007608233, -0.0117901042, 2.41504216  , 0.33        , 3           , 11          , 0.0347534381, 0.0347534344
-0.128787085, 0.071771346 , -9.79202    , 0.00126975833, 0.002756191 , 0.00123720756, -0.173655123, -0.162329778, 0.438654453 , -0.007595678, -0.0117624486, 2.415054    , 0.34        , 3           , 12          , 0.03475387  , 0
-0.114322096, 0.06667183  , -9.801874   , 0.00226718746, 0.00107348815, 0.00222809426, -0.173655123, -0.162194952, 0.438654453 , -0.00757326744, -0.0117515447, 2.41507649  , 0.35        , 3           , 50          , 0           , 0
-0.09943571 , 0.0619879365, -9.802683   , 0.000725199468, -0.00133032212, 0.00136955024, -0.173722535, -0.1619253  , 0.438519627 , -0.007566178, -0.0117647443, 2.41508985  , 0.36        , 3           , 11          , 0.0347534381, 0.0347534344
-0.13407217 , 0.08088235  , -9.799253   , -0.0005480129, -0.00105735625, -0.000189898084, -0.173722535, -0.1624646  , 0.438721865 , -0.00757163763, -0.0117753316, 2.415088    , 0.37        , 3           , 12          , 0.03475387  , 0
-0.113086335, 0.06477116  , -9.777918   , -0.000829290366, -0.00134083244, -0.0006154551, -0.173722535, -0.1624646  , 0.438721865 , -0.00757985841, -0.0117887864, 2.41508222  , 0.38        , 3           , 50          , 0           , 0
-0.0880753845, 0.06902962  , -9.78946    , 0.00114391977, -0.00034197967, 0.00130241027, -0.173722535, -0.16212754 , 0.438519627 , -0.007568573, -0.0117921066, 2.415095    , 0.39        , 3           , 11          , 0.0347534381, 0.0347534344
-0.09979719 , 0.0669770762, -9.808994   , 0.00130103144, 0.0007311842, 0.0007394926, -0.17358771 , -0.16212754 , 0.438654453 , -0.0073584686, -0.0116345827, 2.41510034  , 0.4         , 3           , 12          , 0.03489535  , 0
-0.123722762, 0.0816004   , -9.780641   , -3.48977446E-05, -0.000474541332, 0.000166318117, -0.173722535, -0.162194952, 0.438654453 , -0.007358838, -0.0116393138, 2.41510224  , 0.41        , 3           , 50          , 0           , 0
-0.110760741, 0.06747265  , -9.784216   , 0.000664978 , 0.0007972768, 0.000312831748, -0.173722535, -0.162194952, 0.438654453 , -0.00735222269, -0.0116313193, 2.415105    , 0.42        , 3           , 11          , 0.0176903848, 0.0176903941
-0.117885113, 0.07122588  , -9.801882   , 0.001431219 , 0.00284387474, -0.0002454755, -0.173722535, -0.162194952, 0.438721865 , -0.00733788 , -0.0116028991, 2.41510224  , 0.43        , 3           , 12          , 0.03489535  , 0
-0.107185937, 0.0611427352, -9.792803   , 0.000523805269, 0.0007963223, 0.0003828077, -0.173789948, -0.162194952, 0.43858704  , -0.0073326854, -0.0115949074, 2.415106    , 0.44        , 3           , 50          , 0           , 0
-0.09914759 , 0.08364622  , -9.803495   , 0.00292145973, 0.001446079 , 0.000677515345, -0.173655123, -0.162194952, 0.43858704  , -0.007303549, -0.0115803974, 2.41511273  , 0.45        , 3           , 11          , 0.0176903848, 0.0176903941
-0.1021661  , 0.09630356  , -9.79984951 , 0.001943751 , -0.0008131282, 3.3725486E-05, -0.173655123, -0.162194952, 0.43858704  , -0.007284116, -0.0115885269, 2.41511273  , 0.46        , 3           , 12          , 0.03489535  , 0
-0.115285546, 0.09155703  , -9.81850052 , 0.00172815344, 0.000170922343, 0.00194138475, -0.173722535, -0.162262365, 0.438519627 , -0.007267059, -0.0115866764, 2.41513276  , 0.47        , 3           , 50          , 0           , 0
-0.118190959, 0.07581376  , -9.823109   , -0.00109840988, 0.0005741693, 0.0015756943, -0.173857361, -0.1619253  , 0.438721865 , -0.007278225, -0.0115808183, 2.415148    , 0.48        , 3           , 11          , 0.0176903848, 0.0176903941
-0.1278102  , 0.07494296  , -9.799232   , -0.00167080457, 0.00197817176, 0.0005863487, -0.173789948, -0.162194952, 0.438789278 , -0.007294998, -0.0115609951, 2.41515374  , 0.49        , 3           , 12          , 0.03489535  , 0
-0.133121073, 0.08447942  , -9.79878    , -0.000932206167, 0.00205098256, -0.000257120148, -0.173789948, -0.162194952, 0.438789278 , -0.007483267, -0.0115540847, 2.41515326  , 0.5         , 3           , 50          , 0           , 0
-0.132899344, 0.0668792   , -9.798851   , -0.0009256698, 0.000854333863, 0.0008005511, -0.173655123, -0.162194952, 0.438721865 , -0.007492616, -0.0115454784, 2.41516137  , 0.51        , 3           , 11          , 0.0134331519, 0.0134331416
-0.116219796, 0.05546421  , -9.816851   , -0.00140636228, -0.00203505415, -0.000477619935, -0.1740596  , -0.162060127, 0.43858704  , -0.007506626, -0.011565865, 2.4151566   , 0.52        , 3           , 12          , 0.0350921266, 0
-0.106314383, 0.0579800941, -9.794618   , -0.000699765, -0.00203027669, 0.0004439191, -0.173655123, -0.162060127, 0.438519627 , -0.0075136777, -0.0115861325, 2.41516137  , 0.53        , 3           , 50          , 0           , 0
-0.1229418  , 0.0667592362, -9.797872   , 0.0014793257, -4.451863E-05, 0.00052779715, -0.173655123, -0.162060127, 0.438519627 , -0.00749894651, -0.01158654 , 2.41516614  , 0.54        , 3           , 11          , 0.0134331519, 0.0134331416
-0.130297676, 0.08498031  , -9.823164   , 0.00317833479, -0.000948145636, 0.000393019785, -0.174194425, -0.162262365, 0.438654453 , -0.00746720843, -0.0115959905, 2.415171    , 0.55        , 3           , 12          , 0.0350921266, 0
-0.12883532 , 0.09710009  , -9.809543   , 0.00183051615, 0.000239431785, -0.00024710063, -0.173722535, -0.162060127, 0.438789278 , -0.007448875, -0.0115936147, 2.415168    , 0.56        , 3           , 50          , 0           , 0
-0.135135859, 0.0687134042, -9.799766   , 0.00041959816, -0.000262862915, -0.00237347581, -0.173655123, -0.162262365, 0.438789278 , -0.0074444036, -0.01159642 , 2.41514421  , 0.57        , 3           , 11          , 0.0134331519, 0.0134331416
-0.118980527, 0.0590312369, -9.794709   , 0.000137612733, 1.68010156E-05, 0.000804187963, -0.173857361, -0.162329778, 0.438721865 , -0.0074431207, -0.0115961926, 2.41515231  , 0.58        , 3           , 12          , 0.0350921266, 0
-0.119838782, 0.05997289  , -9.8033     , 0.000353981944, -0.00082645996, 0.001439583 , -0.173857361, -0.162329778, 0.438721865 , -0.00743974838, -0.0116043482, 2.415167    , 0.59        , 3           , 50          , 0           , 0
-0.122825935, 0.07220933  , -9.808696   , 0.00212740572, 0.00129608787, 0.000814709 , -0.173789948, -0.162194952, 0.438654453 , -0.00736056361, -0.0118048806, 2.41517425  , 0.6         , 3           , 11          , 0.0113504492, 0.011350451
-0.102253444, 0.0890912   , -9.801689   , 0.001199538 , 0.00319044245, -0.00017552299, -0.173857361, -0.162397191, 0.438654453 , -0.00734854536, -0.01177299 , 2.41517186  , 0.61        , 3           , 12          , 0.0353428572, 0
-0.10027574 , 0.102595404 , -9.798905   , -0.0005565908, 0.00141872477, 0.0003786089, -0.17358771 , -0.162329778, 0.438721865 , -0.007354154, -0.0117587755, 2.41517568  , 0.62        , 3           , 50          , 0           , 0
-0.101864934, 0.08278488  , -9.8062315  , -0.00329344627, -0.00183789223, 0.00170283171, -0.17358771 , -0.162329778, 0.438721865 , -0.00738729024, -0.0117770284, 2.41519284  , 0.63        , 3           , 11          , 0.0113504492, 0.011350451
-0.1280227  , 0.0546850041, -9.812424   , -0.00216796179, -0.0009855572, 0.00163876684, -0.173789948, -0.162329778, 0.438721865 , -0.007409163, -0.0117867617, 2.41520953  , 0.64        , 3           , 12          , 0.0353428572, 0
-0.1079615  , 0.0706320852, -9.794125   , 0.000145420272, 0.00212740968, -0.000605895, -0.173924774, -0.1624646  , 0.4388567   , -0.007407636, -0.0117655341, 2.41520333  , 0.65        , 3           , 50          , 0           , 0
-0.114735484, 0.07206527  , -9.794171   , -0.00118735025, 0.000217769775, -0.00174522947, -0.173789948, -0.162532017, 0.438654453 , -0.007419304, -0.0117634861, 2.41518617  , 0.66        , 3           , 11          , 0.0113504492, 0.011350451
-0.116489038, 0.0743649751, -9.800955   , -0.002877651, -0.000497599, -0.000412162772, -0.173789948, -0.162532017, 0.438654453 , -0.0074480325, -0.0117684938, 2.41518188  , 0.67        , 3           , 12          , 0.0353428572, 0
-0.116381958, 0.08561048  , -9.790964   , -0.000480712159, 0.000222547445, -0.0007530559, -0.1740596  , -0.162262365, 0.438721865 , -0.007452751, -0.0117663238, 2.41517425  , 0.68        , 3           , 50          , 0           , 0
-0.0966386944, 0.07228716  , -9.78906    , -0.00209935731, -0.0008443035, -0.000620986742, -0.173789948, -0.162262365, 0.438789278 , -0.00747367227, -0.011774811, 2.415168    , 0.69        , 3           , 11          , 0.0113504492, 0.011350451
-0.131973714, 0.07134833  , -9.789335   , -0.0023254517, -0.002293188, -0.000482500822, -0.173655123, -0.162060127, 0.438789278 , -0.007542717, -0.01173271 , 2.41516423  , 0.7         , 3           , 12          , 0.0356459729, 0
-0.11187645 , 0.07795125  , -9.809945   , -0.000421087141, -0.00157637591, 0.00207031  , -0.173655123, -0.162060127, 0.438789278 , -0.007547172, -0.0117483158, 2.41518521  , 0.71        , 3           , 50          , 0           , 0
-0.09112778 , 0.07362521  , -9.803476   , 0.0009787936, 0.00068568904, 0.000173238572, -0.173789948, -0.162060127, 0.438721865 , -0.007537403, -0.0117414463, 2.41518664  , 0.72        , 3           , 11          , 0.0101314262, 0.0101314252
-0.123262294, 0.07936957  , -9.789687   , 0.00231364043, 0.00196180237, -0.000524896837, -0.173789948, -0.16212754 , 0.438789278 , -0.007514204, -0.0117218681, 2.4151814   , 0.73        , 3           , 12          , 0.0356459729, 0
-0.133671284, 0.08128131  , -9.785237   , 0.00288824481, 0.000276238425, 0.001876702 , -0.173992187, -0.162262365, 0.438721865 , -0.00748554152, -0.0117189661, 2.4152      , 0.74        , 3           , 50          , 0           , 0
-0.08168991 , 0.08149068  , -9.760432   , -0.0014852297, -0.0005980615, 0.00178435317, -0.173992187, -0.162262365, 0.438721865 , -0.00750060426, -0.011724812, 2.41521764  , 0.75        , 3           , 11          , 0.0101314262, 0.0101314252
-0.111802667, 0.05442863  , -9.792866   , -0.000850874232, -0.000452983484, 0.00108118961, -0.173857361, -0.162329778, 0.43858704  , -0.00750924041, -0.0117292609, 2.41522861  , 0.76        , 3           , 12          , 0.0356459729, 0
-0.115726724, 0.0595086738, -9.813666   , -0.0005704126, -0.0001695111, 9.40593964E-05, -0.173992187, -0.16212754 , 0.4388567   , -0.007514956, -0.0117309475, 2.41522956  , 0.77        , 3           , 50          , 0           , 0
-0.128363267, 0.0704035   , -9.78931    , -0.0005086815, 0.00159074739, -0.000185436686, -0.173789948, -0.162194952, 0.438654453 , -0.00752001954, -0.0117150545, 2.41522765  , 0.78        , 3           , 11          , 0.0101314262, 0.0101314252
-0.120731108, 0.06535047  , -9.789273   , 0.00210214639, 0.00196037139, 3.91904759E-05, -0.173789948, -0.162194952, 0.438654453 , -0.00749900052, -0.0116954483, 2.41522813  , 0.79        , 3           , 12          , 0.0356459729, 0
-0.104523905, 0.06285195  , -9.773792   , 0.00213736761, 0.0018802305, -0.00200980785, -0.173857361, -0.162194952, 0.438654453 , -0.00741770025, -0.0116929347, 2.41520715  , 0.8         , 3           , 50          , 0           , 0
-0.10013327 , 0.08627002  , -9.77547    , 0.00100995554, 0.00145024376, -0.00166255457, -0.173924774, -0.162262365, 0.4388567   , -0.00740740448, -0.011678555, 2.41519     , 0.81        , 3           , 11          , 0.009378078 , 0.009378079
-0.117241859, 0.0843190551, -9.806343   , 0.00010569334, -0.00101965107, 0.000801571237, -0.173924774, -0.162194952, 0.438789278 , -0.007406443, -0.0116886925, 2.41519856  , 0.82        , 3           , 12          , 0.0359997377, 0
-0.11183387 , 0.0775394142, -9.821697   , -0.0007524724, 0.00115674792, 0.0006597146, -0.173789948, -0.162666842, 0.438654453 , -0.007414042, -0.0116770742, 2.41520524  , 0.83        , 3           , 50          , 0           , 0
-0.111300789, 0.08786522  , -9.80809    , -0.00244235457, 1.90234459E-05, -0.0009038787, -0.173789948, -0.162666842, 0.438654453 , -0.00743836025, -0.0116769513, 2.4151957   , 0.84        , 3           , 11          , 0.009378078 , 0.009378079
-0.08973103 , 0.07765753  , -9.799831   , -0.00166613306, 0.00016505961, -0.0004762339, -0.1740596  , -0.162194952, 0.4388567   , -0.007454965, -0.0116753345, 2.415191    , 0.85        , 3           , 12          , 0.0359997377, 0
-0.11327035 , 0.0752603   , -9.809966   , -0.000176626141, -0.00123273919, -0.0008246614, -0.173789948, -0.16212754 , 0.438789278 , -0.00745663652, -0.0116877239, 2.41518283  , 0.86        , 3           , 50          , 0           , 0
-0.09381014 , 0.07725573  , -9.800318   , 0.00080850505, -0.00052214117, -0.0006070643, -0.173789948, -0.162194952, 0.438789278 , -0.007448481, -0.01169299 , 2.41517663  , 0.87        , 3           , 11          , 0.009378078 , 0.009378079
-0.117398985, 0.07347934  , -9.80277252 , 0.00124224823, -0.002419837, 0.0005927663, -0.173789948, -0.162194952, 0.438789278 , -0.00743613066, -0.0117171435, 2.41518331  , 0.88        , 3           , 12          , 0.0359997377, 0
-0.109136611, 0.08150892  , -9.804033   , 0.000243099043, -0.0004555708, -0.0009627616, -0.173655123, -0.162060127, 0.4388567   , -0.00743358769, -0.0117217693, 2.41517329  , 0.89        , 3           , 50          , 0           , 0
-0.110010162, 0.0895798   , -9.785927   , -0.001651274, 0.0007396565, 9.116564E-05, -0.173924774, -0.162262365, 0.438789278 , -0.00752516463, -0.0116004925, 2.41517472  , 0.9         , 3           , 11          , 0.008913349 , 0.0089133475
-0.108802557, 0.07471214  , -9.796827   , -0.000866014, -0.000874087447, 0.00108117319, -0.173992187, -0.162329778, 0.438654453 , -0.007533952, -0.011609152, 2.41518617  , 0.91        , 3           , 12          , 0.0364022627, 0
-0.116244115, 0.0879539251, -9.817166   , 0.0004010139, -0.0001615819, 0.0003818407, -0.173992187, -0.162329778, 0.438654453 , -0.00752998469, -0.011610738, 2.41519     , 0.92        , 3           , 50          , 0           , 0
-0.12026383 , 0.0622324534, -9.802841   , -0.00165652018, 0.00172513234, -0.00054302474, -0.173857361, -0.162262365, 0.4388567   , -0.00754648447, -0.011593529, 2.41518426  , 0.93        , 3           , 11          , 0.008913349 , 0.0089133475
-0.124513522, 0.0830431059, -9.804144   , -0.00199582148, -0.000952120754, 0.000298818981, -0.173655123, -0.162397191, 0.438789278 , -0.007566479, -0.0116030239, 2.41518712  , 0.94        , 3           , 12          , 0.0364022627, 0
-0.140868559, 0.0822973847, -9.793877   , -0.00248986459, -0.000955462339, 0.0006496862, -0.173924774, -0.162329778, 0.438654453 , -0.00759145245, -0.01161253 , 2.4151938   , 0.95        , 3           , 50          , 0           , 0
-0.123830616, 0.0743714   , -9.777508   , -0.000166379337, 0.000256943546, -0.0003971203, -0.173924774, -0.162329778, 0.438654453 , -0.00759307155, -0.01160999 , 2.41519     , 0.96        , 3           , 11          , 0.008913349 , 0.0089133475
-0.114712343, 0.0756548345, -9.78828    , 0.00110367755, 0.000547106 , 0.000527486554, -0.173992187, -0.16212754 , 0.4388567   , -0.007582096, -0.0116044814, 2.41519523  , 0.97        , 3           , 12          , 0.0364022627, 0
-0.136298478, 0.0889737   , -9.782515   , 0.0008376116, -0.00283358619, -0.000114746814, -0.173789948, -0.16212754 , 0.438789278 , -0.007573708, -0.0116328225, 2.41519475  , 0.98        , 3           , 50          , 0           , 0
-0.119102724, 0.08519273  , -9.791438   , 0.000912233547, -0.00353701878, 0.000802744238, -0.173924774, -0.162329778, 0.4388567   , -0.00756468251, -0.0116681308, 2.41520238  , 0.99        , 3           , 11          , 0.008913349 , 0.0089133475
-0.0992869139, 0.07415995  , -9.799921   , -0.00123858987, -0.0005446378, -4.92990257E-05, -0.173924774, -0.162329778, 0.4388567   , -0.00768671744, -0.0117876967, 2.41520333  , 1           , 3           , 12          , 0.03685155  , 0
-0.114899956, 0.0563097447, -9.804633   , -0.00109776226, -0.0006140779, -0.00132016779, -0.173789948, -0.162532017, 0.438789278 , -0.007697541, -0.0117939394, 2.41519046  , 1.01        , 3           , 50          , 0           , 0
-0.118368983, 0.0720987245, -9.791487   , 0.000869793934, 0.001370249 , -0.0007428366, -0.173857361, -0.162262365, 0.4388567   , -0.0076887547, -0.0117802937, 2.41518283  , 1.02        , 3           , 11          , 0.008635778 , 0.008635777
-0.1237568  , 0.103369832 , -9.813093   , 0.003548811 , 0.00216269656, -0.00108230428, -0.173857361, -0.162329778, 0.438654453 , -0.007653137, -0.01175875 , 2.41517186  , 1.03        , 3           , 12          , 0.03685155  , 0
-0.111717351, 0.08388275  , -9.829806   , 0.00468798354, 0.00048095145, 0.0008274878, -0.173857361, -0.162329778, 0.438654453 , -0.007606355, -0.0117538786, 2.41518044  , 1.04        , 3           , 50          , 0           , 0
-0.09248098 , 0.07052089  , -9.814798   , 0.001859348 , 0.00137693912, 0.00109826622, -0.173992187, -0.162397191, 0.438654453 , -0.00758788874, -0.0117400251, 2.415191    , 1.05        , 3           , 11          , 0.008635778 , 0.008635777
-0.09748062 , 0.07770556  , -9.787236   , 0.00023841158, 0.0005916489, -0.0003231869, -0.173992187, -0.162060127, 0.4389241   , -0.00758546637, -0.0117341327, 2.4151876   , 1.06        , 3           , 12          , 0.03685155  , 0
-0.106243387, 0.0607157238, -9.803192   , -0.0008130034, -0.0008937285, 0.000305305643, -0.173722535, -0.1624646  , 0.438991517 , -0.007593632, -0.0117430482, 2.415191    , 1.07        , 3           , 50          , 0           , 0
-0.112991378, 0.0594919026, -9.818165   , -0.00194691482, 1.371975E-05, 0.000866523071, -0.173722535, -0.1624646  , 0.438991517 , -0.007613202, -0.0117428452, 2.41519952  , 1.08        , 3           , 11          , 0.008635778 , 0.008635777
-0.104202941, 0.08096603  , -9.794054   , 0.000307991548, 0.0008736932, 0.000313285622, -0.173857361, -0.162194952, 0.43858704  , -0.00761016 , -0.0117340842, 2.41520238  , 1.09        , 3           , 12          , 0.03685155  , 0
-0.103379436, 0.07330096  , -9.798598   , 0.0011590519, 0.000889815332, 0.00137722422, -0.174127012, -0.162397191, 0.438654453 , -0.007595412, -0.0116301365, 2.41521621  , 1.1         , 3           , 50          , 0           , 0
-0.109308586, 0.08092321  , -9.763809   , -0.0007481486, 0.00101770507, 0.00115664874, -0.173789948, -0.162194952, 0.438991517 , -0.00760302646, -0.0116198724, 2.41522765  , 1.11        , 3           , 11          , 0.008482498 , 0.008482497
-0.125627577, 0.07083334  , -9.792451   , 0.000312327466, 0.000672909257, 0.000525335432, -0.173924774, -0.1624646  , 0.438721865 , -0.00759996427, -0.0116131026, 2.415233    , 1.12        , 3           , 12          , 0.0373455174, 0
-0.126480252, 0.0717795342, -9.802397   , 0.001504893 , 0.00222963421, 0.000392050337, -0.173924774, -0.1624646  , 0.438721865 , -0.00758495834, -0.0115907779, 2.41523671  , 1.13        , 3           , 50          , 0           , 0
-0.105329931, 0.06383594  , -9.795037   , 0.00150480773, 0.00237041968, 0.001451783 , -0.173924774, -0.162532017, 0.438789278 , -0.007570076, -0.011566964, 2.415251    , 1.14        , 3           , 11          , 0.008482498 , 0.008482497
-0.123320729, 0.0708415359, -9.80283    , -0.0013147447, 0.00136584148, 0.00115455734, -0.173992187, -0.162262365, 0.438789278 , -0.00758335553, -0.0115532186, 2.41526246  , 1.15        , 3           , 12          , 0.0373455174, 0
-0.105919205, 0.05569635  , -9.787844   , -0.00180753111, 0.000869755342, -0.000543731439, -0.173722535, -0.162329778, 0.43858704  , -0.007601368, -0.0115445657, 2.41525674  , 1.16        , 3           , 50          , 0           , 0
-0.103941619, 0.06652236  , -9.793659   , -0.000821988331, 0.00143956975, -0.0008207918, -0.173722535, -0.162329778, 0.43858704  , -0.0076094917, -0.01153023 , 2.41524863  , 1.17        , 3           , 11          , 0.008482498 , 0.008482497
-0.1270012  , 0.0703905746, -9.790204   , 0.0003125535, 0.000602517452, 0.0003133239, -0.173789948, -0.162194952, 0.438991517 , -0.007606401, -0.01152418 , 2.415252    , 1.18        , 3           , 12          , 0.0373455174, 0
-0.116128094, 0.07116078  , -9.788762   , 0.00208083563, 5.13261475E-05, 0.0008857619, -0.173655123, -0.162194952, 0.438721865 , -0.00758569548, -0.0115236025, 2.41526055  , 1.19        , 3           , 50          , 0           , 0
-0.0956019759, 0.07818535  , -9.80213451 , 0.00030429347, 0.00205950323, -0.0005333178, -0.173789948, -0.162329778, 0.4389241   , -0.00750277238, -0.0115266629, 2.41525388  , 1.2         , 3           , 11          , 0.008402695 , 0.008402693
-0.112937525, 0.06935524  , -9.799592   , 0.0007981509, 0.0021332365, -0.000601539039, -0.173789948, -0.162329778, 0.4389241   , -0.00749472063, -0.0115053793, 2.41524816  , 1.21        , 3           , 12          , 0.03788203  , 0
-0.110461637, 0.09137158  , -9.7804985  , -0.000895961246, 0.002121779 , 0.000167537321, -0.173992187, -0.162194952, 0.438721865 , -0.00750369765, -0.011484147, 2.415249    , 1.22        , 3           , 50          , 0           , 0
-0.117421284, 0.07613938  , -9.788751   , -0.00180503214, 0.000285397342, -0.00026336938, -0.173992187, -0.162262365, 0.4388567   , -0.00752171734, -0.011481314, 2.4152472   , 1.23        , 3           , 11          , 0.008402695 , 0.008402693
-0.110585138, 0.0729711354, -9.809503   , 0.0008831279, -0.0007523277, -0.0004643888, -0.173857361, -0.1624646  , 0.4388567   , -0.00751283346, -0.0114888716, 2.41524243  , 1.24        , 3           , 12          , 0.03788203  , 0
-0.1360746  , 0.09674306  , -9.81231    , -0.003061664, -0.00260923966, -0.000273743324, -0.173857361, -0.1624646  , 0.4388567   , -0.007543422, -0.0115149831, 2.41523957  , 1.25        , 3           , 50          , 0           , 0
-0.09437989 , 0.0677929148, -9.802169   , -0.0027799122, -0.00253694 , -0.0008373929, -0.173924774, -0.162060127, 0.438654453 , -0.007571126, -0.0115404157, 2.41523147  , 1.26        , 3           , 11          , 0.008402695 , 0.008402693
-0.116033584, 0.07034464  , -9.814527   , -0.00193564582, -0.00189768767, -0.000620562641, -0.173924774, -0.162194952, 0.438721865 , -0.007590413, -0.0115594389, 2.41522527  , 1.27        , 3           , 12          , 0.03788203  , 0
-0.125487581, 0.08121285  , -9.793312   , -0.000613241747, 0.0018421188, -0.00173870765, -0.173857361, -0.16212754 , 0.4389241   , -0.00759634236, -0.0115411514, 2.415208    , 1.28        , 3           , 50          , 0           , 0
-0.118083477, 0.09018408  , -9.803161   , -0.00187865319, 0.000918442034, -5.08193152E-05, -0.173857361, -0.16212754 , 0.4389241   , -0.007615122, -0.0115319714, 2.41520715  , 1.29        , 3           , 11          , 0.008402695 , 0.008402693
-0.09979061 , 0.06832147  , -9.806276   , -0.00142438093, -0.002353336, 0.000865125738, -0.173789948, -0.162262365, 0.438789278 , -0.007693196, -0.0115972729, 2.41521668  , 1.3         , 3           , 12          , 0.0384589173, 0
-0.112973951, 0.06798667  , -9.795078   , -2.46853924E-05, -2.08787242E-05, -0.000749299943, -0.173924774, -0.162397191, 0.438721865 , -0.007693356, -0.0115975412, 2.41520953  , 1.31        , 3           , 50          , 0           , 0
-0.115086153, 0.0842048   , -9.780112   , -0.00115391833, -0.000239695219, -0.00174377428, -0.1740596  , -0.162329778, 0.438654453 , -0.007704693, -0.0116000725, 2.415192    , 1.32        , 3           , 11          , 0.008365251 , 0.008365247
-0.118244357, 0.08692926  , -9.774248   , -0.001854105, -0.00130033609, -0.000618543942, -0.1740596  , -0.162329778, 0.438654453 , -0.00772316335, -0.0116131231, 2.41518617  , 1.33        , 3           , 12          , 0.0384589173, 0
-0.120339058, 0.08887838  , -9.809512   , -0.00361958379, -0.00110109593, 0.0006449692, -0.173857361, -0.162397191, 0.438789278 , -0.00775943557, -0.0116240839, 2.41519237  , 1.34        , 3           , 50          , 0           , 0
-0.130793571, 0.07959449  , -9.829969   , -0.000168442057, 0.0005412976, -0.000325284433, -0.173857361, -0.1624646  , 0.4389241   , -0.007761081, -0.0116186971, 2.415189    , 1.35        , 3           , 11          , 0.008365251 , 0.008365247
-0.100703776, 0.0732357949, -9.788635   , 0.0011823246, -0.00106862339, 0.00179750717, -0.1740596  , -0.162262365, 0.4388567   , -0.007749469, -0.0116292415, 2.41520715  , 1.36        , 3           , 12          , 0.0384589173, 0
-0.127570152, 0.056911245 , -9.80518    , 0.0001245622, -0.0015685301, -0.000115318704, -0.173722535, -0.162060127, 0.438789278 , -0.00774821173, -0.0116449362, 2.41520619  , 1.37        , 3           , 50          , 0           , 0
-0.113666326, 0.08156057  , -9.803615   , 0.00145549024, 0.000622672669, 0.000247471326, -0.173722535, -0.162060127, 0.438789278 , -0.007733685, -0.0116386916, 2.415209    , 1.38        , 3           , 11          , 0.008365251 , 0.008365247
-0.101482175, 0.08138377  , -9.793579   , 0.000747228158, 0.00111063779, 0.00066874444, -0.173924774, -0.16212754 , 0.4389241   , -0.0077262884, -0.0116275316, 2.41521573  , 1.39        , 3           , 12          , 0.0384589173, 0
-0.117016189, 0.06449032  , -9.814559   , 0.0007420427, -0.002339796, 0.000239883433, -0.173924774, -0.162262365, 0.439126343 , -0.00774389645, -0.01165234 , 2.41521859  , 1.4         , 3           , 50          , 0           , 0
-0.09815665 , 0.0957562   , -9.785359   , -0.00123547891, -0.00221238239, 0.0005134192, -0.173924774, -0.162262365, 0.438789278 , -0.00775631331, -0.0116744237, 2.41522336  , 1.41        , 3           , 11          , 0.008346059 , 0.0083460575
-0.103709243, 0.08590373  , -9.788154   , 0.000164502082, 0.000120075951, -0.000606565969, -0.173924774, -0.162262365, 0.438789278 , -0.00775459642, -0.0116732707, 2.41521764  , 1.42        , 3           , 12          , 0.0390740223, 0
-0.126067638, 0.07040263  , -9.796976   , 0.0025690007, -0.000497207337, 0.000675070158, -0.173992187, -0.162262365, 0.438789278 , -0.007728986, -0.01167819 , 2.41522431  , 1.43        , 3           , 50          , 0           , 0
-0.0978043  , 0.05334037  , -9.786435   , 0.00163244258, 0.003086536 , -0.0008776333, -0.173924774, -0.161992714, 0.438991517 , -0.00771255651, -0.0116473911, 2.41521525  , 1.44        , 3           , 11          , 0.008346059 , 0.0083460575
-0.105904847, 0.05749339  , -9.785576   , 0.00114211068, 0.00230888976, -0.0007398624, -0.173722535, -0.162329778, 0.438721865 , -0.00770104676, -0.0116243595, 2.415208    , 1.45        , 3           , 12          , 0.0390740223, 0
-0.10614159 , 0.07240333  , -9.790488   , -0.00308566052, 0.0005204581, -0.0009035971, -0.173722535, -0.162329778, 0.438721865 , -0.007731798, -0.0116192251, 2.41519856  , 1.46        , 3           , 50          , 0           , 0
-0.1071168  , 0.06387686  , -9.800926   , -0.00194808585, -0.000879723229, 0.000653456838, -0.173857361, -0.162329778, 0.438991517 , -0.007751356, -0.0116279731, 2.41520524  , 1.47        , 3           , 11          , 0.008346059 , 0.0083460575
-0.110907972, 0.0548555367, -9.78879    , -0.0017442184, 0.0006703159, 0.000162390716, -0.1740596  , -0.16212754 , 0.438991517 , -0.007768816, -0.0116212545, 2.41520715  , 1.48        , 3           , 12          , 0.0390740223, 0
-0.103159592, 0.05569922  , -9.798219   , -0.000461756339, -0.001644001, 0.0002353712, -0.173857361, -0.162194952, 0.438789278 , -0.00777346268, -0.0116376765, 2.415209    , 1.49        , 3           , 50          , 0           , 0
-0.07181361 , 0.0621118061, -9.801568   , -0.000461433636, -0.0006468709, -0.00131889363, -0.173857361, -0.162194952, 0.438789278 , -0.00760790939, -0.0115482491, 2.41519475  , 1.5         , 3           , 11          , 0.008329838 , 0.008329835
-0.10324394 , 0.0876939446, -9.78543    , -0.00130732742, -0.0006525943, 0.00107872416, -0.1740596  , -0.16212754 , 0.438654453 , -0.007621107, -0.0115546947, 2.41520524  , 1.51        , 3           , 12          , 0.0397252   , 0
-0.124306314, 0.06855559  , -9.790644   , -0.00257804431, -0.0006611882, 0.00142596965, -0.174194425, -0.16212754 , 0.438991517 , -0.007647053, -0.0115611954, 2.41521955  , 1.52        , 3           , 50          , 0           , 0
-0.133771   , 0.06736366  , -9.8056345  , 0.000872549135, 0.0009108098, -0.00109834853, -0.173857361, -0.162329778, 0.438721865 , -0.0076382  , -0.0115521709, 2.41520858  , 1.53        , 3           , 11          , 0.008329838 , 0.008329835
-0.133124053, 0.088047795 , -9.786562   , 0.00087340927, 0.0007700281, -0.0008160279, -0.173857361, -0.162329778, 0.438721865 , -0.00762937171, -0.0115445321, 2.41520047  , 1.54        , 3           , 12          , 0.0397252   , 0
-0.107347108, 0.08504092  , -9.787281   , -0.00187408668, -0.000304458721, 0.0007940951, -0.173924774, -0.16212754 , 0.4388567   , -0.00764820538, -0.011547517, 2.415208    , 1.55        , 3           , 50          , 0           , 0
-0.113906071, 0.06485134  , -9.798715   , -0.00328365876, -0.00080674683, 0.0009986542, -0.173789948, -0.162194952, 0.43905893  , -0.007681159, -0.0115555078, 2.41521859  , 1.56        , 3           , 11          , 0.008329838 , 0.008329835
-0.117725812, 0.08251372  , -9.804546   , 9.168967E-05, 0.0018910385, 0.000100333025, -0.173992187, -0.162599429, 0.43905893  , -0.00768025126, -0.0115365908, 2.41521955  , 1.57        , 3           , 12          , 0.0397252   , 0
-0.105518617, 0.0832483247, -9.797218   , -0.00167097559, 0.00131596974, -0.000403206242, -0.173992187, -0.162599429, 0.43905893  , -0.007696915, -0.0115234619, 2.41521525  , 1.58        , 3           , 50          , 0           , 0
-0.111432582, 0.08106317  , -9.797725   , -0.0007428816, -0.000648776244, 0.000375014148, -0.174127012, -0.162262365, 0.438789278 , -0.00770438742, -0.0115299206, 2.415219    , 1.59        , 3           , 11          , 0.008329838 , 0.008329835
-0.112858407, 0.07299016  , -9.80726051 , 0.0005137784, -0.000279803149, 2.85345868E-05, -0.173857361, -0.162262365, 0.438991517 , -0.007713882, -0.0115227085, 2.41521955  , 1.6         , 3           , 12          , 0.0404103436, 0
-0.122484855, 0.06988174  , -9.7888155  , 0.00114969083, -0.000416289462, -0.000392525457, -0.173857361, -0.16212754 , 0.438991517 , -0.00770234037, -0.0115269022, 2.41521573  , 1.61        , 3           , 50          , 0           , 0
-0.145484224, 0.07960131  , -9.781267   , 0.000453745335, -0.00225123228, 0.00143785519, -0.173857361, -0.16212754 , 0.438991517 , -0.00769796968, -0.0115493052, 2.41523     , 1.62        , 3           , 11          , 0.00830805  , 0.008308044
-0.142200217, 0.0556281134, -9.775466   , -0.00236865832, -0.00262228749, 0.00163604645, -0.173857361, -0.162194952, 0.438721865 , -0.007721848, -0.0115754  , 2.41524673  , 1.63        , 3           , 12          , 0.0404103436, 0
-0.125056773, 0.0491266251, -9.78033352 , -0.00125905988, 0.00139765325, 0.00122369151, -0.173992187, -0.162397191, 0.4388567   , -0.00773458043, -0.0115613313, 2.41525865  , 1.64        , 3           , 50          , 0           , 0
-0.113535151, 0.06254793  , -9.786066   , -0.00125183794, -0.000291742617, -0.00075667433, -0.173924774, -0.162262365, 0.438991517 , -0.00774701 , -0.0115643041, 2.415251    , 1.65        , 3           , 11          , 0.00830805  , 0.008308044
-0.110707484, 0.0612669   , -9.817236   , 0.002972018 , 0.00227099261, -0.0007330149, -0.173857361, -0.162869081, 0.4389241   , -0.007717204, -0.0115416525, 2.41524386  , 1.66        , 3           , 12          , 0.0404103436, 0
-0.101420492, 0.0841118544, -9.799895   , 0.00212539057, 0.00226526568, 0.000393184018, -0.173857361, -0.162869081, 0.4389241   , -0.00769599248, -0.01151897 , 2.4152472   , 1.67        , 3           , 50          , 0           , 0
-0.116562076, 0.06627146  , -9.809125   , 0.0007228512, 0.000284759648, 0.000101024583, -0.173789948, -0.1624646  , 0.438991517 , -0.00768877659, -0.0115161166, 2.41524816  , 1.68        , 3           , 11          , 0.00830805  , 0.008308044
-0.130693883, 0.0583245941, -9.811977   , -0.003514945, 0.0005376752, 8.170451E-05, -0.173789948, -0.16212754 , 0.4388567   , -0.007723935, -0.0115107317, 2.415249    , 1.69        , 3           , 12          , 0.0404103436, 0
-0.11600177 , 0.07304853  , -9.813613   , 0.000276088133, -0.0006480006, 0.00150782638, -0.173789948, -0.161992714, 0.438789278 , -0.007582655, -0.0116204275, 2.415263    , 1.7         , 3           , 50          , 0           , 0
-0.110618845, 0.07026573  , -9.809966   , 0.002242339 , 0.00133632007, -0.000175142282, -0.173789948, -0.161992714, 0.438789278 , -0.0075602103, -0.0116070779, 2.415261    , 1.71        , 3           , 11          , 0.008275678 , 0.008275674
-0.124028131, 0.08172516  , -9.816348   , -0.00423282 , -0.0026495147, 0.00176625536, -0.173992187, -0.162532017, 0.4389241   , -0.00760274567, -0.011633439, 2.41527867  , 1.72        , 3           , 12          , 0.0411274061, 0
-0.116462052, 0.08063573  , -9.787369   , -0.00226624287, -0.0006651926, 0.0006483614, -0.173857361, -0.162060127, 0.438991517 , -0.007625485, -0.0116400411, 2.41528535  , 1.73        , 3           , 50          , 0           , 0
-0.113243684, 0.0561629944, -9.767106   , -0.0019796337, -0.00150797749, 0.000648376532, -0.173655123, -0.162262365, 0.438991517 , -0.007645358, -0.0116550708, 2.415292    , 1.74        , 3           , 11          , 0.008275678 , 0.008275674
-0.121333741, 0.0491657481, -9.804712   , 0.000272899459, -0.000366444, -0.00159965211, -0.173655123, -0.162262365, 0.438991517 , -0.00764244143, -0.0116588585, 2.41527581  , 1.75        , 3           , 12          , 0.0411274061, 0
-0.104846619, 0.06474805  , -9.799549   , -0.00282552023, -0.00179527258, 0.000643991865, -0.173924774, -0.162194952, 0.438789278 , -0.00767077273, -0.0116767595, 2.41528249  , 1.76        , 3           , 50          , 0           , 0
-0.118735448, 0.04278901  , -9.796131   , -0.0005861113, 0.00216191565, -0.000187009835, -0.173992187, -0.162397191, 0.4388567   , -0.007676612, -0.0116551546, 2.41528058  , 1.77        , 3           , 11          , 0.008275678 , 0.008275674
-0.124712743, 0.06056416  , -9.827742   , 1.41910277E-07, -0.00205773814, 0.000656727236, -0.173789948, -0.162599429, 0.4388567   , -0.00767669035, -0.0116756819, 2.41528726  , 1.78        , 3           , 12          , 0.0411274061, 0
-0.113967009, 0.0656946748, -9.781084   , -0.00198504678, -0.00038171676, 0.0009326498, -0.173789948, -0.162599429, 0.4388567   , -0.007696651, -0.0116794268, 2.41529679  , 1.79        , 3           , 50          , 0           , 0
-0.130263522, 0.06588907  , -9.782112   , 0.0018324845, 0.00298829027, -0.000177339709, -0.173857361, -0.162194952, 0.438991517 , -0.007470767, -0.0116922725, 2.415292    , 1.8         , 3           , 11          , 0.008232823 , 0.008232816
-0.118272111, 0.08467502  , -9.77471    , 0.00014817086, 0.00100587716, 0.000659333367, -0.173992187, -0.162194952, 0.438789278 , -0.00746936025, -0.0116821649, 2.4152987   , 1.81        , 3           , 12          , 0.0418744   , 0
-0.117591724, 0.09244208  , -9.80540848 , 0.0004351059, 0.000163093471, 0.00122442341, -0.173789948, -0.16212754 , 0.438991517 , -0.00746515254, -0.0116804438, 2.415311    , 1.82        , 3           , 50          , 0           , 0
-0.12048544 , 0.08251086  , -9.794172   , 0.00212146621, 0.00186394446, 0.00151746615, -0.173789948, -0.16212754 , 0.438991517 , -0.00744411256, -0.01166169 , 2.41532636  , 1.83        , 3           , 11          , 0.008232823 , 0.008232816
-0.141396463, 0.06885132  , -9.818795   , 0.0007154861, 0.00044656542, 9.602463E-05, -0.173992187, -0.162329778, 0.43858704  , -0.00743697 , -0.0116572166, 2.41532731  , 1.84        , 3           , 12          , 0.0418744   , 0
-0.114909284, 0.0563021861, -9.802374   , -0.000128843123, -0.00012229383, 0.0003737432, -0.1740596  , -0.162666842, 0.4389241   , -0.007438301, -0.0116584124, 2.41533113  , 1.85        , 3           , 50          , 0           , 0
-0.0913196057, 0.06632818  , -9.780004   , 0.002969488 , 0.00158810616, 0.000390833127, -0.173857361, -0.162397191, 0.438991517 , -0.00740865059, -0.0116425026, 2.415335    , 1.86        , 3           , 11          , 0.008232823 , 0.008232816
-0.101587176, 0.07549614  , -9.786824   , -0.00127404765, 0.0029672815, 9.07115E-05 , -0.173857361, -0.162397191, 0.438991517 , -0.007421399, -0.0116128251, 2.415335    , 1.87        , 3           , 12          , 0.0418744   , 0
-0.106215864, 0.06520154  , -9.79549    , 0.00100873876, -0.0018040468, -0.000471204839, -0.173924774, -0.162599429, 0.438789278 , -0.00741125876, -0.0116309  , 2.41533065  , 1.88        , 3           , 50          , 0           , 0
-0.0989840254, 0.06555252  , -9.790914   , -0.00491025671, -0.004096673, 0.0009103553, -0.174127012, -0.1624646  , 0.4389241   , -0.00746047124, -0.0116717974, 2.41534019  , 1.89        , 3           , 11          , 0.008232823 , 0.008232816
-0.119748734, 0.07343638  , -9.7820015  , -0.0031772533, -0.0009448649, 0.00177035842, -0.173992187, -0.162329778, 0.43905893  , -0.007422173, -0.0116242589, 2.41535687  , 1.9         , 3           , 12          , 0.04264941  , 0
-0.08170706 , 0.06317641  , -9.815199   , 0.002743789 , 0.00106619927, 0.001518514 , -0.173789948, -0.162060127, 0.438721865 , -0.00739491126, -0.0116134863, 2.41537213  , 1.91        , 3           , 50          , 0           , 0
-0.104527444, 0.0855388045, -9.81076    , -0.0009253726, 0.00019666586, -0.00160782028, -0.173789948, -0.162060127, 0.438721865 , -0.00740397768, -0.0116116386, 2.415356    , 1.92        , 3           , 11          , 0.0081770625, 0.008177053
-0.111627385, 0.07733454  , -9.762035   , -0.000625817163, -0.00289863115, 0.00149663573, -0.173857361, -0.161992714, 0.438789278 , -0.007410413, -0.0116405115, 2.41537118  , 1.93        , 3           , 12          , 0.04264941  , 0
-0.112886086, 0.08100203  , -9.774685   , -0.0014840865, -0.000651839946, 0.00177869387, -0.173924774, -0.162262365, 0.438991517 , -0.007425462, -0.0116468985, 2.4153893   , 1.94        , 3           , 50          , 0           , 0
-0.112383917, 0.079697676 , -9.790957   , -0.000361260434, 0.00048205402, -0.000474602275, -0.173722535, -0.162262365, 0.4389241   , -0.00742901862, -0.0116421115, 2.41538453  , 1.95        , 3           , 11          , 0.0081770625, 0.008177053
-0.1320712  , 0.09306635  , -9.806419   , -0.00262297341, 0.00102990679, 0.000363342348, -0.173722535, -0.162262365, 0.4389241   , -0.00745529076, -0.0116317868, 2.41538835  , 1.96        , 3           , 12          , 0.04264941  , 0
-0.131111518, 0.0930995643, -9.81952    , -0.0006423821, 0.00048015028, 0.00178438041, -0.173992187, -0.16212754 , 0.4389241   , -0.00746192271, -0.0116268517, 2.415406    , 1.97        , 3           , 50          , 0           , 0
-0.09724592 , 0.09262529  , -9.796664   , 0.00131952378, 0.00330916559, -0.000179823837, -0.173722535, -0.161992714, 0.4389241   , -0.00744870445, -0.0115937768, 2.415404    , 1.98        , 3           , 11          , 0.0081770625, 0.008177053
-0.09572025 , 0.06693075  , -9.809415   , 0.000474289729, 0.00302187377, 0.0009459412, -0.173857361, -0.162262365, 0.438654453 , -0.00744406832, -0.0115634883, 2.41541314  , 1.99        , 3           , 12          , 0.04264941  , 0
-0.123140238, 0.083039254 , -9.80775    , -0.00296642166, -0.001749967, 0.00233661127, -0.173857361, -0.162262365, 0.438654453 , -0.00757829566, -0.0115291467, 2.415438    , 2           , 3           , 50          , 0           , 0
-0.143467069, 0.08331777  , -9.819655   , -0.00127456011, -0.00145694846, 8.46471958E-05, -0.173789948, -0.1619253  , 0.4389241   , -0.007591052, -0.0115437089, 2.415439    , 2.01        , 3           , 11          , 0.00811500847, 0.008115
-0.145052448, 0.0661884546, -9.819286   , -0.004091206, -0.00288387039, 0.00119945791, -0.173924774, -0.162060127, 0.438991517 , -0.007632105, -0.0115724569, 2.41545129  , 2.02        , 3           , 12          , 0.0434506051, 0
-0.107915215, 0.0778112   , -9.782344   , 0.00153232762, 0.00194092887, -0.00102712621, -0.173655123, -0.162397191, 0.438721865 , -0.007616662, -0.0115531273, 2.4154408   , 2.03        , 3           , 50          , 0           , 0
-0.114049867, 0.08697818  , -9.8031435  , 0.0004137723, -0.0003192317, -0.0010358654, -0.173655123, -0.162397191, 0.438721865 , -0.007612404, -0.0115563981, 2.41543031  , 2.04        , 3           , 11          , 0.00811500847, 0.008115
-0.08626335 , 0.06767002  , -9.793972   , -0.00128513377, 0.000514003 , -0.00132500276, -0.173789948, -0.162329778, 0.438789278 , -0.00762510253, -0.01155136 , 2.415417    , 2.05        , 3           , 12          , 0.0434506051, 0
-0.09840918 , 0.0442954563, -9.778342   , 0.00323328  , 0.000826132251, 0.000391726877, -0.173789948, -0.162194952, 0.438721865 , -0.007592813, -0.0115430681, 2.41542077  , 2.06        , 3           , 50          , 0           , 0
-0.118179381, 0.0865355656, -9.791426   , -0.000709632062, -0.00117155677, 0.00263055228, -0.173722535, -0.16212754 , 0.438991517 , -0.00760021433, -0.0115545839, 2.41544747  , 2.07        , 3           , 11          , 0.00811500847, 0.008115
-0.111913122, 0.07881425  , -9.798189   , -0.000716513256, -4.53025E-05, 0.000371988 , -0.173722535, -0.16212754 , 0.438991517 , -0.007607423, -0.0115550095, 2.41545129  , 2.08        , 3           , 12          , 0.0434506051, 0
-0.10712003 , 0.06967682  , -9.78146648 , 0.000417702366, -0.0008823565, 0.0009410289, -0.173722535, -0.162060127, 0.438519627 , -0.00760335475, -0.0115637593, 2.41546082  , 2.09        , 3           , 50          , 0           , 0
-0.11795602 , 0.07116842  , -9.784708   , -0.000162053184, 0.00195043476, -0.00131740607, -0.173857361, -0.162329778, 0.4389241   , -0.007604327, -0.0115144784, 2.415447    , 2.1         , 3           , 11          , 0.008039596 , 0.00803959
-0.113753229, 0.07747299  , -9.795497   , 0.0015382471, 0.0008356351, -0.00102870259, -0.173924774, -0.162329778, 0.438721865 , -0.00758882472, -0.0115062008, 2.415437    , 2.11        , 3           , 12          , 0.0442762524, 0
-0.0985863656, 0.08908495  , -9.812508   , -0.00128643634, 0.00109810522, 0.000653786643, -0.173924774, -0.162329778, 0.438721865 , -0.00760176452, -0.011495173, 2.41544318  , 2.12        , 3           , 50          , 0           , 0
-0.114504866, 0.08653537  , -9.804052   , 0.000409607368, 0.00054642855, -0.00159947947, -0.173655123, -0.162262365, 0.438519627 , -0.00759748369, -0.0114898281, 2.41542745  , 2.13        , 3           , 11          , 0.008039596 , 0.00803959
-0.133635357, 0.0519254729, -9.777676   , -0.0009980184, -0.000307814975, -0.00104229082, -0.173857361, -0.16212754 , 0.4389241   , -0.00760734361, -0.0114929862, 2.415417    , 2.14        , 3           , 12          , 0.0442762524, 0
-0.125231087, 0.07033606  , -9.780247   , 0.0012527802, 0.00167842582, 0.0009490445, -0.173789948, -0.162194952, 0.4388567   , -0.007594924, -0.01147613 , 2.415426    , 2.15        , 3           , 50          , 0           , 0
-0.129715815, 0.0681924149, -9.797917   , 0.000127343752, 0.0005445194, -0.0013182587, -0.173789948, -0.162194952, 0.4388567   , -0.007593499, -0.0114707872, 2.41541314  , 2.16        , 3           , 11          , 0.008039596 , 0.00803959
-0.131076127, 0.06552867  , -9.806075   , 0.000133157242, -0.00030016806, 0.00150581426, -0.173992187, -0.162262365, 0.438654453 , -0.00759233953, -0.0114736743, 2.415428    , 2.17        , 3           , 12          , 0.0442762524, 0
-0.11423225 , 0.07477896  , -9.797771   , 0.001528652 , 0.0028065918, -0.000743127661, -0.173992187, -0.162397191, 0.438789278 , -0.00757696526, -0.0114456676, 2.41541982  , 2.18        , 3           , 50          , 0           , 0
-0.103772826, 0.07290803  , -9.814423   , 0.00239191949, -0.0002848914, 0.000386199652, -0.1740596  , -0.162060127, 0.4389241   , -0.00755309034, -0.0114484848, 2.415424    , 2.19        , 3           , 11          , 0.008039596 , 0.00803959
-0.123991311, 0.05103097  , -9.813313   , -0.00212466973, 0.00273302058, -0.00104334776, -0.173789948, -0.162262365, 0.4388567   , -0.00754697341, -0.01149346 , 2.41541314  , 2.2         , 3           , 12          , 0.04512467  , 0
-0.114710256, 0.07342477  , -9.795973   , -0.000134394446, -6.926339E-05, -0.00216861838, -0.173789948, -0.162262365, 0.4388567   , -0.00754806725, -0.0114943162, 2.41539121  , 2.21        , 3           , 50          , 0           , 0
-0.12354029 , 0.0537023246, -9.804258   , 0.000431274937, -6.54395553E-05, -0.0007532973, -0.173924774, -0.162329778, 0.438721865 , -0.00754366769, -0.0114950277, 2.415384    , 2.22        , 3           , 11          , 0.007956099 , 0.007956094
-0.09956693 , 0.05340095  , -9.7982     , 0.000715422037, -0.00034509314, -0.000187339247, -0.173924774, -0.162060127, 0.438789278 , -0.007536493, -0.0114984922, 2.41538262  , 2.23        , 3           , 12          , 0.04512467  , 0
-0.107157119, 0.0674150139, -9.779669   , 0.0009955503, 0.000219949317, 0.0006624577, -0.173924774, -0.16212754 , 0.438721865 , -0.007526614, -0.0114962421, 2.4153893   , 2.24        , 3           , 50          , 0           , 0
-0.1395934  , 0.07819688  , -9.786652   , 0.00128241116, -0.000904406537, -0.00131572329, -0.173924774, -0.16212754 , 0.438721865 , -0.007513638, -0.0115053849, 2.415376    , 2.25        , 3           , 11          , 0.007956099 , 0.007956094
-0.1433901  , 0.0615831   , -9.797598   , -0.00183585088, 0.0016086743, 0.000368920621, -0.173789948, -0.162329778, 0.438654453 , -0.00753203826, -0.01148927 , 2.41537976  , 2.26        , 3           , 12          , 0.04512467  , 0
-0.0937677  , 0.08175364  , -9.79623    , -0.004081489, -0.001222257, 7.150855E-05, -0.173857361, -0.162194952, 0.4388567   , -0.007572862, -0.0115014883, 2.41538024  , 2.27        , 3           , 50          , 0           , 0
-0.10587126 , 0.05752061  , -9.793711   , -0.00267911237, 0.0007582483, 8.113076E-05, -0.173857361, -0.161992714, 0.438654453 , -0.00759966252, -0.0114939  , 2.41538072  , 2.28        , 3           , 11          , 0.007956099 , 0.007956094
-0.127454966, 0.06905605  , -9.794281   , -0.00296030845, 0.000474772474, -0.000203157586, -0.173857361, -0.161992714, 0.438654453 , -0.00762924273, -0.0114891669, 2.41537881  , 2.29        , 3           , 12          , 0.04512467  , 0
-0.129340172, 0.0672318861, -9.782099   , 0.00191072875, 0.0007398017, 0.000948649656, -0.1740596  , -0.162194952, 0.438789278 , -0.00750160776, -0.0115572084, 2.41538739  , 2.3         , 3           , 50          , 0           , 0
-0.106409915, 0.08237782  , -9.803556   , 0.00162855361, 0.0004563211, -0.0010308635, -0.173857361, -0.162262365, 0.438721865 , -0.007485202, -0.0115527222, 2.415377    , 2.31        , 3           , 11          , 0.007867733 , 0.0078677265
-0.133289248, 0.06872086  , -9.808337   , -0.002040044, -0.000131637789, -0.000766314042, -0.173789948, -0.162060127, 0.438789278 , -0.00750551466, -0.0115540959, 2.41536927  , 2.32        , 3           , 12          , 0.04599429  , 0
-0.1284245  , 0.0632123   , -9.797476   , 0.0007947979, -0.00208348967, 0.000656505 , -0.173789948, -0.162060127, 0.438789278 , -0.00749764545, -0.0115748849, 2.415376    , 2.33        , 3           , 50          , 0           , 0
-0.08373596 , 0.06123584  , -9.768215   , 0.000219860027, -0.000116355717, 9.18339356E-05, -0.173924774, -0.162262365, 0.4389241   , -0.00749545638, -0.01157604 , 2.415377    , 2.34        , 3           , 11          , 0.007867733 , 0.0078677265
-0.11260321 , 0.09551445  , -9.797221   , 0.00078954827, -0.000957228069, 0.0012233156, -0.173992187, -0.162060127, 0.438789278 , -0.00748770358, -0.01158552 , 2.4153893   , 2.35        , 3           , 12          , 0.04599429  , 0
-0.105048612, 0.0863814056, -9.791325   , 0.00247525587, 0.00074362  , 0.000386208441, -0.173789948, -0.162060127, 0.438991517 , -0.007462996, -0.0115780551, 2.415393    , 2.36        , 3           , 50          , 0           , 0
-0.135930613, 0.07997258  , -9.790685   , -0.001472076, -0.00069094653, -0.000199473026, -0.173789948, -0.162060127, 0.438991517 , -0.00747769326, -0.01158498 , 2.41539121  , 2.37        , 3           , 11          , 0.007867733 , 0.0078677265
-0.101134792, 0.0647781   , -9.821217   , -0.0031548324, -0.00295492378, 0.00091930374, -0.173789948, -0.162329778, 0.438721865 , -0.00750935124, -0.0116144577, 2.41540074  , 2.38        , 3           , 12          , 0.04599429  , 0
-0.10706722 , 0.0679342   , -9.800005   , -0.0045850887, 0.000695872353, 0.000918360136, -0.173992187, -0.162060127, 0.4389241   , -0.00755530875, -0.0116074318, 2.4154098   , 2.39        , 3           , 50          , 0           , 0
-0.107290886, 0.08285472  , -9.80808    , -0.00400460744, -0.000140806369, -0.00190577784, -0.173857361, -0.16212754 , 0.4388567   , -0.0075741983, -0.0116022574, 2.41539025  , 2.4         , 3           , 11          , 0.007775816 , 0.007775809
-0.103091076, 0.09272766  , -9.806652   , -0.00117829232, -0.000403268583, -0.0007628924, -0.173857361, -0.16212754 , 0.4388567   , -0.007585893, -0.0116063487, 2.41538262  , 2.41        , 3           , 12          , 0.04688363  , 0
-0.123117357, 0.0964483   , -9.770179   , -4.203018E-05, -0.00152188423, 0.0009358644, -0.173992187, -0.162329778, 0.438519627 , -0.00758642331, -0.0116214966, 2.41539216  , 2.42        , 3           , 50          , 0           , 0
-0.134219542, 0.07317498  , -9.787988   , 0.00391243445, -0.00149514223, 0.00180191407, -0.173789948, -0.162329778, 0.438789278 , -0.007547511, -0.01163631 , 2.41541028  , 2.43        , 3           , 11          , 0.007775816 , 0.007775809
-0.125807419, 0.05952886  , -9.784816   , 0.000507163059, 0.00157914963, 0.000378196535, -0.173992187, -0.162194952, 0.4388567   , -0.007542481, -0.0116204908, 2.415414    , 2.44        , 3           , 12          , 0.04688363  , 0
-0.124844573, 0.0613500476, -9.792937   , 0.000790820748, 0.001299494 , 9.65422951E-05, -0.173789948, -0.16212754 , 0.43858704  , -0.00753458356, -0.0116074886, 2.415415    , 2.45        , 3           , 50          , 0           , 0
-0.1214677  , 0.07710313  , -9.792846   , 0.00108070718, -0.000106419087, 0.0009433018, -0.173789948, -0.16212754 , 0.43858704  , -0.007523886, -0.0116084814, 2.41542459  , 2.46        , 3           , 11          , 0.007775816 , 0.007775809
-0.109695457, 0.07160856  , -9.809954   , 0.000523727969, -0.00179963163, 9.04520857E-05, -0.173924774, -0.162060127, 0.438721865 , -0.00751866028, -0.01162647 , 2.41542554  , 2.47        , 3           , 12          , 0.04688363  , 0
-0.10423322 , 0.0778170452, -9.796779   , -5.432428E-05, 0.000730630767, -0.0010384263, -0.173924774, -0.162329778, 0.4389241   , -0.007519082, -0.0116192419, 2.415415    , 2.48        , 3           , 50          , 0           , 0
-0.1354979  , 0.07548751  , -9.800191   , -0.00117747672, -0.000403264741, 0.0006497948, -0.173857361, -0.162397191, 0.438721865 , -0.007530931, -0.0116232252, 2.41542172  , 2.49        , 3           , 11          , 0.007775816 , 0.007775809
-0.141834468, 0.07377847  , -9.806574   , 0.004176243 , 0.0007180081, 0.0009588442, -0.173857361, -0.162397191, 0.438721865 , -0.007500884, -0.01168458 , 2.41543126  , 2.5         , 3           , 12          , 0.0477912873, 0
-0.120243073, 0.06001752  , -9.815054   , -0.00175093836, -0.000448370178, -0.00217845943, -0.173857361, -0.162060127, 0.43858704  , -0.007518139, -0.011689228, 2.41540933  , 2.51        , 3           , 50          , 0           , 0
-0.107825086, 0.0760988146, -9.809921   , -0.00343181146, -0.00299391 , -0.000212504, -0.1740596  , -0.161992714, 0.438991517 , -0.00755243469, -0.0117191821, 2.41540742  , 2.52        , 3           , 11          , 0.00768256653, 0.007682559
-0.104809441, 0.06968804  , -9.792749   , -0.00174249988, -0.00185618829, 0.000362208084, -0.173655123, -0.162262365, 0.4388567   , -0.00756990351, -0.0117377155, 2.41541123  , 2.53        , 3           , 12          , 0.0477912873, 0
-0.128705591, 0.08121075  , -9.781584   , -0.00117608928, -0.002133933, 0.0006469455, -0.173655123, -0.162262365, 0.4388567   , -0.00758174155, -0.0117590064, 2.415418    , 2.54        , 3           , 50          , 0           , 0
-0.139423192, 0.08904721  , -9.79338551 , 0.00106176268, 0.00210481975, -0.0004661597, -0.173924774, -0.162060127, 0.438654453 , -0.007571067, -0.0117379948, 2.41541314  , 2.55        , 3           , 11          , 0.00768256653, 0.007682559
-0.124350041, 0.09745877  , -9.797755   , -6.548292E-05, 0.00153404824, -0.0010373703, -0.1740596  , -0.161992714, 0.4388567   , -0.0075716  , -0.0117227323, 2.41540265  , 2.56        , 3           , 12          , 0.0477912873, 0
-0.113277957, 0.08016399  , -9.792318   , 0.00220376416, -0.000140055374, 0.00151339872, -0.173924774, -0.162262365, 0.438721865 , -0.00754973944, -0.0117240194, 2.415418    , 2.57        , 3           , 50          , 0           , 0
-0.107745118, 0.0859833062, -9.797676   , -5.70445554E-05, 0.000126229948, 0.00150329713, -0.173924774, -0.162262365, 0.438721865 , -0.00755048636, -0.0117226429, 2.41543269  , 2.58        , 3           , 11          , 0.00768256653, 0.007682559
-0.101426989, 0.08544566  , -9.794014   , 0.00192126317, -0.0004235375, -0.00103118934, -0.173857361, -0.162532017, 0.438789278 , -0.007531151, -0.0117269559, 2.41542268  , 2.59        , 3           , 12          , 0.0477912873, 0
-0.101586863, 0.07594275  , -9.785467   , -0.00126523932, 0.0034861   , -0.000756471767, -0.1740596  , -0.161857888, 0.4389241   , -0.007647999, -0.011711563, 2.415416    , 2.6         , 3           , 50          , 0           , 0
-0.108210206, 0.08954945  , -9.783201   , -0.0009685462, 0.0006723603, -0.00019441919, -0.173857361, -0.162666842, 0.438654453 , -0.007657661, -0.0117048537, 2.415414    , 2.61        , 3           , 11          , 0.007585627 , 0.007585619
-0.108123854, 0.09542199  , -9.785436   , 0.0024158156, 0.001821544 , 0.00123580685, -0.173857361, -0.162666842, 0.438654453 , -0.00763364555, -0.0116865449, 2.415426    , 2.62        , 3           , 12          , 0.0487159379, 0
-0.08852004 , 0.06993422  , -9.788556   , 0.00101074006, 0.000122597557, -0.001033681, -0.174127012, -0.162194952, 0.438789278 , -0.0076234173, -0.0116853984, 2.415416    , 2.63        , 3           , 50          , 0           , 0
-0.101762719, 0.062409725 , -9.785976   , -0.00266278069, 0.000660902 , 0.000362753955, -0.173924774, -0.162194952, 0.438721865 , -0.00765008759, -0.011678759, 2.41541934  , 2.64        , 3           , 11          , 0.007585627 , 0.007585619
-0.107063591, 0.06525904  , -9.809507   , -0.001244255, -0.000455804518, 0.00178029039, -0.173857361, -0.162262365, 0.438721865 , -0.00766273774, -0.0116831809, 2.415437    , 2.65        , 3           , 12          , 0.0487159379, 0
-0.109677628, 0.07564019  , -9.80135    , -0.00406712946, -0.0007564694, 0.00176668714, -0.173857361, -0.162262365, 0.438721865 , -0.00770361628, -0.011690611, 2.415455    , 2.66        , 3           , 50          , 0           , 0
-0.106617674, 0.09865028  , -9.811175   , -0.00378863234, -0.000191434592, -0.000208890342, -0.173924774, -0.162194952, 0.4389241   , -0.00774147827, -0.0116925407, 2.41545272  , 2.67        , 3           , 11          , 0.007585627 , 0.007585619
-0.108158723, 0.08602038  , -9.807171   , 0.00127922685, 0.00294015836, -0.00102802471, -0.174127012, -0.162194952, 0.438789278 , -0.007728564, -0.0116632227, 2.41544223  , 2.68        , 3           , 12          , 0.0487159379, 0
-0.110543385, 0.08416374  , -9.783693   , -0.002942494, -0.000185710145, -0.00218270184, -0.173992187, -0.162194952, 0.438991517 , -0.00775773451, -0.0116652455, 2.41542077  , 2.69        , 3           , 50          , 0           , 0
-0.104257807, 0.07735078  , -9.792261   , -0.00184482743, -0.0015399215, 0.0006466147, -0.173992187, -0.162194952, 0.438991517 , -0.007848946, -0.0115983719, 2.415428    , 2.7         , 3           , 11          , 0.00748850126, 0.00748849427
-0.105315551, 0.065632984 , -9.79277    , 0.00126514479, -0.0020820396, 0.00150784559, -0.173924774, -0.161992714, 0.43858704  , -0.007836473, -0.0116190743, 2.41544318  , 2.71        , 3           , 12          , 0.0496563464, 0
-0.099222526, 0.08313914  , -9.786776   , -0.004949476, -0.00184249331, 0.00176184438, -0.173857361, -0.16212754 , 0.438789278 , -0.007886173, -0.01163736 , 2.41546082  , 2.72        , 3           , 50          , 0           , 0
-0.114904344, 0.055413492 , -9.806444   , -0.000708313542, -0.002940108, 0.0003671753, -0.173924774, -0.162262365, 0.43905893  , -0.00789330248, -0.01166673 , 2.41546464  , 2.73        , 3           , 11          , 0.00748850126, 0.00748849427
-0.106844857, 0.051227212 , -9.797361   , -0.000166416547, 0.00156874978, -0.000753397646, -0.173789948, -0.162329778, 0.438789278 , -0.007894877, -0.0116511025, 2.415457    , 2.74        , 3           , 12          , 0.0496563464, 0
-0.111446954, 0.0792661458, -9.799992   , 0.0006752879, 0.00270074047, -0.0007477111, -0.173789948, -0.162329778, 0.438789278 , -0.007888034, -0.0116241546, 2.41544938  , 2.75        , 3           , 50          , 0           , 0
-0.12756367 , 0.0555774458, -9.811061   , 0.000968703651, 0.00045012866, -0.00103240309, -0.173924774, -0.162262365, 0.438789278 , -0.007878228, -0.0116197346, 2.415439    , 2.76        , 3           , 11          , 0.00748850126, 0.00748849427
-0.131141827, 0.0547630265, -9.824652   , 0.0015228946, 0.00270647183, -0.000178685266, -0.1740596  , -0.162194952, 0.439261168 , -0.007862975, -0.0115926852, 2.415437    , 2.77        , 3           , 12          , 0.0496563464, 0
-0.124241143, 0.0735182539, -9.790621   , -0.001298096, 0.00212424388, 0.000654889736, -0.173789948, -0.162734255, 0.438721865 , -0.00787603 , -0.0115713924, 2.41544366  , 2.78        , 3           , 50          , 0           , 0
-0.110699981, 0.07912699  , -9.761568   , 0.00407834956, -9.199098E-05, -0.0007362472, -0.173789948, -0.162734255, 0.438721865 , -0.00783516 , -0.0115723694, 2.415436    , 2.79        , 3           , 11          , 0.00748850126, 0.00748849427
-0.111852981, 0.08198742  , -9.802695   , 0.00269307685, 0.00382898469, 0.000675277261, -0.173857361, -0.162329778, 0.4388567   , -0.007723875, -0.01155515 , 2.41544175  , 2.8         , 3           , 12          , 0.05061135  , 0
-0.08734114 , 0.08666002  , -9.801584   , 0.00158378994, -0.000402133854, -0.000184111675, -0.173992187, -0.1624646  , 0.438991517 , -0.007708016, -0.0115591846, 2.41543984  , 2.81        , 3           , 50          , 0           , 0
-0.103254907, 0.08545331  , -9.78996    , 0.00130489236, -0.00124874222, -0.00131688034, -0.173722535, -0.1624646  , 0.438789278 , -0.007694816, -0.0115717733, 2.41542649  , 2.82        , 3           , 11          , 0.00739230448, 0.00739230169
-0.132883012, 0.07135594  , -9.788436   , 0.00212994334, 0.00354360137, 0.00123728451, -0.173722535, -0.1624646  , 0.438789278 , -0.007673657, -0.0115362452, 2.415439    , 2.83        , 3           , 12          , 0.05061135  , 0
-0.109446272, 0.06608208  , -9.77788448 , 0.00157879211, 0.000442557444, -0.00159549725, -0.174194425, -0.16212754 , 0.4389241   , -0.007657684, -0.0115319416, 2.41542268  , 2.84        , 3           , 50          , 0           , 0
-0.09159279 , 0.07986954  , -9.780402   , -0.00491267955, -0.0004460663, -0.0013445511, -0.1740596  , -0.162194952, 0.4388567   , -0.00770665566, -0.0115365051, 2.41540933  , 2.85        , 3           , 11          , 0.00739230448, 0.00739230169
-0.10434261 , 0.07103315  , -9.791836   , -0.00180098694, -0.001269748, 8.13208E-05 , -0.173924774, -0.162262365, 0.4388567   , -0.00772467628, -0.011549199, 2.41541028  , 2.86        , 3           , 12          , 0.05061135  , 0
-0.0994258448, 0.06779847  , -9.786388   , -0.000395986, 0.0001476265, -0.000192462336, -0.173924774, -0.162262365, 0.4388567   , -0.00772861438, -0.0115477368, 2.41540837  , 2.87        , 3           , 50          , 0           , 0
-0.101624608, 0.0727877244, -9.786385   , 0.000172723434, -0.000693250448, -0.000756205351, -0.173655123, -0.162329778, 0.438721865 , -0.0077267997, -0.0115547264, 2.41540074  , 2.88        , 3           , 11          , 0.00739230448, 0.00739230169
-0.115345851, 0.05810606  , -9.800562   , -0.00039041 , -0.0009786339, -0.000194198059, -0.173722535, -0.162262365, 0.4389241   , -0.007730684, -0.0115645276, 2.41539884  , 2.89        , 3           , 12          , 0.05061135  , 0
-0.12663509 , 0.06406613  , -9.789323   , -0.00120046362, -0.00207288167, -0.00161265675, -0.173857361, -0.162194952, 0.4388567   , -0.007680215, -0.0115129845, 2.41538215  , 2.9         , 3           , 50          , 0           , 0
-0.103815883, 0.077783    , -9.788188   , -0.00178499636, 0.00186520873, -0.001891753, -0.173857361, -0.162194952, 0.4388567   , -0.00769784534, -0.0114944782, 2.41536355  , 2.91        , 3           , 11          , 0.007297049 , 0.00729704369
-0.125139192, 0.083801046 , -9.759399   , -0.00205742777, 0.0001739159, 0.000929701258, -0.173924774, -0.162194952, 0.438721865 , -0.00771852769, -0.0114926677, 2.41537213  , 2.92        , 3           , 12          , 0.05157986  , 0
-0.09388009 , 0.07853813  , -9.77907    , -0.000926979, -0.000100012345, -0.000195614761, -0.173992187, -0.162060127, 0.4389241   , -0.00772777339, -0.0114936838, 2.41537023  , 2.93        , 3           , 50          , 0           , 0
-0.101334043, 0.04988708  , -9.820375   , 0.000203795978, -0.000373939169, -0.000755856, -0.173655123, -0.162329778, 0.4389241   , -0.00772565 , -0.0114974808, 2.4153626   , 2.94        , 3           , 11          , 0.007297049 , 0.00729704369
-0.112867594, 0.06807285  , -9.820841   , -0.0009140324, -0.00235252455, 0.00290882564, -0.173655123, -0.162329778, 0.4389241   , -0.007735127, -0.0115207806, 2.41539216  , 2.95        , 3           , 12          , 0.05157986  , 0
-0.110513315, 0.08195637  , -9.798165   , -0.00459492439, -0.0006879684, 0.00119908445, -0.174261838, -0.1624646  , 0.438789278 , -0.00778121455, -0.0115275662, 2.41540456  , 2.96        , 3           , 50          , 0           , 0
-0.103281461, 0.08230734  , -9.793589   , -0.000925585045, -0.000381577469, -0.0001960487, -0.173924774, -0.162194952, 0.438991517 , -0.007790447, -0.0115313977, 2.41540217  , 2.97        , 3           , 11          , 0.007297049 , 0.00729704369
-0.102107435, 0.06741247  , -9.796354   , -0.00205299375, -0.0009523499, -0.0010497967, -0.173857361, -0.162329778, 0.4388567   , -0.00781085761, -0.0115410024, 2.41539168  , 2.98        , 3           , 12          , 0.05157986  , 0
-0.1307426  , 0.05292892  , -9.817424   , 0.000480973016, 0.0007542327, -0.000187728292, -0.173857361, -0.16212754 , 0.43858704  , -0.007806026, -0.0115334745, 2.41538978  , 2.99        , 3           , 50          , 0           , 0
-0.120322607, 0.05325781  , -9.817343   , 0.00139290106, -0.00316841179, 0.00093991193, -0.173857361, -0.16212754 , 0.43858704  , -0.00770394737, -0.0115382457, 2.41539884  , 3           , 3           , 11          , 0.00720155  , 0.007201544
-0.104853004, 0.06876002  , -9.785069   , -0.0014416147, -0.00121655851, 8.216787E-05, -0.174127012, -0.162262365, 0.4389241   , -0.00771837356, -0.0115504041, 2.41539979  , 3.01        , 3           , 12          , 0.0525608622, 0
-0.123787045, 0.0752994   , -9.785187   , -0.00172903913, -0.000373777119, -0.00133053469, -0.173722535, -0.162329778, 0.4388567   , -0.00773551036, -0.0115542449, 2.41538644  , 3.02        , 3           , 50          , 0           , 0
-0.116899773, 0.07574339  , -9.8068285  , -0.00200916734, -0.000938819663, -0.002180332, -0.173722535, -0.162532017, 0.438654453 , -0.00775535 , -0.0115638031, 2.4153645   , 3.03        , 3           , 11          , 0.00720155  , 0.007201544
-0.110408738, 0.0923071355, -9.790438   , -0.0003190405, 0.000198906 , -0.000192932232, -0.173722535, -0.162532017, 0.438654453 , -0.007758518, -0.0115618287, 2.4153626   , 3.04        , 3           , 12          , 0.0525608622, 0
-0.119386449, 0.0644307062, -9.788815   , 0.0008212404, -0.00176440575, 0.00122198521, -0.173857361, -0.162329778, 0.438789278 , -0.007750449, -0.0115793776, 2.415375    , 3.05        , 3           , 50          , 0           , 0
-0.113299005, 0.07434439  , -9.80590248 , -0.00285079749, -0.00178923772, 0.000357252575, -0.173924774, -0.162262365, 0.4389241   , -0.007778999, -0.0115972394, 2.41537881  , 3.06        , 3           , 11          , 0.00720155  , 0.007201544
-0.1250759  , 0.07090815  , -9.816402   , -0.00200147065, -0.00206506974, 0.0014909195, -0.173857361, -0.162262365, 0.4388567   , -0.00779918954, -0.0116177751, 2.415394    , 3.07        , 3           , 12          , 0.0525608622, 0
-0.09222509 , 0.0863505   , -9.826483   , 0.003060813 , 0.0021927834, 0.0006735207, -0.173857361, -0.162262365, 0.4388567   , -0.007768658, -0.011595794, 2.41540027  , 3.08        , 3           , 50          , 0           , 0
-0.09118493 , 0.06688364  , -9.811188   , 0.0008012349, 0.002177503 , 0.000380447775, -0.173857361, -0.162262365, 0.4389241   , -0.007760688, -0.01157399 , 2.415404    , 3.09        , 3           , 11          , 0.00720155  , 0.007201544
-0.114432029, 0.0540849641, -9.815486   , -0.000302284636, 0.0005082162, 0.000655140029, -0.1740596  , -0.161992714, 0.4389241   , -0.00772756571, -0.011511975, 2.41541028  , 3.1         , 3           , 12          , 0.0535534   , 0
-0.120780572, 0.0563833863, -9.806034   , -0.000574627134, -0.00146464759, 0.0012158606, -0.173789948, -0.162060127, 0.438789278 , -0.007733454, -0.0115265269, 2.41542268  , 3.11        , 3           , 50          , 0           , 0
-0.124147132, 0.0847532   , -9.777468   , -0.00197995454, -0.00288202381, 0.0009245688, -0.173789948, -0.162060127, 0.438789278 , -0.007753362, -0.0115552749, 2.41543221  , 3.12        , 3           , 11          , 0.007107514 , 0.00710750744
-0.109584391, 0.09089166  , -9.77507    , 0.00251640775, 0.00165357615, 0.0006700451, -0.173857361, -0.162397191, 0.438721865 , -0.00772827538, -0.0115386881, 2.415439    , 3.13        , 3           , 12          , 0.0535534   , 0
-0.1219454  , 0.07619556  , -9.78969    , 0.00112067524, -0.001734756, 9.317849E-05, -0.173924774, -0.1619253  , 0.4388567   , -0.00771708135, -0.0115560275, 2.41543984  , 3.14        , 3           , 50          , 0           , 0
-0.112392671, 0.07790517  , -9.79458    , -8.7058E-06 , -0.00174239429, 0.0006529855, -0.173789948, -0.162262365, 0.4389241   , -0.00771724526, -0.0115734013, 2.41544652  , 3.15        , 3           , 11          , 0.007107514 , 0.00710750744
-0.125051677, 0.07851574  , -9.797839   , 0.00138653722, 0.00164593547, 0.000382239843, -0.173789948, -0.162262365, 0.4389241   , -0.00770342164, -0.0115569141, 2.41545033  , 3.16        , 3           , 12          , 0.0535534   , 0
-0.106180966, 0.0670152158, -9.798195   , 0.000821193855, 0.00164211332, -0.000468006241, -0.173722535, -0.162397191, 0.438654453 , -0.00769515568, -0.0115405293, 2.41544557  , 3.17        , 3           , 50          , 0           , 0
-0.101689577, 0.07318142  , -9.769207   , 0.00477040932, 0.00279511744, 0.000964853854, -0.174127012, -0.161992714, 0.438991517 , -0.00764756 , -0.011512504, 2.41545463  , 3.18        , 3           , 11          , 0.007107514 , 0.00710750744
-0.124455526, 0.09603426  , -9.776519   , -0.000304420042, 0.00107134948, 0.001786158 , -0.173789948, -0.162262365, 0.4388567   , -0.007650809, -0.0115016541, 2.41547227  , 3.19        , 3           , 12          , 0.0535534   , 0
-0.134077534, 0.0786462352, -9.80514    , 0.00306801428, 0.00136720284, -0.0007403627, -0.173789948, -0.162262365, 0.4388567   , -0.00764932344, -0.0115062958, 2.41546559  , 3.2         , 3           , 50          , 0           , 0
-0.110574305, 0.0801215246, -9.789134   , 0.001115703 , -0.0034327677, 0.0009382667, -0.173857361, -0.16212754 , 0.438654453 , -0.007638277, -0.01154055 , 2.41547513  , 3.21        , 3           , 11          , 0.00701572467, 0.007015717
-0.09872067 , 0.08138817  , -9.804405   , 0.004776589 , -0.001155416, 0.0018064708, -0.173924774, -0.162262365, 0.438991517 , -0.007590721, -0.0115519669, 2.41549325  , 3.22        , 3           , 12          , 0.05455658  , 0
-0.0982790142, 0.0488644131, -9.795498   , 0.002787219 , 0.00136530073, 0.002083695 , -0.173992187, -0.16212754 , 0.439126343 , -0.007563087, -0.0115381563, 2.41551375  , 3.23        , 3           , 50          , 0           , 0
-0.109981768, 0.0575397238, -9.785154   , -0.00115330634, -0.00147709181, 0.00121330621, -0.173992187, -0.16212754 , 0.439126343 , -0.007574762, -0.011552834, 2.41552567  , 3.24        , 3           , 11          , 0.00701572467, 0.007015717
-0.145579174, 0.0594385974, -9.822935   , 0.000812618062, 0.000507227145, -0.00103473733, -0.174194425, -0.162262365, 0.438721865 , -0.00756651675, -0.0115478411, 2.41551566  , 3.25        , 3           , 12          , 0.05455658  , 0
-0.116148941, 0.07069753  , -9.785149   , 0.00109028479, 0.00163540116, 0.0003810025, -0.173924774, -0.16212754 , 0.4389241   , -0.007555658, -0.0115314573, 2.415519    , 3.26        , 3           , 50          , 0           , 0
-0.102758884, 0.08592938  , -9.798994   , 0.00334953633, 0.00165068032, 0.000109000728, -0.173992187, -0.162060127, 0.43905893  , -0.00752217276, -0.0115149422, 2.41552     , 3.27        , 3           , 11          , 0.00701572467, 0.007015717
-0.09645158 , 0.07824133  , -9.815701   , -0.000313485361, -6.35389E-05, 0.0003718142, -0.173789948, -0.1624646  , 0.438991517 , -0.00752535043, -0.0115155512, 2.41552377  , 3.28        , 3           , 12          , 0.05455658  , 0
-0.11236614 , 0.0810511261, -9.790952   , 0.00109233137, 0.0013538393, 0.0015107186, -0.173789948, -0.1624646  , 0.438991517 , -0.0075146  , -0.011501899, 2.415539    , 3.29        , 3           , 50          , 0           , 0
-0.117653564, 0.0594362058, -9.785657   , -0.0003311619, 0.002476581 , -0.001601986, -0.173992187, -0.162397191, 0.4388567   , -0.007526438, -0.0114640575, 2.41552281  , 3.3         , 3           , 11          , 0.006925792 , 0.006925784
-0.12555252 , 0.07401861  , -9.800573   , -0.00229462469, -7.086992E-05, 8.01150163E-05, -0.1740596  , -0.162262365, 0.439193755 , -0.00754939439, -0.01146476 , 2.41552377  , 3.31        , 3           , 12          , 0.0555695556, 0
-0.13132596 , 0.0452404656, -9.810228   , 0.0008110025, 0.000231706334, 0.00066011  , -0.173722535, -0.162262365, 0.4388567   , -0.00754136 , -0.0114623923, 2.41553044  , 3.32        , 3           , 50          , 0           , 0
-0.1063144  , 0.0579800867, -9.794617   , -0.00202031 , 0.00133885979, -0.00189416087, -0.173722535, -0.162262365, 0.4388567   , -0.007561345, -0.0114491479, 2.41551137  , 3.33        , 3           , 11          , 0.006925792 , 0.006925784
-0.1099144  , 0.06295051  , -9.784229   , -0.000323539251, 0.00106875855, -0.000474005676, -0.173924774, -0.16212754 , 0.438991517 , -0.007564525, -0.0114384936, 2.4155066   , 3.34        , 3           , 12          , 0.0555695556, 0
-0.0996214449, 0.08541986  , -9.792644   , -2.23378011E-05, -0.0025896742, 0.0006518198, -0.173924774, -0.162262365, 0.4388567   , -0.00756482547, -0.0114643406, 2.41551328  , 3.35        , 3           , 50          , 0           , 0
-0.0895534456, 0.06091426  , -9.786341   , 0.00391860167, -2.88513838E-05, -0.000173449924, -0.173857361, -0.162194952, 0.438991517 , -0.00752561959, -0.0114646424, 2.41551137  , 3.36        , 3           , 11          , 0.006925792 , 0.006925784
-0.10432867 , 0.0697054   , -9.799525   , -0.001997027, -0.00316617661, -0.000205878823, -0.173857361, -0.162194952, 0.438991517 , -0.00754556851, -0.0114963185, 2.41550946  , 3.37        , 3           , 12          , 0.0555695556, 0
-0.150190249, 0.0629951358, -9.791315   , 0.00109826413, -0.0006110759, 0.0017902751, -0.173857361, -0.162262365, 0.4388567   , -0.00753479265, -0.011502292, 2.41552758  , 3.38        , 3           , 50          , 0           , 0
-0.126487166, 0.0699885339, -9.806473   , 0.00109466049, -4.79494956E-05, 0.000378455472, -0.173857361, -0.1619253  , 0.438991517 , -0.00752389058, -0.0115027428, 2.4155314   , 3.39        , 3           , 11          , 0.006925792 , 0.006925784
-0.111121893, 0.07290842  , -9.789168   , 0.00253095431, 0.00106892  , 0.000103775259, -0.173655123, -0.162262365, 0.438721865 , -0.007431233, -0.0115347309, 2.41553187  , 3.4         , 3           , 12          , 0.05659156  , 0
-0.121373385, 0.0535971336, -9.780739   , 0.00281682145, 0.000507703 , 0.001234374 , -0.173655123, -0.162262365, 0.438721865 , -0.00740320748, -0.011529563, 2.41554427  , 3.41        , 3           , 50          , 0           , 0
-0.1107057  , 0.0412567221, -9.771216   , -0.00142253225, 0.00104218279, 0.0009329504, -0.173789948, -0.162329778, 0.4388567   , -0.00741753867, -0.0115190726, 2.41555333  , 3.42        , 3           , 11          , 0.00683788536, 0.00683787372
-0.08477465 , 0.0775794   , -9.793919   , -0.000856937142, 0.0007644346, -0.000194999375, -0.173992187, -0.162060127, 0.4389241   , -0.00742608448, -0.0115114432, 2.41555142  , 3.43        , 3           , 12          , 0.05659156  , 0
-0.127815232, 0.07315347  , -9.803759   , -0.000576319464, 0.00132947927, 0.00150241016, -0.173924774, -0.162194952, 0.43905893  , -0.00743202 , -0.0114980377, 2.41556621  , 3.44        , 3           , 50          , 0           , 0
-0.126408413, 0.0455772132, -9.793466   , 0.00282518542, -0.00118168746, 0.0012317705, -0.173924774, -0.162194952, 0.43905893  , -0.00740391063, -0.0115097631, 2.4155786   , 3.45        , 3           , 11          , 0.00683788536, 0.00683787372
-0.116689205, 0.06840022  , -9.77115    , 0.00141649193, -0.00175436423, 0.00235446775, -0.173789948, -0.162397191, 0.438721865 , -0.00739001855, -0.0115271322, 2.41560245  , 3.46        , 3           , 12          , 0.05659156  , 0
-0.09548101 , 0.09569103  , -9.775394   , 0.00169006514, -6.30662544E-05, 0.001510776 , -0.173857361, -0.162194952, 0.43905893  , -0.007373292, -0.0115276519, 2.41561723  , 3.47        , 3           , 50          , 0           , 0
-0.120433845, 0.08165994  , -9.809542   , 0.000260060973, 0.00330615952, -0.000468363782, -0.173857361, -0.162397191, 0.438991517 , -0.00737063447, -0.0114946263, 2.41561246  , 3.48        , 3           , 11          , 0.00683788536, 0.00683787372
-0.133072659, 0.08184054  , -9.81913    , 0.002514389 , 0.004447702 , 0.0003915197, -0.173857361, -0.162397191, 0.438991517 , -0.00734553067, -0.0114501221, 2.41561627  , 3.49        , 3           , 12          , 0.05659156  , 0
-0.118576787, 0.05318363  , -9.801511   , -0.000572608551, -0.000100025733, 0.000369915826, -0.173992187, -0.162194952, 0.438654453 , -0.00735736126, -0.0115014063, 2.41562     , 3.5         , 3           , 50          , 0           , 0
-0.107509926, 0.07151848  , -9.790954   , -0.000588432, 0.002997188 , -0.0004729231, -0.173857361, -0.162194952, 0.43905893  , -0.007363188, -0.0114714708, 2.41561484  , 3.51        , 3           , 11          , 0.006751813 , 0.0067518
-0.0866610557, 0.06905903  , -9.803009   , 0.003098199 , 0.000206371988, 0.00151761982, -0.173924774, -0.162194952, 0.4389241   , -0.0073323804, -0.0114692962, 2.41563     , 3.52        , 3           , 12          , 0.05762186  , 0
-0.1050613  , 0.07922951  , -9.811243   , 0.00139167008, 0.00244742888, 0.000100502519, -0.173789948, -0.16212754 , 0.438789278 , -0.00731847249, -0.0114448145, 2.41563058  , 3.53        , 3           , 50          , 0           , 0
-0.115579315, 0.07748216  , -9.791895   , 0.000554637052, 0.000470745785, 0.0009411264, -0.173789948, -0.16212754 , 0.438789278 , -0.007313033, -0.0114400415, 2.41564     , 3.54        , 3           , 11          , 0.006751813 , 0.0067518
-0.125041276, 0.08254133  , -9.787427   , 0.00194808561, 0.00385906734, -0.00243753148, -0.173992187, -0.162060127, 0.438991517 , -0.007293271, -0.0114016281, 2.41561532  , 3.55        , 3           , 12          , 0.05762186  , 0
-0.1152182  , 0.104555756 , -9.793136   , -0.00255147973, 0.000168167142, -0.000486481, -0.1740596  , -0.16212754 , 0.43905893  , -0.007318729, -0.0113999816, 2.41561055  , 3.56        , 3           , 50          , 0           , 0
-0.11634706 , 0.08742416  , -9.793667   , -4.388654E-06, -0.0009409051, -0.00104143936, -0.173789948, -0.162262365, 0.438789278 , -0.007318656, -0.0114094662, 2.4156      , 3.57        , 3           , 11          , 0.006751813 , 0.0067518
-0.104924768, 0.0624529868, -9.787808   , 0.00139938144, 0.000758035341, -0.001032251, -0.173789948, -0.162262365, 0.438789278 , -0.007304544, -0.01140196 , 2.41559     , 3.58        , 3           , 12          , 0.05762186  , 0
-0.117440656, 0.06496492  , -9.819984   , -0.000279192842, -0.00235063722, 8.52240337E-05, -0.173924774, -0.162397191, 0.4388567   , -0.00730734738, -0.0114254588, 2.415591    , 3.59        , 3           , 50          , 0           , 0
-0.140869826, 0.07292299  , -9.823747   , -0.00115278736, -0.0003913545, 8.44149E-05 , -0.174127012, -0.162397191, 0.438991517 , -0.00735845463, -0.0114435581, 2.41559243  , 3.6         , 3           , 11          , 0.00666956557, 0.006669552
-0.13022083 , 0.06815539  , -9.785267   , -0.00143537729, -0.0003932652, -0.000199439528, -0.173722535, -0.162329778, 0.4389241   , -0.007372786, -0.0114475042, 2.41559     , 3.61        , 3           , 12          , 0.0586597659, 0
-0.09490003 , 0.097574994 , -9.80069351 , 0.000827893 , -0.00122268242, -0.0007552809, -0.173722535, -0.162329778, 0.4389241   , -0.00736442162, -0.0114597864, 2.415583    , 3.62        , 3           , 50          , 0           , 0
-0.104770169, 0.07239796  , -9.793642   , 0.003344227 , 0.00414424855, 0.000960040954, -0.173924774, -0.162194952, 0.438991517 , -0.007331085, -0.0114182755, 2.415592    , 3.63        , 3           , 11          , 0.00666956557, 0.006669552
-0.119656667, 0.07440368  , -9.80143    , 0.00194382365, 0.00160060916, -0.000463136268, -0.173992187, -0.161992714, 0.439193755 , -0.007311592, -0.0114023043, 2.41558766  , 3.64        , 3           , 12          , 0.0586597659, 0
-0.102145344, 0.09408862  , -9.812063   , -0.0003066489, -0.0003856301, -0.00188939669, -0.17358771 , -0.162262365, 0.4389241   , -0.00731444452, -0.0114062987, 2.41556859  , 3.65        , 3           , 50          , 0           , 0
-0.12606135 , 0.10648796  , -9.793211   , 0.0019436602, 0.00160060835, -0.000745673839, -0.17358771 , -0.162262365, 0.4389241   , -0.007294921, -0.011390347, 2.415561    , 3.66        , 3           , 11          , 0.00666956557, 0.006669552
-0.106602944, 0.0759725   , -9.776917   , -0.0039800955, 0.000434246525, 0.00205030944, -0.173857361, -0.162194952, 0.438721865 , -0.007334956, -0.0113858562, 2.415581    , 3.67        , 3           , 12          , 0.0586597659, 0
-0.08449444 , 0.06091929  , -9.805285   , 0.003918186 , 0.00217711  , -0.000170512358, -0.17358771 , -0.162194952, 0.439193755 , -0.00729575474, -0.0113640977, 2.415579    , 3.68        , 3           , 50          , 0           , 0
-0.0867089  , 0.0699129552, -9.788542   , 0.002797496 , 0.000480082643, 0.000951766036, -0.174531475, -0.162194952, 0.43905893  , -0.0072678877, -0.0113592278, 2.41558862  , 3.69        , 3           , 11          , 0.00666956557, 0.006669552
-0.0980205  , 0.0682669356, -9.796318   , 0.00107148965, 0.00133764511, -0.0001844808, -0.174531475, -0.162194952, 0.43905893  , -0.007322576, -0.0112860259, 2.41558766  , 3.7         , 3           , 12          , 0.0597046465, 0
-0.1170103  , 0.07252939  , -9.790119   , -0.0006258595, 0.00188931555, -0.000191514526, -0.173722535, -0.162194952, 0.4389241   , -0.00732881064, -0.011267148, 2.41558576  , 3.71        , 3           , 50          , 0           , 0
-0.128919676, 0.08631933  , -9.823599   , -0.000338924321, 0.00104653183, 0.000373575342, -0.173857361, -0.162397191, 0.4389241   , -0.00733224256, -0.0112566575, 2.41558957  , 3.72        , 3           , 11          , 0.00658796262, 0.00658795144
-0.125417918, 0.08974995  , -9.78288    , 0.00220856769, 0.000219033391, 0.00292696315, -0.1740596  , -0.162194952, 0.438789278 , -0.007310486, -0.01125425 , 2.41561913  , 3.73        , 3           , 12          , 0.0597046465, 0
-0.0801073462, 0.0896907   , -9.788861   , -0.00117726251, -0.0009301576, -0.00104610017, -0.1740596  , -0.162194952, 0.438789278 , -0.007322142, -0.0112636285, 2.41560864  , 3.74        , 3           , 50          , 0           , 0
-0.07570915 , 0.07301751  , -9.810592   , -0.00287616858, -9.692279E-05, -0.00133523752, -0.173924774, -0.162397191, 0.438654453 , -0.007350753, -0.0112646967, 2.41559529  , 3.75        , 3           , 11          , 0.00658796262, 0.00658795144
-0.123995222, 0.0635256246, -9.77213    , -0.0020421755, 0.00272446079, -0.0001967974, -0.173992187, -0.162329778, 0.4388567   , -0.00737115 , -0.0112374658, 2.415593    , 3.76        , 3           , 12          , 0.0597046465, 0
-0.121831119, 0.0544911362, -9.77667    , 0.00278392085, -0.0020296704, 0.00179597572, -0.1740596  , -0.162329778, 0.4388567   , -0.00734351575, -0.0112576317, 2.41561151  , 3.77        , 3           , 50          , 0           , 0
-0.111752786, 0.0665205047, -9.766149   , -0.000611593132, -0.0009263338, 0.000369220856, -0.1740596  , -0.162329778, 0.4388567   , -0.00734967552, -0.0112668648, 2.41561532  , 3.78        , 3           , 11          , 0.00658796262, 0.00658795144
-0.10231065 , 0.0547500066, -9.787369   , 0.0019333628, -0.00147227233, 0.0009452804, -0.1740596  , -0.162194952, 0.438519627 , -0.007330449, -0.0112815192, 2.41562438  , 3.79        , 3           , 12          , 0.0597046465, 0
-0.103750736, 0.0475581177, -9.790572   , -0.000610925548, 0.000773639651, 0.001219411 , -0.1740596  , -0.162397191, 0.438789278 , -0.00731509225, -0.0112469541, 2.4156363   , 3.8         , 3           , 50          , 0           , 0
-0.111388907, 0.08466937  , -9.796805   , -0.0006314205, 0.0047155465, -0.000469738472, -0.174127012, -0.16212754 , 0.438721865 , -0.00732134935, -0.0111998329, 2.41563153  , 3.81        , 3           , 11          , 0.006508745 , 0.00650873454
-0.0980857462, 0.09581363  , -9.802533   , 0.004171719 , 0.00446645264, 0.000399827666, -0.173992187, -0.162262365, 0.438654453 , -0.007279673, -0.0111551434, 2.41563487  , 3.82        , 3           , 12          , 0.06075589  , 0
-0.07888792 , 0.08331328  , -9.775319   , 0.00306907622, -0.00117249251, -0.001026806, -0.173992187, -0.162262365, 0.438654453 , -0.00724886823, -0.01116694 , 2.41562486  , 3.83        , 3           , 50          , 0           , 0
-0.105823159, 0.09721059  , -9.788574   , -0.00369875669, -0.00318928412, 6.870006E-05, -0.174396649, -0.1619253  , 0.438654453 , -0.007285866, -0.011198828, 2.41562581  , 3.84        , 3           , 11          , 0.006508745 , 0.00650873454
-0.115285516, 0.06663561  , -9.78787    , 0.001371312 , -0.000339252467, 0.0006618189, -0.174531475, -0.162262365, 0.438721865 , -0.00727222674, -0.0112021705, 2.41563249  , 3.85        , 3           , 12          , 0.06075589  , 0
-0.139232978, 0.06918972  , -9.793015   , -0.002021829, 0.00048252393, 0.000929855043, -0.174261838, -0.162194952, 0.438654453 , -0.00729254866, -0.0111972773, 2.415642    , 3.86        , 3           , 50          , 0           , 0
-0.131849274, 0.0808225051, -9.789293   , -0.000608627, 0.000210507118, 0.0003709308, -0.174261838, -0.162194952, 0.438654453 , -0.0072986763, -0.0111951465, 2.41564536  , 3.87        , 3           , 11          , 0.006508745 , 0.00650873454
-0.115534455, 0.0450090729, -9.796549   , 0.000810061931, -0.0009061987, 0.00207100459, -0.174598888, -0.162060127, 0.438519627 , -0.007290809, -0.0112040564, 2.41566586  , 3.88        , 3           , 12          , 0.06075589  , 0
-0.11995016 , 0.0505093038, -9.806503   , -0.00116232864, -0.00204583351, 0.00036482545, -0.174801126, -0.161992714, 0.4388567   , -0.00730247376, -0.0112244878, 2.41567016  , 3.89        , 3           , 50          , 0           , 0
-0.1078173  , 0.0765514746, -9.810371   , -0.0008775869, 0.00019012767, 0.00065197557, -0.174935952, -0.16212754 , 0.4388567   , -0.00727677764, -0.0112705212, 2.41567683  , 3.9         , 3           , 11          , 0.006431619 , 0.00643160846
-0.103295282, 0.07872535  , -9.80174    , 0.000549554941, -0.00289753964, 8.871222E-05, -0.174935952, -0.16212754 , 0.4388567   , -0.00727129448, -0.0112994891, 2.41567826  , 3.91        , 3           , 12          , 0.06181296  , 0
-0.118574873, 0.0883727   , -9.799556   , 0.00250670058, 0.00105773937, -0.0004610691, -0.175070778, -0.162060127, 0.438789278 , -0.00724617532, -0.0112889456, 2.41567349  , 3.92        , 3           , 50          , 0           , 0
-0.0957551748, 0.072705    , -9.782272   , 0.00137362687, 0.00189479871, 0.0009476522, -0.175070778, -0.161992714, 0.43905893  , -0.007232544, -0.0112699317, 2.41568255  , 3.93        , 3           , 11          , 0.006431619 , 0.00643160846
-0.107808672, 0.08325373  , -9.790909   , -0.00116977177, 0.00215917313, 0.0006536962, -0.175070778, -0.161857888, 0.439126343 , -0.00724431546, -0.0112482915, 2.41568875  , 3.94        , 3           , 12          , 0.06181296  , 0
-0.119931042, 0.08883677  , -9.798661   , 0.000249495584, 0.00076089846, 0.0009406487, -0.175070778, -0.161857888, 0.439126343 , -0.007241925, -0.0112406136, 2.41569829  , 3.95        , 3           , 50          , 0           , 0
-0.109916233, 0.09054862  , -9.805809   , -0.0008755403, -9.143422E-05, 0.00178169156, -0.175273016, -0.1619253  , 0.438789278 , -0.00725087943, -0.0112413969, 2.41571641  , 3.96        , 3           , 11          , 0.006431619 , 0.00643160846
-0.109539405, 0.05350882  , -9.795564   , -0.0005917938, -0.000652661663, -0.000760696537, -0.175475255, -0.161857888, 0.439126343 , -0.0072567123, -0.0112479785, 2.41570878  , 3.97        , 3           , 12          , 0.06181296  , 0
-0.08488712 , 0.07168572  , -9.78535652 , 0.0005244629, 0.00217063143, 9.65230356E-05, -0.175475255, -0.162194952, 0.43905893  , -0.007251478, -0.0112262657, 2.41570973  , 3.98        , 3           , 50          , 0           , 0
-0.123751372, 0.07309656  , -9.801016   , -0.002285287, -0.000945688051, -0.00133410713, -0.175475255, -0.162194952, 0.43905893  , -0.007274181, -0.0112358183, 2.41569638  , 3.99        , 3           , 11          , 0.006431619 , 0.00643160846
-0.128647655, 0.0839358   , -9.786996   , 0.004182506 , 0.00247895624, -0.00101581577, -0.175542668, -0.161790475, 0.4388567   , -0.007262809, -0.0112059368, 2.41568685  , 4           , 3           , 12          , 0.06287531  , 0
-0.10547962 , 0.07792371  , -9.823907   , 0.00109302881, -0.0009208321, -0.00018789692, -0.175947145, -0.1619253  , 0.439261168 , -0.00725186057, -0.0112151559, 2.415685    , 4.01        , 3           , 50          , 0           , 0
-0.09626846 , 0.09401196  , -9.809758   , 0.000246400945, -0.00092655886, 0.0009383021, -0.175947145, -0.1619253  , 0.43905893  , -0.00724950153, -0.0112243528, 2.41569448  , 4.02        , 3           , 11          , 0.00635643024, 0.00635642
-0.129673362, 0.07269032  , -9.793831   , 0.0002481212, -0.00120812235, 0.00150294311, -0.175947145, -0.1619253  , 0.43905893  , -0.007247191, -0.0112363277, 2.41570973  , 4.03        , 3           , 12          , 0.06287531  , 0
-0.136216342, 0.0814523   , -9.826839   , 0.000237799424, 0.000481258845, -0.001884903, -0.175947145, -0.162060127, 0.4388567   , -0.00724459952, -0.0112316506, 2.41569066  , 4.04        , 3           , 50          , 0           , 0
-0.0991462842, 0.05024513  , -9.80047    , 0.003360392 , -0.002313373, 0.00151569373, -0.175947145, -0.161790475, 0.4389241   , -0.007211169, -0.0112546738, 2.415706    , 4.05        , 3           , 11          , 0.00635643024, 0.00635642
-0.107816122, 0.0832476839, -9.789101   , 0.0033544898, -0.001187114, 0.0009523544, -0.175947145, -0.161992714, 0.439126343 , -0.00717773149, -0.0112664765, 2.41571546  , 4.06        , 3           , 12          , 0.06287531  , 0
-0.131602332, 0.0645818   , -9.791167   , 0.00164812454, 0.00105394353, -0.000182225514, -0.175812319, -0.161992714, 0.438654453 , -0.007161229, -0.0112559507, 2.41571355  , 4.07        , 3           , 50          , 0           , 0
-0.135134548, 0.07049987  , -9.794333   , -0.00060276303, -0.000650725968, 8.717292E-05, -0.175812319, -0.161992714, 0.438654453 , -0.00716726668, -0.01126245 , 2.4157145   , 4.08        , 3           , 11          , 0.00635643024, 0.00635642
-0.120479405, 0.0428647026, -9.812415   , 0.0019336656, 0.0004927249, 0.000383298262, -0.1756775  , -0.161723062, 0.438991517 , -0.007147973, -0.0112574948, 2.41571832  , 4.09        , 3           , 12          , 0.06287531  , 0
-0.115509741, 0.08334107  , -9.790063   , 0.000250025158, -0.000393029128, 0.0026343686, -0.175947145, -0.162060127, 0.438789278 , -0.007130926, -0.0113422731, 2.415746    , 4.1         , 3           , 50          , 0           , 0
-0.109768674, 0.0684248   , -9.802284   , 0.0008231684, -0.00236017164, 9.112777E-05, -0.1756775  , -0.161992714, 0.438789278 , -0.00712270662, -0.0113658663, 2.415747    , 4.11        , 3           , 11          , 0.00628341036, 0.00628340151
-0.110178441, 0.0711430758, -9.804084   , -0.0008818918, -0.000119107768, 0.00121684733, -0.1756775  , -0.161992714, 0.438789278 , -0.007131662, -0.0113669708, 2.41575933  , 4.12        , 3           , 12          , 0.06394245  , 0
-0.126669437, 0.0604675   , -9.792503   , 0.003361317 , -0.00149828428, 0.000951894268, -0.175812319, -0.162194952, 0.43858704  , -0.00709815929, -0.011381885, 2.41576886  , 4.13        , 3           , 50          , 0           , 0
-0.132123932, 0.0622996   , -9.781688   , 0.000672612165, -0.0006717411, -0.00160215213, -0.1757449  , -0.161992714, 0.438721865 , -0.007091253, -0.0113887154, 2.41575265  , 4.14        , 3           , 11          , 0.00628341036, 0.00628340151
-0.104365885, 0.07235333  , -9.781888   , 0.0010960449, -0.0005280912, -0.00075234723, -0.1756775  , -0.162262365, 0.438721865 , -0.00708020665, -0.0113940509, 2.4157455   , 4.15        , 3           , 12          , 0.06394245  , 0
-0.09932084 , 0.07368612  , -9.793142   , -0.000178116141, 0.000167227859, -0.000333382341, -0.1756775  , -0.162262365, 0.438721865 , -0.00708195 , -0.0113924015, 2.41574216  , 4.16        , 3           , 50          , 0           , 0
-0.117288053, 0.0798181444, -9.80952549 , 0.0005286035, 0.000172005923, 0.000800059759, -0.1756775  , -0.16212754 , 0.4383848   , -0.00707675423, -0.0113906227, 2.41575027  , 4.17        , 3           , 11          , 0.00628341036, 0.00628340151
-0.102265552, 0.05523291  , -9.796858   , 0.0003908751, -0.0005328618, 0.00079831644, -0.1757449  , -0.162262365, 0.438721865 , -0.007072936, -0.0113958959, 2.41575837  , 4.18        , 3           , 12          , 0.06394245  , 0
-0.116502941, 0.06810479  , -9.817704   , -0.00130495382, -0.0004035418, -0.000198249152, -0.17561008 , -0.162194952, 0.43858704  , -0.00708596362, -0.0113999462, 2.41575646  , 4.19        , 3           , 50          , 0           , 0
-0.112232484, 0.08785468  , -9.801771   , -0.000594510057, -0.0006863723, -0.0004778476, -0.17561008 , -0.162194952, 0.43858704  , -0.00708303275, -0.0114237983, 2.41575217  , 4.2         , 3           , 11          , 0.00621221  , 0.006212197
-0.153203249, 0.07297883  , -9.797625   , 0.0012452387, -0.001377868, 0.000377239921, -0.1756775  , -0.161992714, 0.438654453 , -0.007070625, -0.01143755 , 2.415756    , 4.21        , 3           , 12          , 0.06501392  , 0
-0.130383223, 0.0577577576, -9.778982   , 0.00166617252, -0.000811872538, 0.000521352 , -0.1757449  , -0.161857888, 0.438789278 , -0.00705402344, -0.01144563 , 2.41576123  , 4.22        , 3           , 50          , 0           , 0
-0.116595946, 0.07606374  , -9.76931    , 0.00166121207, 0.000173604916, 0.000381602062, -0.1752056  , -0.16212754 , 0.438654453 , -0.00703745475, -0.0114438683, 2.415765    , 4.23        , 3           , 11          , 0.00621221  , 0.006212197
-0.12263754 , 0.0875379   , -9.805467   , 0.00136947946, 0.002001867 , -4.07005718E-05, -0.1752056  , -0.16212754 , 0.438654453 , -0.00702375453, -0.0114238514, 2.415765    , 4.24        , 3           , 12          , 0.06501392  , 0
-0.116677456, 0.08395785  , -9.834815   , 0.0006650953, 0.00157474226, -0.000750987441, -0.175340429, -0.162194952, 0.4388567   , -0.00701701641, -0.0114081576, 2.415757    , 4.25        , 3           , 50          , 0           , 0
-0.09459303 , 0.08182928  , -9.815671   , 0.000248054421, 0.000304836081, -0.000189840546, -0.175475255, -0.162194952, 0.4389241   , -0.007014513, -0.0114051225, 2.415755    , 4.26        , 3           , 11          , 0.00621221  , 0.006212197
-0.127459466, 0.07306954  , -9.780252   , -0.0004555953, -0.000122284924, 0.000371291069, -0.1752056  , -0.16212754 , 0.438789278 , -0.007019111, -0.0114063192, 2.41575885  , 4.27        , 3           , 12          , 0.06501392  , 0
-0.110736482, 0.06749231  , -9.79009151 , -0.00172073231, -0.00139792485, -0.00048420034, -0.1752056  , -0.16212754 , 0.438789278 , -0.00703626452, -0.0114203328, 2.415754    , 4.28        , 3           , 50          , 0           , 0
-0.119799055, 0.100995183 , -9.79183    , -0.000316383928, 1.94464519E-05, -0.00188813324, -0.1752056  , -0.162329778, 0.438654453 , -0.00703921262, -0.0114202714, 2.41573548  , 4.29        , 3           , 11          , 0.00621221  , 0.006212197
-0.132497534, 0.093539454 , -9.811394   , 0.0007731051, 0.00226263329, -0.0003251489, -0.175273016, -0.162194952, 0.4388567   , -0.007117697, -0.0114464946, 2.41573358  , 4.3         , 3           , 12          , 0.0660892949, 0
-0.1135994  , 0.09143448  , -9.788207   , 0.000357947516, 0.0007111643, 0.00108317635, -0.1752056  , -0.16212754 , 0.4389241   , -0.007114239, -0.0114393067, 2.415744    , 4.31        , 3           , 50          , 0           , 0
-0.101585872, 0.0772826   , -9.781393   , 0.001488352 , 0.000578021747, 0.001088227 , -0.174801126, -0.1619253  , 0.438654453 , -0.00709948 , -0.0114334477, 2.41575456  , 4.32        , 3           , 11          , 0.00614285  , 0.0061428356
-0.102959119, 0.06969852  , -9.802226   , 0.00162886828, 0.0007197593, 0.00108910247, -0.174801126, -0.1619253  , 0.438654453 , -0.0070833154, -0.0114261722, 2.415766    , 4.33        , 3           , 12          , 0.0660892949, 0
-0.125969619, 0.07182109  , -9.816404   , 0.0006385723, 0.0009946376, 0.0003785835, -0.1752056  , -0.1619253  , 0.4388567   , -0.0070769717, -0.0114162  , 2.41576934  , 4.34        , 3           , 50          , 0           , 0
-0.127479747, 0.06323341  , -9.806959   , -0.00133656908, 0.0005589192, -5.5092034E-05, -0.175070778, -0.162194952, 0.4389241   , -0.00709032966, -0.0114106145, 2.41576886  , 4.35        , 3           , 11          , 0.00614285  , 0.0061428356
-0.109970465, 0.0526390448, -9.803707   , 0.0003662741, -0.0011190119, -0.000191062791, -0.174868539, -0.162262365, 0.43858704  , -0.00708664535, -0.0114218174, 2.415767    , 4.36        , 3           , 12          , 0.0660892949, 0
-0.09003102 , 0.0550969467, -9.799025   , 0.000225631637, -0.001119964, 0.0007971599, -0.174868539, -0.162262365, 0.43858704  , -0.007084481, -0.01143296 , 2.41577458  , 4.37        , 3           , 50          , 0           , 0
-0.103219062, 0.0534192771, -9.790997   , -0.00133230549, -0.0002857756, 8.487487E-05, -0.17513819 , -0.161992714, 0.438789278 , -0.007097814, -0.0114358114, 2.41577554  , 4.38        , 3           , 11          , 0.00614285  , 0.0061428356
-0.109201126, 0.07743949  , -9.801338   , 0.0009177662, 0.00141888985, -0.001597211, -0.174935952, -0.161992714, 0.4388567   , -0.00708845258, -0.0114217363, 2.41575933  , 4.39        , 3           , 12          , 0.0660892949, 0
-0.104872   , 0.0682982951, -9.781908   , 0.002196658 , 0.0003052267, -0.0011691153, -0.174868539, -0.162262365, 0.4388567   , -0.00706001231, -0.01140697 , 2.41574883  , 4.4         , 3           , 50          , 0           , 0
-0.110191241, 0.04397949  , -9.77753    , 0.00164262275, -0.00166954368, 0.0006617069, -0.174868539, -0.162262365, 0.4388567   , -0.007043663, -0.0114236185, 2.41575551  , 4.41        , 3           , 11          , 0.00607551634, 0.006075503
-0.110234089, 0.0715443343, -9.789168   , 0.0006581031, -0.002380139, 0.00150362519, -0.175070778, -0.162060127, 0.438991517 , -0.007037256, -0.0114473123, 2.41577077  , 4.42        , 3           , 12          , 0.06716818  , 0
-0.139179647, 0.07325008  , -9.792997   , 0.000934954034, -0.00125196856, 0.00150667771, -0.174733713, -0.162262365, 0.43905893  , -0.00702807959, -0.0114597259, 2.41578555  , 4.43        , 3           , 50          , 0           , 0
-0.146622047, 0.0553208366, -9.80262    , 0.00261701318, 0.00115279132, 0.00038811806, -0.1746663  , -0.161790475, 0.438789278 , -0.00700195273, -0.0114481719, 2.41578937  , 4.44        , 3           , 11          , 0.00607551634, 0.006075503
-0.123133935, 0.0514276437, -9.800196   , 0.00303651579, 0.00185956561, -0.0007389716, -0.1746663  , -0.161790475, 0.438789278 , -0.00697150175, -0.0114296274, 2.41578174  , 4.45        , 3           , 12          , 0.06716818  , 0
-0.120406881, 0.08793071  , -9.795956   , 0.000643837 , 0.000435510272, 0.000942889659, -0.1746663  , -0.162329778, 0.438721865 , -0.00696517 , -0.0114252064, 2.41579127  , 4.46        , 3           , 50          , 0           , 0
-0.08429256 , 0.07938323  , -9.795263   , -0.00104002433, -0.00168768619, 0.00135553954, -0.174868539, -0.162329778, 0.43905893  , -0.00697572669, -0.0114419889, 2.415805    , 4.47        , 3           , 11          , 0.00607551634, 0.006075503
-0.105516419, 0.08369645  , -9.796312   , 0.00108034944, -0.00209570839, 0.00150603452, -0.174868539, -0.162262365, 0.4389241   , -0.00696509844, -0.01146284 , 2.41582036  , 4.48        , 3           , 12          , 0.06716818  , 0
-0.09817466 , 0.0538588241, -9.804967   , 0.000365673826, -0.0004110942, 0.00108153955, -0.174868539, -0.162262365, 0.4389241   , -0.00696156453, -0.0114668757, 2.41583085  , 4.49        , 3           , 50          , 0           , 0
-0.101803109, 0.0556817651, -9.797756   , -0.00302509475, -0.000429363077, -0.0003468702, -0.174531475, -0.1624646  , 0.438789278 , -0.006994283, -0.0114571406, 2.415828    , 4.5         , 3           , 11          , 0.00601012446, 0.00601011049
-0.125443026, 0.0834807   , -9.796917   , -0.00105053175, 0.0002879245, 0.00149992667, -0.174464062, -0.162194952, 0.43905893  , -0.00700495951, -0.0114541575, 2.41584277  , 4.51        , 3           , 12          , 0.0682502   , 0
-0.112052925, 0.0737911   , -9.780131   , 0.000507613353, -0.00068704877, 0.00136438233, -0.174464062, -0.162262365, 0.439193755 , -0.0070000384, -0.01146093 , 2.4158566   , 4.52        , 3           , 50          , 0           , 0
-0.107956693, 0.0746531337, -9.782357   , -0.00146330171, -0.00210824818, -0.000200962051, -0.174464062, -0.162262365, 0.439193755 , -0.007014651, -0.0114820264, 2.41585469  , 4.53        , 3           , 11          , 0.00601012446, 0.00601011049
-0.117076844, 0.09828963  , -9.801764   , -0.00245364173, -0.0016925846, 0.000218885849, -0.174801126, -0.162397191, 0.4389241   , -0.00703921355, -0.0114989374, 2.4158566   , 4.54        , 3           , 12          , 0.0682502   , 0
-0.133452371, 0.08993936  , -9.810964   , -0.00132401625, -0.00168494508, 8.28849661E-05, -0.174935952, -0.1624646  , 0.43905893  , -0.00705246441, -0.0115157794, 2.41585755  , 4.55        , 3           , 50          , 0           , 0
-0.110446185, 0.0544111654, -9.792404   , 0.0005041727, -0.000123921869, 0.00023510032, -0.174261838, -0.162262365, 0.4389241   , -0.0070474497, -0.0115170032, 2.41586041  , 4.56        , 3           , 11          , 0.00601012446, 0.00601011049
-0.10707067 , 0.07596572  , -9.773305   , 0.0005028603, 0.000157643677, 0.0003768029, -0.174261838, -0.162262365, 0.4389241   , -0.00704246527, -0.0115154022, 2.41586423  , 4.57        , 3           , 12          , 0.0682502   , 0
-0.108323306, 0.0751746   , -9.801793   , 0.0007829071, 0.0007226858, 0.00108533155, -0.174194425, -0.162262365, 0.4388567   , -0.0070347595, -0.0115080988, 2.41587472  , 4.58        , 3           , 50          , 0           , 0
-0.121771894, 0.08392409  , -9.807283   , 0.00177086715, 0.000870154 , 0.0013726952, -0.174329251, -0.161992714, 0.439261168 , -0.00701720826, -0.0114992987, 2.415888    , 4.59        , 3           , 11          , 0.00601012446, 0.00601011049
-0.11093086 , 0.084221974 , -9.799515   , 0.00146728277, 0.00100494444, -0.000605964568, -0.174329251, -0.161857888, 0.438991517 , -0.00706216833, -0.01150186 , 2.4158833   , 4.6         , 3           , 12          , 0.06933499  , 0
-0.08174176 , 0.0667191   , -9.795297   , 0.00146060181, 0.0022719854, -0.00131035538, -0.174464062, -0.162397191, 0.4388567   , -0.007047409, -0.0114792334, 2.41587     , 4.61        , 3           , 50          , 0           , 0
-0.112829231, 0.07970904  , -9.792769   , -0.000229739773, 0.00155661663, -4.79233531E-05, -0.174464062, -0.162397191, 0.4388567   , -0.00704970071, -0.011463671, 2.415869    , 4.62        , 3           , 11          , 0.00594633725, 0.00594632
-0.127030849, 0.075722754 , -9.765775   , -0.00135083834, -0.000140412871, 0.0003680114, -0.174329251, -0.16212754 , 0.438789278 , -0.007063252, -0.0114650484, 2.41587281  , 4.63        , 3           , 12          , 0.06933499  , 0
-0.119039953, 0.08435091  , -9.809521   , 0.000481124676, 0.000575913 , -0.0001874186, -0.174261838, -0.162060127, 0.4389241   , -0.007058417, -0.0114593031, 2.415871    , 4.64        , 3           , 50          , 0           , 0
-0.119246334, 0.06990047  , -9.805514   , 0.00244868058, 0.00256024  , 0.000389912428, -0.174261838, -0.162329778, 0.438789278 , -0.00703397254, -0.0114336731, 2.41587472  , 4.65        , 3           , 11          , 0.00594633725, 0.00594632
-0.113390863, 0.0711455047, -9.793714   , 0.002598503 , 0.000871806 , 0.0008117736, -0.174261838, -0.162329778, 0.438789278 , -0.00700808 , -0.0114249  , 2.41588283  , 4.66        , 3           , 12          , 0.06933499  , 0
-0.12105076 , 0.0663563758, -9.81865    , 0.00133430748, -0.00054461573, 0.0003798715, -0.174396649, -0.1619253  , 0.43905893  , -0.006994779, -0.0114303166, 2.41588664  , 4.67        , 3           , 50          , 0           , 0
-0.08969067 , 0.0843854845, -9.788053   , -0.00022080481, -0.000132771427, 0.00093835406, -0.174127012, -0.162060127, 0.438991517 , -0.006997094, -0.0114315795, 2.4158957   , 4.68        , 3           , 11          , 0.00594633725, 0.00594632
-0.08827241 , 0.08977428  , -9.785308   , -0.0009177293, -0.001967719, 0.00107350992, -0.174127012, -0.162262365, 0.438654453 , -0.007006396, -0.011451181, 2.41590714  , 4.69        , 3           , 12          , 0.06933499  , 0
-0.109817974, 0.072402    , -9.777409   , 0.00131336658, -0.00109547225, 0.00122684776, -0.174127012, -0.162262365, 0.438654453 , -0.00706994673, -0.0114232292, 2.41591954  , 4.7         , 3           , 50          , 0           , 0
-0.145284757, 0.0570732057, -9.791755   , -0.000807622739, -0.0005466668, 0.00121783849, -0.174261838, -0.161857888, 0.438721865 , -0.00707816239, -0.0114286086, 2.415932    , 4.71        , 3           , 11          , 0.005884478 , 0.0058844625
-0.128891319, 0.0618671849, -9.798389   , -0.0030617062, -0.00168820808, 0.0007817611, -0.174329251, -0.162060127, 0.43905893  , -0.00710887136, -0.0114454366, 2.41593957  , 4.72        , 3           , 12          , 0.07042225  , 0
-0.110068753, 0.08596152  , -9.783229   , -0.00193015242, -0.002102917, 0.000362571853, -0.174261838, -0.162397191, 0.4389241   , -0.007128216, -0.011466437, 2.41594338  , 4.73        , 3           , 50          , 0           , 0
-0.118332781, 0.07569887  , -9.788759   , -0.00221405481, -0.0018232622, 0.000220420145, -0.174261838, -0.162397191, 0.4389241   , -0.00715038367, -0.0114846528, 2.41594577  , 4.74        , 3           , 11          , 0.005884478 , 0.0058844625
-0.132806748, 0.07364949  , -9.79972649 , -0.000522734248, -0.00110788853, 0.000653212657, -0.174261838, -0.162262365, 0.438991517 , -0.00715568755, -0.0114956843, 2.41595244  , 4.75        , 3           , 12          , 0.07042225  , 0
-0.128766343, 0.0695564   , -9.804233   , -0.000101103433, -0.0006826756, 0.000797107758, -0.174329251, -0.16212754 , 0.4388567   , -0.007156791, -0.0115024541, 2.41596055  , 4.76        , 3           , 50          , 0           , 0
-0.1183511  , 0.07613036  , -9.782883   , 3.9168186E-05, -0.000540939334, 0.000374177063, -0.174194425, -0.162194952, 0.438789278 , -0.007156443, -0.0115078371, 2.41596437  , 4.77        , 3           , 11          , 0.005884478 , 0.0058844625
-0.10280516 , 0.07875027  , -9.810777   , 0.00131209835, -0.0009546926, 0.0002381836, -0.174194425, -0.162194952, 0.438789278 , -0.00714335 , -0.0115173673, 2.41596627  , 4.78        , 3           , 12          , 0.07042225  , 0
-0.13261193 , 0.07737814  , -9.835416   , 0.0008857518, -0.0003944269, 0.0003783447, -0.174464062, -0.1624646  , 0.438789278 , -0.00713453628, -0.0115212835, 2.41597056  , 4.79        , 3           , 50          , 0           , 0
-0.12555626 , 0.07401559  , -9.799669   , -0.0009661347, 0.00013965051, -5.30798279E-05, -0.174261838, -0.162397191, 0.4388567   , -0.00718649244, -0.0115736341, 2.415971    , 4.8         , 3           , 11          , 0.00582431443, 0.0058243
-0.0853037  , 0.0752911642, -9.782633   , -0.00138899637, -3.996638E-06, 8.59965439E-05, -0.174329251, -0.1619253  , 0.438789278 , -0.007200393, -0.0115736686, 2.41597152  , 4.81        , 3           , 12          , 0.07151159  , 0
-0.103119306, 0.0597490072, -9.795036   , -0.00153123308, 0.000135829338, -0.00047952 , -0.174329251, -0.1619253  , 0.438789278 , -0.007215649, -0.0115723452, 2.41596675  , 4.82        , 3           , 50          , 0           , 0
-0.102506571, 0.0719247758, -9.794982   , -0.00195659371, 0.000414527924, -0.00104613625, -0.174261838, -0.162194952, 0.4388567   , -0.00723509537, -0.0115682762, 2.41595626  , 4.83        , 3           , 11          , 0.00582431443, 0.0058243
-0.10925632 , 0.07337761  , -9.800903   , -0.0006850204, 0.000423125923, 8.993977E-05, -0.174464062, -0.161857888, 0.438991517 , -0.007241955, -0.01156404 , 2.41595721  , 4.84        , 3           , 12          , 0.07151159  , 0
-0.116776809, 0.08834084  , -9.79638    , -0.0005424945, 0.0001425154, -5.11044636E-05, -0.174194425, -0.16212754 , 0.438789278 , -0.007247374, -0.0115626175, 2.41595674  , 4.85        , 3           , 50          , 0           , 0
-0.10171932 , 0.09316892  , -9.808448   , -0.00251312763, -0.00113789679, 7.899305E-05, -0.174194425, -0.16212754 , 0.438789278 , -0.007272516, -0.01157399 , 2.41595769  , 4.86        , 3           , 11          , 0.00582431443, 0.0058243
-0.114528455, 0.087408945 , -9.795462   , 0.0005881546, 9.37398E-06 , 0.000377752585, -0.174194425, -0.16212754 , 0.438789278 , -0.007266677, -0.0115738688, 2.4159615   , 4.87        , 3           , 12          , 0.07151159  , 0
-0.104938582, 0.0588709861, -9.79595852 , 0.00297414535, 0.0029820418, 0.0003935028, -0.174261838, -0.16212754 , 0.438991517 , -0.0072369785, -0.01154402 , 2.41596532  , 4.88        , 3           , 50          , 0           , 0
-0.127415687, 0.07176599  , -9.795174   , -0.000127055144, 0.00183477136, 0.000236012056, -0.173992187, -0.162194952, 0.4388567   , -0.00723827444, -0.0115256542, 2.41596723  , 4.89        , 3           , 11          , 0.00582431443, 0.0058243
-0.117001839, 0.0738752857, -9.787853   , 0.0002946643, 7.806466E-06, 0.000376517768, -0.174194425, -0.162262365, 0.4388567   , -0.007271919, -0.0115244025, 2.415971    , 4.9         , 3           , 12          , 0.07260274  , 0
-0.09115675 , 0.07226268  , -9.80077    , 0.000157714574, -0.0008378433, 0.0005158262, -0.174194425, -0.162262365, 0.4388567   , -0.00727040274, -0.0115327435, 2.41597629  , 4.91        , 3           , 50          , 0           , 0
-0.125402674, 0.0550211   , -9.787543   , -0.002948484, -0.0011404223, -0.00105305 , -0.174127012, -0.1619253  , 0.438721865 , -0.00729976641, -0.0115442239, 2.41596627  , 4.92        , 3           , 11          , 0.00576553261, 0.00576551724
-0.140926048, 0.07510921  , -9.802946   , -0.00196269643, -0.000570606964, -0.0009063041, -0.173924774, -0.162060127, 0.43905893  , -0.00731929 , -0.0115499962, 2.41595674  , 4.93        , 3           , 12          , 0.07260274  , 0
-0.127682135, 0.08174198  , -9.808694   , 0.00128184585, 0.000296056765, 0.000522829767, -0.1740596  , -0.162397191, 0.438789278 , -0.00730653247, -0.0115469974, 2.41596246  , 4.94        , 3           , 50          , 0           , 0
-0.102958165, 0.0786263   , -9.773714   , 0.00240814965, 0.00100760977, 0.000670451 , -0.1740596  , -0.162397191, 0.438789278 , -0.007282529, -0.0115368748, 2.41596913  , 4.95        , 3           , 11          , 0.00576553261, 0.00576551724
-0.109745905, 0.07915567  , -9.773312   , 0.00199590623, -0.00124777458, 0.00108881039, -0.174261838, -0.162262365, 0.438721865 , -0.00726269651, -0.0115492707, 2.41597962  , 4.96        , 3           , 12          , 0.07260274  , 0
-0.127457708, 0.07039286  , -9.789303   , 0.00101220957, -0.00223993743, 0.000941413629, -0.1740596  , -0.16212754 , 0.4388567   , -0.00725268573, -0.0115716  , 2.41598916  , 4.97        , 3           , 50          , 0           , 0
-0.117664784, 0.08434857  , -9.813578   , 0.0011404322, 0.000154315145, -0.0010320018, -0.174464062, -0.16212754 , 0.438789278 , -0.007241162, -0.0115701314, 2.41597915  , 4.98        , 3           , 11          , 0.00576553261, 0.00576551724
-0.121365219, 0.0820960253, -9.801864   , 0.0004319478, 0.0005718861, -0.00159971823, -0.174464062, -0.16212754 , 0.438789278 , -0.007236657, -0.0115645286, 2.41596341  , 4.99        , 3           , 12          , 0.07260274  , 0
-0.115489416, 0.07800134  , -9.812232   , -0.0007023666, -0.00113565091, 0.000370332738, -0.174261838, -0.162194952, 0.438721865 , -0.0072913724, -0.011611307, 2.41596818  , 5           , 3           , 50          , 0           , 0
-0.10176684 , 0.08688153  , -9.817061   , -0.00126951875, -0.0005763383, 0.00121617911, -0.1740596  , -0.16212754 , 0.4389241   , -0.007304209, -0.0116169816, 2.41598     , 5.01        , 3           , 11          , 0.00570842251, 0.0057084104
-0.105590478, 0.0742630959, -9.808555   , 0.000414386974, 0.00140607252, -0.000326837937, -0.174127012, -0.161992714, 0.438991517 , -0.00730002532, -0.0116029456, 2.41597676  , 5.02        , 3           , 12          , 0.07369545  , 0
-0.129537642, 0.08485176  , -9.787904   , 0.00154762366, 0.000569014 , -0.00145302189, -0.174127012, -0.161992714, 0.438991517 , -0.00728438 , -0.0115973605, 2.41596246  , 5.03        , 3           , 50          , 0           , 0
-0.111398049, 0.09001817  , -9.77734852 , 0.00155036722, 0.000146669627, -0.000323522923, -0.174127012, -0.1624646  , 0.438789278 , -0.007268839, -0.0115959179, 2.41595864  , 5.04        , 3           , 11          , 0.00570842251, 0.0057084104
-0.100690387, 0.0736929849, -9.79044151 , 0.0009857138, 0.000283636473, 0.00122801622, -0.174127012, -0.16212754 , 0.43905893  , -0.007259124, -0.0115929926, 2.415971    , 5.05        , 3           , 12          , 0.07369545  , 0
-0.130180344, 0.06997361  , -9.789326   , -0.0008426383, -0.00127738738, 0.0007932635, -0.174127012, -0.16212754 , 0.4389241   , -0.0072676423, -0.01160571 , 2.41597915  , 5.06        , 3           , 50          , 0           , 0
-0.135038331, 0.08218293  , -9.780273   , 0.00014601872, -0.00127070164, 0.00108041021, -0.174127012, -0.16212754 , 0.4389241   , -0.007266308, -0.0116183376, 2.41599     , 5.07        , 3           , 11          , 0.00570842251, 0.0057084104
