Acc X       , Acc Y       , Acc Z       , Gyro X      , Gyro Y      , Gyro Z      , Magn X      , Magn Y      , Magn Z      , Euler X     , Euler Y     , Euler Z     , Time        , Status      , LowRate X   , LowRate Y   , LowRate Z    
-0.130219191, 0.07038847  , -9.778477   , -0.00337414583, -0.0009428629, -0.0003117169, -0.178239182, -0.163812861, 0.439665645 , -0.007449037, -0.01166961 , 2.42244649  , 0           , 3           , 11          , 0.0346410163, 0.0346410163
-0.111997977, 0.08008455  , -9.773325   , -0.00296251755, 0.00145330431, -0.0005885906, -0.178508833, -0.163812861, 0.439733058 , -0.00747859245, -0.011655122, 2.42243981  , 0.01        , 3           , 12          , 0.0346410163, 0
-0.114042446, 0.09457216  , -9.780513   , -0.0009873761, 0.00188902288, -0.0001549149, -0.17796953 , -0.163678035, 0.43953082  , -0.007488447, -0.0116362441, 2.42243838  , 0.02        , 3           , 50          , 0           , 0
-0.09742124 , 0.07730733  , -9.803057   , -0.000835010665, -0.000362542778, -0.0001577279, -0.178374   , -0.163947687, 0.439800471 , -0.007496779, -0.0116398819, 2.422437    , 0.03        , 3           , 11          , 0.0346410163, 0.0346410163
-0.107429259, 0.07470829  , -9.800432   , 0.000159837859, -0.00162290037, -1.38026508E-05, -0.178104356, -0.163947687, 0.439396    , -0.0074951807, -0.0116561092, 2.422437    , 0.04        , 3           , 12          , 0.0346410163, 0
-0.125136629, 0.0771078542, -9.781574   , -0.000123567865, -0.001624815, -0.00171034446, -0.178104356, -0.163947687, 0.439396    , -0.00749621773, -0.0116724866, 2.42241979  , 0.05        , 3           , 50          , 0           , 0
-0.116140284, 0.06981185  , -9.790124   , -0.000410258333, -0.0007820301, -0.0018516283, -0.17796953 , -0.1640151  , 0.439665645 , -0.007500105, -0.0116804456, 2.42240167  , 0.06        , 3           , 11          , 0.0346410163, 0.0346410163
-0.128114268, 0.0595206656, -9.774438   , 0.0007128425, 0.000774222834, -7.4802756E-06, -0.178036943, -0.163812861, 0.43953082  , -0.007492975, -0.0116727045, 2.42240119  , 0.07        , 3           , 12          , 0.0346410163, 0
-0.124961771, 0.0541134849, -9.787544   , 0.0009965003, 0.0004945669, -0.0002891348, -0.17796953 , -0.1640151  , 0.43953082  , -0.007482976, -0.0116677806, 2.42239881  , 0.08        , 3           , 50          , 0           , 0
-0.1318814  , 0.07008407  , -9.816005   , 0.000721332442, -0.001055953, -0.0009991819, -0.17796953 , -0.1640151  , 0.43953082  , -0.00747564761, -0.0116784135, 2.42238832  , 0.09        , 3           , 11          , 0.0346410163, 0.0346410163
-0.109199345, 0.0747628137, -9.810389   , -0.000125213861, -0.00106167945, 0.0002682845, -0.178036943, -0.164082512, 0.43953082  , -0.00747693 , -0.0116890119, 2.42239118  , 0.1         , 3           , 12          , 0.0346410163, 0
-0.132492542, 0.0677293241, -9.784834   , -0.0006983499, 0.000623891538, 0.000409522967, -0.17796953 , -0.163678035, 0.439665645 , -0.007483961, -0.0116827423, 2.422395    , 0.11        , 3           , 50          , 0           , 0
-0.130959719, 0.07678176  , -9.798344   , 0.0004319727, 0.0004907485, 0.000273304933, -0.177767292, -0.164149925, 0.439598233 , -0.00747967232, -0.0116778174, 2.42239785  , 0.12        , 3           , 11          , 0.0346410163, 0.0346410163
-0.117411166, 0.07213043  , -9.804134   , 0.000292234821, 0.000208228768, 0.000413481175, -0.177767292, -0.164149925, 0.439598233 , -0.007476799, -0.0116757033, 2.42240214  , 0.13        , 3           , 12          , 0.0346410163, 0
-0.134431243, 0.08408805  , -9.8119     , 0.0001462241, 0.00119275192, 0.0005556102, -0.177767292, -0.163880274, 0.439733058 , -0.00747540034, -0.0116637331, 2.42240739  , 0.14        , 3           , 50          , 0           , 0
-0.09733905 , 0.0800520256, -9.814343   , 0.000570072 , 0.001054832 , -0.000290243683, -0.177565053, -0.1640151  , 0.439733058 , -0.007469665, -0.0116532072, 2.42240453  , 0.15        , 3           , 11          , 0.0346410163, 0.0346410163
-0.09610253 , 0.0817227662, -9.779074   , -0.00196639379, -0.000229404832, -0.001858005, -0.177632466, -0.163947687, 0.439733058 , -0.00748911127, -0.0116556408, 2.422386    , 0.16        , 3           , 12          , 0.0346410163, 0
-0.112854019, 0.07388641  , -9.805449   , -0.00125742 , -0.0006469736, -0.0004426761, -0.177632466, -0.163947687, 0.439733058 , -0.007501635, -0.0116621442, 2.42238164  , 0.17        , 3           , 50          , 0           , 0
-0.113206431, 0.045927126 , -9.809183   , 0.000153809524, -0.0003558564, 0.000411955 , -0.177699879, -0.1640151  , 0.439733058 , -0.007500145, -0.0116656693, 2.42238545  , 0.18        , 3           , 11          , 0.0346410163, 0.0346410163
-0.109224431, 0.0435721278, -9.793796   , -0.000698142452, 0.0004831066, -0.000438306335, -0.177430227, -0.164217338, 0.4399353   , -0.007507076, -0.011660872, 2.42238164  , 0.19        , 3           , 12          , 0.0346410163, 0
-0.112192512, 0.0665364042, -9.769315   , 9.937708E-06, 6.55336844E-05, -0.000576940656, -0.17749764 , -0.164217338, 0.439733058 , -0.007506797, -0.0116602574, 2.42237544  , 0.2         , 3           , 50          , 0           , 0
-0.0952786952, 0.07450429  , -9.782261   , 1.90358951E-05, -0.00162385311, 0.0006918742, -0.17749764 , -0.164217338, 0.439733058 , -0.007506689, -0.0116764428, 2.42238259  , 0.21        , 3           , 11          , 0.03466991  , 0.03466991
-0.1077789  , 0.08059973  , -9.806738   , -0.0004074739, -0.00106358831, 0.000549497956, -0.1772954  , -0.164486989, 0.439665645 , -0.00751082925, -0.0116870366, 2.42238832  , 0.22        , 3           , 12          , 0.0346687958, 0
-0.12726219 , 0.0852808654, -9.78924    , -0.00013381899, 0.000627710135, -0.000152925073, -0.1772954  , -0.164149925, 0.4399353   , -0.00751214847, -0.0116807707, 2.42238641  , 0.23        , 3           , 50          , 0           , 0
-0.109107867, 0.0851030052, -9.799498   , 0.000148074 , 0.0007704034, 0.000131146269, -0.1772954  , -0.164284751, 0.439800471 , -0.007510683, -0.0116730575, 2.42238736  , 0.24        , 3           , 11          , 0.03466991  , 0.03466991
-0.115669578, 0.06625024  , -9.805954   , -0.00126016 , -0.000224628966, -0.001572182, -0.17702575 , -0.164352164, 0.439867884 , -0.00752310036, -0.0116754221, 2.422372    , 0.25        , 3           , 12          , 0.0346687958, 0
-0.127662957, 0.08756007  , -9.794657   , -0.001823375, -0.0005100128, -0.00115144381, -0.17702575 , -0.164352164, 0.439867884 , -0.0075412  , -0.0116806068, 2.42236066  , 0.26        , 3           , 50          , 0           , 0
-0.110465735, 0.05573439  , -9.783359   , -0.000550081255, -0.0007829782, 0.000549273449, -0.176958337, -0.164419577, 0.4400027   , -0.00754676573, -0.0116883945, 2.42236638  , 0.27        , 3           , 11          , 0.03466991  , 0.03466991
-0.116172642, 0.068892926 , -9.785156   , 0.0007192007, -0.000492819468, 0.000131827459, -0.176823512, -0.164419577, 0.440070122 , -0.00753959 , -0.0116933128, 2.42236733  , 0.28        , 3           , 12          , 0.0346687958, 0
-0.102450907, 0.07152351  , -9.809898   , 0.00113849586, 0.000354739925, -0.00014743286, -0.176621273, -0.164824054, 0.440070122 , -0.007528187, -0.0116897766, 2.422366    , 0.29        , 3           , 50          , 0           , 0
-0.12998797 , 0.0754857   , -9.818681   , -0.000409749919, 0.000913672149, 0.0001286631, -0.176621273, -0.164824054, 0.440070122 , -0.00737312529, -0.0115507552, 2.42236447  , 0.3         , 3           , 11          , 0.034753412 , 0.034753412
-0.116409153, 0.0815712959, -9.797309   , -0.000973128132, 0.000628287438, 0.000266864052, -0.176284209, -0.164621815, 0.440070122 , -0.00738288742, -0.011544453, 2.42236733  , 0.31        , 3           , 12          , 0.0347538479, 0
-0.09924516 , 0.0853525549, -9.77411    , 0.0005807533, 0.0004980089, -8.647146E-06, -0.176284209, -0.164756641, 0.440137535 , -0.00737707829, -0.0115394741, 2.42236733  , 0.32        , 3           , 50          , 0           , 0
-0.113765284, 0.0712143257, -9.812698   , 0.00142176077, 0.00177078182, -2.7436613E-06, -0.176419035, -0.164891466, 0.4400027   , -0.00736286025, -0.0115217669, 2.42236733  , 0.33        , 3           , 11          , 0.034753412 , 0.034753412
-0.131987274, 0.0579468347, -9.82916451 , 0.0007213513, 0.0006397469, 0.0001334969, -0.176419035, -0.164891466, 0.4400027   , -0.00735566067, -0.0115153594, 2.42236829  , 0.34        , 3           , 12          , 0.0347538479, 0
-0.106124572, 0.07018537  , -9.801797   , -0.000260787958, -0.0006339805, 0.00026820373, -0.17608197 , -0.165228531, 0.440137535 , -0.00735829864, -0.01152168 , 2.42237115  , 0.35        , 3           , 50          , 0           , 0
-0.08475798 , 0.08250277  , -9.782147   , 0.00100914668, -0.000343818538, 0.0009809077, -0.176149383, -0.1650937  , 0.4404072   , -0.007348321, -0.0115250442, 2.42238069  , 0.36        , 3           , 11          , 0.034753412 , 0.034753412
-0.124831766, 0.07118013  , -9.76442051 , 0.0008625204, 0.0007814875, 0.00126452232, -0.175947145, -0.165295944, 0.4404072   , -0.007339841, -0.0115171364, 2.42239356  , 0.37        , 3           , 12          , 0.0347538479, 0
-0.123471417, 0.06625595  , -9.780704   , -0.00209988444, 5.75181075E-05, 0.000543265953, -0.175947145, -0.165295944, 0.4404072   , -0.007360902, -0.0115165235, 2.42239881  , 0.38        , 3           , 50          , 0           , 0
-0.114804871, 0.08889623  , -9.833877   , -0.00181220751, -0.00106683373, -2.22278486E-05, -0.17608197 , -0.165295944, 0.440272361 , -0.007379023, -0.01152719 , 2.42239881  , 0.39        , 3           , 11          , 0.034753412 , 0.034753412
-0.107733369, 0.0842074454, -9.806271   , 0.00184744573, -0.001047628, -0.000287596049, -0.175879732, -0.165363356, 0.4404072   , -0.007468376, -0.0115893763, 2.422397    , 0.4         , 3           , 12          , 0.03489532  , 0
-0.113821812, 0.0729539245, -9.793256   , 0.00255732425, -0.00174676394, 0.000279686443, -0.1756775  , -0.165430769, 0.440542    , -0.00744283665, -0.0116068218, 2.42239976  , 0.41        , 3           , 50          , 0           , 0
-0.09758983 , 0.07627803  , -9.765096   , 0.00240852567, -0.000199110684, 0.000422683341, -0.1756775  , -0.165430769, 0.440542    , -0.00741880154, -0.0116087822, 2.42240357  , 0.42        , 3           , 11          , 0.01769531  , 0.0176952817
-0.111430295, 0.08418949  , -9.788219   , 0.00325080846, 0.0006513104, -0.0009847514, -0.175475255, -0.165295944, 0.440339774 , -0.00738617731, -0.01160234 , 2.422394    , 0.43        , 3           , 12          , 0.03489532  , 0
-0.114787422, 0.0724695548, -9.780157   , 0.0015559583, 0.000780635 , -0.000286092371, -0.175475255, -0.165363356, 0.4404072   , -0.007370584, -0.0115945525, 2.42239118  , 0.44        , 3           , 50          , 0           , 0
-0.136720449, 0.0551555045, -9.788081   , 0.00141076325, 0.0017651621, 0.0012687241, -0.175340429, -0.165700421, 0.440744251 , -0.00735662133, -0.011576809, 2.42240357  , 0.45        , 3           , 11          , 0.01769531  , 0.0176952817
-0.128546238, 0.0849106759, -9.808687   , 0.00142011337, -0.000205795281, 0.0005593429, -0.175340429, -0.165700421, 0.440744251 , -0.007342485, -0.0115788244, 2.4224093   , 0.46        , 3           , 12          , 0.03489532  , 0
-0.137203231, 0.07737989  , -9.820084   , 0.00113682623, -6.692353E-05, 0.0002757054, -0.175273016, -0.165835246, 0.440272361 , -0.007331148, -0.0115794744, 2.42241216  , 0.47        , 3           , 50          , 0           , 0
-0.112369306, 0.07926316  , -9.795931   , 0.00127082493, 0.0013418555, -0.000145272774, -0.175070778, -0.165970072, 0.440609425 , -0.007318421, -0.011566068, 2.42241025  , 0.48        , 3           , 11          , 0.01769531  , 0.0176952817
-0.09294757 , 0.06694421  , -9.822953   , 0.0004249384, 0.00105456053, -0.0001496575, -0.175003365, -0.1661049  , 0.440609425 , -0.00731415348, -0.0115555339, 2.42240882  , 0.49        , 3           , 12          , 0.03489532  , 0
-0.0933027044, 0.07550931  , -9.819304   , 0.000124779341, 0.000899399631, -9.885662E-06, -0.174733713, -0.166172311, 0.440609425 , -0.00740189664, -0.0116064763, 2.42240834  , 0.5         , 3           , 50          , 0           , 0
-0.09853212 , 0.0668855458, -9.786386   , -0.00198993669, 0.000181162162, -2.0847483E-05, -0.174733713, -0.166172311, 0.440609425 , -0.00742179342, -0.0116046667, 2.42240834  , 0.51        , 3           , 11          , 0.0134351123, 0.0134351067
-0.1041213  , 0.08549568  , -9.799458   , -0.00311361579, -0.00109352171, -0.000451874163, -0.175070778, -0.166307136, 0.4404746   , -0.007452879, -0.011615634, 2.422404    , 0.52        , 3           , 12          , 0.03509209  , 0
-0.141089618, 0.100790828 , -9.791089   , -0.00127993233, -0.0006587593, -0.000442663266, -0.174935952, -0.166239724, 0.44094646  , -0.007465628, -0.0116222557, 2.42239976  , 0.53        , 3           , 50          , 0           , 0
-0.114761822, 0.06668774  , -9.80504    , 0.000119284894, 0.00202566059, 0.000133118869, -0.174733713, -0.166172311, 0.440676838 , -0.00746444939, -0.0116019892, 2.42240071  , 0.54        , 3           , 11          , 0.0134351123, 0.0134351067
-0.123615541, 0.08793617  , -9.78649    , 0.0003992128, 0.00244991621, -0.000571256969, -0.174733713, -0.166172311, 0.440676838 , -0.00746038929, -0.0115775345, 2.422395    , 0.55        , 3           , 12          , 0.03509209  , 0
-0.133458883, 0.09886108  , -9.780643   , 0.0002613213, 0.0017450474, -0.0008555378, -0.175003365, -0.166576788, 0.440744251 , -0.00745767541, -0.0115601476, 2.42238641  , 0.56        , 3           , 50          , 0           , 0
-0.100144476, 0.0434854627, -9.799602   , 0.000266615476, 0.000477999769, -0.00255271513, -0.174868539, -0.166374549, 0.4410813   , -0.00745471334, -0.0115555571, 2.42236066  , 0.57        , 3           , 11          , 0.0134351123, 0.0134351067
-0.0936394557, 0.0511335321, -9.81534    , -0.00183849083, -0.002000015, -0.00101243332, -0.175070778, -0.166374549, 0.44094646  , -0.007472984, -0.0115756337, 2.42235065  , 0.58        , 3           , 12          , 0.03509209  , 0
-0.120508246, 0.07936791  , -9.798704   , -0.0006393112, -0.00149915251, 0.00125422294, -0.175070778, -0.166374549, 0.44094646  , -0.00747952238, -0.01159053 , 2.42236352  , 0.59        , 3           , 50          , 0           , 0
-0.145008042, 0.08095398  , -9.782614   , 0.002946539 , 0.001553821 , 0.000639875536, -0.174935952, -0.1666442  , 0.440879047 , -0.00744934566, -0.0115695763, 2.42236829  , 0.6         , 3           , 11          , 0.0113496883, 0.0113496864
-0.106233969, 0.06340147  , -9.796854   , 0.000757490459, 0.00139823172, -0.0009951381, -0.174868539, -0.166711614, 0.4410813   , -0.00744165527, -0.011555667, 2.42235875  , 0.61        , 3           , 12          , 0.03534281  , 0
-0.100108624, 0.071560435 , -9.828864   , -0.000292982731, -0.000227926925, 5.69438962E-05, -0.1746663  , -0.166711614, 0.44094646  , -0.007444593, -0.0115579423, 2.42235875  , 0.62        , 3           , 50          , 0           , 0
-0.120938092, 0.07760642  , -9.810015   , -0.002830846, -0.00108981284, -0.0003093821, -0.1746663  , -0.166711614, 0.44094646  , -0.00747286668, -0.0115688639, 2.422356    , 0.63        , 3           , 11          , 0.0113496883, 0.0113496864
-0.10511817 , 0.08052249  , -9.793159   , -0.00156437419, -0.000166131053, -0.000160776952, -0.1746663  , -0.1666442  , 0.440879047 , -0.00748849148, -0.01157054 , 2.42235446  , 0.64        , 3           , 12          , 0.03534281  , 0
-0.120387174, 0.0567763075, -9.790211   , 0.000196796609, 0.000620109437, -0.000433890178, -0.174733713, -0.166374549, 0.44094646  , -0.007486474, -0.011564373, 2.42235017  , 0.65        , 3           , 50          , 0           , 0
-0.119379319, 0.05640221  , -9.81642    , -0.00135567214, 0.0005392158, 0.000477004825, -0.174733713, -0.166576788, 0.4410813   , -0.00750008365, -0.0115589434, 2.422355    , 0.66        , 3           , 11          , 0.0113496883, 0.0113496864
-0.130028889, 0.07054269  , -9.824577   , -0.0017806621, 0.0006771303, -0.0006549035, -0.174733713, -0.166576788, 0.4410813   , -0.007517814, -0.0115522221, 2.42234826  , 0.67        , 3           , 12          , 0.03534281  , 0
-0.10810639 , 0.0887409   , -9.811226   , -0.0004370657, 0.000334247859, -8.41155052E-05, -0.174801126, -0.166711614, 0.440879047 , -0.00752217462, -0.0115488879, 2.42234731  , 0.68        , 3           , 50          , 0           , 0
-0.102574266, 0.06606736  , -9.797267   , -0.0002206521, -0.0006497989, -0.000579087, -0.174733713, -0.166307136, 0.4411487   , -0.00752431573, -0.0115554277, 2.42234159  , 0.69        , 3           , 11          , 0.0113496883, 0.0113496864
-0.13200815 , 0.06507152  , -9.801111   , -0.00132934691, -0.000101091566, 0.00040494898, -0.174868539, -0.166576788, 0.4411487   , -0.00748851569, -0.0115707647, 2.422344    , 0.7         , 3           , 12          , 0.03564591  , 0
-0.123197868, 0.0807608142, -9.800979   , -0.00042060588, 0.00187607447, 0.00147178222, -0.174868539, -0.166576788, 0.4411487   , -0.00749289 , -0.0115518942, 2.42235875  , 0.71        , 3           , 50          , 0           , 0
-0.118247308, 0.0829097256, -9.78647    , -0.00020061848, -9.345636E-05, -0.001285008, -0.175003365, -0.166374549, 0.440879047 , -0.00749474857, -0.0115529252, 2.4223454   , 0.72        , 3           , 11          , 0.0101310732, 0.0101310723
-0.12357384 , 0.08886266  , -9.793717   , -0.000265834533, -0.00114980224, -0.00100442709, -0.174868539, -0.166374549, 0.441013873 , -0.007497291, -0.0115644988, 2.42233586  , 0.73        , 3           , 12          , 0.03564591  , 0
-0.103445061, 0.07280142  , -9.784138   , 0.00121516385, -0.0007878184, -0.0009969707, -0.175003365, -0.166509375, 0.4412161   , -0.00748502463, -0.01157245 , 2.42232585  , 0.74        , 3           , 50          , 0           , 0
-0.116437458, 0.05618055  , -9.761254   , 0.0002376366, -0.00297663175, -0.0007224055, -0.174935952, -0.166307136, 0.440744251 , -0.007482568, -0.01160227 , 2.4223187   , 0.75        , 3           , 11          , 0.0101310732, 0.0101310723
-0.097801134, 0.0551283434, -9.781456   , 0.00206570327, -0.00141560938, -0.00078209315, -0.174935952, -0.166307136, 0.440744251 , -0.00746181933, -0.0116164852, 2.422311    , 0.76        , 3           , 12          , 0.03564591  , 0
-0.100697145, 0.0669922456, -9.810356   , 0.0007191893, -0.000228025587, 0.0008380861, -0.174935952, -0.1666442  , 0.441013873 , -0.00745472545, -0.0116187027, 2.42231965  , 0.77        , 3           , 50          , 0           , 0
-0.09118241 , 0.06777839  , -9.808924   , -0.00232919352, 0.00200395775, -0.00115036184, -0.174935952, -0.166374549, 0.4411487   , -0.007477883, -0.0115987482, 2.42230773  , 0.78        , 3           , 11          , 0.0101310732, 0.0101310723
-0.119648449, 0.0779811442, -9.791924   , 0.00155105744, 0.00273413421, -0.0004954598, -0.175003365, -0.166307136, 0.440879047 , -0.007462312, -0.0115714446, 2.42230248  , 0.79        , 3           , 12          , 0.03564591  , 0
-0.130103871, 0.07762353  , -9.783418   , 0.000164046432, 0.00381934457, -0.000218076413, -0.175003365, -0.166307136, 0.440879047 , -0.0074106697, -0.0114688948, 2.42229867  , 0.8         , 3           , 50          , 0           , 0
-0.1183695  , 0.06629574  , -9.810041   , 2.90467488E-05, 0.00248095323, -0.00092713983, -0.17513819 , -0.166239724, 0.441013873 , -0.0074102697, -0.0114441551, 2.42228913  , 0.81        , 3           , 11          , 0.009377102 , 0.0093771
-0.122508235, 0.06852375  , -9.787465   , -0.00306649646, 0.000207422912, -0.0009450974, -0.17513819 , -0.166307136, 0.441013873 , -0.007440828, -0.0114421509, 2.4222796   , 0.82        , 3           , 12          , 0.0359996669, 0
-0.115950778, 0.0815705061, -9.79866    , 4.616395E-05, -0.0009682188, -0.000861821, -0.17513819 , -0.166509375, 0.441013873 , -0.007440268, -0.0114518972, 2.422271    , 0.83        , 3           , 50          , 0           , 0
-0.100996688, 0.08274402  , -9.797185   , -0.00214854954, 0.000284023641, -0.0002343654, -0.17513819 , -0.166509375, 0.441013873 , -0.00746172667, -0.0114490772, 2.42226863  , 0.84        , 3           , 11          , 0.009377102 , 0.0093771
-0.127257258, 0.08439217  , -9.793312   , -0.00122018892, -0.001751114, 0.000402477919, -0.174801126, -0.166509375, 0.440879047 , -0.00747397542, -0.0114665553, 2.422273    , 0.85        , 3           , 12          , 0.0359996669, 0
-0.13322024 , 0.07636473  , -9.800623   , -0.001783059, -0.00196610321, 0.00202410878, -0.175273016, -0.166172311, 0.4410813   , -0.00749204028, -0.0114860646, 2.422293    , 0.86        , 3           , 50          , 0           , 0
-0.1082032  , 0.09401864  , -9.770527   , -0.00200473727, -6.697365E-05, 0.00124907226, -0.174935952, -0.166239724, 0.441283524 , -0.007512232, -0.01148664 , 2.42230582  , 0.87        , 3           , 11          , 0.009377102 , 0.0093771
-0.105807632, 0.06292837  , -9.791882   , -0.00214947271, 0.000495198066, -2.213675E-05, -0.174935952, -0.166239724, 0.441283524 , -0.00753372442, -0.01148169 , 2.42230535  , 0.88        , 3           , 12          , 0.0359996669, 0
-0.118293755, 0.0627863258, -9.839888   , -0.00117233128, 0.002613617 , -0.001568229, -0.175070778, -0.166509375, 0.4410813   , -0.0075452663, -0.0114556728, 2.42229     , 0.89        , 3           , 50          , 0           , 0
-0.1234033  , 0.09257167  , -9.823531   , -0.001653459, -0.000106064137, -0.000727505249, -0.175070778, -0.165970072, 0.4412161   , -0.00756256934, -0.0115148155, 2.4222815   , 0.9         , 3           , 11          , 0.008912837 , 0.008912833
-0.119153529, 0.08202712  , -9.789192   , -0.00107860274, -0.00207319856, -0.0003041027, -0.175070778, -0.166374549, 0.441283524 , -0.007573321, -0.011535571, 2.42227864  , 0.91        , 3           , 12          , 0.0364021845, 0
-0.122070335, 0.0609184   , -9.808285   , -0.00249924161, -0.000463751552, -0.00115580473, -0.175070778, -0.166374549, 0.441283524 , -0.00759818126, -0.0115402946, 2.4222672   , 0.92        , 3           , 50          , 0           , 0
-0.109836146, 0.0603358336, -9.81181    , 0.00095570815, 0.0006155167, -0.000361067127, -0.175003365, -0.166172311, 0.4411487   , -0.00758858165, -0.0115341684, 2.42226338  , 0.93        , 3           , 11          , 0.008912837 , 0.008912833
-0.112422548, 0.07788098  , -9.78735    , 0.000814924657, 0.0005441708, -0.000220565154, -0.174868539, -0.166239724, 0.441350937 , -0.0075804065, -0.0115287434, 2.422261    , 0.94        , 3           , 12          , 0.0364021845, 0
-0.09930417 , 0.078609474 , -9.781371   , -9.939597E-05, -0.000165948833, -8.466142E-05, -0.175070778, -0.166172311, 0.441283524 , -0.00758139044, -0.0115304077, 2.42226     , 0.95        , 3           , 50          , 0           , 0
-0.11642509 , 0.08780728  , -9.773328   , -3.26191148E-05, 0.000468046725, -0.00128414016, -0.175070778, -0.166172311, 0.441283524 , -0.007581568, -0.0115258284, 2.42224717  , 0.96        , 3           , 11          , 0.008912837 , 0.008912833
-0.141502082, 0.07233656  , -9.781719   , -0.000379728153, -0.0007309924, -0.00128763041, -0.174935952, -0.166441962, 0.4410813   , -0.00758521864, -0.0115332333, 2.42223477  , 0.97        , 3           , 12          , 0.0364021845, 0
-0.122176617, 0.06351042  , -9.773924   , -0.00220855442, -0.00208083959, -0.0007331767, -0.1746663  , -0.166172311, 0.441350937 , -0.00760722 , -0.011554094, 2.42222714  , 0.98        , 3           , 50          , 0           , 0
-0.114625111, 0.08018901  , -9.79504    , 0.0004013094, -0.00150004122, -0.000366955268, -0.1746663  , -0.166441962, 0.441350937 , -0.00760316476, -0.0115691228, 2.42222381  , 0.99        , 3           , 11          , 0.008912837 , 0.008912833
-0.111507058, 0.06850503  , -9.819923   , -3.01608234E-05, -0.00107862731, 0.0009732568, -0.1746663  , -0.1661049  , 0.441283524 , -0.007611308, -0.011665714, 2.422232    , 1           , 3           , 12          , 0.0368514657, 0
-0.115813583, 0.0830207244, -9.82758    , -0.000525001, -0.00101157965, 0.000547254342, -0.1746663  , -0.1661049  , 0.441283524 , -0.007616622, -0.0116757881, 2.42223763  , 1.01        , 3           , 50          , 0           , 0
-0.1202527  , 0.0947508961, -9.811746   , -0.00075130997, 0.00173224334, -0.0010034584, -0.174598888, -0.166239724, 0.44141835  , -0.007624017, -0.0116585437, 2.42222762  , 1.02        , 3           , 11          , 0.008636699 , 0.008636697
-0.107524291, 0.0697214454, -9.793221   , -0.00166579743, 0.00116290862, 5.0909126E-05, -0.174396649, -0.166172311, 0.441553175 , -0.00764067937, -0.0116469106, 2.422228    , 1.03        , 3           , 12          , 0.0368514657, 0
-0.08466967 , 0.0482794866, -9.80308    , 0.00186818582, 0.0004828712, 0.00034882332, -0.174329251, -0.166307136, 0.44141835  , -0.00762203755, -0.0116420537, 2.422232    , 1.04        , 3           , 50          , 0           , 0
-0.122489676, 0.06586068  , -9.800584   , 0.000602122047, -0.000440808682, 0.0009065618, -0.174329251, -0.166307136, 0.44141835  , -0.00761612225, -0.0116463946, 2.4222405   , 1.05        , 3           , 11          , 0.008636699 , 0.008636697
-0.111429945, 0.0846361   , -9.786862   , -0.000453371031, -0.00115188316, 0.00111244153, -0.174396649, -0.166307136, 0.441688    , -0.00762078725, -0.0116578285, 2.422252    , 1.06        , 3           , 12          , 0.0368514657, 0
-0.0931797251, 0.08810677  , -9.808855   , 0.000526966469, 0.000403407437, 0.000271824974, -0.174329251, -0.166307136, 0.441957653 , -0.007615548, -0.0116537735, 2.4222548   , 1.07        , 3           , 50          , 0           , 0
-0.100040168, 0.08098926  , -9.815266   , 0.000669655332, 0.000122797734, 0.000413318339, -0.173992187, -0.166374549, 0.4416206   , -0.007608899, -0.0116525143, 2.42225862  , 1.08        , 3           , 11          , 0.008636699 , 0.008636697
-0.120858639, 0.0643544346, -9.761254   , 0.00102299661, 5.47937E-05 , 0.0003442216, -0.173992187, -0.166374549, 0.4416206   , -0.00759871 , -0.01165194 , 2.42226243  , 1.09        , 3           , 12          , 0.0368514657, 0
-0.138526142, 0.0600910522, -9.773611   , 0.00179584208, 0.000191017578, 0.0009133113, -0.173924774, -0.166441962, 0.441822827 , -0.0075853304, -0.011578761, 2.42227     , 1.1         , 3           , 50          , 0           , 0
-0.13785699 , 0.07543697  , -9.77716    , 0.000305971655, 0.00144802907, -0.0005749715, -0.173655123, -0.166172311, 0.441957653 , -0.00758220255, -0.0115643246, 2.42226434  , 1.11        , 3           , 11          , 0.008481823 , 0.00848182
-0.120791957, 0.09379343  , -9.793674   , 0.0005918206, 0.000816418964, -8.019048E-05, -0.1735203  , -0.166307136, 0.44189024  , -0.00757627375, -0.0115561672, 2.42226338  , 1.12        , 3           , 12          , 0.0373454243, 0
-0.118950218, 0.09736777  , -9.789578   , -0.00231389864, 0.00297897076, -0.000160960277, -0.1735203  , -0.166307136, 0.44189024  , -0.00759939151, -0.0115263909, 2.42226148  , 1.13        , 3           , 50          , 0           , 0
-0.114104174, 0.08157797  , -9.807235   , 0.00151753414, -0.000585195, 0.00140524178, -0.1735203  , -0.166576788, 0.44189024  , -0.00758438045, -0.0115321353, 2.4222753   , 1.14        , 3           , 11          , 0.008481823 , 0.00848182
-0.116511777, 0.08148814  , -9.77245    , -4.16933763E-05, 0.000460166 , 0.000269476 , -0.173318058, -0.166307136, 0.442025065 , -0.007584829, -0.0115275132, 2.42227769  , 1.15        , 3           , 12          , 0.0373454243, 0
-0.108722061, 0.09039964  , -9.766026   , 0.001007182 , 0.00236788881, -0.00113534369, -0.172981   , -0.166509375, 0.441957653 , -0.00757462531, -0.01150392 , 2.42226624  , 1.16        , 3           , 50          , 0           , 0
-0.118435912, 0.06981274  , -9.782457   , 0.00172450126, 0.000190536535, -0.000358436519, -0.172981   , -0.166509375, 0.441957653 , -0.007557338, -0.0115020415, 2.422263    , 1.17        , 3           , 11          , 0.008481823 , 0.00848182
-0.09992056 , 0.0864423662, -9.826994   , 0.00194156391, -0.000652721152, 0.001477743 , -0.172846168, -0.166711614, 0.441822827 , -0.007538093, -0.01150846 , 2.42227769  , 1.18        , 3           , 12          , 0.0373454243, 0
-0.123567663, 0.07949431  , -9.825395   , 0.0005181589, 0.00144946319, 6.172554E-05, -0.172846168, -0.166913852, 0.4422273   , -0.007532916, -0.0114939585, 2.42227864  , 1.19        , 3           , 50          , 0           , 0
-0.120441504, 0.0762975439, -9.824932   , -0.0011277  , -0.0008570549, -0.0005841307, -0.1725091  , -0.166711614, 0.442092478 , -0.007661641, -0.0115520414, 2.422272    , 1.2         , 3           , 11          , 0.008402126 , 0.008402122
-0.121896133, 0.07980628  , -9.790126   , -0.000424995524, -0.000148366584, -0.000367850356, -0.1725091  , -0.166711614, 0.442092478 , -0.00766584836, -0.0115535529, 2.42226815  , 1.21        , 3           , 12          , 0.0378819332, 0
-0.139723435, 0.0763061047, -9.760897   , -0.0004924435, -0.0008527584, -0.0009343395, -0.172441691, -0.1671835  , 0.441822827 , -0.00767066563, -0.0115621509, 2.422259    , 1.22        , 3           , 50          , 0           , 0
-0.128461674, 0.0582723022, -9.804277   , -0.0004187003, -0.001485802, -0.0009349865, -0.172239453, -0.166913852, 0.441957653 , -0.00767474575, -0.0115770791, 2.42225     , 1.23        , 3           , 11          , 0.008402126 , 0.008402122
-0.08323446 , 0.0839597061, -9.817836   , 0.00176335673, 0.000148005332, 0.0012673802, -0.17217204 , -0.166913852, 0.44189024  , -0.007657259, -0.0115755014, 2.42226243  , 1.24        , 3           , 12          , 0.0378819332, 0
-0.0928861648, 0.07949179  , -9.797588   , -0.00302951317, -0.00164424744, 0.0006772052, -0.17217204 , -0.166779026, 0.441485763 , -0.00768763432, -0.0115918918, 2.422269    , 1.25        , 3           , 50          , 0           , 0
-0.116673164, 0.0648424   , -9.786532   , -0.00105822389, -0.000504618, 0.000476256362, -0.17217204 , -0.166779026, 0.441485763 , -0.00769827142, -0.0115969023, 2.42227387  , 1.26        , 3           , 11          , 0.008402126 , 0.008402122
-0.134758666, 0.06730778  , -9.785757   , -0.00127688819, 0.0007609897, -0.000511659659, -0.172306865, -0.166576788, 0.441350937 , -0.00771098165, -0.0115893306, 2.422269    , 1.27        , 3           , 12          , 0.0378819332, 0
-0.124248035, 0.07172726  , -9.794697   , 0.0005471818, 0.00309631554, -0.0008526915, -0.172374278, -0.166441962, 0.441350937 , -0.00770540861, -0.011558434, 2.42226052  , 1.28        , 3           , 50          , 0           , 0
-0.109231308, 0.07696868  , -9.795464   , 0.000489695754, 0.000420968921, -0.00106904621, -0.172104627, -0.166307136, 0.440879047 , -0.00770038739, -0.0115543082, 2.422249    , 1.29        , 3           , 11          , 0.008402126 , 0.008402122
-0.123223655, 0.08118627  , -9.793294   , -0.00125090335, -0.001397684, -0.000939579448, -0.172104627, -0.166307136, 0.440879047 , -0.007695003, -0.0116212564, 2.42223763  , 1.3         , 3           , 12          , 0.0384588167, 0
-0.13412264 , 0.07816335  , -9.79565048 , 0.000148236024, 0.00114594935, -0.00170606747, -0.172239453, -0.1661049  , 0.44094646  , -0.00769332144, -0.0116099278, 2.42222047  , 1.31        , 3           , 50          , 0           , 0
-0.121496111, 0.0739556551, -9.796022   , -0.00239245966, 0.0009879792, -0.0009411588, -0.172576517, -0.165835246, 0.440744251 , -0.007717136, -0.0116001209, 2.422211    , 1.32        , 3           , 11          , 0.00836441  , 0.008364408
-0.111897409, 0.0748098344, -9.814929   , -0.0021651017, -0.00210780324, -0.0005917724, -0.172374278, -0.165835246, 0.4404072   , -0.007738721, -0.0116212452, 2.42220521  , 1.33        , 3           , 12          , 0.0384588167, 0
-0.132072434, 0.0587705262, -9.805658   , -0.003645036, -0.00261056749, 3.626342E-05, -0.172374278, -0.165835246, 0.4404072   , -0.00777517725, -0.0116473464, 2.42220616  , 1.34        , 3           , 50          , 0           , 0
-0.133598685, 0.0510624722, -9.789431   , -0.00174550258, -0.00118984946, 0.000259225431, -0.17264393 , -0.165430769, 0.440339774 , -0.00779266329, -0.0116592236, 2.422209    , 1.35        , 3           , 11          , 0.00836441  , 0.008364408
-0.109792739, 0.0737615153, -9.779211   , -0.000471756561, -0.00160359859, 0.00153591938, -0.172441691, -0.165161118, 0.440339774 , -0.00779756159, -0.011675139, 2.42222428  , 1.36        , 3           , 12          , 0.0384588167, 0
-0.0847984552, 0.07309661  , -9.80252552 , 0.00114935392, -0.00124066533, -0.000363093626, -0.172846168, -0.165161118, 0.440137535 , -0.00778602576, -0.0116875758, 2.42222047  , 1.37        , 3           , 50          , 0           , 0
-0.101973772, 0.07421604  , -9.807172   , -5.69476251E-05, 1.82616423E-05, 0.00012770266, -0.172846168, -0.165161118, 0.440137535 , -0.00778661063, -0.0116873812, 2.42222238  , 1.38        , 3           , 11          , 0.00836441  , 0.008364408
-0.116997875, 0.0716467351, -9.795999   , -0.00125506683, -0.000482595817, -0.000302459841, -0.1730484  , -0.164891466, 0.439867884 , -0.00779912574, -0.01169223 , 2.42221951  , 1.39        , 3           , 12          , 0.0384588167, 0
-0.129854366, 0.05468963  , -9.807466   , -0.001163685, -0.0032858022, -0.0008022855, -0.173318058, -0.164486989, 0.439733058 , -0.007722423, -0.0117110228, 2.422209    , 1.4         , 3           , 50          , 0           , 0
-0.114772946, 0.07694478  , -9.769292   , -0.00109871372, -0.00222945772, -0.00150667282, -0.1735203  , -0.164419577, 0.439665645 , -0.0077332356, -0.0117334342, 2.42219377  , 1.41        , 3           , 11          , 0.008345043 , 0.008345042
-0.102151662, 0.0655912459, -9.791389   , 0.0007923518, 0.0009510433, -0.0008571923, -0.1735203  , -0.164419577, 0.439665645 , -0.00772521039, -0.0117239915, 2.42218518  , 1.42        , 3           , 12          , 0.03907392  , 0
-0.12933889 , 0.09393979  , -9.8073     , 0.002484796 , 0.00159602938, 0.000917544938, -0.173722535, -0.164621815, 0.43953082  , -0.00770046841, -0.01170796 , 2.42219472  , 1.43        , 3           , 50          , 0           , 0
-0.128557861, 0.0817768   , -9.815932   , 0.00134533423, 0.003418559 , -0.000285686518, -0.1740596  , -0.164352164, 0.439261168 , -0.00768697867, -0.0116737979, 2.42219138  , 1.44        , 3           , 11          , 0.008345043 , 0.008345042
-0.150597841, 0.0910829753, -9.822841   , 0.00339124538, 0.00385475578, 0.000430855667, -0.174261838, -0.164082512, 0.439328581 , -0.007653112, -0.0116352178, 2.4221952   , 1.45        , 3           , 12          , 0.03907392  , 0
-0.12050686 , 0.0838325545, -9.784675   , -0.00147122622, 0.00185085193, -0.000230608159, -0.174261838, -0.164082512, 0.439328581 , -0.00766779575, -0.0116167283, 2.42219281  , 1.46        , 3           , 50          , 0           , 0
-0.109967083, 0.0597833768, -9.781529   , -0.00358495931, 0.0009918332, 0.000252653554, -0.174733713, -0.163947687, 0.4389241   , -0.00770367356, -0.01160679 , 2.4221952   , 1.47        , 3           , 11          , 0.008345043 , 0.008345042
-0.111033119, 0.0769975   , -9.797737   , -0.002806173, 0.0005043451, -0.000309559138, -0.175070778, -0.163745448, 0.439193755 , -0.00773169938, -0.01160177 , 2.42219186  , 1.48        , 3           , 12          , 0.03907392  , 0
-0.131306   , 0.08981753  , -9.782473   , -0.00209680246, -0.000265186478, -0.00122570689, -0.175003365, -0.163745448, 0.438991517 , -0.007752525, -0.0116045177, 2.42218     , 1.49        , 3           , 50          , 0           , 0
-0.1195343  , 0.06118647  , -9.763065   , -7.735844E-05, -0.0001499096, -0.00100458157, -0.175003365, -0.1634758  , 0.438654453 , -0.00778466463, -0.01173303 , 2.42217     , 1.5         , 3           , 11          , 0.008328974 , 0.00832897052
-0.120163709, 0.0614208579, -9.829964   , 0.00013538127, -0.000218865636, -1.48213649E-05, -0.175003365, -0.1634758  , 0.438654453 , -0.00778330956, -0.01173522 , 2.42216945  , 1.51        , 3           , 12          , 0.03972509  , 0
-0.121775053, 0.07454819  , -9.836701   , -0.00233140425, -0.00115066476, -0.000169023435, -0.175407842, -0.1634758  , 0.4389241   , -0.007806604, -0.01174674 , 2.422168    , 1.52        , 3           , 50          , 0           , 0
-0.1126488  , 0.08164064  , -9.830725   , -0.0007935949, 0.00195705472, -0.000510178856, -0.17561008 , -0.1634758  , 0.4388567   , -0.007814479, -0.01172721 , 2.42216229  , 1.53        , 3           , 11          , 0.008328974 , 0.00832897052
-0.110438652, 0.08201684  , -9.816244   , -0.0019204329, 0.00138628529, -0.0003750457, -0.175879732, -0.1634758  , 0.4388567   , -0.007833638, -0.0117133781, 2.42215848  , 1.54        , 3           , 12          , 0.03972509  , 0
-0.1170415  , 0.07830667  , -9.76388    , -0.00191096368, -0.000443885772, 0.0003284773, -0.175879732, -0.1634758  , 0.4388567   , -0.007852787, -0.01171779 , 2.42216229  , 1.55        , 3           , 50          , 0           , 0
-0.117189676, 0.09953725  , -9.77012    , -0.00275258278, -0.00171666127, -0.000736941758, -0.1757449  , -0.163408384, 0.438721865 , -0.007880228, -0.0117350128, 2.42215466  , 1.56        , 3           , 11          , 0.008328974 , 0.00832897052
-0.114092454, 0.0873900354, -9.79139    , -0.0003616944, 0.0003409219, -8.68925563E-05, -0.175812319, -0.163138732, 0.438721865 , -0.007883835, -0.0117316106, 2.42215371  , 1.57        , 3           , 12          , 0.03972509  , 0
-0.125370547, 0.0755051151, -9.84034    , 0.000333491073, 0.00238704029, -0.001422507, -0.17561008 , -0.1630039  , 0.438519627 , -0.007880331, -0.0117078545, 2.42213941  , 1.58        , 3           , 50          , 0           , 0
-0.128657132, 0.07098394  , -9.826372   , 0.0006949853, 0.0009112162, 0.000554623257, -0.17561008 , -0.1630039  , 0.438519627 , -0.007873445, -0.0116986986, 2.42214513  , 1.59        , 3           , 11          , 0.008328974 , 0.00832897052
-0.1080799  , 0.06428724  , -9.785564   , 0.00272797374, -0.000629637449, -0.000709933462, -0.175812319, -0.163071319, 0.438654453 , -0.007871245, -0.0117958952, 2.422138    , 1.6         , 3           , 12          , 0.0404102281, 0
-0.10042    , 0.06907638  , -9.760628   , 0.00039973954, -0.00113813684, -0.00185170758, -0.175879732, -0.162801668, 0.43858704  , -0.007867031, -0.011807424, 2.42211938  , 1.61        , 3           , 50          , 0           , 0
-0.1073912  , 0.07830994  , -9.798157   , -0.00185123284, -0.00270202081, -0.000522576738, -0.175812319, -0.162734255, 0.438721865 , -0.007885484, -0.0118344836, 2.42211461  , 1.62        , 3           , 11          , 0.008307722 , 0.008307721
-0.114693493, 0.09835982  , -9.830672   , 0.000481880328, -0.003178999, 0.000617678335, -0.175812319, -0.162734255, 0.438721865 , -0.00788074 , -0.011866224, 2.42212129  , 1.63        , 3           , 12          , 0.0404102281, 0
-0.113312893, 0.103271753 , -9.820246   , 0.0007470897, 0.00020168937, -0.000223409734, -0.17608197 , -0.162666842, 0.438519627 , -0.007873243, -0.0118642254, 2.42211843  , 1.64        , 3           , 50          , 0           , 0
-0.128339872, 0.106949046 , -9.788255   , -0.00137596822, 0.00110244961, -0.0007969513, -0.1767561  , -0.162599429, 0.438654453 , -0.007886907, -0.0118532628, 2.4221108   , 1.65        , 3           , 11          , 0.008307722 , 0.008307721
-0.123663269, 0.08388035  , -9.787863   , 0.000105723557, 0.00146443641, 0.000411289075, -0.176149383, -0.162869081, 0.4384522   , -0.007885897, -0.0118385861, 2.42211461  , 1.66        , 3           , 12          , 0.0404102281, 0
-0.108611904, 0.05797946  , -9.786499   , 0.00187308621, 0.0009836337, -5.045581E-06, -0.176149383, -0.162869081, 0.4384522   , -0.007867165, -0.01182875 , 2.42211461  , 1.67        , 3           , 50          , 0           , 0
-0.113838375, 0.07070874  , -9.79643    , 0.00222294242, 0.00161954237, -7.30575557E-05, -0.17608197 , -0.162599429, 0.4384522   , -0.007844926, -0.0118125649, 2.42211366  , 1.68        , 3           , 11          , 0.008307722 , 0.008307721
-0.111273587, 0.109237924 , -9.856816   , 0.00117651362, -0.001062491, -0.00107099954, -0.176149383, -0.162599429, 0.43811515  , -0.007833036, -0.0118232705, 2.42210317  , 1.69        , 3           , 12          , 0.0404102281, 0
-0.1305776  , 0.0668994859, -9.812845   , 0.0009317929, -0.00161407958, 5.89559932E-05, -0.1762168  , -0.162397191, 0.438249975 , -0.007954886, -0.01182409 , 2.422105    , 1.7         , 3           , 50          , 0           , 0
-0.121339485, 0.0540709533, -9.787516   , 0.000147144427, -3.326477E-07, 0.000128463871, -0.1762168  , -0.162397191, 0.438249975 , -0.00795343053, -0.0118240835, 2.422107    , 1.71        , 3           , 11          , 0.00827565  , 0.008275649
-0.107076921, 0.07506795  , -9.774665   , -0.00181582535, -0.002688567, 0.001457176 , -0.176351622, -0.162666842, 0.437980324 , -0.00797176547, -0.0118508507, 2.42212129  , 1.72        , 3           , 12          , 0.0411272757, 0
-0.0991512  , 0.08632138  , -9.793992   , -0.00111174188, -0.00247262279, -0.000163796547, -0.17608197 , -0.1624646  , 0.4383174   , -0.007982864, -0.01187559 , 2.42212033  , 1.73        , 3           , 50          , 0           , 0
-0.116729274, 0.04426483  , -9.839048   , -0.000478413334, -0.00204597786, -0.000230817066, -0.1762168  , -0.162801668, 0.4383848   , -0.007987625, -0.0118960673, 2.422118    , 1.74        , 3           , 11          , 0.00827565  , 0.008275649
-0.112307608, 0.07440329  , -9.826686   , -0.00168709119, -0.000364704756, -0.0002338103, -0.1762168  , -0.1629365  , 0.4383174   , -0.008004466, -0.0118997339, 2.42211556  , 1.75        , 3           , 12          , 0.0411272757, 0
-0.110709496, 0.073763065 , -9.776505   , -0.00402203249, 0.00060501555, -0.000313790573, -0.1762168  , -0.1629365  , 0.4383174   , -0.00804465 , -0.01189371 , 2.4221127   , 1.76        , 3           , 50          , 0           , 0
-0.1231127  , 0.07019156  , -9.744977   , -0.00127306092, 0.00139793754, -0.00178307912, -0.176351622, -0.162801668, 0.438249975 , -0.008057166, -0.0118798744, 2.42209458  , 1.77        , 3           , 11          , 0.00827565  , 0.008275649
-0.10919752 , 0.08235225  , -9.786402   , 0.00113071862, 0.0009918298, 6.395753E-05, -0.176419035, -0.163071319, 0.4383848   , -0.008045867, -0.0118699512, 2.422095    , 1.78        , 3           , 12          , 0.0411272757, 0
-0.1286417  , 0.07679902  , -9.811434   , 0.00133770413, 0.00183795439, -0.00106390275, -0.176014557, -0.162532017, 0.438249975 , -0.008032361, -0.0118516572, 2.422084    , 1.79        , 3           , 50          , 0           , 0
-0.121803164, 0.07943526  , -9.814081   , 0.000472489279, 0.00133647432, -0.00106956589, -0.176014557, -0.162532017, 0.438249975 , -0.007963694, -0.0118415961, 2.42207265  , 1.8         , 3           , 11          , 0.008231901 , 0.0082319
-0.124311194, 0.09704392  , -9.808603   , -1.710473E-05, 0.000418045878, -0.000861377746, -0.176621273, -0.162666842, 0.4383848   , -0.007963762, -0.0118374852, 2.422064    , 1.81        , 3           , 12          , 0.041874256 , 0
-0.11355938 , 0.09771583  , -9.777784   , -0.0004981938, -0.00211937912, 0.000191927713, -0.176351622, -0.162666842, 0.438519627 , -0.00796876848, -0.0118586626, 2.422066    , 1.82        , 3           , 50          , 0           , 0
-0.09707304 , 0.07453917  , -9.786343   , 0.0007716035, -0.00204039668, -0.00114409055, -0.176351622, -0.1629365  , 0.4383848   , -0.007960918, -0.0118791554, 2.42205453  , 1.83        , 3           , 11          , 0.008231901 , 0.0082319
-0.132935941, 0.09534182  , -9.80913    , -0.00376534788, 0.00158938952, -0.00115952035, -0.176351622, -0.1629365  , 0.4383848   , -0.007998433, -0.0118633537, 2.422043    , 1.84        , 3           , 12          , 0.041874256 , 0
-0.140739515, 0.09043626  , -9.799266   , -0.00318327663, -0.00178556866, -0.000314481178, -0.17655386 , -0.162801668, 0.4384522   , -0.008030231, -0.0118812341, 2.42204022  , 1.85        , 3           , 50          , 0           , 0
-0.1340282  , 0.0497475974, -9.799383   , -0.000364169333, -0.0009217789, -0.001995235, -0.17655386 , -0.162599429, 0.4384522   , -0.008033635, -0.0118906116, 2.4220202   , 1.86        , 3           , 11          , 0.008231901 , 0.0082319
-0.08913335 , 0.0595433936, -9.782728   , -0.00405056262, 0.00215060986, -0.00115996948, -0.176486447, -0.163071319, 0.43858704  , -0.008074002, -0.0118691986, 2.42200875  , 1.87        , 3           , 12          , 0.041874256 , 0
-0.09190778 , 0.05461867  , -9.784576   , 0.000772834232, -0.00232196273, -0.00142706186, -0.176486447, -0.163071319, 0.43858704  , -0.008066107, -0.0118925339, 2.42199445  , 1.88        , 3           , 50          , 0           , 0
-0.131064072, 0.07178734  , -9.788874   , -0.00402112538, -0.00376225542, -0.0008865445, -0.176419035, -0.163206145, 0.4384522   , -0.008106214, -0.0119302273, 2.42198586  , 1.89        , 3           , 11          , 0.008231901 , 0.0082319
-0.1286158  , 0.07905175  , -9.810519   , -0.004505252, -0.00263400935, -0.000605905545, -0.176688686, -0.1629365  , 0.4383848   , -0.00803761 , -0.0119489431, 2.42197871  , 1.9         , 3           , 12          , 0.0426492542, 0
-0.112786539, 0.0819753855, -9.795922   , 0.00168845907, 0.00134992041, -0.0008533954, -0.176419035, -0.163206145, 0.4383848   , -0.008020621, -0.0119355135, 2.42196965  , 1.91        , 3           , 50          , 0           , 0
-0.10642428 , 0.08058077  , -9.805824   , -0.0005734915, 0.00161620032, -0.00284125935, -0.176419035, -0.163206145, 0.4383848   , -0.008026015, -0.0119195832, 2.42194152  , 1.92        , 3           , 11          , 0.008176476 , 0.008176472
-0.11901404 , 0.08660364  , -9.808607   , 0.001139177 , -0.00146954251, 0.001965006 , -0.176419035, -0.162801668, 0.4384522   , -0.00801486 , -0.0119341183, 2.421961    , 1.93        , 3           , 12          , 0.0426492542, 0
-0.106703646, 0.0607150048, -9.801389   , 0.000853887934, -0.00118989451, -0.000578714069, -0.176621273, -0.1629365  , 0.438519627 , -0.008006252, -0.0119460626, 2.42195535  , 1.94        , 3           , 50          , 0           , 0
-0.0924519  , 0.0745615959, -9.808906   , -2.06944533E-05, 0.00415410846, -0.00198710756, -0.176351622, -0.163206145, 0.438519627 , -0.008006219, -0.011904682, 2.42193532  , 1.95        , 3           , 11          , 0.008176476 , 0.008176472
-0.115288168, 0.08798412  , -9.829364   , -0.00169164618, -0.000362386461, 0.000258347543, -0.176351622, -0.163206145, 0.438519627 , -0.008023167, -0.0119082853, 2.42193818  , 1.96        , 3           , 12          , 0.0426492542, 0
-0.132925257, 0.06462646  , -9.799765   , 0.00141316536, -5.98141378E-05, -0.0005743445, -0.176419035, -0.163071319, 0.4383174   , -0.008008967, -0.01190893 , 2.42193246  , 1.97        , 3           , 50          , 0           , 0
-0.123685494, 0.05403102  , -9.767647   , 0.000562681758, 0.000779155933, 0.00111823133, -0.176486447, -0.1629365  , 0.438654453 , -0.008003473, -0.0119010471, 2.42194343  , 1.98        , 3           , 11          , 0.008176476 , 0.008176472
-0.110771477, 0.0630004555, -9.795985   , 0.000286572438, -0.000630582566, -1.5405356E-05, -0.17655386 , -0.1629365  , 0.4384522   , -0.008000606, -0.0119073531, 2.42194343  , 1.99        , 3           , 12          , 0.0426492542, 0
-0.127023563, 0.06278451  , -9.809218   , -0.001604996, 0.00105777208, -0.000588122639, -0.176351622, -0.163138732, 0.4384522   , -0.007887613, -0.0118799023, 2.4219358   , 2           , 3           , 50          , 0           , 0
-0.10711024 , 0.06522124  , -9.798209   , -0.000175733323, -0.00202988531, 0.00252160057, -0.176351622, -0.163138732, 0.4384522   , -0.007889672, -0.0119000021, 2.421961    , 2.01        , 3           , 11          , 0.008113321 , 0.008113316
-0.114858747, 0.06928729  , -9.772941   , -0.00328405946, -0.00205090269, -0.000318260049, -0.176823512, -0.1630039  , 0.4384522   , -0.007922477, -0.011920535, 2.42195821  , 2.02        , 3           , 12          , 0.0434504338, 0
-0.132010341, 0.0646233857, -9.802017   , 8.21054E-05 , 0.002477055 , -0.00142566382, -0.176419035, -0.1630039  , 0.43858704  , -0.007921484, -0.0118958782, 2.421944    , 2.03        , 3           , 50          , 0           , 0
-0.105484948, 0.0507661551, -9.79916    , -0.00273847021, 0.00161325769, -0.00228774757, -0.176621273, -0.162869081, 0.4383848   , -0.007948595, -0.0118799284, 2.421921    , 2.04        , 3           , 11          , 0.008113321 , 0.008113316
-0.116355769, 0.05312228  , -9.791098   , -0.00385695137, -0.0003653306, 0.000246784417, -0.176621273, -0.162869081, 0.4383848   , -0.007987194, -0.0118835624, 2.421923    , 2.05        , 3           , 12          , 0.0434504338, 0
-0.118287437, 0.0739501938, -9.80549049 , 0.000376826269, 0.000226449789, 0.0005499438, -0.176486447, -0.163273558, 0.43858704  , -0.007983491, -0.0118812546, 2.42192864  , 2.06        , 3           , 50          , 0           , 0
-0.120252825, 0.056885168 , -9.822751   , -0.0010227618, -0.00231718575, 0.000539453758, -0.176419035, -0.163138732, 0.4388567   , -0.007993784, -0.01190438 , 2.42193437  , 2.07        , 3           , 11          , 0.008113321 , 0.008113316
-0.107723072, 0.08555484  , -9.804457   , -0.0030129482, 0.000203527045, -0.000596009137, -0.176351622, -0.163340971, 0.43858704  , -0.008023842, -0.0119023928, 2.42192864  , 2.08        , 3           , 12          , 0.0434504338, 0
-0.101196468, 0.104825489 , -9.788056   , -0.000761156261, 0.00162662892, -0.001713454, -0.176351622, -0.163340971, 0.43858704  , -0.008031248, -0.0118862642, 2.421911    , 2.09        , 3           , 50          , 0           , 0
-0.106888488, 0.08280859  , -9.795875   , 0.0004262306, 0.00223127  , -0.00199034857, -0.176149383, -0.163543209, 0.43858704  , -0.007940359, -0.0118158385, 2.42188954  , 2.1         , 3           , 11          , 0.008037106 , 0.0080371
-0.135535717, 0.0696542859, -9.809708   , -0.00042302208, 0.00278867432, -0.000580744, -0.176284209, -0.163206145, 0.438789278 , -0.007944519, -0.0117879994, 2.42188382  , 2.11        , 3           , 12          , 0.0442760549, 0
-0.1103324  , 0.0620913245, -9.795534   , -0.000397351774, -0.002561066, -0.00200167624, -0.176419035, -0.163408384, 0.438654453 , -0.007948258, -0.0118137682, 2.42186379  , 2.12        , 3           , 50          , 0           , 0
-0.123853341, 0.07390664  , -9.773442   , 0.0009987069, 0.0008272678, -0.000859734369, -0.176419035, -0.163408384, 0.438654453 , -0.007938169, -0.0118055642, 2.42185521  , 2.13        , 3           , 11          , 0.008037106 , 0.0080371
-0.134753183, 0.06463413  , -9.79571152 , -0.000120011537, -0.00143289356, -0.00115101109, -0.17655386 , -0.163543209, 0.43858704  , -0.007939234, -0.0118199866, 2.42184377  , 2.14        , 3           , 12          , 0.0442760549, 0
-0.117844954, 0.0725974739, -9.807301   , 0.00213275943, -9.786803E-06, -0.0005732309, -0.176149383, -0.163206145, 0.438789278 , -0.007917837, -0.01182013 , 2.421838    , 2.15        , 3           , 50          , 0           , 0
-0.135760754, 0.09037627  , -9.798775   , 0.0004281141, 0.00194970728, -0.00114317 , -0.17608197 , -0.163543209, 0.4389241   , -0.007913421, -0.0118007232, 2.4218266   , 2.16        , 3           , 11          , 0.008037106 , 0.0080371
-0.1180329  , 0.0528057776, -9.825011   , -0.000128049258, 0.000256498548, -0.0005833325, -0.17608197 , -0.163543209, 0.4389241   , -0.007914633, -0.0117982049, 2.4218204   , 2.17        , 3           , 12          , 0.0442760549, 0
-0.114392087, 0.05768813  , -9.81366348 , 0.00297790486, 0.000559076434, 0.0005617375, -0.176149383, -0.163408384, 0.438654453 , -0.007884919, -0.0117925694, 2.42182612  , 2.18        , 3           , 50          , 0           , 0
-0.108699307, 0.08327646  , -9.794531   , 0.001562819 , 0.00111265585, 0.000273483165, -0.176284209, -0.163273558, 0.4389241   , -0.007869322, -0.0117814234, 2.42182851  , 2.19        , 3           , 11          , 0.008037106 , 0.0080371
-0.120728485, 0.0689234   , -9.778411   , -0.0003506026, 0.00050749036, -0.000867775641, -0.176149383, -0.163273558, 0.4388567   , -0.0077816816, -0.0118188644, 2.421819    , 2.2         , 3           , 12          , 0.0451244526, 0
-0.13730517 , 0.0706020445, -9.816949   , -0.0009133208, -5.946285E-05, -0.00200142735, -0.176149383, -0.163273558, 0.4388567   , -0.007790579, -0.0118196169, 2.421799    , 2.21        , 3           , 50          , 0           , 0
-0.11818406 , 0.07760476  , -9.819034   , 0.0024657913, 0.00221598288, -4.39048745E-06, -0.176149383, -0.163678035, 0.438654453 , -0.0077659185, -0.011797457, 2.421798    , 2.22        , 3           , 11          , 0.00795448851, 0.007954484
-0.107578695, 0.06164305  , -9.805912   , 0.0005075036, -0.00173930172, -0.00143237133, -0.1762168  , -0.163206145, 0.438721865 , -0.007760675, -0.01181496 , 2.42178416  , 2.23        , 3           , 12          , 0.0451244526, 0
-0.102678493, 0.0561632   , -9.803637   , 0.00220288034, -0.00172783807, -1.1782482E-05, -0.176486447, -0.163273558, 0.438789278 , -0.007738647, -0.0118322391, 2.42178416  , 2.24        , 3           , 50          , 0           , 0
-0.111509174, 0.07832301  , -9.787793   , -5.341999E-05, -0.00230624643, 0.0005418892, -0.17608197 , -0.163206145, 0.438654453 , -0.00773924869, -0.01185526 , 2.42179     , 2.25        , 3           , 11          , 0.00795448851, 0.007954484
-0.126251936, 0.09071125  , -9.797345   , -0.0009052976, -0.00118571147, 0.00223489921, -0.17608197 , -0.163206145, 0.438654453 , -0.007748567, -0.011866943, 2.4218123   , 2.26        , 3           , 12          , 0.0451244526, 0
-0.137647018, 0.0769461542, -9.823705   , -0.00175469893, -0.00119145168, -0.00144203892, -0.1762168  , -0.163340971, 0.4389241   , -0.007765944, -0.0118789682, 2.421798    , 2.27        , 3           , 50          , 0           , 0
-0.105360791, 0.08739336  , -9.822511   , -0.0023189  , -0.00119526847, -0.000314522826, -0.176014557, -0.163340971, 0.4389241   , -0.007789097, -0.0118909469, 2.42179513  , 2.28        , 3           , 11          , 0.00795448851, 0.007954484
-0.1086958  , 0.08551104  , -9.788195   , -0.000641067163, 0.00219497248, -0.000301414, -0.175947145, -0.163408384, 0.4389241   , -0.00779547 , -0.01186902 , 2.42179179  , 2.29        , 3           , 12          , 0.0451244526, 0
-0.141575128, 0.06424305  , -9.789889   , 0.0004916822, -5.227953E-05, 0.000265456853, -0.175947145, -0.163408384, 0.4389241   , -0.007803579, -0.0118731791, 2.42179418  , 2.3         , 3           , 50          , 0           , 0
-0.11830698 , 0.07527341  , -9.796445   , -0.000920526159, -0.000343401451, -0.002284399, -0.176149383, -0.163340971, 0.4389241   , -0.007812512, -0.0118767917, 2.42177129  , 2.31        , 3           , 11          , 0.007866212 , 0.007866206
-0.0981304348, 0.05568006  , -9.809932   , -6.497052E-05, -0.00174549059, -2.23180978E-05, -0.176419035, -0.163138732, 0.4389241   , -0.007813162, -0.0118942475, 2.42177129  , 2.32        , 3           , 12          , 0.0459940471, 0
-0.10386689 , 0.06926103  , -9.803139   , 0.00219804817, -0.00229333714, 0.001400037 , -0.176351622, -0.163408384, 0.4389241   , -0.00779134966, -0.0119170714, 2.42178559  , 2.33        , 3           , 50          , 0           , 0
-0.09874065 , 0.0795865953, -9.805317   , -0.00290432083, 0.0010510548, -0.00200891029, -0.176351622, -0.163408384, 0.4389241   , -0.007820155, -0.0119067188, 2.42176557  , 2.34        , 3           , 11          , 0.007866212 , 0.007866206
-0.09988883 , 0.0691345558, -9.779606   , -0.00289293122, -0.000919893, 0.0008134268, -0.176486447, -0.1634758  , 0.438789278 , -0.00784918 , -0.0119158523, 2.42177367  , 2.35        , 3           , 12          , 0.0459940471, 0
-0.119644836, 0.0828939155, -9.776989   , -0.000341495033, -0.00287365937, 0.0005397042, -0.176419035, -0.1634758  , 0.438991517 , -0.007852662, -0.0119445473, 2.421779    , 2.36        , 3           , 50          , 0           , 0
-0.0969630554, 0.07195018  , -9.821607   , -0.00035674026, -5.80149062E-05, -0.00171625614, -0.176284209, -0.163273558, 0.4389241   , -0.007856024, -0.0119452616, 2.42176175  , 2.37        , 3           , 11          , 0.007866212 , 0.007866206
-0.103372954, 0.07196714  , -9.80448    , -0.0003538779, -0.0003395729, 0.0008261471, -0.176284209, -0.163273558, 0.4389241   , -0.007859663, -0.011948592, 2.42177033  , 2.38        , 3           , 12          , 0.0459940471, 0
-0.122103654, 0.09384717  , -9.804984   , -0.0006399085, 0.00022164332, -0.000586989161, -0.176486447, -0.163543209, 0.438721865 , -0.007865993, -0.011946422, 2.42176461  , 2.39        , 3           , 50          , 0           , 0
-0.1270509  , 0.0712429956, -9.775286   , -0.00317188026, -0.0008631685, -0.000317663449, -0.17655386 , -0.163678035, 0.4389241   , -0.00789109 , -0.01186123 , 2.4217608   , 2.4         , 3           , 11          , 0.00777423242, 0.00777422544
-0.129316568, 0.06635831  , -9.79069    , -0.0003477755, -0.0008440697, -0.0005870316, -0.176419035, -0.163408384, 0.4388567   , -0.007894498, -0.0118697165, 2.421755    , 2.41        , 3           , 12          , 0.0468833633, 0
-0.108051978, 0.0540438071, -9.825381   , 0.0005021298, -0.00140147074, -0.000866486167, -0.176419035, -0.163408384, 0.4388567   , -0.007889375, -0.0118837981, 2.42174649  , 2.42        , 3           , 50          , 0           , 0
-0.127240345, 0.0443084762, -9.815625   , 0.000207809586, 0.00113070814, 0.000266252027, -0.176621273, -0.163543209, 0.4389241   , -0.007887327, -0.0118724722, 2.42174935  , 2.43        , 3           , 11          , 0.00777423242, 0.00777422544
-0.120283224, 0.05864592  , -9.809637   , -0.002619736, 0.00167473627, -0.0005936617, -0.1767561  , -0.163273558, 0.4389241   , -0.007913455, -0.0118557708, 2.42174363  , 2.44        , 3           , 12          , 0.0468833633, 0
-0.1223352  , 0.08071542  , -9.790578   , 0.00218628044, 0.0005809416, -0.001985697, -0.176958337, -0.1634758  , 0.438789278 , -0.007891355, -0.0118501186, 2.4217236   , 2.45        , 3           , 50          , 0           , 0
-0.11999011 , 0.0544940643, -9.783889   , -0.000909514842, -0.00141101819, -2.54586048E-05, -0.176958337, -0.1634758  , 0.438789278 , -0.007900449, -0.0118642282, 2.42172313  , 2.46        , 3           , 11          , 0.00777423242, 0.00777422544
-0.105719961, 0.07058736  , -9.788685   , -0.001192268, -0.00141292973, -0.000591850257, -0.176890925, -0.163610622, 0.4388567   , -0.00791230053, -0.0118784066, 2.42171741  , 2.47        , 3           , 12          , 0.0468833633, 0
-0.10813988 , 0.09139186  , -9.794492   , -0.00175170868, -0.00254301052, -0.000878757332, -0.177160576, -0.163543209, 0.4389241   , -0.007929715, -0.0119039044, 2.42170882  , 2.48        , 3           , 50          , 0           , 0
-0.124246337, 0.101559974 , -9.809941   , 0.0013498998, -0.00139573845, -1.49231346E-05, -0.177160576, -0.163408384, 0.4389241   , -0.007916216, -0.0119178621, 2.42170882  , 2.49        , 3           , 11          , 0.00777423242, 0.00777422544
-0.09628371 , 0.09355326  , -9.807501   , 0.00305439625, 0.000307902461, -4.617643E-06, -0.177093163, -0.163947687, 0.4389241   , -0.007855255, -0.0119101387, 2.42170835  , 2.5         , 3           , 12          , 0.0477909856, 0
-0.09480054 , 0.0709487349, -9.799898   , -0.00429246854, 0.000821368769, -0.00173321483, -0.177093163, -0.163947687, 0.4389241   , -0.007897973, -0.0119020641, 2.42169118  , 2.51        , 3           , 50          , 0           , 0
-0.119741261, 0.07344242  , -9.783809   , -0.00118372682, 0.000560816436, -0.000589012459, -0.177430227, -0.163273558, 0.438991517 , -0.007909739, -0.0118964994, 2.421685    , 2.52        , 3           , 11          , 0.00767914252, 0.00767913554
-0.106020533, 0.07473317  , -9.812625   , -0.00173768029, -0.00141395361, 0.00138307852, -0.177632466, -0.163543209, 0.439126343 , -0.007927283, -0.0119105317, 2.42169881  , 2.53        , 3           , 12          , 0.0477909856, 0
-0.10558863 , 0.08185253  , -9.784569   , -0.0008871968, -0.00225292356, -0.000309497351, -0.17749764 , -0.163610622, 0.438721865 , -0.007936118, -0.0119330827, 2.421696    , 2.54        , 3           , 50          , 0           , 0
-0.118387967, 0.07163699  , -9.788325   , 0.00191058579, 0.003115913 , -0.000288083276, -0.17749764 , -0.163610622, 0.438721865 , -0.007916975, -0.0119019486, 2.421693    , 2.55        , 3           , 11          , 0.00767914252, 0.00767913554
-0.120370671, 0.09153086  , -9.79323    , -0.00175218412, 0.00112012273, -0.002003466, -0.17749764 , -0.163745448, 0.4388567   , -0.007934258, -0.0118909059, 2.421673    , 2.56        , 3           , 12          , 0.0477909856, 0
-0.117840938, 0.08063504  , -9.782408   , 0.0005184567, -0.00083554606, 0.00054686924, -0.177632466, -0.163408384, 0.439126343 , -0.00792914 , -0.011899218, 2.4216783   , 2.57        , 3           , 50          , 0           , 0
-0.132831335, 0.07318322  , -9.795209   , 0.0007883375, 0.00170044973, 0.0005520916, -0.17796953 , -0.163543209, 0.4388567   , -0.00792132 , -0.01188217 , 2.42168355  , 2.58        , 3           , 11          , 0.00767914252, 0.00767913554
-0.140137568, 0.0705402   , -9.788947   , 0.00559221767, 0.00116978807, 0.000291074044, -0.17796953 , -0.163543209, 0.4388567   , -0.007865433, -0.0118704494, 2.42168641  , 2.59        , 3           , 12          , 0.0477909856, 0
-0.132678032, 0.081341736 , -9.806474   , 0.00191821635, 0.00167567038, -0.00113810471, -0.17749764 , -0.163543209, 0.4388567   , -0.007844112, -0.011909686, 2.421675    , 2.6         , 3           , 50          , 0           , 0
-0.103496946, 0.06561777  , -9.794563   , -0.000333902, 0.000252566853, -0.0005857348, -0.177699879, -0.163610622, 0.439193755 , -0.00784738 , -0.0119072041, 2.42166924  , 2.61        , 3           , 11          , 0.007582906 , 0.00758289872
-0.124748215, 0.06812337  , -9.794716   , 0.003328052 , 0.00224835286, -0.0002830396, -0.177227989, -0.1634758  , 0.438789278 , -0.007814063, -0.0118847433, 2.42166638  , 2.62        , 3           , 12          , 0.04871561  , 0
-0.11412935 , 0.0477091   , -9.799239   , 0.00220589316, 0.0005513185, -0.00170359842, -0.177227989, -0.1634758  , 0.438789278 , -0.007791802, -0.011879364, 2.42164922  , 2.63        , 3           , 50          , 0           , 0
-0.09105128 , 0.0736871958, -9.822006   , 0.000519117631, -0.000867962837, -0.0003009822, -0.177430227, -0.163745448, 0.4388567   , -0.00778657524, -0.0118880654, 2.42164636  , 2.64        , 3           , 11          , 0.007582906 , 0.00758289872
-0.113808095, 0.0738577247, -9.793704   , -0.00146058388, -3.66303138E-05, 0.00223393831, -0.177430227, -0.1634758  , 0.4389241   , -0.007801447, -0.0118882582, 2.42166829  , 2.65        , 3           , 12          , 0.04871561  , 0
-0.121317551, 0.0585522354, -9.778458   , -0.00145352492, -0.00172602688, -2.89653271E-05, -0.17749764 , -0.163543209, 0.438721865 , -0.007815979, -0.0119055193, 2.42166829  , 2.66        , 3           , 50          , 0           , 0
-0.09424271 , 0.0519096181, -9.776018   , -0.00118429679, 0.000809965539, -0.00115389272, -0.17749764 , -0.163543209, 0.438721865 , -0.007827685, -0.0118975108, 2.42165685  , 2.67        , 3           , 11          , 0.007582906 , 0.00758289872
-0.129656985, 0.06957914  , -9.807855   , 0.0002280005, 0.000819516252, -0.0008647705, -0.177362815, -0.163408384, 0.4388567   , -0.0078253  , -0.0118893841, 2.42164826  , 2.68        , 3           , 12          , 0.04871561  , 0
-0.123555191, 0.08887778  , -9.798237   , -0.0006258349, 0.00194004178, -0.00256221066, -0.177767292, -0.1634758  , 0.4389241   , -0.007831254, -0.011870184, 2.42162251  , 2.69        , 3           , 50          , 0           , 0
-0.119681604, 0.08107872  , -9.773832   , 0.000842906768, 0.000259445456, 0.000266601652, -0.177362815, -0.163408384, 0.4388567   , -0.00773948757, -0.0118689146, 2.42162442  , 2.7         , 3           , 11          , 0.007488786 , 0.00748877926
-0.112829462, 0.0819406062, -9.785528   , 0.00282235653, -0.000290316442, -0.000290122436, -0.177362815, -0.163408384, 0.4388567   , -0.00771123031, -0.011871838, 2.42162156  , 2.71        , 3           , 12          , 0.0496559776, 0
-0.09967831 , 0.08671283  , -9.77456    , -0.0008330425, -0.003412358, 0.00110067136, -0.177430227, -0.163947687, 0.438789278 , -0.007719695, -0.011905876, 2.421633    , 2.72        , 3           , 50          , 0           , 0
-0.120095111, 0.0837939754, -9.774728   , 1.481612E-05, -0.003688197, -0.000308498973, -0.177632466, -0.163273558, 0.4389241   , -0.007719513, -0.0119427806, 2.42163014  , 2.73        , 3           , 11          , 0.007488786 , 0.00748877926
-0.132424533, 0.07403334  , -9.781191   , -0.000862479734, 0.00250050775, 0.000827246462, -0.177699879, -0.1634758  , 0.438789278 , -0.007728234, -0.0119177131, 2.42163777  , 2.74        , 3           , 12          , 0.0496559776, 0
-0.122851267, 0.06817165  , -9.815493   , 0.00026845836, 0.0022265818, 0.000549542834, -0.177699879, -0.1634758  , 0.438789278 , -0.00772561226, -0.0118954042, 2.4216435   , 2.75        , 3           , 50          , 0           , 0
-0.131578624, 0.0663864   , -9.79116    , -0.00141855446, 0.000525727635, -0.0008736496, -0.177767292, -0.163610622, 0.43858704  , -0.007739693, -0.0118902149, 2.42163444  , 2.76        , 3           , 11          , 0.007488786 , 0.00748877926
-0.10721425 , 0.06067344  , -9.787381   , 0.000544656534, 0.00335474918, -0.0005775542, -0.177565053, -0.163340971, 0.4389241   , -0.00773417531, -0.0118567124, 2.42162824  , 2.77        , 3           , 12          , 0.0496559776, 0
-0.09637363 , 0.05784652  , -9.78957    , -6.25706161E-06, 0.0005352783, -0.0005845275, -0.177699879, -0.163340971, 0.438721865 , -0.007734168, -0.0118514057, 2.42162251  , 2.78        , 3           , 50          , 0           , 0
-0.143964052, 0.056580402 , -9.784062   , 0.00310708163, -0.0008515391, -0.00113728584, -0.177699879, -0.163678035, 0.438721865 , -0.0077029625, -0.0118600084, 2.421611    , 2.79        , 3           , 11          , 0.007488786 , 0.00748877926
-0.138337433, 0.07586622  , -9.769024   , 0.0008927737, 0.00136216544, 0.000267470459, -0.177699879, -0.163678035, 0.438721865 , -0.00759131275, -0.01188996 , 2.4216125   , 2.8         , 3           , 12          , 0.0506109446, 0
-0.120543577, 0.07442943  , -9.805957   , -0.00249339663, 0.0007761165, 0.0005333369, -0.17796953 , -0.163408384, 0.4389241   , -0.00761630945, -0.0118821589, 2.42161775  , 2.81        , 3           , 50          , 0           , 0
-0.115126282, 0.0752452761, -9.799132   , 0.0006196154, -0.0006107024, -0.0005844962, -0.177767292, -0.163138732, 0.4388567   , -0.007610046, -0.0118883094, 2.421612    , 2.82        , 3           , 11          , 0.007392354 , 0.00739234639
-0.114625484, 0.0873303339, -9.771959   , 0.0003209501, 0.002766171 , 0.000267006253, -0.177699879, -0.163610622, 0.43858704  , -0.00760686537, -0.0118606286, 2.42161441  , 2.83        , 3           , 12          , 0.0506109446, 0
-0.106408611, 0.08416428  , -9.798125   , -0.0010936457, 0.00331975287, 0.0008263644, -0.177699879, -0.163610622, 0.43858704  , -0.007617897, -0.0118273683, 2.42162251  , 2.84        , 3           , 50          , 0           , 0
-0.135746092, 0.0574323758, -9.797556   , 0.00145230338, 0.00221067527, -0.001706356, -0.177632466, -0.163206145, 0.4388567   , -0.00760316942, -0.0118053909, 2.42160535  , 2.85        , 3           , 11          , 0.007392354 , 0.00739234639
-0.107907794, 0.06755112  , -9.817189   , 0.000627075 , -0.00201852527, 0.0002609463, -0.178036943, -0.163340971, 0.438789278 , -0.007596932, -0.0118255559, 2.42160821  , 2.86        , 3           , 12          , 0.0506109446, 0
-0.130590022, 0.0753700659, -9.782528   , 6.296273E-05, -0.0023039137, -0.0008722711, -0.177767292, -0.163408384, 0.43858704  , -0.0075961994, -0.0118486639, 2.42159963  , 2.87        , 3           , 50          , 0           , 0
-0.111749575, 0.0607205443, -9.785608   , 0.00146698474, -0.0008865439, -0.00284127938, -0.177767292, -0.163408384, 0.43858704  , -0.007581195, -0.0118577443, 2.421571    , 2.88        , 3           , 11          , 0.007392354 , 0.00739234639
-0.102241188, 0.0579307377, -9.794134   , 0.00118175556, 0.000237819811, 0.00196227664, -0.177767292, -0.1634758  , 0.438789278 , -0.00756961 , -0.0118552148, 2.42159057  , 2.89        , 3           , 12          , 0.0506109446, 0
-0.120840937, 0.0554417744, -9.794286   , -0.00160173967, -0.000347035122, 0.001382699 , -0.1778347  , -0.163408384, 0.4389241   , -0.007512297, -0.0118635967, 2.42160344  , 2.9         , 3           , 50          , 0           , 0
-0.09966281 , 0.08493998  , -9.78406    , 0.0006349699, 0.00389171182, -0.00170816877, -0.177699879, -0.163408384, 0.438789278 , -0.0075057405, -0.011824809, 2.42158628  , 2.91        , 3           , 11          , 0.00729676569, 0.00729675638
-0.12439096 , 0.09251577  , -9.803652   , -0.001874483, -0.002601473, -0.00116492657, -0.177699879, -0.163408384, 0.438789278 , -0.00752435159, -0.01185091 , 2.42157483  , 2.92        , 3           , 12          , 0.0515794121, 0
-0.119071759, 0.08164703  , -9.810435   , 0.000940679631, -0.000611414434, -1.85699319E-05, -0.1778347  , -0.163610622, 0.43858704  , -0.00751494244, -0.0118570253, 2.42157483  , 2.93        , 3           , 50          , 0           , 0
-0.110759288, 0.06434937  , -9.794624   , 0.002630406 , 0.0002447375, -0.00113951624, -0.177632466, -0.163408384, 0.438721865 , -0.007488503, -0.0118546626, 2.42156339  , 2.94        , 3           , 11          , 0.00729676569, 0.00729675638
-0.09645341 , 0.0533183776, -9.784617   , -0.00160173967, -0.000347035122, 0.001382699 , -0.177430227, -0.163408384, 0.438789278 , -0.007504684, -0.0118580293, 2.42157722  , 2.95        , 3           , 12          , 0.0515794121, 0
-0.10416431 , 0.08278274  , -9.797662   , -0.0035851195, 0.000765851466, -3.747121E-05, -0.177430227, -0.163408384, 0.438789278 , -0.00754053 , -0.0118503738, 2.42157674  , 2.96        , 3           , 50          , 0           , 0
-0.0999336243, 0.0864318   , -9.82383    , -0.003015832, -0.000356594333, -0.00201433524, -0.177767292, -0.163273558, 0.4388567   , -0.00757045066, -0.01185409 , 2.42155671  , 2.97        , 3           , 11          , 0.00729676569, 0.00729675638
-0.122058176, 0.0622673221, -9.806923   , -0.00329776923, -0.000358501973, -0.00116803986, -0.17796953 , -0.163340971, 0.4389241   , -0.00760328956, -0.0118577629, 2.42154527  , 2.98        , 3           , 12          , 0.0515794121, 0
-0.09474087 , 0.07858504  , -9.789923   , -0.000482117, 0.00163155864, 0.0008259293, -0.177699879, -0.163408384, 0.43905893  , -0.00760820834, -0.0118413847, 2.421553    , 2.99        , 3           , 50          , 0           , 0
-0.08838551 , 0.07539942  , -9.803899   , 0.0034936436, -0.000830677338, 0.00225343648, -0.177699879, -0.163408384, 0.43905893  , -0.00755685428, -0.0117600271, 2.42157578  , 3           , 3           , 11          , 0.007201649 , 0.007201639
-0.102701493, 0.09043939  , -9.798523   , 0.000383759878, -0.000570130534, -0.00086852815, -0.177430227, -0.163812861, 0.438789278 , -0.007552916, -0.011765792, 2.4215672   , 3.01        , 3           , 12          , 0.052560363 , 0
-0.102848411, 0.07826888  , -9.801739   , -0.00046491457, -0.0002942953, -0.0008720451, -0.177767292, -0.1634758  , 0.4388567   , -0.00755746337, -0.0117688011, 2.42155862  , 3.02        , 3           , 50          , 0           , 0
-0.143243492, 0.06571905  , -9.820178   , -0.0007449685, -0.0005777657, 0.0008214287, -0.177699879, -0.163610622, 0.439193755 , -0.007565009, -0.0117745176, 2.42156672  , 3.03        , 3           , 11          , 0.007201649 , 0.007201639
-0.100973867, 0.0858869553, -9.792652   , 9.624652E-05, 0.000554222148, -2.04971875E-05, -0.177767292, -0.163610622, 0.4388567   , -0.00756404456, -0.0117689762, 2.42156625  , 3.04        , 3           , 12          , 0.052560363 , 0
-0.0814055055, 0.0603704564, -9.787186   , -0.000188390055, 0.0008338734, -0.00143406738, -0.177767292, -0.163610622, 0.4388567   , -0.007565758, -0.0117607461, 2.421552    , 3.05        , 3           , 50          , 0           , 0
-0.107261218, 0.0526011   , -9.801879   , -0.0004572032, -0.00198368868, -0.00200479873, -0.177699879, -0.163678035, 0.4389241   , -0.00757009536, -0.0117807351, 2.421532    , 3.06        , 3           , 11          , 0.007201649 , 0.007201639
-0.126560614, 0.0766242743, -9.767122   , 0.00123464409, -0.001127527, 0.000547242 , -0.177699879, -0.163678035, 0.439193755 , -0.007557815, -0.0117919678, 2.42153764  , 3.07        , 3           , 12          , 0.052560363 , 0
-0.1163433  , 0.07983926  , -9.819011   , 0.003479792 , 0.00170340214, -2.95822974E-06, -0.177699879, -0.163610622, 0.438789278 , -0.007523014, -0.0117749348, 2.42153764  , 3.08        , 3           , 50          , 0           , 0
-0.113779753, 0.0667391   , -9.823565   , -0.000174286877, -0.00198177644, -0.00115586934, -0.177699879, -0.163610622, 0.438789278 , -0.007524623, -0.0117948391, 2.42152619  , 3.09        , 3           , 11          , 0.007201649 , 0.007201639
-0.107806794, 0.08325525  , -9.79136    , -0.000446031452, -0.00195338763, -0.00143961178, -0.177767292, -0.1634758  , 0.438991517 , -0.00750669744, -0.0117523465, 2.421512    , 3.1         , 3           , 12          , 0.0535528474, 0
-0.131960124, 0.07716189  , -9.773943   , -0.00382957747, -0.00310256728, -0.00145715068, -0.177767292, -0.163408384, 0.438991517 , -0.007544826, -0.0117834816, 2.42149758  , 3.11        , 3           , 50          , 0           , 0
-0.114688091, 0.07567448  , -9.794156   , -0.001009491, -0.00223877281, -0.00144267955, -0.177699879, -0.1634758  , 0.4389241   , -0.00755475136, -0.0118059777, 2.42148328  , 3.12        , 3           , 11          , 0.007107838 , 0.007107831
-0.118370935, 0.0694190338, -9.799633   , -0.000731824548, -0.00111059868, -2.69397E-05, -0.177699879, -0.1634758  , 0.4389241   , -0.007562067, -0.0118170856, 2.4214828   , 3.13        , 3           , 12          , 0.0535528474, 0
-0.11551711 , 0.0860132053, -9.779655   , 0.000115945353, -0.0011048665, 0.0008246235, -0.177699879, -0.163543209, 0.43905893  , -0.00756100658, -0.0118280714, 2.421491    , 3.14        , 3           , 50          , 0           , 0
-0.115609117, 0.06987004  , -9.809102   , 0.0009592957, -0.000536011648, -0.00114832 , -0.1778347  , -0.163408384, 0.4389241   , -0.00755127845, -0.0118335178, 2.42147946  , 3.15        , 3           , 11          , 0.007107838 , 0.007107831
-0.1177643  , 0.075787276 , -9.816777   , -0.00299344864, -0.000844317139, -0.00144972838, -0.177767292, -0.163610622, 0.438991517 , -0.007581041, -0.0118420711, 2.42146516  , 3.16        , 3           , 12          , 0.0535528474, 0
-0.103535682, 0.0611228943, -9.799554   , -0.000181726675, 0.00170886843, -0.00143265363, -0.177767292, -0.163610622, 0.438991517 , -0.00758268731, -0.01182509 , 2.42145085  , 3.17        , 3           , 50          , 0           , 0
-0.104208104, 0.08408629  , -9.782742   , 0.00207071821, 0.00313197356, -0.00141994853, -0.177699879, -0.1634758  , 0.438991517 , -0.00756181031, -0.0117938789, 2.42143655  , 3.18        , 3           , 11          , 0.007107838 , 0.007107831
-0.13028422 , 0.09570362  , -9.791931   , 0.00066834176, 0.00115146791, -0.00142957072, -0.1778347  , -0.163408384, 0.438991517 , -0.00755495671, -0.011782472, 2.42142224  , 3.19        , 3           , 12          , 0.0535528474, 0
-0.117320523, 0.07622102  , -9.813156   , -0.0004842398, 0.00142869644, -0.00171660783, -0.177767292, -0.163340971, 0.4389241   , -0.007604744, -0.0117613329, 2.42140555  , 3.2         , 3           , 50          , 0           , 0
-0.102202237, 0.0601940639, -9.796384   , 0.00122777629, -0.00165704917, 0.00195950759, -0.177767292, -0.163340971, 0.4389241   , -0.007592699, -0.011777753, 2.421425    , 3.21        , 3           , 11          , 0.007015967 , 0.007015957
-0.121422693, 0.07490785  , -9.810934   , 0.00120990607, 0.001721726 , -1.30475673E-05, -0.177699879, -0.163610622, 0.438991517 , -0.007580596, -0.0117605375, 2.421425    , 3.22        , 3           , 12          , 0.05455596  , 0
-0.110482134, 0.08376701  , -9.799965   , -0.000199440125, 0.001149046 , -2.05000979E-05, -0.17796953 , -0.163273558, 0.439193755 , -0.00758258766, -0.01174905 , 2.421425    , 3.23        , 3           , 50          , 0           , 0
-0.116869971, 0.0833555   , -9.789621   , 0.0003708264, 2.66049174E-05, -0.0003021392, -0.1778347  , -0.163610622, 0.438991517 , -0.007578844, -0.0117488056, 2.42142177  , 3.24        , 3           , 11          , 0.007015967 , 0.007015957
-0.112072773, 0.06707978  , -9.796883   , 0.00121220457, 0.00115859346, -0.000861527631, -0.1778347  , -0.163610622, 0.438991517 , -0.0075666206, -0.0117372852, 2.42141318  , 3.25        , 3           , 12          , 0.05455596  , 0
-0.133296624, 0.071393    , -9.797932   , 0.000363856379, 0.00143443036, -0.000299969543, -0.177632466, -0.163745448, 0.43905893  , -0.00756294467, -0.0117229642, 2.42140985  , 3.26        , 3           , 50          , 0           , 0
-0.144248977, 0.08923116  , -9.830936   , 0.0017807507, 0.000317715923, -0.00170780811, -0.177902117, -0.163273558, 0.439126343 , -0.00754493661, -0.011719916, 2.42139268  , 3.27        , 3           , 11          , 0.007015967 , 0.007015957
-0.112125278, 0.094190456 , -9.807619   , 0.00235215947, -0.000804719748, -1.16852461E-05, -0.1778347  , -0.1634758  , 0.43905893  , -0.00752141466, -0.0117279645, 2.42139268  , 3.28        , 3           , 12          , 0.05455596  , 0
-0.104565732, 0.08416872  , -9.805796   , 0.00290077436, 0.00257788366, 0.000843768241, -0.177902117, -0.163543209, 0.4389241   , -0.00749250455, -0.0117021231, 2.42140126  , 3.29        , 3           , 50          , 0           , 0
-0.130608767, 0.07267676  , -9.786607   , 0.00117971189, 0.000299754785, 0.0005502481, -0.177902117, -0.163543209, 0.4389241   , -0.00756268343, -0.01173002 , 2.421408    , 3.3         , 3           , 11          , 0.006925879 , 0.00692586973
-0.136232585, 0.0623202249, -9.773584   , -0.00220539118, -0.0005678609, 0.000250605517, -0.177902117, -0.1634758  , 0.439261168 , -0.007584767, -0.0117356814, 2.42141032  , 3.31        , 3           , 12          , 0.0555688739, 0
-0.115776695, 0.0625926554, -9.791506   , 0.0003352194, -0.00026910528, 0.0005454294, -0.177902117, -0.163610622, 0.439193755 , -0.00758148 , -0.0117383292, 2.42141557  , 3.32        , 3           , 50          , 0           , 0
-0.107943289, 0.0751103237, -9.784163   , -0.0005237026, 0.001977683 , -0.000302662171, -0.1778347  , -0.1634758  , 0.43905893  , -0.00758668 , -0.0117185749, 2.42141271  , 3.33        , 3           , 11          , 0.006925879 , 0.00692586973
-0.139071554, 0.07824752  , -9.803371   , 3.910446E-05, 0.002263065 , -0.0014297443, -0.1778347  , -0.1634758  , 0.43905893  , -0.0075861197, -0.0116960537, 2.4213984   , 3.34        , 3           , 12          , 0.0555688739, 0
-0.142339587, 0.07106328  , -9.802522   , 0.000343005144, -0.00167692651, 0.001955947 , -0.17796953 , -0.163340971, 0.439126343 , -0.0075829206, -0.0117126741, 2.421418    , 3.35        , 3           , 50          , 0           , 0
-0.1404487  , 0.08315809  , -9.783023   , 0.000623059 , -0.00139345648, 0.00026247307, -0.177902117, -0.163340971, 0.439261168 , -0.00757672125, -0.0117265889, 2.42142034  , 3.36        , 3           , 11          , 0.006925879 , 0.00692586973
-0.11148566 , 0.0747712553, -9.804982   , -0.0013426136, -0.003659346, 0.0005323206, -0.178036943, -0.1634758  , 0.439193755 , -0.00759021332, -0.01176314 , 2.421426    , 3.37        , 3           , 12          , 0.0555688739, 0
-0.08401898 , 0.06896666  , -9.78491    , 0.001462717 , 2.00957584E-05, -0.000861556153, -0.178036943, -0.1634758  , 0.439193755 , -0.007575484, -0.0117630037, 2.42141747  , 3.38        , 3           , 50          , 0           , 0
-0.102424726, 0.08181079  , -9.783189   , 0.0006255207, -0.001956588, -0.0003034695, -0.17796953 , -0.163408384, 0.439126343 , -0.00756919431, -0.0117825931, 2.42141461  , 3.39        , 3           , 11          , 0.006925879 , 0.00692586973
-0.111588433, 0.09693137  , -9.819355   , 0.00116863591, 0.0008592346, 0.0002687126, -0.177767292, -0.1634758  , 0.439193755 , -0.00757584162, -0.0117822047, 2.421418    , 3.4         , 3           , 12          , 0.0565908141, 0
-0.114027679, 0.08163996  , -9.825764   , 0.00257552043, 0.00199504616, 0.0008421081, -0.177632466, -0.163880274, 0.439396    , -0.00755018368, -0.0117621915, 2.421426    , 3.41        , 3           , 50          , 0           , 0
-0.1103461  , 0.06118751  , -9.795086   , 0.0008799803, 0.00198358181, -0.0008610183, -0.177632466, -0.163880274, 0.439396    , -0.00754128164, -0.0117424214, 2.42141747  , 3.42        , 3           , 11          , 0.006838749 , 0.00683874032
-0.135516554, 0.0754723847, -9.795671   , -0.00165874662, 0.00140326342, -0.000308663584, -0.177902117, -0.163812861, 0.43905893  , -0.00755783264, -0.0117284106, 2.42141461  , 3.43        , 3           , 12          , 0.0565908141, 0
-0.142727882, 0.08272596  , -9.780781   , 0.00202353927, -0.0005428578, 0.00140064384, -0.17796953 , -0.163543209, 0.439193755 , -0.007537762, -0.0117337322, 2.42142844  , 3.44        , 3           , 50          , 0           , 0
-0.13697055 , 0.06202032  , -9.815626   , 0.00117913517, -0.00139328931, -0.000864908565, -0.17796953 , -0.163408384, 0.439261168 , -0.00752587 , -0.0117477309, 2.42141986  , 3.45        , 3           , 11          , 0.006838749 , 0.00683874032
-0.111449279, 0.0409522727, -9.811902   , -0.000780308736, -0.00478543574, 0.000533352955, -0.17796953 , -0.163408384, 0.439261168 , -0.00753374 , -0.0117955431, 2.42142558  , 3.46        , 3           , 12          , 0.0565908141, 0
-0.113012388, 0.07152633  , -9.774272   , 5.60716471E-05, -0.0028087562, -0.00143742084, -0.178171769, -0.163543209, 0.43905893  , -0.00753301242, -0.0118237361, 2.42141175  , 3.47        , 3           , 50          , 0           , 0
-0.107868031, 0.08365197  , -9.775086   , 3.65556043E-05, 0.001133155 , -0.00143134582, -0.1778347  , -0.1634758  , 0.439261168 , -0.00753247645, -0.0118125137, 2.421397    , 3.48        , 3           , 11          , 0.006838749 , 0.00683874032
-0.109040283, 0.09587017  , -9.781373   , 0.00201584212, 0.000583392335, -0.00227060774, -0.1778347  , -0.163610622, 0.439126343 , -0.00751204928, -0.0118068513, 2.421374    , 3.49        , 3           , 12          , 0.0565908141, 0
-0.113909215, 0.09825091  , -9.801288   , 0.000891899166, -0.00252854847, -0.000302776549, -0.1778347  , -0.163610622, 0.439126343 , -0.007527956, -0.0118486239, 2.4213717   , 3.5         , 3           , 50          , 0           , 0
-0.103205122, 0.09486701  , -9.771841   , -0.0005310606, -0.000285576156, 0.000259184977, -0.177902117, -0.163543209, 0.4389241   , -0.00753329741, -0.01185146 , 2.42137456  , 3.51        , 3           , 11          , 0.00675280532, 0.006752796
-0.111578405, 0.07291071  , -9.788267   , 0.0006001295, -0.0008410729, -0.00199671485, -0.178036943, -0.163678035, 0.439193755 , -0.00752706127, -0.0118600214, 2.42135453  , 3.52        , 3           , 12          , 0.0576210357, 0
-0.116546981, 0.07163992  , -9.795543   , 0.00143017806, 0.00310657965, 0.00196883571, -0.17796953 , -0.163273558, 0.439126343 , -0.00751298852, -0.0118288063, 2.421374    , 3.53        , 3           , 50          , 0           , 0
-0.105130963, 0.0706924051, -9.821675   , -0.0005392615, 0.001403815 , 0.000544326147, -0.178171769, -0.163543209, 0.439193755 , -0.007518445, -0.0118147274, 2.42137933  , 3.54        , 3           , 11          , 0.00675280532, 0.006752796
-0.107976846, 0.06749518  , -9.800466   , 0.001427894 , 0.00310656871, -0.001986689, -0.178171769, -0.163543209, 0.439193755 , -0.00750392862, -0.0117838131, 2.4213593   , 3.55        , 3           , 12          , 0.0576210357, 0
-0.110909581, 0.08781002  , -9.793173   , -0.00025191126, 0.0002794616, -0.0005862424, -0.1778347  , -0.1634758  , 0.439261168 , -0.00750637846, -0.0117810629, 2.42135358  , 3.56        , 3           , 50          , 0           , 0
-0.116111957, 0.07028115  , -9.795546   , 0.000602012966, -0.00112263567, -0.00114953634, -0.177902117, -0.163678035, 0.439396    , -0.007500223, -0.0117923748, 2.42134213  , 3.57        , 3           , 11          , 0.00675280532, 0.006752796
-0.1245731  , 0.0780849755, -9.80552    , 0.002007993 , 0.0002947437, 0.000271905272, -0.177767292, -0.163812861, 0.439261168 , -0.00748017523, -0.0117894066, 2.421345    , 3.58        , 3           , 12          , 0.0576210357, 0
-0.130393058, 0.08713477  , -9.792872   , -0.000239202069, -0.00225462322, -0.000307610346, -0.177767292, -0.163812861, 0.439261168 , -0.007482533, -0.0118119754, 2.42134213  , 3.59        , 3           , 50          , 0           , 0
-0.115222991, 0.0756132752, -9.774273   , 0.00141093694, 0.00197454379, -0.000575487153, -0.177699879, -0.163408384, 0.439261168 , -0.00752415275, -0.0118060755, 2.42133641  , 3.6         , 3           , 11          , 0.006669391 , 0.00666938024
-0.128197387, 0.0402602553, -9.816101   , -0.00169501663, 0.00167196593, -0.00172055734, -0.178171769, -0.163745448, 0.439598233 , -0.007540898, -0.0117894849, 2.42131925  , 3.61        , 3           , 12          , 0.0586588681, 0
-0.126914084, 0.0370590352, -9.807969   , 0.00170369993, -0.0002760707, -0.00199032924, -0.1778347  , -0.163543209, 0.439193755 , -0.007523626, -0.0117923943, 2.42129922  , 3.62        , 3           , 50          , 0           , 0
-0.11081975 , 0.06072958  , -9.791476   , 0.00225231517, 0.00310653285, -0.0011348757, -0.1778347  , -0.163543209, 0.439193755 , -0.007500967, -0.0117614167, 2.42128778  , 3.63        , 3           , 11          , 0.006669391 , 0.00666938024
-0.106885113, 0.0899529159, -9.773698   , -0.000842412235, 0.0008330061, 0.000259853841, -0.177902117, -0.1634758  , 0.439193755 , -0.007509421, -0.0117530664, 2.42129064  , 3.64        , 3           , 12          , 0.0586588681, 0
-0.117200188, 0.0928334743, -9.789132   , -0.00113754836, 0.00336518115, -2.00951763E-05, -0.17796953 , -0.163610622, 0.439328581 , -0.00752079 , -0.0117194168, 2.42128968  , 3.65        , 3           , 50          , 0           , 0
-0.1125643  , 0.07017815  , -9.777439   , 0.001408312 , 0.002537675 , -0.000292081822, -0.177902117, -0.1634758  , 0.439328581 , -0.00750667136, -0.0116940625, 2.42128682  , 3.66        , 3           , 11          , 0.006669391 , 0.00666938024
-0.104753792, 0.06928677  , -9.807666   , -0.0019665435, -0.000300894055, 0.000252850354, -0.177902117, -0.1634758  , 0.439328581 , -0.00752636744, -0.0116970511, 2.42128968  , 3.67        , 3           , 12          , 0.0586588681, 0
-0.100682922, 0.07369904  , -9.792249   , 0.005643646 , 0.002847891 , 0.00029318087, -0.178036943, -0.163408384, 0.439261168 , -0.00746996142, -0.0116685517, 2.421292    , 3.68        , 3           , 50          , 0           , 0
-0.106243163, 0.05848416  , -9.810433   , -0.0002732135, -7.868424E-06, 0.000543723465, -0.17796953 , -0.163610622, 0.439261168 , -0.00747275632, -0.01166859 , 2.42129731  , 3.69        , 3           , 11          , 0.006669391 , 0.00666938024
-0.112026781, 0.06622435  , -9.810899   , -0.000822971051, -0.000561674533, -2.48795841E-05, -0.177699879, -0.163947687, 0.439396    , -0.0074499296, -0.0116418768, 2.42129731  , 3.7         , 3           , 12          , 0.059703663 , 0
-0.1262091  , 0.06314641  , -9.785707   , -0.00224223826, 0.0008366002, -0.0003118318, -0.177699879, -0.163947687, 0.439396    , -0.007472315, -0.0116335358, 2.421294    , 3.71        , 3           , 50          , 0           , 0
-0.115466595, 0.08114428  , -9.807698   , 0.00311518088, 0.00256227865, -0.000849281438, -0.1778347  , -0.163543209, 0.439193755 , -0.00744106248, -0.0116079766, 2.42128539  , 3.72        , 3           , 11          , 0.006587792 , 0.00658778148
-0.09912279 , 0.08946886  , -9.790815   , 0.00284964568, -0.0008184115, -0.0005732681, -0.177902117, -0.163408384, 0.439328581 , -0.00741249928, -0.0116162049, 2.42127967  , 3.73        , 3           , 12          , 0.059703663 , 0
-0.108372338, 0.069332324 , -9.808598   , -0.000272635662, 0.00253936532, 0.001395215 , -0.177902117, -0.163610622, 0.439328581 , -0.00741538545, -0.0115907071, 2.4212935   , 3.74        , 3           , 50          , 0           , 0
-0.133181155, 0.07371831  , -9.818712   , -0.00110572414, -0.0005635861, -0.0005912712, -0.177902117, -0.163610622, 0.439328581 , -0.007426376, -0.0115963863, 2.42128778  , 3.75        , 3           , 11          , 0.006587792 , 0.00658778148
-0.10816291 , 0.0904804841, -9.791785   , 0.000311407755, -0.00139872765, 0.0008266988, -0.1778347  , -0.1634758  , 0.439261168 , -0.00742335944, -0.0116103124, 2.421296    , 3.76        , 3           , 12          , 0.059703663 , 0
-0.121814385, 0.0870141238, -9.786932   , 0.000865687558, 0.000576044 , -0.000580317, -0.177767292, -0.163340971, 0.439261168 , -0.00741463434, -0.011604595, 2.42128968  , 3.77        , 3           , 50          , 0           , 0
-0.116629131, 0.104082763 , -9.781849   , 0.000302717468, 0.000290661323, 0.000264227448, -0.1778347  , -0.163678035, 0.439193755 , -0.007411637, -0.0116016679, 2.42129254  , 3.78        , 3           , 11          , 0.006587792 , 0.00658778148
-0.105774507, 0.0674187243, -9.785534   , 0.00114409556, 0.00142265  , -0.000295160746, -0.177902117, -0.163543209, 0.439328581 , -0.007400161, -0.0115874624, 2.42128968  , 3.79        , 3           , 12          , 0.059703663 , 0
-0.113893352, 0.0644153   , -9.803236   , 0.00367588853, -0.00222120131, -0.000571120647, -0.177902117, -0.163543209, 0.439328581 , -0.007434145, -0.0116114933, 2.421285    , 3.8         , 3           , 50          , 0           , 0
-0.118342064, 0.06810337  , -9.810938   , 0.003948394 , -0.000248336553, -0.0008493036, -0.177767292, -0.1634758  , 0.439396    , -0.007394563, -0.0116140377, 2.42127633  , 3.81        , 3           , 11          , 0.006508086 , 0.00650807749
-0.101631157, 0.0638554   , -9.81354    , 0.005063257 , 0.00285652163, 8.349569E-06, -0.178036943, -0.1634758  , 0.439396    , -0.0073439274, -0.0115854749, 2.42127633  , 3.82        , 3           , 12          , 0.0607548356, 0
-0.08307487 , 0.0680945441, -9.797109   , -0.00112520379, -0.00225367 , -0.000310971023, -0.17796953 , -0.1634758  , 0.439193755 , -0.00735514658, -0.0116080316, 2.42127347  , 3.83        , 3           , 50          , 0           , 0
-0.117629074, 0.057224296 , -9.798774   , -0.00253750081, -0.00226322073, -0.000600093161, -0.17796953 , -0.1634758  , 0.439193755 , -0.007380453, -0.0116307065, 2.42126775  , 3.84        , 3           , 11          , 0.006508086 , 0.00650807749
-0.100956775, 0.051159624 , -9.797768   , 0.004799768 , -0.0008057306, 0.001414079 , -0.178036943, -0.163543209, 0.439396    , -0.007332621, -0.0116386591, 2.421282    , 3.85        , 3           , 12          , 0.0607548356, 0
-0.07115806 , 0.0792321   , -9.796067   , 0.00169242069, -0.0008267434, 0.0002694427, -0.178036943, -0.163745448, 0.439328581 , -0.00731572974, -0.0116469059, 2.421285    , 3.86        , 3           , 50          , 0           , 0
-0.109397434, 0.06656802  , -9.788278   , -0.001139307, 0.00056198  , -0.0005891692, -0.1778347  , -0.163745448, 0.439328581 , -0.0073270523, -0.01164133 , 2.42127872  , 3.87        , 3           , 11          , 0.006508086 , 0.00650807749
-0.121961854, 0.0766285658, -9.784265   , 0.00169356272, -0.0008267379, 0.00224720547, -0.1778347  , -0.163745448, 0.439328581 , -0.0073103793, -0.0116494326, 2.42130113  , 3.88        , 3           , 12          , 0.0607548356, 0
-0.104172237, 0.0872398242, -9.781372   , 0.000279708329, -0.000554724247, 0.00167597935, -0.178036943, -0.1634758  , 0.439261168 , -0.00730777858, -0.0116548594, 2.42131829  , 3.89        , 3           , 50          , 0           , 0
-0.104012609, 0.06378674  , -9.785084   , -0.0002888361, -0.000808896148, 0.0008255991, -0.17796953 , -0.163610622, 0.4394634   , -0.007322728, -0.01158181 , 2.42132688  , 3.9         , 3           , 11          , 0.006430744 , 0.00643073628
-0.08433673 , 0.0450526178, -9.784107   , 0.000276758976, -0.00108664436, -0.0003023506, -0.178171769, -0.163678035, 0.43953082  , -0.00731992675, -0.0115926983, 2.421324    , 3.91        , 3           , 12          , 0.0618118159, 0
-0.107058585, 0.07463645  , -9.780542   , -0.000588065363, 0.00228640274, -0.00171378185, -0.178171769, -0.163678035, 0.43953082  , -0.00732560642, -0.011569961, 2.42130685  , 3.92        , 3           , 50          , 0           , 0
-0.121852778, 0.08296586  , -9.790564   , 0.00111091509, 0.00173474022, 0.00111862668, -0.177902117, -0.163543209, 0.439193755 , -0.00731462473, -0.0115525322, 2.42131734  , 3.93        , 3           , 11          , 0.006430744 , 0.00643073628
-0.121914007, 0.07577465  , -9.798731   , -0.000862706336, 0.0008766714, -0.0003045808, -0.178104356, -0.163273558, 0.439328581 , -0.007323215, -0.0115437889, 2.42131448  , 3.94        , 3           , 12          , 0.0618118159, 0
-0.13529703 , 0.0574240424, -9.796648   , -0.000294160156, 3.57937533E-05, -0.00115086127, -0.178104356, -0.1634758  , 0.439396    , -0.007326025, -0.0115435151, 2.421303    , 3.95        , 3           , 50          , 0           , 0
-0.1100104  , 0.09181136  , -9.778686   , -0.0008509017, -0.00137584622, 0.000822097354, -0.178104356, -0.1634758  , 0.439396    , -0.00733463047, -0.011557213, 2.42131114  , 3.96        , 3           , 11          , 0.006430744 , 0.00643073628
-0.103697717, 0.08635941  , -9.789508   , -0.001437318, 0.00284380722, -0.000304177142, -0.17796953 , -0.163610622, 0.439261168 , -0.00734896539, -0.0115287984, 2.4213078   , 3.97        , 3           , 12          , 0.0618118159, 0
-0.114578858, 0.0521805733, -9.785665   , 0.00307635055, 0.003719057 , -0.00197702949, -0.177902117, -0.163678035, 0.43953082  , -0.00731797144, -0.0114917541, 2.42128778  , 3.98        , 3           , 50          , 0           , 0
-0.131001756, 0.07540864  , -9.792473   , -0.00281985174, -0.00307860761, 0.000245200325, -0.178036943, -0.163745448, 0.439396    , -0.00734620076, -0.0115225222, 2.42129064  , 3.99        , 3           , 11          , 0.006430744 , 0.00643073628
-0.134732872, 0.06688233  , -9.793442   , 0.00111626566, 0.0003204244, -0.00114385621, -0.178036943, -0.163745448, 0.439396    , -0.00733573828, -0.011536696, 2.42127919  , 4           , 3           , 12          , 0.06287408  , 0
-0.107450239, 0.07915479  , -9.780978   , 0.005074171 , -0.000215960652, 0.000851475168, -0.1778347  , -0.163340971, 0.439261168 , -0.00728509575, -0.0115387933, 2.42128778  , 4.01        , 3           , 50          , 0           , 0
-0.106239229, 0.06384355  , -9.79414    , 0.004233208 , -0.00162951893, -0.000284794951, -0.17796953 , -0.163273558, 0.439396    , -0.00724273175, -0.0115551092, 2.421285    , 4.02        , 3           , 11          , 0.00635552453, 0.006355512
-0.136107758, 0.0570651665, -9.821064   , -7.702591E-06, -0.0008134751, -0.0008683221, -0.17796953 , -0.163812861, 0.4394634   , -0.0072427094, -0.0115633076, 2.42127633  , 4.03        , 3           , 12          , 0.06287408  , 0
-0.131497324, 0.07046943  , -9.797922   , 0.00140754587, -0.00136705372, -0.000297530351, -0.178104356, -0.163610622, 0.4394634   , -0.007228601, -0.011576998, 2.42127347  , 4.04        , 3           , 50          , 0           , 0
-0.118423514, 0.0689300746, -9.788337   , 0.0008363747, 3.695485E-05, 0.0008321551, -0.178104356, -0.163610622, 0.4394634   , -0.00722033437, -0.0115765687, 2.421282    , 4.05        , 3           , 11          , 0.00635552453, 0.006355512
-0.122445419, 0.102869473 , -9.803142   , 0.000849172648, -0.00277870148, -0.00114994636, -0.177902117, -0.163543209, 0.439396    , -0.00721171126, -0.0116044395, 2.42127061  , 4.06        , 3           , 12          , 0.06287408  , 0
-0.103807762, 0.078682296 , -9.787281   , -0.001988383, 1.78527844E-05, -2.86266441E-05, -0.17796953 , -0.163543209, 0.43953082  , -0.00723159127, -0.0116042625, 2.42127061  , 4.07        , 3           , 50          , 0           , 0
-0.124213696, 0.0753258839, -9.791518   , -0.002276801, 0.00142377289, 0.00166745111, -0.17796953 , -0.163408384, 0.439328581 , -0.007254551, -0.0115899043, 2.42128682  , 4.08        , 3           , 11          , 0.00635552453, 0.006355512
-0.129276171, 0.06549834  , -9.80334949 , 0.000275703176, -0.0008115604, 0.000828219461, -0.17796953 , -0.163408384, 0.439328581 , -0.007251891, -0.0115979584, 2.4212954   , 4.09        , 3           , 12          , 0.06287408  , 0
-0.121529609, 0.07660663  , -9.779288   , 0.001976198 , -0.00392062776, -1.62363867E-05, -0.177902117, -0.163408384, 0.4394634   , -0.00725650555, -0.01170097 , 2.42129636  , 4.1         , 3           , 50          , 0           , 0
-0.107685059, 0.061556872 , -9.780149   , -0.00141898962, -0.00281729 , -0.0008779162, -0.17796953 , -0.163408384, 0.439733058 , -0.00727059552, -0.011729205, 2.42128778  , 4.11        , 3           , 11          , 0.00628318265, 0.00628317241
-0.116632454, 0.06442906  , -9.79783249 , -0.00142653775, -0.00112789567, 0.000537374755, -0.17796953 , -0.163408384, 0.43953082  , -0.007284924, -0.0117404452, 2.421293    , 4.12        , 3           , 12          , 0.063941136 , 0
-0.116145253, 0.09562198  , -9.816683   , -0.00171732844, 0.000559584936, 0.0005386615, -0.17796953 , -0.163408384, 0.43953082  , -0.00730216 , -0.0117348107, 2.42129827  , 4.13        , 3           , 50          , 0           , 0
-0.103415087, 0.06791586  , -9.807209   , -0.00142702716, -0.001127898, -0.0003102375, -0.177902117, -0.163543209, 0.439328581 , -0.00731639471, -0.0117461095, 2.4212954   , 4.14        , 3           , 11          , 0.00628318265, 0.00628317241
-0.103503108, 0.06739819  , -9.787325   , -0.00313150883, 0.000831597 , -0.000597639, -0.178104356, -0.163543209, 0.439665645 , -0.00734763872, -0.0117378365, 2.42128968  , 4.15        , 3           , 12          , 0.063941136 , 0
-0.104737677, 0.07599508  , -9.79001    , -0.00143350777, 0.0002799298, 0.0005395445, -0.177902117, -0.163610622, 0.4394634   , -0.00736203743, -0.0117349969, 2.42129445  , 4.16        , 3           , 50          , 0           , 0
-0.09042029 , 0.06541978  , -9.781358   , -0.00171642413, 0.000278017484, -0.000309384748, -0.177902117, -0.163610622, 0.4394634   , -0.00737916538, -0.01173224 , 2.42129159  , 4.17        , 3           , 11          , 0.00628318265, 0.00628317241
-0.09544715 , 0.08589876  , -9.815209   , -0.000311423122, 0.00169539207, -0.0005831679, -0.17796953 , -0.163678035, 0.43953082  , -0.00738221 , -0.01171533 , 2.42128587  , 4.18        , 3           , 12          , 0.063941136 , 0
-0.118229   , 0.107399665 , -9.822979   , -0.001142717, -0.00140755076, 0.000538257766, -0.178239182, -0.163340971, 0.4394634   , -0.00739370147, -0.0117293661, 2.421291    , 4.19        , 3           , 50          , 0           , 0
-0.130138189, 0.0664369762, -9.811035   , -0.00231225369, 0.00198474829, 0.000256135652, -0.17796953 , -0.163745448, 0.439598233 , -0.007481274, -0.0116501162, 2.42129445  , 4.2         , 3           , 11          , 0.00621185545, 0.00621184241
-0.132121444, 0.08811578  , -9.810057   , 0.000808544457, -0.000809892, 0.0005488201, -0.17796953 , -0.163745448, 0.439598233 , -0.007473255, -0.011658174, 2.42130017  , 4.21        , 3           , 12          , 0.0650125444, 0
-0.142985418, 0.08199678  , -9.830956   , -0.000328132679, 0.0005902935, 0.000545722 , -0.177902117, -0.163812861, 0.439598233 , -0.00747659942, -0.01165223 , 2.421306    , 4.22        , 3           , 50          , 0           , 0
-0.108891532, 0.06526669  , -9.805453   , -0.000884622335, -0.001102917, 0.000540484558, -0.17796953 , -0.163543209, 0.439598233 , -0.00748551032, -0.011663219, 2.42131114  , 4.23        , 3           , 11          , 0.00621185545, 0.00621184241
-0.103517488, 0.06560113  , -9.789593   , 0.004472634 , 0.0006227606, -0.000279502332, -0.178104356, -0.163812861, 0.439665645 , -0.00744075 , -0.0116570117, 2.42130828  , 4.24        , 3           , 12          , 0.0650125444, 0
-0.115303457, 0.09511334  , -9.802668   , -5.02141738E-05, 0.001436897 , -1.67342369E-05, -0.178104356, -0.163812861, 0.439665645 , -0.00744124968, -0.0116426451, 2.4213078   , 4.25        , 3           , 50          , 0           , 0
-0.0909786746, 0.08624384  , -9.799354   , -0.00146111741, 0.00114578137, -0.00030629008, -0.177902117, -0.163610622, 0.43953082  , -0.00745582441, -0.0116312113, 2.421305    , 4.26        , 3           , 11          , 0.00621185545, 0.00621184241
-0.105196074, 0.07599586  , -9.788658   , -5.22607879E-05, 0.001718459 , -0.00114645 , -0.178104356, -0.163408384, 0.439261168 , -0.0074562123, -0.0116141113, 2.4212935   , 4.27        , 3           , 12          , 0.0650125444, 0
-0.131456852, 0.07228766  , -9.801981   , -0.00202539284, 0.000860392465, -0.00172204536, -0.17796953 , -0.163543209, 0.4394634   , -0.00747626554, -0.0116056371, 2.42127585  , 4.28        , 3           , 50          , 0           , 0
-0.121209435, 0.0559617355, -9.813271   , -0.002591151, 0.00113813987, -0.000876632752, -0.17796953 , -0.163408384, 0.439261168 , -0.00750207342, -0.0115943234, 2.42126679  , 4.29        , 3           , 11          , 0.00621185545, 0.00621184241
-0.116939917, 0.06678386  , -9.825848   , 0.000524573 , -0.00109778414, 0.00111222686, -0.17796953 , -0.163408384, 0.439261168 , -0.007506353, -0.0116179315, 2.42127919  , 4.3         , 3           , 12          , 0.06608785  , 0
-0.124245   , 0.07842498  , -9.773878   , 0.0002312461, 0.0008712562, -0.0008638148, -0.177902117, -0.163745448, 0.4394634   , -0.007503939, -0.0116092833, 2.42127013  , 4.31        , 3           , 50          , 0           , 0
-0.144690335, 0.06968047  , -9.785823   , 0.00277783349, 0.0003253251, 0.002537619 , -0.1778347  , -0.163610622, 0.439598233 , -0.007476456, -0.01160584 , 2.4212954   , 4.32        , 3           , 11          , 0.00614260929, 0.00614259858
-0.128698647, 0.0754138157, -9.801948   , 0.00108971586, -0.00123474828, 0.000408300024, -0.177767292, -0.163880274, 0.43953082  , -0.00746560562, -0.0116181569, 2.4212997   , 4.33        , 3           , 12          , 0.06608785  , 0
-0.119374052, 0.06354806  , -9.794694   , 0.00122441142, 3.32483069E-05, -1.28949523E-05, -0.177767292, -0.163880274, 0.43953082  , -0.00745336059, -0.0116178254, 2.42129922  , 4.34        , 3           , 50          , 0           , 0
-0.1218191  , 0.08567125  , -9.790101   , 0.000660010148, -0.000111355534, -0.000439551921, -0.178036943, -0.163610622, 0.43953082  , -0.007446709, -0.0116189728, 2.4212954   , 4.35        , 3           , 11          , 0.00614260929, 0.00614259858
-0.130171239, 0.07221273  , -9.784345   , 0.00194064423, -0.00193293043, 0.000693703536, -0.178036943, -0.163745448, 0.439598233 , -0.007427385, -0.01163825 , 2.421302    , 4.36        , 3           , 12          , 0.06608785  , 0
-0.10998787 , 0.0869197547, -9.799949   , 0.0006687374, -0.00165995827, 0.00139455486, -0.177767292, -0.163678035, 0.439396    , -0.00742085977, -0.0116547467, 2.42131639  , 4.37        , 3           , 50          , 0           , 0
-0.125951529, 0.07362116  , -9.815042   , -0.0016026448, 0.0005772787, -2.519646E-05, -0.177767292, -0.163678035, 0.439396    , -0.00743688364, -0.0116489753, 2.421316    , 4.38        , 3           , 11          , 0.00614260929, 0.00614259858
-0.1283378  , 0.06953144  , -9.798353   , -0.00033741878, 0.00157134747, -0.00143043872, -0.178036943, -0.163678035, 0.439598233 , -0.00744008925, -0.0116333691, 2.4213016   , 4.39        , 3           , 12          , 0.06608785  , 0
-0.09829402 , 0.08136169  , -9.798075   , 0.0007953777, -0.000137053081, -0.00142780447, -0.178104356, -0.163678035, 0.439598233 , -0.00744750444, -0.0117134172, 2.42128825  , 4.4         , 3           , 50          , 0           , 0
-0.119620353, 0.08068201  , -9.790105   , 0.00108091882, -0.000698271731, -0.0008622803, -0.17796953 , -0.163745448, 0.439665645 , -0.007436596, -0.0117204618, 2.42127967  , 4.41        , 3           , 11          , 0.00607556757, 0.00607555965
-0.127350956, 0.08119178  , -9.78067    , 0.0005122095, 0.0001426052, -0.000298537459, -0.17796953 , -0.163745448, 0.439665645 , -0.00743143866, -0.0117190573, 2.42127633  , 4.42        , 3           , 12          , 0.06716665  , 0
-0.109965138, 0.06246307  , -9.773383   , 0.0022048424, 0.0005764134, -7.447598E-06, -0.177902117, -0.1640151  , 0.439396    , -0.007409389, -0.0117132943, 2.42127633  , 4.43        , 3           , 50          , 0           , 0
-0.108642772, 0.08153686  , -9.81397152 , 0.00333446846, 0.000584052934, -0.000143448488, -0.178171769, -0.163812861, 0.43953082  , -0.007376026, -0.0117074652, 2.421275    , 4.44        , 3           , 11          , 0.00607556757, 0.00607555965
-0.135067165, 0.07591066  , -9.79340649 , 0.0016423692, 9.46129148E-06, -0.000717292831, -0.1778347  , -0.163812861, 0.439733058 , -0.007359518, -0.01170742 , 2.42126775  , 4.45        , 3           , 12          , 0.06716665  , 0
-0.135035813, 0.08307768  , -9.778009   , 0.000658301869, -0.0008419177, -0.00029939774, -0.1778347  , -0.163812861, 0.439733058 , -0.00735290069, -0.011715862, 2.421265    , 4.46        , 3           , 50          , 0           , 0
-0.1157341  , 0.0621808134, -9.803259   , -0.0004629598, -0.00253894762, -0.000166000318, -0.177767292, -0.163408384, 0.439328581 , -0.007357513, -0.0117412638, 2.421263    , 4.47        , 3           , 11          , 0.00607556757, 0.00607555965
-0.1258249  , 0.0835434645, -9.8140955  , 0.0002449091, -0.00281573576, 0.00054320175, -0.178104356, -0.163543209, 0.43953082  , -0.007355129, -0.01176938 , 2.4212687   , 4.48        , 3           , 12          , 0.06716665  , 0
-0.103223428, 0.08771058  , -9.790402   , -0.000187384285, -0.0009884258, 0.00125039055, -0.178104356, -0.163812861, 0.439598233 , -0.00735715171, -0.0117791723, 2.42128158  , 4.49        , 3           , 50          , 0           , 0
-0.10682746 , 0.0846434161, -9.804906   , -0.00147990428, -0.0001628196, 0.000257062144, -0.178104356, -0.163812861, 0.439598233 , -0.00742284069, -0.0118124662, 2.421285    , 4.5         , 3           , 11          , 0.006010136 , 0.006010126
-0.11601232 , 0.073932685 , -9.808185   , 0.000917936035, 0.000416545256, 0.000269123935, -0.178036943, -0.163543209, 0.4394634   , -0.00741369231, -0.011808279, 2.42128778  , 4.51        , 3           , 12          , 0.06824858  , 0
-0.106975272, 0.07381126  , -9.8035965  , 0.00106357608, -0.000427193852, 0.0006922868, -0.178104356, -0.163408384, 0.439598233 , -0.00740313763, -0.0118125  , 2.421295    , 4.52        , 3           , 50          , 0           , 0
-0.107284591, 0.0512431152, -9.800529   , 7.70915E-05 , -0.0008562268, 0.0005457579, -0.178171769, -0.163678035, 0.439665645 , -0.007402432, -0.0118210223, 2.42130017  , 4.53        , 3           , 11          , 0.006010136 , 0.006010126
-0.122729607, 0.0865705758, -9.786036   , -0.0007644054, -0.00212900154, -0.00030775796, -0.178036943, -0.163812861, 0.4394634   , -0.007410042, -0.0118423337, 2.42129731  , 4.54        , 3           , 12          , 0.06824858  , 0
-0.103757843, 0.08318624  , -9.785001   , -0.000479435315, -0.002690223, -0.000731115, -0.178036943, -0.163812861, 0.4394634   , -0.00741475169, -0.01186929 , 2.42129064  , 4.55        , 3           , 50          , 0           , 0
-0.105883114, 0.0566183068, -9.79371548 , 0.00035431303, 0.000131159468, -1.64812263E-05, -0.178171769, -0.163543209, 0.43953082  , -0.007411206, -0.0118679805, 2.42129016  , 4.56        , 3           , 11          , 0.006010136 , 0.006010126
-0.139513075, 0.0457525328, -9.799893   , -0.000497683359, 0.00111090811, 0.000263624068, -0.178374   , -0.163678035, 0.439733058 , -0.007416214, -0.0118568521, 2.42129254  , 4.57        , 3           , 12          , 0.06824858  , 0
-0.10620138 , 0.0696767643, -9.784624   , 0.00118941825, 0.002530191 , -0.000573917, -0.1778347  , -0.163812861, 0.4394634   , -0.0074042487, -0.0118315918, 2.42128682  , 4.58        , 3           , 50          , 0           , 0
-0.121206284, 0.06533764  , -9.783853   , 0.00161342928, 0.00239227177, -0.00113723346, -0.1778347  , -0.163812861, 0.4394634   , -0.007387978, -0.0118077546, 2.42127538  , 4.59        , 3           , 11          , 0.006010136 , 0.006010126
-0.09353655 , 0.066839166 , -9.789964   , -0.00104175333, -0.00114642561, -0.0008727432, -0.178171769, -0.163678035, 0.43953082  , -0.007366513, -0.0118223373, 2.42126632  , 4.6         , 3           , 12          , 0.06933326  , 0
-0.09644648 , 0.0475214422, -9.804981   , 0.0003690685, -0.0008553103, -0.000724455866, -0.178171769, -0.163340971, 0.439665645 , -0.00736273732, -0.0118309418, 2.42125916  , 4.61        , 3           , 50          , 0           , 0
-0.111739144, 0.05715822  , -9.799634   , 0.0005054029, 0.000131122622, -0.000722278666, -0.178036943, -0.163610622, 0.439328581 , -0.00735759828, -0.0118296836, 2.421252    , 4.62        , 3           , 11          , 0.005946402 , 0.005946388
-0.117049016, 0.06803451  , -9.79511    , -0.003443983, -0.000740310352, -3.567384E-05, -0.178036943, -0.163610622, 0.439328581 , -0.007392036, -0.01183709 , 2.42125154  , 4.63        , 3           , 12          , 0.06933326  , 0
-0.113608122, 0.05713261  , -9.785637   , -0.00175114244, -0.000447287, -0.0005924133, -0.1783066  , -0.1634758  , 0.43953082  , -0.00740947761, -0.0118416054, 2.42124581  , 4.64        , 3           , 50          , 0           , 0
-0.121995635, 0.07124499  , -9.793326   , 0.00163019379, 0.0009834541, -0.00198712782, -0.178239182, -0.1634758  , 0.439598233 , -0.00739294058, -0.0118319178, 2.42122579  , 4.65        , 3           , 11          , 0.005946402 , 0.005946388
-0.118643709, 0.0508976355, -9.79248    , 0.00135793292, -0.0009894094, -0.00128513854, -0.17796953 , -0.163947687, 0.439598233 , -0.007379208, -0.0118419072, 2.421213    , 4.66        , 3           , 12          , 0.06933326  , 0
-0.118396722, 0.0698444843, -9.791948   , -0.000188652266, -0.00226695463, -0.000446721882, -0.17796953 , -0.163947687, 0.439598233 , -0.007381045, -0.0118646091, 2.42120862  , 4.67        , 3           , 50          , 0           , 0
-0.130532622, 0.0798800662, -9.782056   , -0.00203270884, -0.0005899787, -0.0003114097, -0.178508833, -0.163678035, 0.43953082  , -0.007401336, -0.0118705323, 2.42120576  , 4.68        , 3           , 11          , 0.005946402 , 0.005946388
-0.129251957, 0.07310592  , -9.784786   , -0.00203012838, -0.001012324, 0.0005355517, -0.178576246, -0.1634758  , 0.439396    , -0.00742170261, -0.0118806157, 2.42121148  , 4.69        , 3           , 12          , 0.06933326  , 0
-0.102448955, 0.07420321  , -9.801752   , -0.000463596574, -0.000868547, -2.210918E-05, -0.178104356, -0.163610622, 0.439328581 , -0.00738142 , -0.0119130211, 2.42121148  , 4.7         , 3           , 50          , 0           , 0
-0.120171547, 0.06855613  , -9.805075   , -0.00230129156, -0.0007401851, -0.00214948342, -0.178104356, -0.163610622, 0.439328581 , -0.00740417838, -0.0119205816, 2.4211905   , 4.71        , 3           , 11          , 0.00588474143, 0.00588472746
-0.108324945, 0.0729415342, -9.808582   , -0.00286450656, -0.001025569, -0.00172874506, -0.178374   , -0.163543209, 0.439396    , -0.007432618, -0.0119309649, 2.42117333  , 4.72        , 3           , 12          , 0.0704203844, 0
-0.115762942, 0.0559085421, -9.816393   , -0.00159199152, -0.00115775235, -0.000169079532, -0.178239182, -0.163610622, 0.43953082  , -0.00744851865, -0.0119425552, 2.42117143  , 4.73        , 3           , 50          , 0           , 0
-0.109353207, 0.0683892444, -9.7932415  , -0.0017413242, 0.000530684367, 0.000256671745, -0.178239182, -0.163408384, 0.4394634   , -0.007465963, -0.011937229, 2.42117429  , 4.74        , 3           , 11          , 0.00588474143, 0.00588472746
-0.121776573, 0.05765979  , -9.779821   , -0.00132071669, 0.00109667843, -0.000164291123, -0.178239182, -0.163408384, 0.4394634   , -0.007479149, -0.0119262766, 2.42117238  , 4.75        , 3           , 12          , 0.0704203844, 0
-0.115841784, 0.0603081658, -9.782928   , -0.000744013931, -0.001292805, -0.000165345686, -0.178239182, -0.163610622, 0.439396    , -0.00748657 , -0.0119392155, 2.42117047  , 4.76        , 3           , 50          , 0           , 0
-0.112506561, 0.06754683  , -9.800049   , 0.0008145389, -0.002267776, 0.000405453524, -0.178508833, -0.163543209, 0.439598233 , -0.0074784765, -0.0119618634, 2.42117476  , 4.77        , 3           , 11          , 0.00588474143, 0.00588472746
-0.125710726, 0.0591608658, -9.809676   , 0.0008085921, -0.00100073183, 0.000972481037, -0.1783066  , -0.163678035, 0.439396    , -0.007470508, -0.0119717959, 2.42118478  , 4.78        , 3           , 12          , 0.0704203844, 0
-0.13742502 , 0.06738047  , -9.797979   , -0.000610222865, 0.000256759173, 0.000261505542, -0.178374   , -0.163812861, 0.439328581 , -0.007476642, -0.01196921 , 2.42118764  , 4.79        , 3           , 50          , 0           , 0
-0.121853895, 0.08653576  , -9.778798   , -0.000869860232, -0.000174851622, -0.0007295334, -0.178374   , -0.163812861, 0.439328581 , -0.007416495, -0.0119947465, 2.42118     , 4.8         , 3           , 11          , 0.00582454959, 0.005824535
-0.110145122, 0.08098978  , -9.78054    , -0.000728446466, -3.310979E-05, 0.0008252981, -0.178374   , -0.163610622, 0.439396    , -0.007423878, -0.0119950166, 2.42118859  , 4.81        , 3           , 12          , 0.07150961  , 0
-0.107819393, 0.07878152  , -9.802678   , -0.0008650256, -0.00101954374, 0.000399314653, -0.17844142 , -0.1634758  , 0.4394634   , -0.007432577, -0.012005182, 2.42119241  , 4.82        , 3           , 50          , 0           , 0
-0.130447954, 0.0483319648, -9.793486   , -0.000575502752, -0.00256624445, -0.0005906362, -0.178104356, -0.163745448, 0.439396    , -0.00743826432, -0.0120308865, 2.42118669  , 4.83        , 3           , 11          , 0.00582454959, 0.005824535
-0.115603104, 0.07299937  , -9.800502   , -1.54465743E-05, -0.00157694635, -0.0004452148, -0.178104356, -0.163745448, 0.439396    , -0.007438366, -0.01204669 , 2.421182    , 4.84        , 3           , 12          , 0.07150961  , 0
-0.116187222, 0.06173951  , -9.804621   , -0.00157018809, -0.00130588608, -0.000452024018, -0.17844142 , -0.1634758  , 0.439328581 , -0.007454014, -0.0120597836, 2.42117763  , 4.85        , 3           , 50          , 0           , 0
-0.138321817, 0.0691836253, -9.794363   , -0.00297982339, -0.00173778157, 0.000247084041, -0.17844142 , -0.163678035, 0.439733058 , -0.00748384465, -0.0120771416, 2.42118049  , 4.86        , 3           , 11          , 0.00582454959, 0.005824535
-0.09358223 , 0.0681412   , -9.77459049 , 0.00110806932, -0.000302263128, -0.00029672563, -0.178374   , -0.163812861, 0.43953082  , -0.00747272652, -0.0120801851, 2.42117715  , 4.87        , 3           , 12          , 0.07150961  , 0
-0.09258764 , 0.0699881   , -9.790396   , 0.00392003637, 0.00225092331, 0.000144155318, -0.178374   , -0.163812861, 0.43953082  , -0.007433542, -0.0120576657, 2.421179    , 4.88        , 3           , 50          , 0           , 0
-0.090315   , 0.06148792  , -9.819792   , 0.00335788913, 0.001683973 , -6.15091267E-07, -0.178374   , -0.163543209, 0.4394634   , -0.00739996228, -0.0120408256, 2.42117858  , 4.89        , 3           , 11          , 0.00582454959, 0.005824535
-0.125702977, 0.06720145  , -9.785687   , 0.00210947869, -0.000275292841, -0.000150801585, -0.17844142 , -0.1634758  , 0.439598233 , -0.007336473, -0.0119765727, 2.42117715  , 4.9         , 3           , 12          , 0.0726006255, 0
-0.135524377, 0.0398321673, -9.7976265  , 0.000415570743, -0.0002867495, 0.00097144657, -0.178171769, -0.163678035, 0.439598233 , -0.00733243348, -0.0119793694, 2.42118669  , 4.91        , 3           , 50          , 0           , 0
-0.122005731, 0.067666024 , -9.802381   , -0.0002900812, -0.0005730942, -0.00072750455, -0.178171769, -0.163678035, 0.439598233 , -0.00733524933, -0.011985152, 2.42117953  , 4.92        , 3           , 11          , 0.005765714 , 0.00576570025
-0.1095048  , 0.09006344  , -9.79722    , 0.0005629828, -0.00183440943, -0.00157311885, -0.178508833, -0.163745448, 0.439396    , -0.00732943136, -0.0120036118, 2.4211638   , 4.93        , 3           , 12          , 0.0726006255, 0
-0.09227973 , 0.0880916044, -9.807492   , 0.00140611839, -0.0008431984, -0.0002962306, -0.178778484, -0.1634758  , 0.43953082  , -0.007315336, -0.0120120645, 2.421161    , 4.94        , 3           , 50          , 0           , 0
-0.115272455, 0.06664618  , -9.791034   , 0.0009813289, -0.000564497, 0.000126034021, -0.178508833, -0.163610622, 0.439598233 , -0.007305538, -0.0120177008, 2.42116237  , 4.95        , 3           , 11          , 0.005765714 , 0.00576570025
-0.142378777, 0.07103154  , -9.793031   , 0.0001458975, -0.00296353 , 0.0001183948, -0.178508833, -0.163610622, 0.439598233 , -0.007304096, -0.0120473262, 2.4211638   , 4.96        , 3           , 12          , 0.0726006255, 0
-0.104680739, 0.0773802847, -9.799496   , -0.000423427264, -0.00198187 , 0.0008236235, -0.178374   , -0.163678035, 0.439328581 , -0.00730843237, -0.0120670851, 2.42117238  , 4.97        , 3           , 50          , 0           , 0
-0.09869084 , 0.08141236  , -9.811637   , 0.00126207271, -0.000140237476, 0.0008343457, -0.178508833, -0.163678035, 0.439665645 , -0.007295913, -0.0120684281, 2.42118049  , 4.98        , 3           , 11          , 0.005765714 , 0.00576570025
-0.129665434, 0.06823324  , -9.810121   , -0.0002919275, -0.000150745429, -0.000303047418, -0.178374   , -0.1634758  , 0.439396    , -0.00729879551, -0.0120699573, 2.42117715  , 4.99        , 3           , 12          , 0.0726006255, 0
-0.122611575, 0.05728125  , -9.798361   , -0.0008493273, -0.0021185556, -0.001156151, -0.178374   , -0.1634758  , 0.439396    , -0.007313286, -0.0120677091, 2.42116666  , 5           , 3           , 50          , 0           , 0
-0.1153128  , 0.05991823  , -9.802814   , 0.0002775476, -0.001407   , -1.96484052E-05, -0.178508833, -0.163543209, 0.439193755 , -0.007310508, -0.0120817805, 2.42116666  , 5.01        , 3           , 11          , 0.00570902834, 0.005709013
-0.117558107, 0.06754785  , -9.782912   , -0.000445944577, 0.00210778858, -1.75165951E-05, -0.178508833, -0.163610622, 0.43953082  , -0.007314965, -0.0120607037, 2.42116666  , 5.02        , 3           , 12          , 0.07369318  , 0
-0.09837664 , 0.07549219  , -9.796744   , -0.000867123, 0.00154179183, -0.000585434958, -0.1783066  , -0.1640151  , 0.439665645 , -0.0073235645, -0.0120453294, 2.42116046  , 5.03        , 3           , 50          , 0           , 0
-0.118988648, 0.0581319556, -9.795617   , -0.00142098777, -0.0007145495, -0.0008740779, -0.1783066  , -0.1640151  , 0.439665645 , -0.00733766938, -0.0120525388, 2.42115188  , 5.04        , 3           , 11          , 0.00570902834, 0.005709013
-0.115312845, 0.0675061643, -9.778376   , -0.00127514009, -0.00169907347, -0.00129874435, -0.178239182, -0.164082512, 0.4394634   , -0.007350266, -0.0120696248, 2.421139    , 5.05        , 3           , 12          , 0.07369318  , 0
-0.118336931, 0.07257105  , -9.797812   , 0.000131618217, -0.0004224766, 0.000263749273, -0.17844142 , -0.163678035, 0.4394634   , -0.00734898169, -0.01207383 , 2.42114186  , 5.06        , 3           , 50          , 0           , 0
-0.107904576, 0.07960522  , -9.779172   , 0.00182617921, -0.000411016721, 0.000271650933, -0.178576246, -0.1634758  , 0.439800471 , -0.007330753, -0.01207792 , 2.42114425  , 5.07        , 3           , 11          , 0.00570902834, 0.005709013
