Acc X       , Acc Y       , Acc Z       , Gyro X      , Gyro Y      , Gyro Z      , Magn X      , Magn Y      , Magn Z      , Euler X     , Euler Y     , Euler Z     , Time        , Status      , LowRate X   , LowRate Y   , LowRate Z    
-0.133835763, 0.06552579  , -9.7957     , 0.00241843984, -0.000346172717, 0.0008484313, -0.174935952, -0.168599159, 0.440811634 , -0.007468103, -0.0117477  , 2.399093    , 0           , 3           , 11          , 0.0346410163, 0.0346410163
-0.105273671, 0.07191584  , -9.7828     , 0.00142634241, 0.00021026867, -0.000567997457, -0.174935952, -0.168666571, 0.440811634 , -0.00745377457, -0.0117456419, 2.39908719  , 0.01        , 3           , 12          , 0.0346410163, 0
-0.114380918, 0.06528513  , -9.791937   , 0.0022730073, 0.000356781558, -0.00042256093, -0.174733713, -0.1683295  , 0.4410813   , -0.007430993, -0.011742102, 2.39908338  , 0.02        , 3           , 50          , 0           , 0
-0.109481335, 0.05132411  , -9.816815   , 0.00129467936, -0.00162085693, 0.000276135863, -0.174868539, -0.168531746, 0.44094646  , -0.0074180807, -0.0117582893, 2.39908624  , 0.03        , 3           , 11          , 0.0346410163, 0.0346410163
-0.120949678, 0.109660104 , -9.814854   , 0.00214257557, -0.00175591 , 0.000138600983, -0.174733713, -0.16839692 , 0.440811634 , -0.007396673, -0.0117758373, 2.39908767  , 0.04        , 3           , 12          , 0.0346410163, 0
-0.100606658, 0.07599259  , -9.803538   , 0.002980758 , -6.0793107E-05, -0.00112626329, -0.174733713, -0.16839692 , 0.440811634 , -0.00736673269, -0.0117765311, 2.3990767   , 0.05        , 3           , 50          , 0           , 0
-0.13759324 , 0.0592098758, -9.7831     , 0.00114190613, 0.0006307068, -0.000427394931, -0.174801126, -0.1682621  , 0.440811634 , -0.00735526253, -0.0117702521, 2.399072    , 0.06        , 3           , 11          , 0.0346410163, 0.0346410163
-0.13587445 , 0.0853742957, -9.78704548 , -0.0005520023, 0.000619250059, 0.0006948533, -0.174868539, -0.1682621  , 0.44094646  , -0.007360865, -0.0117640095, 2.39907861  , 0.07        , 3           , 12          , 0.0346410163, 0
-0.12308801 , 0.08308158  , -9.820404   , 1.10494966E-05, 0.0009046331, -8.422398E-06, -0.174935952, -0.168194681, 0.44094646  , -0.007360752, -0.0117549654, 2.39907861  , 0.08        , 3           , 50          , 0           , 0
-0.124323949, 0.06229239  , -9.806489   , 0.000156200214, 6.089165E-05, -0.000432871864, -0.174935952, -0.168194681, 0.44094646  , -0.00735913962, -0.0117543889, 2.39907479  , 0.09        , 3           , 11          , 0.0346410163, 0.0346410163
-0.12878944 , 0.04104541  , -9.779491   , -0.000968628039, -0.000932226, -0.000439657248, -0.174935952, -0.168194681, 0.440879047 , -0.007368775, -0.0117637431, 2.39907     , 0.1         , 3           , 12          , 0.0346410163, 0
-0.138949171, 0.05744238  , -9.789445   , -0.000125040242, -8.179856E-05, 0.000413207745, -0.175003365, -0.1683295  , 0.440811634 , -0.00737007475, -0.011764532, 2.39907432  , 0.11        , 3           , 50          , 0           , 0
-0.125425547, 0.0594660938, -9.767637   , 0.00184304977, 0.00176174508, 0.00070778426, -0.174733713, -0.168194681, 0.440879047 , -0.00735172536, -0.011746862, 2.39908147  , 0.12        , 3           , 11          , 0.0346410163, 0.0346410163
-0.112238236, 0.05757235  , -9.786981   , 0.00169896684, 0.00232392  , 0.000566724862, -0.174733713, -0.168194681, 0.440879047 , -0.00733480044, -0.0117235808, 2.39908719  , 0.13        , 3           , 12          , 0.0346410163, 0
-0.118333861, 0.07168083  , -9.801432   , -0.0002743284, 0.00146585249, -0.0002914079, -0.174868539, -0.1682621  , 0.440811634 , -0.00733750826, -0.0117089422, 2.39908385  , 0.14        , 3           , 50          , 0           , 0
-0.112970874, 0.06709646  , -9.798698   , -0.00168088649, 0.000330042269, -0.000299728272, -0.17513819 , -0.168059856, 0.440811634 , -0.007354282, -0.011705664, 2.39908051  , 0.15        , 3           , 11          , 0.0346410163, 0.0346410163
-0.100913242, 0.0596755557, -9.78101    , -0.00307776826, -0.002776724, -0.000452354929, -0.175003365, -0.168194681, 0.44094646  , -0.007385009, -0.0117334668, 2.3990767   , 0.16        , 3           , 12          , 0.0346410163, 0
-0.105345167, 0.06337723  , -9.792779   , -0.00180127181, -0.00389438868, -0.000448164443, -0.175003365, -0.168194681, 0.44094646  , -0.00740297325, -0.0117724407, 2.39907241  , 0.17        , 3           , 50          , 0           , 0
-0.109297819, 0.0778074861, -9.776478   , -0.0004025063, -0.00106918544, 0.0005516406, -0.175340429, -0.167992443, 0.440811634 , -0.00740706362, -0.0117830923, 2.39907765  , 0.18        , 3           , 11          , 0.0346410163, 0.0346410163
-0.116459541, 0.08153047  , -9.785106   , -0.00195646938, -0.0009389077, 0.0006858833, -0.17513819 , -0.1677228  , 0.440811634 , -0.007426711, -0.01179243 , 2.39908528  , 0.19        , 3           , 12          , 0.0346410163, 0
-0.09847892 , 0.07585566  , -9.770528   , -0.0006898104, -8.56179249E-05, 0.0005518495, -0.175273016, -0.167992443, 0.440542    , -0.00743361562, -0.01179324 , 2.399091    , 0.2         , 3           , 50          , 0           , 0
-0.11883527 , 0.0765565857, -9.773844   , 0.00170561241, 0.000916092948, -5.128186E-07, -0.17513819 , -0.167992443, 0.440542    , -0.007416558, -0.0117840786, 2.39909053  , 0.21        , 3           , 11          , 0.03466991  , 0.03466991
-0.0969416946, 0.07821641  , -9.806665   , 0.00354688126, -0.000197752845, -0.000134957212, -0.17513819 , -0.167992443, 0.440542    , -0.00738107134, -0.011786066, 2.399089    , 0.22        , 3           , 12          , 0.0346687958, 0
-0.099730134, 0.07194126  , -9.809424   , 0.00311549241, 0.00134798978, -0.0002758146, -0.1752056  , -0.1677228  , 0.4404746   , -0.00734988367, -0.0117726084, 2.39908624  , 0.23        , 3           , 50          , 0           , 0
-0.125211552, 0.0690128356, -9.789292   , 0.00156735023, 0.000352008763, 0.000280498352, -0.1752056  , -0.1677228  , 0.440676838 , -0.007334243, -0.0117690675, 2.399089    , 0.24        , 3           , 11          , 0.03466991  , 0.03466991
-0.118070148, 0.06304166  , -9.782934   , 1.67906364E-05, -0.0002216263, 0.000272387377, -0.17513819 , -0.1677228  , 0.440744251 , -0.00733410753, -0.0117712636, 2.399092    , 0.25        , 3           , 12          , 0.0346687958, 0
-0.102856115, 0.0804944038, -9.792688   , 0.0005704552, 0.00189392816, -0.000993143, -0.17513819 , -0.1677228  , 0.440744251 , -0.00732828351, -0.0117523968, 2.39908147  , 0.26        , 3           , 50          , 0           , 0
-0.100575514, 0.08539117  , -9.780899   , 0.00171069917, -0.000210169412, -0.0008498611, -0.1756775  , -0.167857617, 0.4404746   , -0.00731107732, -0.0117545621, 2.39907336  , 0.27        , 3           , 11          , 0.03466991  , 0.03466991
-0.113649428, 0.08425235  , -9.799084   , 0.00115748681, -0.00246650749, -8.353896E-06, -0.17513819 , -0.1676554  , 0.440811634 , -0.00729950331, -0.0117792264, 2.39907336  , 0.28        , 3           , 12          , 0.0346687958, 0
-0.09329854 , 0.07863714  , -9.810251   , -0.000123436708, -0.0005041482, -0.000435048656, -0.175070778, -0.167992443, 0.440542    , -0.007300687, -0.0117842993, 2.399069    , 0.29        , 3           , 50          , 0           , 0
-0.106750824, 0.0624621548, -9.784206   , -0.0015548293, -6.18476843E-05, -0.0005818263, -0.175070778, -0.167992443, 0.440542    , -0.007668138, -0.0111772418, 2.39906716  , 0.3         , 3           , 11          , 0.0347534679, 0.0347534679
-0.119662814, 0.07618411  , -9.794191   , -0.0005637106, -0.000618293765, -0.000860622269, -0.175273016, -0.167520568, 0.4404746   , -0.00767368 , -0.01118349 , 2.39905858  , 0.31        , 3           , 12          , 0.0347538479, 0
-0.121400207, 0.0776041746, -9.807758   , -6.071582E-06, 0.000793350453, -0.001279625, -0.1752056  , -0.1676554  , 0.440676838 , -0.007673597, -0.0111756558, 2.39904618  , 0.32        , 3           , 50          , 0           , 0
-0.107798986, 0.07611998  , -9.816248   , 0.000127719526, 0.0023429147, -0.0008527737, -0.175070778, -0.167587981, 0.440609425 , -0.007672222, -0.0111522926, 2.3990376   , 0.33        , 3           , 11          , 0.0347534679, 0.0347534679
-0.08813814 , 0.06228352  , -9.795816   , 0.001821502 , 0.0024951566, -0.0009859239, -0.175070778, -0.167587981, 0.440609425 , -0.007653894, -0.0111274179, 2.399027    , 0.34        , 3           , 12          , 0.0347538479, 0
-0.09366088 , 0.06004317  , -9.7814045  , 0.00126427109, 0.0010835143, 0.000139422453, -0.175340429, -0.167857617, 0.4404746   , -0.007641267, -0.0111165717, 2.39902854  , 0.35        , 3           , 50          , 0           , 0
-0.0956762657, 0.07098356  , -9.80713749 , 0.00126910559, 0.000238822176, 0.00126827054, -0.175340429, -0.167587981, 0.440542    , -0.00762871653, -0.011114087, 2.39904141  , 0.36        , 3           , 11          , 0.0347534679, 0.0347534679
-0.110254064, 0.0697427541, -9.790078   , 0.00126336643, 0.00136508176, 0.0009874688, -0.1752056  , -0.167587981, 0.440676838 , -0.007616191, -0.0111003621, 2.399051    , 0.37        , 3           , 12          , 0.0347538479, 0
-0.103532411, 0.06558905  , -9.785976   , -0.0007068518, -0.000196900248, -0.000578092469, -0.1752056  , -0.167587981, 0.440676838 , -0.007623195, -0.0111023737, 2.39904523  , 0.38        , 3           , 50          , 0           , 0
-0.155774474, 0.08071658  , -9.80846    , 6.996651E-05, -0.000262040121, -0.0009277512, -0.175340429, -0.167992443, 0.440744251 , -0.007622393, -0.0111050652, 2.39903617  , 0.39        , 3           , 11          , 0.0347534679, 0.0347534679
-0.114388816, 0.0621542856, -9.800085   , 0.0004359048, 7.44305944E-05, -0.0006433143, -0.175273016, -0.167520568, 0.440744251 , -0.00748475175, -0.0112687424, 2.399028    , 0.4         , 3           , 12          , 0.0348953158, 0
-0.105353415, 0.0597997755, -9.802285   , 0.000227566154, -0.0004901288, 0.0005556143, -0.175407842, -0.1677902  , 0.440744251 , -0.0074825394, -0.011273602, 2.39903378  , 0.41        , 3           , 50          , 0           , 0
-0.114580669, 0.07977868  , -9.807245   , 0.00183468859, 0.0029700275, 0.0009923085, -0.175407842, -0.1677902  , 0.440744251 , -0.00746430038, -0.0112438286, 2.39904332  , 0.42        , 3           , 11          , 0.0176999737, 0.01770003
-0.121835321, 0.0762847662, -9.816356   , 6.507559E-05, 0.003732391 , -7.42443954E-05, -0.175340429, -0.167857617, 0.440542    , -0.007463638, -0.0112065123, 2.39904237  , 0.43        , 3           , 12          , 0.0348953158, 0
-0.12901184 , 0.08267383  , -9.812767   , 0.0009809978, 0.00402016053, -0.00105841155, -0.175475255, -0.1676554  , 0.440879047 , -0.007453709, -0.01116639 , 2.39903188  , 0.44        , 3           , 50          , 0           , 0
-0.11464224 , 0.07972878  , -9.792331   , 0.00262227375, 0.000581971661, -0.0006323486, -0.175475255, -0.167520568, 0.441013873 , -0.00742741534, -0.0111606186, 2.3990252   , 0.45        , 3           , 11          , 0.0176999737, 0.01770003
-0.134187073, 0.0767720938, -9.784356   , 9.109635E-06, 0.000634694 , -0.00128013128, -0.175475255, -0.167453155, 0.440744251 , -0.00742718065, -0.0111543657, 2.39901233  , 0.46        , 3           , 12          , 0.0348953158, 0
-0.125455856, 0.08123855  , -9.800995   , 0.00177983113, -0.00040923612, -0.0007084526, -0.175475255, -0.167453155, 0.440744251 , -0.00740930252, -0.011158511, 2.39900517  , 0.47        , 3           , 50          , 0           , 0
-0.118901737, 0.0622195378, -9.803736   , 0.00101369026, -0.00238544028, 0.000626941153, -0.175475255, -0.167520568, 0.440879047 , -0.007399238, -0.0111823175, 2.39901185  , 0.48        , 3           , 11          , 0.0176999737, 0.01770003
-0.122759759, 0.07851184  , -9.804602   , -0.00061844266, -0.0007774242, 0.000339326332, -0.17561008 , -0.1677228  , 0.44094646  , -0.00740546174, -0.011190067, 2.39901519  , 0.49        , 3           , 12          , 0.0348953158, 0
-0.107096218, 0.0741596   , -9.772861   , -0.0005634544, 6.946556E-05, 0.0003406992, -0.1756775  , -0.1676554  , 0.440676838 , -0.007464449, -0.011519542, 2.39901948  , 0.5         , 3           , 50          , 0           , 0
-0.09741284 , 0.08624115  , -9.776352   , -0.00020722505, -0.000491275336, 0.00104782125, -0.1756775  , -0.1676554  , 0.440676838 , -0.00746664125, -0.0115243765, 2.39903     , 0.51        , 3           , 11          , 0.0134356208, 0.0134356339
-0.09363336 , 0.06452898  , -9.773702   , -0.00119762088, -0.000286790455, -0.000439784257, -0.175947145, -0.167587981, 0.440744251 , -0.0074785687, -0.0115272757, 2.39902568  , 0.52        , 3           , 12          , 0.0350920819, 0
-0.106961362, 0.0800714344, -9.786846   , -7.0783266E-05, 0.000283979229, -0.000574917358, -0.176014557, -0.167318329, 0.440744251 , -0.00747920852, -0.01152448 , 2.39902     , 0.53        , 3           , 50          , 0           , 0
-0.113653138, 0.07666139  , -9.82261848 , 0.0004238937, 0.000216930843, -0.000431452441, -0.1756775  , -0.167520568, 0.440744251 , -0.00747492071, -0.0115223434, 2.39901567  , 0.54        , 3           , 11          , 0.0134356208, 0.0134356339
-0.07970864 , 0.08205361  , -9.800189   , -0.00105849851, 0.000136512259, -0.000438474875, -0.1756775  , -0.167520568, 0.440744251 , -0.00748545537, -0.01152101 , 2.399011    , 0.55        , 3           , 12          , 0.0350920819, 0
-0.09671748 , 0.06909886  , -9.780034   , -7.073884E-05, 0.000143193611, -0.00170528423, -0.175879732, -0.167520568, 0.440744251 , -0.007485966, -0.0115197059, 2.39899373  , 0.56        , 3           , 50          , 0           , 0
-0.133246511, 0.08125332  , -9.778455   , -0.0006332567, -0.000282972876, -0.00128476275, -0.175879732, -0.167520568, 0.44094646  , -0.00749215065, -0.0115226312, 2.39898133  , 0.57        , 3           , 11          , 0.0134356208, 0.0134356339
-0.1327968  , 0.08213821  , -9.774832   , -0.000564503542, 0.000421425153, 0.00154202606, -0.175812319, -0.167385742, 0.440744251 , -0.007497973, -0.0115183005, 2.39899659  , 0.58        , 3           , 12          , 0.0350920819, 0
-0.122665823, 0.07948066  , -9.824484   , 0.0006368747, 0.000288761832, 0.00218311558, -0.175812319, -0.167385742, 0.440744251 , -0.007491856, -0.0115152495, 2.39901853  , 0.59        , 3           , 50          , 0           , 0
-0.116593972, 0.09607694  , -9.816234   , 0.0007378057, 0.00119046  , 0.00105536415, -0.17561008 , -0.167318329, 0.440744251 , -0.00758943846, -0.0115460819, 2.39903045  , 0.6         , 3           , 11          , 0.0113499053, 0.0113499127
-0.0966144353, 0.07230682  , -9.794935   , 0.00108908187, 0.001333625 , -0.000779266236, -0.175879732, -0.167250916, 0.440811634 , -0.00757845631, -0.0115328059, 2.39902234  , 0.61        , 3           , 12          , 0.0353427939, 0
-0.132042885, 0.07620215  , -9.756772   , 0.000173470908, 0.000834678067, -0.00106684316, -0.1757449  , -0.167520568, 0.440879047 , -0.007576597, -0.0115245394, 2.39901185  , 0.62        , 3           , 50          , 0           , 0
-0.109233223, 0.0845551044, -9.770575   , -0.00355860358, -0.001020797, 0.0006787461, -0.1757449  , -0.167520568, 0.440879047 , -0.007612262, -0.0115346955, 2.39901853  , 0.63        , 3           , 11          , 0.0113499053, 0.0113499127
-0.136902332, 0.0736807   , -9.7947855  , -0.00193854235, -0.000305904, -1.89403181E-05, -0.1757449  , -0.167318329, 0.440609425 , -0.007631646, -0.0115377558, 2.39901853  , 0.64        , 3           , 12          , 0.0353427939, 0
-0.124485955, 0.07994099  , -9.820881   , 2.52208574E-05, 0.00245272717, 0.000630218245, -0.17608197 , -0.1671835  , 0.440744251 , -0.00763146533, -0.01151318 , 2.39902472  , 0.65        , 3           , 50          , 0           , 0
-0.117287949, 0.0824963152, -9.800926   , -0.001100119, 0.00152999989, 0.0003410027, -0.175812319, -0.1676554  , 0.44094646  , -0.007642504, -0.0114978552, 2.399028    , 0.66        , 3           , 11          , 0.0113499053, 0.0113499127
-0.126872286, 0.0834391862, -9.779754   , -0.00158333627, -0.000725863734, 0.00012332348, -0.175812319, -0.1676554  , 0.44094646  , -0.007658351, -0.0115051055, 2.39902949  , 0.67        , 3           , 12          , 0.0353427939, 0
-0.110781953, 0.0914842337, -9.812592   , 0.000323497079, -0.000853755337, -0.0002918102, -0.1756775  , -0.167587981, 0.440542    , -0.007655084, -0.0115136644, 2.39902616  , 0.68        , 3           , 50          , 0           , 0
-0.09527634 , 0.0624547452, -9.821632   , 0.000320872176, -0.0002906244, -8.404976E-06, -0.175947145, -0.167116091, 0.440811634 , -0.007651875, -0.011516572, 2.39902616  , 0.69        , 3           , 11          , 0.0113499053, 0.0113499127
-0.0983562842, 0.06256452  , -9.843351   , -0.000568472838, 0.000247134274, -0.0005055768, -0.175812319, -0.167453155, 0.441013873 , -0.00773998862, -0.0115556773, 2.39902329  , 0.7         , 3           , 12          , 0.0356458947, 0
-0.114105694, 0.07443515  , -9.829864   , -0.00141048874, -0.000673678645, 0.000760480762, -0.1757449  , -0.167318329, 0.440609425 , -0.00775418244, -0.0115623521, 2.39903045  , 0.71        , 3           , 50          , 0           , 0
-0.133507624, 0.0582778677, -9.788496   , 0.000279337924, 0.000252866681, 0.000416620664, -0.1757449  , -0.167318329, 0.440609425 , -0.007751438, -0.01155979 , 2.39903474  , 0.72        , 3           , 11          , 0.0101314923, 0.0101315
-0.130914167, 0.0554680079, -9.767244   , 0.001971033 , 0.000686670362, -0.000916879741, -0.1757449  , -0.167318329, 0.440811634 , -0.007731621, -0.011552996, 2.3990252   , 0.73        , 3           , 12          , 0.0356458947, 0
-0.101600982, 0.07191414  , -9.794975   , -0.00064537843, 0.00172487844, 0.00126223126, -0.175947145, -0.167116091, 0.440879047 , -0.00773821864, -0.0115356511, 2.399038    , 0.74        , 3           , 50          , 0           , 0
-0.103693388, 0.0769895539, -9.820733   , -0.000139404874, -0.0006650829, 0.00104894431, -0.175542668, -0.1677902  , 0.440542    , -0.00773973437, -0.0115422206, 2.39904857  , 0.75        , 3           , 11          , 0.0101314923, 0.0101315
-0.126498774, 0.06685467  , -9.813718   , 0.00225743046, 0.0001254559, 0.001131966 , -0.175542668, -0.1677902  , 0.440542    , -0.00771729043, -0.0115408758, 2.39906     , 0.76        , 3           , 12          , 0.0356458947, 0
-0.116974749, 0.0752363056, -9.790108   , 0.002676585 , 0.000902621658, 4.98491772E-06, -0.17561008 , -0.167385742, 0.440609425 , -0.007690524, -0.01153185 , 2.39906     , 0.77        , 3           , 50          , 0           , 0
-0.124741741, 0.06678957  , -9.800597   , -0.0001554729, 0.00243212935, -0.000217700843, -0.1756775  , -0.167116091, 0.44094646  , -0.007692053, -0.0115075456, 2.39905763  , 0.78        , 3           , 11          , 0.0101314923, 0.0101315
-0.121724688, 0.0821769461, -9.824466   , -9.339788E-06, 0.00144760672, -0.0001479268, -0.17561008 , -0.167453155, 0.440744251 , -0.007692127, -0.0114930812, 2.39905572  , 0.79        , 3           , 12          , 0.0356458947, 0
-0.117189288, 0.08480801  , -9.817639   , -0.00258909073, 0.00150845351, 0.000263107242, -0.17561008 , -0.167453155, 0.440744251 , -0.00766316755, -0.0115810661, 2.39905858  , 0.8         , 3           , 50          , 0           , 0
-0.113291636, 0.07167225  , -9.816309   , -0.00124274346, 0.000461655029, -0.0004386082, -0.175812319, -0.167520568, 0.440811634 , -0.007675543, -0.0115764821, 2.39905381  , 0.81        , 3           , 11          , 0.00937713  , 0.009377138
-0.09170048 , 0.102918327 , -9.790703   , -0.0015117419, -0.00228551519, -0.0007266935, -0.1757449  , -0.167453155, 0.440811634 , -0.00769057823, -0.0115993926, 2.39904666  , 0.82        , 3           , 12          , 0.0359996445, 0
-0.104897276, 0.0918602347, -9.810737   , 0.000246370531, -0.000724967045, 0.0003434395, -0.175879732, -0.167385742, 0.440676838 , -0.007688155, -0.011606615, 2.39905     , 0.83        , 3           , 50          , 0           , 0
-0.100551225, 0.0778229   , -9.811214   , 0.0015765829, 0.0015366252, 7.062903E-05, -0.175879732, -0.167385742, 0.440676838 , -0.00767239649, -0.0115912473, 2.399051    , 0.84        , 3           , 11          , 0.00937713  , 0.009377138
-0.08757627 , 0.06861548  , -9.802114   , 0.0007408215, -0.000721623655, 0.000698916 , -0.175812319, -0.1676554  , 0.440879047 , -0.00766506931, -0.0115984054, 2.39905763  , 0.85        , 3           , 12          , 0.0359996445, 0
-0.129560634, 0.0763524547, -9.809634   , -0.00194559235, -0.000176641, -0.0003016081, -0.175879732, -0.166913852, 0.440811634 , -0.00768449064, -0.0116001954, 2.39905477  , 0.86        , 3           , 50          , 0           , 0
-0.143623635, 0.0533595756, -9.766898   , -0.00103469391, 0.00116699887, -0.000930976355, -0.175475255, -0.167587981, 0.440879047 , -0.00769472867, -0.0115885986, 2.39904523  , 0.87        , 3           , 11          , 0.00937713  , 0.009377138
-0.113977171, 0.0421040058, -9.743667   , 0.0005971685, -0.000229839934, 0.000699016848, -0.175475255, -0.167587981, 0.440879047 , -0.007688838, -0.0115908431, 2.39905238  , 0.88        , 3           , 12          , 0.0359996445, 0
-0.12357711 , 0.08439651  , -9.807296   , -0.000322209235, -0.0001656614, -0.0012829171, -0.175812319, -0.166981265, 0.440744251 , -0.007691911, -0.0115925986, 2.39903951  , 0.89        , 3           , 50          , 0           , 0
-0.150909781, 0.0649419   , -9.830637   , -0.00196300074, -0.00106063369, -0.001292916, -0.1757449  , -0.167116091, 0.440879047 , -0.007642006, -0.01165762 , 2.39902616  , 0.9         , 3           , 11          , 0.008911723 , 0.008911725
-0.145038813, 0.064414084 , -9.828333   , -0.00237704976, -0.00289366883, -0.000379465, -0.175812319, -0.1671835  , 0.440879047 , -0.007665735, -0.0116865849, 2.39902282  , 0.91        , 3           , 12          , 0.03640216  , 0
-0.100119263, 0.06976641  , -9.832035   , 0.00227964879, -0.002087848, 0.000491070037, -0.175812319, -0.1671835  , 0.440879047 , -0.00764299836, -0.0117074242, 2.399028    , 0.92        , 3           , 50          , 0           , 0
-0.07443192 , 0.0742749   , -9.786622   , 0.00128820748, -0.00167218957, -0.0009962101, -0.175812319, -0.167385742, 0.440744251 , -0.007630001, -0.0117242225, 2.39901853  , 0.93        , 3           , 11          , 0.008911723 , 0.008911725
-0.09913248 , 0.0966026038, -9.765474   , 0.00149163813, 0.000229812009, 0.0007735659, -0.176149383, -0.167048678, 0.440744251 , -0.0076151765, -0.0117218653, 2.39902616  , 0.94        , 3           , 12          , 0.03640216  , 0
-0.116795652, 0.08296937  , -9.809057   , 0.0014164414, 0.00107402774, 6.81948659E-05, -0.175812319, -0.167116091, 0.440879047 , -0.00760102 , -0.0117111234, 2.39902663  , 0.95        , 3           , 50          , 0           , 0
-0.130597264, 0.0731324553, -9.78796    , -0.0004225475, 0.00155434827, -0.001281659, -0.175879732, -0.167048678, 0.440811634 , -0.00760509353, -0.0116956765, 2.39901376  , 0.96        , 3           , 11          , 0.008911723 , 0.008911725
-0.112714775, 0.06336098  , -9.762552   , 0.00198403862, 0.000655503245, 0.00120032765, -0.175879732, -0.167048678, 0.440811634 , -0.00758539326, -0.01168903 , 2.39902568  , 0.97        , 3           , 12          , 0.03640216  , 0
-0.133861989, 0.06282645  , -9.797971   , 0.00255541364, -0.000748504361, 0.00042381385, -0.175812319, -0.166913852, 0.440879047 , -0.00755988946, -0.0116964811, 2.39903     , 0.98        , 3           , 50          , 0           , 0
-0.109237753, 0.0707145557, -9.814022   , 0.00135620451, -0.000897402468, 0.0011243436, -0.175947145, -0.167385742, 0.44094646  , -0.00754646165, -0.01170537 , 2.39904141  , 0.99        , 3           , 11          , 0.008911723 , 0.008911725
-0.10173256 , 0.06288053  , -9.79185    , -0.00192748127, -0.00150961825, 0.0006836884, -0.175812319, -0.167048678, 0.440879047 , -0.007525317, -0.0117538357, 2.399048    , 1           , 3           , 12          , 0.0368514322, 0
-0.103312396, 0.07826513  , -9.79903    , -0.000373062445, -0.00192146609, -0.00107557862, -0.175812319, -0.167048678, 0.440879047 , -0.007528924, -0.01177313 , 2.3990376   , 1.01        , 3           , 50          , 0           , 0
-0.140852034, 0.06668852  , -9.848179   , -0.0005865435, -0.00157094188, -0.000934755, -0.176014557, -0.166981265, 0.4411487   , -0.00753468042, -0.0117889093, 2.39902854  , 1.02        , 3           , 11          , 0.00863459148, 0.00863459148
-0.122706778, 0.08212559  , -9.805942   , 0.00139459688, -0.00205030269, 0.00204034755, -0.176014557, -0.166981265, 0.44094646  , -0.00752097741, -0.0118092587, 2.399049    , 1.03        , 3           , 12          , 0.0368514322, 0
-0.09150404 , 0.09154655  , -9.764534   , 0.00132261834, -0.00183960807, 0.00147526863, -0.176014557, -0.167318329, 0.44094646  , -0.007507927, -0.01182754 , 2.3990643   , 1.04        , 3           , 50          , 0           , 0
-0.104787216, 0.08220386  , -9.75789452 , 0.000188302511, -0.00107294763, 0.000129141452, -0.176014557, -0.167318329, 0.44094646  , -0.00750606 , -0.01183826 , 2.39906526  , 1.05        , 3           , 11          , 0.00863459148, 0.00863459148
-0.100572564, 0.0818228   , -9.79311848 , 0.000113350623, -0.000228730642, -0.0001524234, -0.175812319, -0.167116091, 0.440879047 , -0.00750490837, -0.0118405586, 2.39906383  , 1.06        , 3           , 12          , 0.0368514322, 0
-0.113034435, 0.0892883241, -9.822563   , -0.0004609683, 0.00145683461, -0.002059582, -0.175879732, -0.166779026, 0.44094646  , -0.00750927348, -0.0118261464, 2.39904332  , 1.07        , 3           , 50          , 0           , 0
-0.100811012, 0.09182146  , -9.813418   , 0.00165866443, 0.00133038033, -0.000778503, -0.175812319, -0.167048678, 0.4410813   , -0.00749259349, -0.0118129021, 2.39903569  , 1.08        , 3           , 11          , 0.00863459148, 0.00863459148
-0.1096664  , 0.07564927  , -9.804062   , 0.00306790648, 0.001973453 , -0.0003471357, -0.175812319, -0.167048678, 0.4410813   , -0.00746187055, -0.0117931925, 2.39903188  , 1.09        , 3           , 12          , 0.0368514322, 0
-0.108529411, 0.06875871  , -9.77199    , 0.001698892 , 0.0004374733, 0.000211530627, -0.175879732, -0.167116091, 0.440811634 , -0.00757000269, -0.0116811311, 2.39903569  , 1.1         , 3           , 50          , 0           , 0
-0.121679686, 0.06264815  , -9.787484   , 0.001203166 , 0.0008564814, 0.00126939255, -0.175812319, -0.166779026, 0.4411487   , -0.00755811855, -0.0116724716, 2.399048    , 1.11        , 3           , 11          , 0.008480192 , 0.008480189
-0.123810604, 0.06858505  , -9.801035   , 0.00015116125, -0.00069929153, 0.0002731863, -0.1757449  , -0.167048678, 0.440879047 , -0.00755664 , -0.0116794454, 2.399051    , 1.12        , 3           , 12          , 0.0373453833, 0
-0.139475763, 0.0457827672, -9.808932   , 0.00169811363, 0.000578255451, 7.047887E-05, -0.1757449  , -0.167048678, 0.440879047 , -0.007539665, -0.0116736554, 2.399052    , 1.13        , 3           , 50          , 0           , 0
-0.139183015, 0.0661057457, -9.815173   , 0.000845279 , 0.00162839284, -0.0004969195, -0.176014557, -0.166913852, 0.441013873 , -0.007531154, -0.0116574094, 2.39904714  , 1.14        , 3           , 11          , 0.008480192 , 0.008480189
-0.100845635, 0.06285478  , -9.787323   , -0.0007072971, 0.00175867754, 0.00203889143, -0.175812319, -0.166913852, 0.44094646  , -0.007538462, -0.0116396705, 2.39906716  , 1.15        , 3           , 12          , 0.0373453833, 0
-0.102971859, 0.07013455  , -9.797705   , -0.000635659962, 0.0013368025, 0.0002020763, -0.175812319, -0.166846439, 0.4410813   , -0.007544843, -0.0116262874, 2.399069    , 1.16        , 3           , 50          , 0           , 0
-0.115105562, 0.08061827  , -9.786907   , -0.001125558, 0.000347979862, -0.000719993841, -0.175812319, -0.166846439, 0.4410813   , -0.007556014, -0.011622862, 2.39906144  , 1.17        , 3           , 11          , 0.008480192 , 0.008480189
-0.121230237, 0.09068604  , -9.80725    , -0.00155395491, 0.00133059325, -0.0005085474, -0.17608197 , -0.166981265, 0.440879047 , -0.00757149141, -0.0116095943, 2.39905667  , 1.18        , 3           , 12          , 0.0373453833, 0
-0.123675972, 0.0767284557, -9.807779   , -0.00204465771, 0.000693731359, 0.00019451516, -0.175879732, -0.166779026, 0.44094646  , -0.00759196049, -0.0116026439, 2.39905858  , 1.19        , 3           , 50          , 0           , 0
-0.100556858, 0.08540629  , -9.785419   , -6.547416E-05, 0.0005108282, -0.000220628863, -0.175812319, -0.166846439, 0.4411487   , -0.00759060867, -0.0116606662, 2.39905667  , 1.2         , 3           , 11          , 0.008402442 , 0.00840244
-0.114968844, 0.0865316242, -9.801344   , -0.000845076866, 0.0009983124, -0.00107110338, -0.175947145, -0.166981265, 0.44094646  , -0.00759893376, -0.0116507644, 2.39904618  , 1.21        , 3           , 12          , 0.0378818773, 0
-0.109674111, 0.07787479  , -9.795012   , -0.000487145735, 8.561504E-05, -0.0004351582, -0.175947145, -0.166981265, 0.44094646  , -0.00760375476, -0.01164994 , 2.39904141  , 1.22        , 3           , 50          , 0           , 0
-0.12528652 , 0.06850575  , -9.772572   , 0.000855486549, -4.609313E-05, 0.000277223764, -0.175812319, -0.166981265, 0.4411487   , -0.00759523176, -0.0116503807, 2.39904428  , 1.23        , 3           , 11          , 0.008402442 , 0.00840244
-0.134480149, 0.0560025   , -9.779472   , 0.00183989876, 0.0008756804, 0.00106022146, -0.175812319, -0.166846439, 0.4410813   , -0.00757695641, -0.0116415434, 2.39905477  , 1.24        , 3           , 12          , 0.0378818773, 0
-0.139356747, 0.0606087819, -9.79033852 , 0.00268763164, 0.000740626536, 0.000640149054, -0.1757449  , -0.167116091, 0.441013873 , -0.007550154, -0.0116340891, 2.39906144  , 1.25        , 3           , 50          , 0           , 0
-0.146306857, 0.0507405028, -9.783654   , -0.0007027621, 0.0009992726, 0.000836682739, -0.1757449  , -0.167116091, 0.441013873 , -0.007557279, -0.0116240354, 2.39907     , 1.26        , 3           , 11          , 0.008402442 , 0.00840244
-0.0977731347, 0.05515102  , -9.788236   , -0.00400842354, -0.00162764662, 0.000746560632, -0.175879732, -0.167048678, 0.4411487   , -0.00759745063, -0.0116402544, 2.39907765  , 1.27        , 3           , 12          , 0.0378818773, 0
-0.112513371, 0.06843402  , -9.795526   , -0.00154327624, -0.000414283655, 0.0004773905, -0.175812319, -0.1666442  , 0.441283524 , -0.00761294039, -0.0116443587, 2.39908242  , 1.28        , 3           , 50          , 0           , 0
-0.1163059  , 0.09013562  , -9.795012   , 0.000351648254, 0.00178073486, -0.000640507031, -0.175879732, -0.166779026, 0.441013873 , -0.00760934642, -0.0116266012, 2.39907575  , 1.29        , 3           , 11          , 0.008402442 , 0.00840244
-0.105262436, 0.0643369853, -9.80995    , -0.000993007, 0.00175760838, 5.804874E-05, -0.175879732, -0.166779026, 0.441013873 , -0.0075433  , -0.01170366 , 2.39907575  , 1.3         , 3           , 12          , 0.0384587534, 0
-0.09296065 , 0.07452156  , -9.79535    , -0.00218491256, -8.068519E-05, -0.00108051859, -0.175879732, -0.166711614, 0.441013873 , -0.007565022, -0.0117045483, 2.39906526  , 1.31        , 3           , 50          , 0           , 0
-0.09266211 , 0.100205436 , -9.78575    , -0.00175360893, -0.00148564216, 0.0001200714, -0.1757449  , -0.1666442  , 0.4411487   , -0.007582574, -0.0117193963, 2.39906621  , 1.32        , 3           , 11          , 0.008365032 , 0.008365031
-0.119211338, 0.0743923262, -9.79962    , -0.000695368566, -0.001337698, -0.000157310526, -0.1756775  , -0.166576788, 0.441283524 , -0.00758951064, -0.0117327841, 2.39906478  , 1.33        , 3           , 12          , 0.0384587534, 0
-0.121463642, 0.07755277  , -9.792391   , -0.00338709145, 0.000263153284, -0.00129747612, -0.1756775  , -0.166576788, 0.441283524 , -0.007623229, -0.0117302518, 2.399052    , 1.34        , 3           , 50          , 0           , 0
-0.10453634 , 0.0886560455, -9.798544   , -0.00183456694, 0.000555226 , -0.000300918124, -0.175947145, -0.166913852, 0.441013873 , -0.00764154037, -0.0117247244, 2.399049    , 1.35        , 3           , 11          , 0.008365032 , 0.008365031
-0.131327659, 0.0755167753, -9.823211   , 0.00197915547, 0.000510622165, 0.000776267552, -0.17608197 , -0.166779026, 0.4412161   , -0.007621839, -0.0117195584, 2.39905667  , 1.36        , 3           , 12          , 0.0384587534, 0
-0.119727537, 0.0667583048, -9.808694   , 0.002547646 , -0.0005414347, -0.00197746628, -0.175879732, -0.166981265, 0.441013873 , -0.00759613141, -0.0117251221, 2.39903665  , 1.37        , 3           , 50          , 0           , 0
-0.104788586, 0.07015128  , -9.796362   , 0.00303432229, 0.0012216951, 5.3128133E-06, -0.175879732, -0.166981265, 0.441013873 , -0.007565788, -0.011712906, 2.39903665  , 1.38        , 3           , 11          , 0.008365032 , 0.008365031
-0.131421968, 0.08168925  , -9.780248   , 0.000501745963, -0.0006256666, 0.000343811669, -0.175812319, -0.166711614, 0.4411487   , -0.0075608124, -0.0117191384, 2.39904046  , 1.39        , 3           , 12          , 0.0384587534, 0
-0.12893863 , 0.0609361529, -9.789806   , 0.00147445826, -0.00233600661, 0.00034600863, -0.175947145, -0.1666442  , 0.441283524 , -0.007573525, -0.0117738359, 2.39904523  , 1.4         , 3           , 50          , 0           , 0
-0.116089568, 0.07029929  , -9.800968   , 0.0038000748, -0.00154594821, -0.000630814466, -0.175947145, -0.166711614, 0.441283524 , -0.007535451, -0.0117893415, 2.39903855  , 1.41        , 3           , 11          , 0.00834597  , 0.008345967
-0.10740599 , 0.07338811  , -9.810381   , 0.000962115 , 0.00110981823, -0.00141683931, -0.175947145, -0.166711614, 0.441283524 , -0.00752566243, -0.0117783509, 2.39902425  , 1.42        , 3           , 12          , 0.03907384  , 0
-0.08693386 , 0.07545909  , -9.826488   , 0.00194577081, 0.00210198085, -0.00134007691, -0.175812319, -0.166913852, 0.4411487   , -0.007506045, -0.0117574334, 2.399011    , 1.43        , 3           , 50          , 0           , 0
-0.08489554 , 0.06275189  , -9.812061   , 0.0009539548, 0.00279920967, -0.00106106384, -0.175947145, -0.166509375, 0.4411487   , -0.007496378, -0.0117295217, 2.399       , 1.44        , 3           , 11          , 0.00834597  , 0.008345967
-0.128387868, 0.06993724  , -9.784792   , -3.40088882E-05, 0.00279252743, -0.000147426486, -0.175879732, -0.166576788, 0.44141835  , -0.00749669829, -0.011701609, 2.3989985   , 1.45        , 3           , 12          , 0.03907384  , 0
-0.127172038, 0.058647044 , -9.786186   , -0.002490462, -0.000251010468, -0.00051678624, -0.175879732, -0.166711614, 0.441283524 , -0.00752154225, -0.0117041571, 2.39899278  , 1.46        , 3           , 50          , 0           , 0
-0.120980866, 0.0726619   , -9.815459   , -0.00051776 , 0.0006774469, -8.235128E-05, -0.175879732, -0.166711614, 0.441283524 , -0.00752671 , -0.0116973883, 2.3989923   , 1.47        , 3           , 11          , 0.00834597  , 0.008345967
-0.147729218, 0.06982351  , -9.817484   , -0.00235531386, 0.0008762024, -0.00136200455, -0.17608197 , -0.1666442  , 0.44141835  , -0.007550102, -0.01168873 , 2.39897847  , 1.48        , 3           , 12          , 0.03907384  , 0
-0.127093241, 0.0618353337, -9.795212   , -0.00199209224, -0.00116275647, -0.00122223562, -0.1762168  , -0.166576788, 0.441283524 , -0.007569881, -0.01170045 , 2.398966    , 1.49        , 3           , 50          , 0           , 0
-0.11725378 , 0.0558171421, -9.784314   , -0.000210522019, -0.002087837, 0.00111380185, -0.175812319, -0.166509375, 0.441013873 , -0.0074778595, -0.0118274828, 2.39897752  , 1.5         , 3           , 11          , 0.008329641 , 0.008329639
-0.108444981, 0.0643636063, -9.806811   , -9.257079E-06, -4.50602238E-05, 0.000340957515, -0.175812319, -0.166509375, 0.441013873 , -0.007477993, -0.0118279085, 2.39898086  , 1.51        , 3           , 12          , 0.039725    , 0
-0.127577156, 0.05244207  , -9.817854   , -0.0007178044, 0.000442903547, 0.000267790048, -0.176014557, -0.166576788, 0.441283524 , -0.007485201, -0.0118234595, 2.39898324  , 1.52        , 3           , 50          , 0           , 0
-0.11798431 , 0.0631112   , -9.803724   , -8.972196E-05, 0.00185502437, -0.000433420762, -0.176149383, -0.166711614, 0.44141835  , -0.007486047, -0.0118049411, 2.398979    , 1.53        , 3           , 11          , 0.008329641 , 0.008329639
-0.108226523, 0.0774848   , -9.818054   , -0.00275410223, -0.00189385645, -9.850951E-05, -0.175879732, -0.166576788, 0.4412161   , -0.007513578, -0.01182389 , 2.39897847  , 1.54        , 3           , 12          , 0.039725    , 0
-0.106022455, 0.04713203  , -9.79014    , -0.0007623364, -0.004766526, 0.0007538736, -0.175879732, -0.166576788, 0.4412161   , -0.007521294, -0.0118714944, 2.398986    , 1.55        , 3           , 50          , 0           , 0
-0.1245513  , 0.087476    , -9.78062248 , -0.00126047269, -0.004206744, -0.00115469121, -0.17608197 , -0.166779026, 0.441485763 , -0.0075337654, -0.0119136479, 2.39897466  , 1.56        , 3           , 11          , 0.008329641 , 0.008329639
-0.127700925, 0.0866366   , -9.788335   , -0.0005042789, -4.84064476E-05, -0.00100340019, -0.176014557, -0.166711614, 0.44141835  , -0.007538689, -0.0119142067, 2.39896512  , 1.57        , 3           , 12          , 0.039725    , 0
-0.121925659, 0.08022871  , -9.781536   , -0.000719873235, 0.0007948584, -0.0002967423, -0.17608197 , -0.166441962, 0.441485763 , -0.00754585164, -0.0119062811, 2.39896178  , 1.58        , 3           , 50          , 0           , 0
-0.1134684  , 0.10225305  , -9.78545    , -0.000509243167, 0.001077857 , 5.78510044E-05, -0.17608197 , -0.166441962, 0.441485763 , -0.00755095 , -0.0118954973, 2.39896226  , 1.59        , 3           , 11          , 0.008329641 , 0.008329639
-0.118057176, 0.06037405  , -9.794697   , -0.000821610971, -7.823249E-05, 0.0003377093, -0.17608197 , -0.166441962, 0.4412161   , -0.00760159269, -0.0119294152, 2.398967    , 1.6         , 3           , 12          , 0.04041012  , 0
-0.107961915, 0.06750728  , -9.804081   , 0.0009363454, 0.00120074325, -0.00127669761, -0.176486447, -0.166307136, 0.44141835  , -0.00759207644, -0.0119175045, 2.39895415  , 1.61        , 3           , 50          , 0           , 0
-0.10818956 , 0.08465634  , -9.804013   , -0.0005304459, -0.002047283, -0.00142987026, -0.176149383, -0.166711614, 0.441283524 , -0.00759721128, -0.0119380848, 2.39894032  , 1.62        , 3           , 11          , 0.008308427 , 0.008308425
-0.105224334, 0.1031262   , -9.805269   , 0.00109340122, -0.0018251224, 0.000202617841, -0.176149383, -0.166711614, 0.441283524 , -0.007586303, -0.0119563211, 2.39894223  , 1.63        , 3           , 12          , 0.04041012  , 0
-0.107024893, 0.07734185  , -9.780079   , 0.00122557557, -6.43872045E-05, -0.000359086465, -0.17608197 , -0.166239724, 0.441350937 , -0.007574005, -0.0119569916, 2.398939    , 1.64        , 3           , 50          , 0           , 0
-0.12443874 , 0.0532723926, -9.80743    , 0.00157401559, 0.0009234795, 0.000138518866, -0.176149383, -0.166441962, 0.441283524 , -0.0075582806, -0.0119477464, 2.39894032  , 1.65        , 3           , 11          , 0.008308427 , 0.008308425
-0.129323617, 0.06947706  , -9.778926   , -0.00124418712, -0.000221878174, 0.0009712262, -0.176284209, -0.166307136, 0.44141835  , -0.00757083762, -0.0119498922, 2.39894986  , 1.66        , 3           , 12          , 0.04041012  , 0
-0.120215014, 0.07030631  , -9.788796   , 0.0007140258, 0.003451835 , -0.000144063757, -0.176284209, -0.166307136, 0.44141835  , -0.00756367855, -0.0119153857, 2.398948    , 1.67        , 3           , 50          , 0           , 0
-0.10601002 , 0.0814369246, -9.793613   , 0.00440172432, 0.0003794521, 0.00128097041, -0.1762168  , -0.166374549, 0.441013873 , -0.00751981372, -0.0119114947, 2.39896083  , 1.68        , 3           , 11          , 0.008308427 , 0.008308425
-0.114092335, 0.0824802741, -9.80723    , 0.00101178687, 0.000356528559, -0.0001475201, -0.176351622, -0.166307136, 0.4412161   , -0.00750967767, -0.01190794 , 2.3989594   , 1.69        , 3           , 12          , 0.04041012  , 0
-0.119777471, 0.06984229  , -9.786535   , 0.0006956062, 0.0009349128, 0.00183049659, -0.17608197 , -0.166307136, 0.441350937 , -0.00754231727, -0.0118774083, 2.39897943  , 1.7         , 3           , 50          , 0           , 0
-0.111141667, 0.07646319  , -9.77288151 , 0.0009931298, -0.002441966, -0.0009987684, -0.17608197 , -0.166509375, 0.441013873 , -0.00753226876, -0.0119019039, 2.39896941  , 1.71        , 3           , 11          , 0.00827609748, 0.008276096
-0.091044724, 0.08261951  , -9.794849   , -0.000137319, -0.0021680377, 0.000126547631, -0.17608197 , -0.166509375, 0.441013873 , -0.00753366 , -0.011923573, 2.39897084  , 1.72        , 3           , 12          , 0.0411271676, 0
-0.09658438 , 0.07768737  , -9.784969   , 0.00210947543, 9.97557145E-05, -0.00240228255, -0.1762168  , -0.166779026, 0.441350937 , -0.007512278, -0.0119227562, 2.398947    , 1.73        , 3           , 50          , 0           , 0
-0.114284351, 0.06982687  , -9.800957   , 0.00211471086, -0.000463362725, 0.00183491176, -0.1762168  , -0.166509375, 0.441283524 , -0.00749135157, -0.0119272526, 2.39896512  , 1.74        , 3           , 11          , 0.00827609748, 0.008276096
-0.113905087, 0.06619118  , -9.79464149 , 0.0006986462, 9.02121246E-05, -0.000148567342, -0.1762168  , -0.166441962, 0.4411487   , -0.00748434663, -0.0119263586, 2.39896369  , 1.75        , 3           , 12          , 0.0411271676, 0
-0.124830857, 0.0622538626, -9.793385   , 0.00296798232, -0.00186546275, 0.000141467826, -0.1762168  , -0.166441962, 0.4411487   , -0.00745468447, -0.0119450027, 2.39896512  , 1.76        , 3           , 50          , 0           , 0
-0.126366526, 0.0518600829, -9.783496   , -0.000153720728, 0.00121074473, 0.000696829869, -0.1762168  , -0.166374549, 0.44141835  , -0.007456304, -0.0119328434, 2.3989718   , 1.77        , 3           , 11          , 0.00827609748, 0.008276096
-0.113334775, 0.07386905  , -9.798673   , 0.001833678 , -0.000746837759, 0.00183316087, -0.17608197 , -0.166576788, 0.441350937 , -0.007438186, -0.0119401747, 2.39899087  , 1.78        , 3           , 12          , 0.0411271676, 0
-0.120730087, 0.0591023937, -9.809639   , -0.000700615463, -0.00245342171, 0.000406017323, -0.176284209, -0.166576788, 0.441350937 , -0.00744524458, -0.0119646778, 2.39899468  , 1.79        , 3           , 50          , 0           , 0
-0.118623585, 0.08297702  , -9.805003   , -0.000651892158, 0.00010061275, -0.00185078569, -0.176284209, -0.166576788, 0.441350937 , -0.007372053, -0.011938463, 2.39897656  , 1.8         , 3           , 11          , 0.008231807 , 0.008231805
-0.122129939, 0.06354821  , -9.785223   , 0.000478719652, -0.000173314766, -0.0026935644, -0.17608197 , -0.166307136, 0.441350937 , -0.007366943, -0.0119403964, 2.39894938  , 1.81        , 3           , 12          , 0.0418741368, 0
-0.1288051  , 0.07264946  , -9.784784   , 0.00104880868, -0.0007326134, 0.001546264 , -0.175947145, -0.166239724, 0.44141835  , -0.007356641, -0.0119476048, 2.39896512  , 1.82        , 3           , 50          , 0           , 0
-0.1259846  , 0.07939692  , -9.78835    , 0.00075999  , 0.000391733163, 0.00013399517, -0.176014557, -0.166307136, 0.441553175 , -0.007349057, -0.0119436793, 2.398966    , 1.83        , 3           , 11          , 0.008231807 , 0.008231805
-0.129284859, 0.06638401  , -9.798373   , -0.0009356386, 0.000661839964, 0.00069160253, -0.176014557, -0.166307136, 0.441553175 , -0.007358495, -0.0119370092, 2.39897323  , 1.84        , 3           , 12          , 0.0418741368, 0
-0.139361963, 0.08865048  , -9.809658   , 0.00245668646, -0.000159940275, -0.0009891209, -0.17608197 , -0.166576788, 0.44141835  , -0.00733381044, -0.0119386809, 2.39896321  , 1.85        , 3           , 50          , 0           , 0
-0.111426324, 0.08196095  , -9.796365   , -0.000654517033, 0.0006637437, -0.00156738027, -0.17608197 , -0.166441962, 0.441485763 , -0.007340168, -0.0119321588, 2.39894748  , 1.86        , 3           , 11          , 0.008231807 , 0.008231805
-0.113468431, 0.0670655   , -9.787854   , -0.000941956067, 0.00206966838, 0.00182392215, -0.17608197 , -0.166374549, 0.44141835  , -0.00734980358, -0.0119113289, 2.3989656   , 1.87        , 3           , 12          , 0.0418741368, 0
-0.1085076  , 0.0781497359, -9.747091   , -8.75424E-05, 0.000667573768, 0.00210824073, -0.17608197 , -0.166374549, 0.44141835  , -0.00735093 , -0.0119044986, 2.39898658  , 1.88        , 3           , 50          , 0           , 0
-0.13895829 , 0.06279118  , -9.769987   , -0.00176544953, -0.003004239, -0.0004481392, -0.17608197 , -0.166239724, 0.4412161   , -0.00736853248, -0.0119345728, 2.39898229  , 1.89        , 3           , 11          , 0.008231807 , 0.008231805
-0.129792958, 0.0672372   , -9.782103   , 0.000198321082, -0.00136623066, -0.00100161962, -0.1762168  , -0.165970072, 0.44141835  , -0.00737240165, -0.0120336823, 2.3989737   , 1.9         , 3           , 12          , 0.0426491275, 0
-0.1023681  , 0.08274937  , -9.794031   , -0.0006481437, -0.00137195666, 0.00040711675, -0.1762168  , -0.166307136, 0.441350937 , -0.00737893255, -0.01204737 , 2.39897752  , 1.91        , 3           , 50          , 0           , 0
-0.09843659 , 0.07767537  , -9.77504    , -9.214351E-05, 0.000321251544, -0.000435257942, -0.1762168  , -0.166307136, 0.441350937 , -0.007379802, -0.01204419 , 2.3989737   , 1.92        , 3           , 11          , 0.008176458 , 0.00817645248
-0.120584533, 0.07707436  , -9.7874155  , -0.001500837, -0.0002514253, 0.0006874393, -0.1762168  , -0.166172311, 0.4412161   , -0.00739489263, -0.0120466538, 2.39898038  , 1.93        , 3           , 12          , 0.0426491275, 0
-0.127008945, 0.0623499826, -9.814192   , -0.000926551642, -0.00221856264, 0.000121960584, -0.176014557, -0.1661049  , 0.44141835  , -0.00740417326, -0.0120688295, 2.39898181  , 1.94        , 3           , 50          , 0           , 0
-0.108802453, 0.07739033  , -9.788227   , -9.033439E-05, -0.000241883288, -0.0021313508, -0.176351622, -0.166172311, 0.441485763 , -0.007404819, -0.0120714065, 2.39896035  , 1.95        , 3           , 11          , 0.008176458 , 0.00817645248
-0.109682679, 0.08143863  , -9.781438   , -0.00403545657, -0.001958011, -0.00130477885, -0.176351622, -0.166374549, 0.441350937 , -0.00744501874, -0.0120910835, 2.39894748  , 1.96        , 3           , 12          , 0.0426491275, 0
-0.114187494, 0.08240317  , -9.784182   , -0.00319842342, 1.86720863E-05, -0.002145403, -0.176351622, -0.166374549, 0.441350937 , -0.00747674424, -0.0120910555, 2.398926    , 1.97        , 3           , 50          , 0           , 0
-0.1325788  , 0.06453498  , -9.773999   , -0.00319433026, -0.0005444518, 0.000114028706, -0.176486447, -0.166239724, 0.441350937 , -0.007508702, -0.01209649 , 2.398927    , 1.98        , 3           , 11          , 0.008176458 , 0.00817645248
-0.129419908, 0.05511581  , -9.801585   , -0.001212419, -0.00165734533, -0.00100863818, -0.176419035, -0.166307136, 0.441553175 , -0.00752070546, -0.012113139, 2.39891744  , 1.99        , 3           , 12          , 0.0426491275, 0
-0.1292154  , 0.0695647448, -9.805139   , -0.00148132187, 0.00170156581, 0.0009727646, -0.17608197 , -0.166037485, 0.441350937 , -0.007495743, -0.0121206651, 2.398928    , 2           , 3           , 50          , 0           , 0
-0.108592555, 0.09407537  , -9.785897   , -0.0006211691, -0.000826788368, 0.001537885 , -0.17608197 , -0.166037485, 0.441350937 , -0.007502142, -0.012128816, 2.39894319  , 2.01        , 3           , 11          , 0.008111442 , 0.008111438
-0.105273947, 0.06388129  , -9.808597   , 0.00106806785, 2.93612829E-05, -0.000430673768, -0.176351622, -0.165902659, 0.441485763 , -0.00749141024, -0.0121285571, 2.398939    , 2.02        , 3           , 12          , 0.0434503034, 0
-0.121751219, 0.0541095361, -9.797463   , 0.000509116449, -0.00110071758, 0.00013003136, -0.176419035, -0.166037485, 0.441553175 , -0.0074863364, -0.0121395523, 2.39894032  , 2.03        , 3           , 50          , 0           , 0
-0.120481864, 0.05223606  , -9.781642   , -0.000618870545, -0.00138992083, 0.0006894047, -0.176284209, -0.166239724, 0.441350937 , -0.00749261 , -0.0121533992, 2.398947    , 2.04        , 3           , 11          , 0.008111442 , 0.008111438
-0.09403235 , 0.06413153  , -9.78817    , 0.00136353017, -0.002502812, 0.00041435  , -0.176284209, -0.166239724, 0.441350937 , -0.007479027, -0.0121783959, 2.39895177  , 2.05        , 3           , 12          , 0.0434503034, 0
-0.12258444 , 0.05105433  , -9.825052   , 0.00162357837, 0.00172256713, -0.00212066132, -0.176419035, -0.166172311, 0.441553175 , -0.00746253133, -0.0121613313, 2.39892983  , 2.06        , 3           , 50          , 0           , 0
-0.113493763, 0.06302781  , -9.794651   , -6.516892E-05, 0.000866419752, 0.000695510069, -0.176419035, -0.1661049  , 0.4416206   , -0.007463266, -0.0121526131, 2.398937    , 2.07        , 3           , 11          , 0.008111442 , 0.008111438
-0.110202834, 0.07603317  , -9.78237    , 0.00218588184, 0.00257109012, 0.000708649168, -0.176351622, -0.166172311, 0.441485763 , -0.00744149042, -0.0121268528, 2.39894414  , 2.08        , 3           , 12          , 0.0434503034, 0
-0.126366585, 0.08436944  , -9.789689   , 0.00360310241, 0.0014543772, -0.000134114191, -0.176351622, -0.166172311, 0.441485763 , -0.007405442, -0.0121123176, 2.39894271  , 2.09        , 3           , 50          , 0           , 0
-0.123982519, 0.08801103  , -9.807282   , -1.68322586E-05, -0.00079953 , 0.000127762032, -0.176486447, -0.166307136, 0.441350937 , -0.00734820636, -0.0120869018, 2.39894462  , 2.1         , 3           , 11          , 0.008036254 , 0.00803625
-0.121909164, 0.07220777  , -9.8114     , -2.240829E-05, 0.0003267305, 0.000129497785, -0.176621273, -0.165970072, 0.441485763 , -0.00734844571, -0.0120836254, 2.398946    , 2.11        , 3           , 12          , 0.0442759171, 0
-0.107028976, 0.101813652 , -9.811164   , -0.00341497036, 0.0008669379, -0.00101558736, -0.176351622, -0.165700421, 0.441553175 , -0.007382472, -0.0120750312, 2.39893556  , 2.12        , 3           , 50          , 0           , 0
-0.09996502 , 0.0868527144, -9.814788   , -0.00171311339, -0.0005294261, -0.000444780337, -0.176351622, -0.165700421, 0.441553175 , -0.00739954924, -0.0120803593, 2.39893126  , 2.13        , 3           , 11          , 0.008036254 , 0.00803625
-0.105564006, 0.07473087  , -9.813525   , -0.00143716729, 0.0008803116, 0.000406318461, -0.176419035, -0.165902659, 0.441553175 , -0.00741397 , -0.0120715247, 2.39893556  , 2.14        , 3           , 12          , 0.0442759171, 0
-0.124121726, 0.0736150146, -9.819548   , -0.001703029, -0.00250038 , 0.000117256837, -0.1767561  , -0.166037485, 0.441485763 , -0.00743101537, -0.0120965187, 2.39893651  , 2.15        , 3           , 50          , 0           , 0
-0.13188602 , 0.07141939  , -9.81057549 , -0.00282174721, -0.004760541, -0.000174019631, -0.176486447, -0.166307136, 0.441688    , -0.007459216, -0.0121441372, 2.39893556  , 2.16        , 3           , 11          , 0.008036254 , 0.00803625
-0.102412321, 0.08092813  , -9.789068   , -0.00227854541, -0.000251677, 0.0009657069, -0.176486447, -0.166307136, 0.441688    , -0.007482118, -0.012146581, 2.398945    , 2.17        , 3           , 12          , 0.0442759171, 0
-0.116383947, 0.09051873  , -9.774672   , 0.000541792833, 0.0003305473, -0.0009980181, -0.176486447, -0.166239724, 0.441553175 , -0.007476578, -0.0121433493, 2.3989346   , 2.18        , 3           , 50          , 0           , 0
-0.103863053, 0.0719422251, -9.79544449 , 0.00139890565, -0.00135310623, 0.00154616626, -0.176486447, -0.165767834, 0.441485763 , -0.00746277859, -0.012156765, 2.39895082  , 2.19        , 3           , 11          , 0.008036254 , 0.00803625
-0.100482464, 0.08769834  , -9.796257   , -0.0009154728, -0.000182735268, 0.000973632268, -0.176621273, -0.165902659, 0.441688    , -0.007544759, -0.0120705133, 2.39896274  , 2.2         , 3           , 12          , 0.0451243073, 0
-0.135854572, 0.0844977   , -9.794732   , 0.000484367134, 0.00207932945, -0.0009940738, -0.17655386 , -0.166037485, 0.441350937 , -0.007539793, -0.0120497951, 2.39895272  , 2.21        , 3           , 50          , 0           , 0
-0.120698407, 0.06671603  , -9.792883   , -0.00147909578, -0.000468121172, 0.0006880271, -0.17655386 , -0.166037485, 0.441350937 , -0.007554667, -0.0120544238, 2.3989594   , 2.22        , 3           , 11          , 0.00795482  , 0.007954815
-0.131100491, 0.0628308356, -9.808798   , 0.0010670909, -0.00129562593, 0.000981115 , -0.1767561  , -0.1661049  , 0.441553175 , -0.00754411658, -0.0120673068, 2.39896941  , 2.23        , 3           , 12          , 0.0451243073, 0
-0.123011582, 0.0555439442, -9.816902   , -0.000632141542, -0.000462392753, 0.000126902858, -0.176688686, -0.165970072, 0.441688    , -0.007550454, -0.0120719206, 2.39897084  , 2.24        , 3           , 50          , 0           , 0
-0.126991227, 0.0788793   , -9.765309   , 0.00245996122, 0.00237426441, -0.0009844212, -0.1767561  , -0.165902659, 0.44141835  , -0.007525733, -0.0120482529, 2.39896083  , 2.25        , 3           , 11          , 0.00795482  , 0.007954815
-0.118587777, 0.058530923 , -9.781601   , -0.000624355744, -0.001870214, 0.00153742055, -0.1767561  , -0.165902659, 0.44141835  , -0.00753216445, -0.0120668374, 2.39897656  , 2.26        , 3           , 12          , 0.0451243073, 0
-0.118516773, 0.0612665638, -9.790177   , -0.00371144572, -0.0061147064, -0.000743874349, -0.1767561  , -0.166172311, 0.44141835  , -0.00756919431, -0.0121280393, 2.398969    , 2.27        , 3           , 50          , 0           , 0
-0.114489175, 0.090118885 , -9.796353   , -0.000350041, -0.000460484356, -0.000436854927, -0.176486447, -0.1661049  , 0.4416206   , -0.00757264066, -0.01213268 , 2.39896512  , 2.28        , 3           , 11          , 0.00795482  , 0.007954815
-0.1185539  , 0.083926186 , -9.81901    , -0.000632141542, -0.000462392753, 0.000126902858, -0.176823512, -0.165970072, 0.441553175 , -0.007578979, -0.012137292, 2.398966    , 2.29        , 3           , 12          , 0.0451243073, 0
-0.11084231 , 0.09054262  , -9.800844   , -0.00119960855, -0.000747848244, -0.001288494, -0.176823512, -0.165970072, 0.441553175 , -0.007595741, -0.0121449633, 2.39895558  , 2.3         , 3           , 50          , 0           , 0
-0.111680016, 0.066579476 , -9.783775   , 0.000193662141, 0.00320361578, -0.000145684244, -0.176688686, -0.166037485, 0.441485763 , -0.00759378355, -0.01211294 , 2.39895368  , 2.31        , 3           , 11          , 0.007866701 , 0.007866697
-0.09772814 , 0.09573123  , -9.77948    , 0.00302392174, 0.00181488541, -0.00182990951, -0.176688686, -0.166172311, 0.441553175 , -0.007563321, -0.0120949307, 2.398935    , 2.32        , 3           , 12          , 0.0459939   , 0
-0.09297746 , 0.07450795  , -9.791283   , -6.13741E-05, -0.002429598, -0.00100329239, -0.176688686, -0.166441962, 0.441350937 , -0.00756381452, -0.0121193035, 2.398925    , 2.33        , 3           , 50          , 0           , 0
-0.106378287, 0.07972533  , -9.81983948 , -0.0006321301, -0.0013071592, -0.0015692655, -0.176688686, -0.166441962, 0.441350937 , -0.00756994775, -0.0121324919, 2.39890981  , 2.34        , 3           , 11          , 0.007866701 , 0.007866697
-0.129372373, 0.09659075  , -9.79056549 , -0.00203812448, -0.002161395, 0.00181329786, -0.176486447, -0.166239724, 0.441485763 , -0.007590552, -0.0121539691, 2.398928    , 2.35        , 3           , 12          , 0.0459939   , 0
-0.122750871, 0.07539459  , -9.816817   , 0.00191724545, -0.00241622049, 0.00183130067, -0.17655386 , -0.166037485, 0.4416206   , -0.00757160364, -0.01217799 , 2.398946    , 2.36        , 3           , 50          , 0           , 0
-0.121080644, 0.0739201   , -9.78698    , 0.0010543043, 0.000675264 , 0.00126704841, -0.17655386 , -0.166307136, 0.441485763 , -0.00756121427, -0.0121711427, 2.398959    , 2.37        , 3           , 11          , 0.007866701 , 0.007866697
-0.11845202 , 0.06310443  , -9.800113   , -0.000347819761, -0.00158681185, -0.00072077 , -0.17655386 , -0.166307136, 0.441485763 , -0.007564605, -0.0121870637, 2.39895177  , 2.38        , 3           , 12          , 0.0459939   , 0
-0.126947314, 0.07266599  , -9.796069   , 0.000494047767, -0.000454820925, -0.000432545959, -0.176486447, -0.166576788, 0.44141835  , -0.00755961239, -0.0121916467, 2.39894748  , 2.39        , 3           , 50          , 0           , 0
-0.114656635, 0.042744197 , -9.797004   , -0.00375665515, -0.00131229428, -0.00130060338, -0.1767561  , -0.166307136, 0.441553175 , -0.00762583036, -0.0121794576, 2.39893651  , 2.4         , 3           , 11          , 0.00777409738, 0.00777409365
-0.09690647 , 0.0804767   , -9.808011   , 0.00046645946, 0.0015320091, -0.000146360035, -0.17655386 , -0.166441962, 0.441350937 , -0.00762114627, -0.0121641485, 2.3989346   , 2.41        , 3           , 12          , 0.04688321  , 0
-0.113768131, 0.06987297  , -9.81632    , 0.00329056429, 0.00155110809, -0.000415728166, -0.17655386 , -0.166441962, 0.441350937 , -0.0075881877, -0.0121486718, 2.39893079  , 2.42        , 3           , 50          , 0           , 0
-0.111172244, 0.06527966  , -9.801403   , -0.00121244113, -0.00157666474, 0.000406039821, -0.176621273, -0.166441962, 0.4410813   , -0.007600363, -0.0121644065, 2.3989346   , 2.43        , 3           , 11          , 0.00777409738, 0.00777409365
-0.103617616, 0.0913341641, -9.793102   , -0.00263990927, 0.001511001 , 0.0004042284, -0.1767561  , -0.166374549, 0.441283524 , -0.00762680965, -0.012149265, 2.39893842  , 2.44        , 3           , 12          , 0.04688321  , 0
-0.118152708, 0.08477178  , -9.803636   , -0.00122703379, 0.00123898266, -0.000719770556, -0.176486447, -0.166172311, 0.441350937 , -0.007638992, -0.0121369306, 2.39893174  , 2.45        , 3           , 50          , 0           , 0
-0.112194404, 0.09145634  , -9.799495   , 0.000760112656, -0.0004370294, 0.00239475677, -0.176621273, -0.166509375, 0.4412161   , -0.007631682, -0.0121411188, 2.39895558  , 2.46        , 3           , 11          , 0.00777409738, 0.00777409365
-0.1039351  , 0.100376122 , -9.797134   , -0.0009374736, -0.000166931888, -0.000438085815, -0.176621273, -0.166509375, 0.4412161   , -0.007641004, -0.01214282 , 2.39895082  , 2.47        , 3           , 12          , 0.04688321  , 0
-0.103825644, 0.0746506453, -9.795885   , -0.0006547206, -0.000165020349, 0.000128305866, -0.176419035, -0.1666442  , 0.44141835  , -0.00764756836, -0.0121444594, 2.39895272  , 2.48        , 3           , 50          , 0           , 0
-0.123746   , 0.075332664 , -9.79513    , -0.0003755712, 0.000400017365, -0.0007171215, -0.176486447, -0.166307136, 0.44141835  , -0.007651237, -0.0121405143, 2.398945    , 2.49        , 3           , 11          , 0.00777409738, 0.00777409365
-0.124613918, 0.07582015  , -9.802818   , 0.000145617931, 0.00102297019, -0.00071238383, -0.176419035, -0.166441962, 0.4410813   , -0.007717647, -0.0120372558, 2.39894032  , 2.5         , 3           , 12          , 0.0477908254, 0
-0.114270732, 0.0680525   , -9.810003   , -0.0023965498, 0.0010057789, -0.0012893111, -0.176419035, -0.166441962, 0.4410813   , -0.00774145639, -0.0120272981, 2.39892745  , 2.51        , 3           , 50          , 0           , 0
-0.115037642, 0.0842441   , -9.79186249 , -0.00323121 , -0.00125246472, 0.00124610378, -0.176688686, -0.166172311, 0.4412161   , -0.00777392043, -0.0120397257, 2.39894032  , 2.52        , 3           , 11          , 0.0076790005, 0.0076789977
-0.1169189  , 0.0801913962, -9.787827   , -0.002099367, -0.00180795824, 0.000120353587, -0.17655386 , -0.166037485, 0.441350937 , -0.007794931, -0.0120577943, 2.39894128  , 2.53        , 3           , 12          , 0.0477908254, 0
-0.09735709 , 0.0885180756, -9.782671   , -0.0023804  , -0.00209143315, 0.000118602729, -0.176419035, -0.1661049  , 0.4410813   , -0.007818752, -0.0120787  , 2.39894271  , 2.54        , 3           , 50          , 0           , 0
-0.09273529 , 0.0894337445, -9.802519   , 0.000713749032, 0.000463662262, 0.0001369944, -0.176419035, -0.1661049  , 0.4410813   , -0.00781163061, -0.0120740524, 2.39894414  , 2.55        , 3           , 11          , 0.0076790005, 0.0076789977
-0.0903635  , 0.09663616  , -9.805634   , 0.00126770255, 0.0024384323, -0.00183509639, -0.176486447, -0.166374549, 0.4412161   , -0.007798729, -0.0120498091, 2.398926    , 2.56        , 3           , 12          , 0.0477908254, 0
-0.09641338 , 0.119708717 , -9.802421   , 0.000150289387, 0.00017827726, 0.000133926587, -0.176486447, -0.166441962, 0.4411487   , -0.007797243, -0.0120480163, 2.398927    , 2.57        , 3           , 50          , 0           , 0
-0.116002   , 0.0752800852, -9.806371   , -0.00238318788, -0.00152830291, 0.0001194706, -0.176351622, -0.166172311, 0.441013873 , -0.00782109 , -0.0120632891, 2.398928    , 2.58        , 3           , 11          , 0.0076790005, 0.0076789977
-0.129400209, 0.0667368844, -9.768994   , -0.00266389432, -0.00181177619, 0.0006827947, -0.176351622, -0.166172311, 0.441013873 , -0.007847813, -0.012081353, 2.39893556  , 2.59        , 3           , 12          , 0.0477908254, 0
-0.11186026 , 0.08733775  , -9.7836895  , -0.00357690966, -0.000343313848, -0.000730113, -0.176351622, -0.166307136, 0.4410813   , -0.007983461, -0.0119703682, 2.39893079  , 2.6         , 3           , 50          , 0           , 0
-0.1126631  , 0.09010971  , -9.799955   , 0.000102499143, -0.00144473347, 0.00324079557, -0.176351622, -0.166307136, 0.4411487   , -0.007982826, -0.0119845569, 2.39896321  , 2.61        , 3           , 11          , 0.00758251548, 0.00758251455
-0.113447942, 0.074670054 , -9.768387   , -0.00189087575, 0.0013575356, -0.00100214535, -0.176284209, -0.166374549, 0.4411487   , -0.008001614, -0.0119710611, 2.39895368  , 2.62        , 3           , 12          , 0.0487154424, 0
-0.1202037  , 0.07299356  , -9.782909   , 0.00377118541, -0.0011383458, 0.000715512666, -0.176284209, -0.166374549, 0.4411487   , -0.007963989, -0.0119823888, 2.39896083  , 2.63        , 3           , 50          , 0           , 0
-0.132040188, 0.0645992   , -9.794786   , -0.00131003559, -0.00173585711, 0.000125865015, -0.176419035, -0.166239724, 0.4411487   , -0.007977106, -0.0119997347, 2.39896226  , 2.64        , 3           , 11          , 0.00758251548, 0.00758251455
-0.0981576443, 0.0516408645, -9.816277   , -0.000467841717, -0.0006038646, 0.0009791639, -0.176621273, -0.166374549, 0.4412161   , -0.007981903, -0.0120056951, 2.3989718   , 2.65        , 3           , 12          , 0.0487154424, 0
-0.123500049, 0.0577521   , -9.801078   , -0.0007444406, -0.002013605, -0.00100208481, -0.176621273, -0.166239724, 0.4412161   , -0.00798923 , -0.01202591 , 2.39896226  , 2.66        , 3           , 50          , 0           , 0
-0.139353231, 0.06284336  , -9.784002   , 0.000378786121, -0.0005981378, -0.0001470349, -0.176621273, -0.166239724, 0.4412161   , -0.007985424, -0.0120319044, 2.39896035  , 2.67        , 3           , 11          , 0.00758251548, 0.00758251455
-0.126468167, 0.0704502761, -9.809635   , 0.00207055919, -2.35477346E-05, -0.000138265415, -0.176419035, -0.166374549, 0.4411487   , -0.0079647  , -0.0120321512, 2.3989594   , 2.68        , 3           , 12          , 0.0487154424, 0
-0.09408091 , 0.0890136659, -9.807051   , -0.00328841759, -0.0014676617, 0.0001170804, -0.176419035, -0.166239724, 0.4411487   , -0.007997599, -0.0120468186, 2.39896035  , 2.69        , 3           , 50          , 0           , 0
-0.121002972, 0.0806783   , -9.784241   , -0.000158197654, 0.000823512848, -0.00127763441, -0.176486447, -0.166307136, 0.441283524 , -0.007935557, -0.0120071257, 2.39894843  , 2.7         , 3           , 11          , 0.007486425 , 0.007486426
-0.15286392 , 0.06573998  , -9.793133   , 0.0026763184, -0.00112834061, -0.000419890159, -0.176419035, -0.166441962, 0.44094646  , -0.007908745, -0.0120184412, 2.39894414  , 2.71        , 3           , 12          , 0.0496558174, 0
-0.1394177  , 0.08637355  , -9.80334    , -0.000707064639, -0.00227751979, -0.000154891633, -0.176419035, -0.166441962, 0.44094646  , -0.007915799, -0.012041226, 2.39894319  , 2.72        , 3           , 50          , 0           , 0
-0.10135182 , 0.0913091   , -9.793536   , 0.00351860072, -0.000277919462, -0.00182732509, -0.176823512, -0.166441962, 0.4411487   , -0.007880393, -0.0120441513, 2.398925    , 2.73        , 3           , 11          , 0.007486425 , 0.007486426
-0.0865939  , 0.07670139  , -9.79484    , -0.001847924, -3.26390727E-05, -0.0001566879, -0.176621273, -0.166307136, 0.441283524 , -0.007898852, -0.01204449 , 2.39892316  , 2.74        , 3           , 12          , 0.0496558174, 0
-0.118193939, 0.07938215  , -9.81089    , 0.00040779807, 0.000827338139, 0.0007027617, -0.176351622, -0.166307136, 0.4411487   , -0.00789486 , -0.0120361615, 2.39893031  , 2.75        , 3           , 50          , 0           , 0
-0.11456807 , 0.0842523947, -9.795927   , 0.0004128846, -0.000298924453, -0.000146586346, -0.176351622, -0.166307136, 0.4411487   , -0.007890712, -0.0120391622, 2.39892888  , 2.76        , 3           , 11          , 0.007486425 , 0.007486426
-0.0937699  , 0.08130551  , -9.797136   , 0.00378249027, 0.00366590661, -0.000124708065, -0.176486447, -0.166172311, 0.441283524 , -0.007852868, -0.0120025137, 2.398927    , 2.77        , 3           , 12          , 0.0496558174, 0
-0.132931292, 0.06908506  , -9.783927   , -0.00185981742, 0.00250144955, 0.0009773673, -0.176486447, -0.1661049  , 0.441283524 , -0.007871581, -0.0119774239, 2.39893651  , 2.78        , 3           , 50          , 0           , 0
-0.1099973  , 0.0842340142, -9.806288   , 0.002106052 , -5.899521E-06, -0.0001382508, -0.176351622, -0.166374549, 0.4412161   , -0.007850503, -0.0119774947, 2.39893556  , 2.79        , 3           , 11          , 0.007486425 , 0.007486426
-0.101480633, 0.08093868  , -9.795388   , -0.000169061183, 0.0008417985, 0.0021134424, -0.176351622, -0.166374549, 0.4412161   , -0.007876213, -0.0119350422, 2.39895844  , 2.8         , 3           , 12          , 0.0506107844, 0
-0.105086789, 0.08010157  , -9.802199   , -0.00213931641, -0.0008609697, -0.0007237543, -0.176284209, -0.166307136, 0.4410813   , -0.007897521, -0.0119437082, 2.39895129  , 2.81        , 3           , 50          , 0           , 0
-0.110926636, 0.0548404232, -9.78427    , 0.000391536 , 0.00140874146, -0.000425892969, -0.17655386 , -0.166172311, 0.441350937 , -0.007893553, -0.0119296554, 2.398947    , 2.82        , 3           , 11          , 0.00739050843, 0.007390507
-0.119440213, 0.05724556  , -9.798788   , 0.000681585458, 2.82924157E-06, 0.000703404134, -0.17655386 , -0.166576788, 0.4411487   , -0.00788682047, -0.01192957 , 2.39895368  , 2.83        , 3           , 12          , 0.0506107844, 0
-0.126041934, 0.06729899  , -9.81326    , -0.0004482849, -4.811387E-06, 0.000415598857, -0.17655386 , -0.166576788, 0.4411487   , -0.007891353, -0.0119295865, 2.39895844  , 2.84        , 3           , 50          , 0           , 0
-0.106662504, 0.06342644  , -9.802732   , -0.00354964146, -0.00143365422, -0.00242643175, -0.176688686, -0.166307136, 0.4412161   , -0.007926562, -0.0119441124, 2.39893413  , 2.85        , 3           , 11          , 0.00739050843, 0.007390507
-0.119637027, 0.07575865  , -9.801877   , 0.000394160917, 0.0008456105, -0.000709298241, -0.17655386 , -0.166307136, 0.4411487   , -0.007922534, -0.0119357128, 2.398927    , 2.86        , 3           , 12          , 0.0506107844, 0
-0.122783139, 0.07715385  , -9.803251   , -0.000174058951, 0.00168648968, 0.0007020569, -0.176351622, -0.166441962, 0.4412161   , -0.007924357, -0.0119187934, 2.39893365  , 2.87        , 3           , 50          , 0           , 0
-0.114185654, 0.0899926051, -9.760193   , 0.000690527668, -0.00196813024, -0.0007123207, -0.176351622, -0.166441962, 0.4412161   , -0.007917369, -0.011938531, 2.398927    , 2.88        , 3           , 11          , 0.00739050843, 0.007390507
-0.126427174, 0.078071475 , -9.795139   , -0.000735220034, 0.0008379722, -0.000149491039, -0.176486447, -0.166509375, 0.4411487   , -0.007924701, -0.0119301621, 2.398925    , 2.89        , 3           , 12          , 0.0506107844, 0
-0.135763317, 0.0542939827, -9.803445   , -0.00269156345, -0.0005858043, -0.00100836658, -0.176621273, -0.166239724, 0.44141835  , -0.007924335, -0.0119410437, 2.39891648  , 2.9         , 3           , 50          , 0           , 0
-0.119514786, 0.0847847   , -9.802743   , -0.00297972932, 0.00053854537, -0.00129048515, -0.176486447, -0.166307136, 0.4412161   , -0.007953978, -0.01193576 , 2.39890313  , 2.91        , 3           , 11          , 0.00729445042, 0.00729444763
-0.110524848, 0.0890886039, -9.772372   , -0.00155160867, -0.00254911743, -0.00015852385, -0.176486447, -0.166307136, 0.4412161   , -0.007969477, -0.0119612627, 2.39890218  , 2.92        , 3           , 12          , 0.0515792519, 0
-0.102946885, 0.08131355  , -9.767827   , 0.000690336339, 0.00112651137, 0.0009878025, -0.176419035, -0.166576788, 0.4410813   , -0.00796269 , -0.01194992 , 2.39891171  , 2.93        , 3           , 50          , 0           , 0
-0.1376085  , 0.0587511547, -9.780842   , 0.0006855017, 0.0019712036, -0.000141045428, -0.176419035, -0.166172311, 0.441283524 , -0.007955816, -0.011930218, 2.39891028  , 2.94        , 3           , 11          , 0.00729445042, 0.00729444763
-0.138690412, 0.06702541  , -9.821946   , 0.00351411523, 0.00114560872, 0.000153359346, -0.176486447, -0.166239724, 0.44141835  , -0.007920691, -0.01191875 , 2.39891171  , 2.95        , 3           , 12          , 0.0515792519, 0
-0.09381169 , 0.07770084  , -9.798508   , -0.00128189113, -1.31225679E-05, -0.000435839, -0.176419035, -0.166441962, 0.440879047 , -0.007933458, -0.0119189145, 2.39890742  , 2.96        , 3           , 50          , 0           , 0
-0.0989444256, 0.0687090755, -9.790448   , 0.00070608547, -0.00225227419, -0.0007126294, -0.176419035, -0.166441962, 0.440879047 , -0.007926315, -0.0119414935, 2.39890027  , 2.97        , 3           , 11          , 0.00729445042, 0.00729444763
-0.100430489, 0.0623726137, -9.779639   , -0.0007223615, 0.000835387 , -0.00240966561, -0.176486447, -0.166307136, 0.441283524 , -0.007933249, -0.01193333 , 2.39887643  , 2.98        , 3           , 12          , 0.0515792519, 0
-0.09925235 , 0.07552701  , -9.803982   , 0.000405699771, 0.00140616251, -0.000425767736, -0.176419035, -0.166441962, 0.441283524 , -0.007929141, -0.0119193019, 2.39887166  , 2.99        , 3           , 50          , 0           , 0
-0.112163559, 0.08523244  , -9.827091   , 0.00186199707, -0.0002352053, 0.0009911149, -0.176419035, -0.166441962, 0.44094646  , -0.007841241, -0.0118452515, 2.398883    , 3           , 3           , 11          , 0.007199287 , 0.007199284
-0.1266968  , 0.0862595   , -9.813639   , 0.000455690722, -0.00165258569, -0.0009954018, -0.176419035, -0.166441962, 0.44094646  , -0.007836569, -0.0118618561, 2.398873    , 3.01        , 3           , 12          , 0.05256021  , 0
-0.125902563, 0.0518638231, -9.786205   , -0.002651167, -0.00167359656, -0.00129242544, -0.176621273, -0.166307136, 0.44094646  , -0.007862927, -0.0118786935, 2.39886022  , 3.02        , 3           , 50          , 0           , 0
-0.117499046, 0.06670301  , -9.800091   , -0.000691975467, 0.002000121 , -0.0007124908, -0.176486447, -0.166576788, 0.441283524 , -0.007869761, -0.01185875 , 2.398853    , 3.03        , 3           , 11          , 0.007199287 , 0.007199284
-0.130242541, 0.0614425652, -9.801565   , -0.0018133187, 0.000303090579, -0.0007203621, -0.176486447, -0.166441962, 0.4412161   , -0.007887807, -0.0118557755, 2.398846    , 3.04        , 3           , 12          , 0.05256021  , 0
-0.144903466, 0.0837168247, -9.799326   , -0.00238145 , 0.0008623985, -0.00156974082, -0.176486447, -0.166441962, 0.4412161   , -0.007911435, -0.0118472762, 2.3988297   , 3.05        , 3           , 50          , 0           , 0
-0.1188878  , 0.0608917847, -9.811424   , -0.00265683234, -0.000265764829, 0.0009700439, -0.176419035, -0.166374549, 0.4411487   , -0.007938119, -0.0118498569, 2.39883971  , 3.06        , 3           , 11          , 0.007199287 , 0.007199284
-0.130378947, 0.0559758246, -9.785769   , -0.0006798445, -0.000252395, 0.0009792624, -0.176621273, -0.166172311, 0.441350937 , -0.007945033, -0.0118523054, 2.39884973  , 3.07        , 3           , 12          , 0.05256021  , 0
-0.130841076, 0.05597359  , -9.783514   , -0.00126175256, 0.00312256464, 0.000416760828, -0.17655386 , -0.166374549, 0.4412161   , -0.007957698, -0.0118210455, 2.39885354  , 3.08        , 3           , 50          , 0           , 0
-0.105429478, 0.06286258  , -9.773799   , 0.00157055329, 0.00145227206, -0.000137748211, -0.17655386 , -0.166374549, 0.4412161   , -0.007941974, -0.0118065346, 2.39885163  , 3.09        , 3           , 11          , 0.007199287 , 0.007199284
-0.133646578, 0.07683784  , -9.805595   , 0.000526230666, -0.00140438811, -0.000430722139, -0.176621273, -0.166509375, 0.4412161   , -0.007789824, -0.0118890228, 2.39884782  , 3.1         , 3           , 12          , 0.0535526946, 0
-0.117760479, 0.07846849  , -9.809083   , -0.00117079192, -0.000852716446, 0.000127318854, -0.17655386 , -0.166239724, 0.441350937 , -0.00780154765, -0.0118975388, 2.39884877  , 3.11        , 3           , 50          , 0           , 0
-0.120705895, 0.074297905 , -9.766636   , -0.0031470384, -0.00114765437, -0.00101248338, -0.176419035, -0.166441962, 0.4412161   , -0.007832898, -0.0119090937, 2.39883924  , 3.12        , 3           , 11          , 0.007105747 , 0.00710574258
-0.124299206, 0.07570295  , -9.76937    , -0.0008840199, -0.00169550057, 0.0004098715, -0.176419035, -0.166441962, 0.4412161   , -0.007841788, -0.0119260168, 2.398843    , 3.13        , 3           , 12          , 0.0535526946, 0
-0.11737211 , 0.07707192  , -9.797787   , 0.00024052654, -0.0008431704, -0.00127878366, -0.17655386 , -0.166307136, 0.4411487   , -0.007839233, -0.0119345486, 2.39883065  , 3.14        , 3           , 50          , 0           , 0
-0.133538872, 0.08897658  , -9.792889   , -0.00174851774, 0.0016775477, -0.000436484348, -0.176486447, -0.166441962, 0.4412161   , -0.007856664, -0.01191781 , 2.398826    , 3.15        , 3           , 11          , 0.007105747 , 0.00710574258
-0.108041376, 0.06342575  , -9.797771   , -0.00259407819, 0.00139025447, 0.000124205675, -0.176419035, -0.166711614, 0.441350937 , -0.007882619, -0.0119038951, 2.39882684  , 3.16        , 3           , 12          , 0.0535526946, 0
-0.118924916, 0.0662179142, -9.785189   , -0.00370287523, -0.00284086145, 0.000112428905, -0.176419035, -0.166711614, 0.441350937 , -0.007919664, -0.0119322939, 2.39882874  , 3.17        , 3           , 50          , 0           , 0
-0.1043288  , 0.07461514  , -9.783686   , -4.24786122E-05, -0.00056351145, 0.000133020527, -0.176284209, -0.166509375, 0.4410813   , -0.007920105, -0.0119379181, 2.3988297   , 3.18        , 3           , 11          , 0.007105747 , 0.00710574258
-0.119818889, 0.09428384  , -9.808581   , 0.0007957852, 0.00113160594, -0.0009905748, -0.176486447, -0.166239724, 0.4411487   , -0.00791202951, -0.0119266808, 2.39882016  , 3.19        , 3           , 12          , 0.0535526946, 0
-0.121021293, 0.08110979  , -9.778362   , 0.00334199122, 0.00226610084, -0.0009768059, -0.17655386 , -0.166374549, 0.441350937 , -0.00785744749, -0.0119230514, 2.39881158  , 3.2         , 3           , 50          , 0           , 0
-0.111507542, 0.0805560946, -9.781004   , 0.0008054738, 0.0014042214, 0.0009878021, -0.17655386 , -0.166307136, 0.4410813   , -0.00784951 , -0.0119089317, 2.39882159  , 3.21        , 3           , 11          , 0.00701412652, 0.00701412139
-0.12578851 , 0.09249996  , -9.79417    , 0.003635318 , 0.000297060848, 0.0009992357, -0.17655386 , -0.166307136, 0.4410813   , -0.007813275, -0.0119058834, 2.39883161  , 3.22        , 3           , 12          , 0.05455581  , 0
-0.13048026 , 0.0750126541, -9.810551   , -3.93449445E-05, 0.0008353599, 0.000417908421, -0.176486447, -0.166509375, 0.441283524 , -0.007813717, -0.0118974978, 2.39883542  , 3.23        , 3           , 50          , 0           , 0
-0.111339241, 0.05621733  , -9.789692   , -0.00144097966, -0.00142671354, -0.000722297467, -0.176621273, -0.166441962, 0.441350937 , -0.007828043, -0.0119118206, 2.39882874  , 3.24        , 3           , 11          , 0.00701412652, 0.00701412139
-0.09682259 , 0.06053304  , -9.78187752 , -0.00088449 , 0.000266496674, -0.000717059942, -0.176486447, -0.166441962, 0.4411487   , -0.007836803, -0.0119092129, 2.398821    , 3.25        , 3           , 12          , 0.05455581  , 0
-0.114255413, 0.0787773356, -9.779225   , 0.000802774448, 0.00168578036, -0.00127206359, -0.176486447, -0.166441962, 0.4411487   , -0.00782862 , -0.0118924538, 2.39880872  , 3.26        , 3           , 50          , 0           , 0
-0.14226149 , 0.08094628  , -9.789825   , 0.00306251575, 0.00170106161, -0.000696453266, -0.176621273, -0.166576788, 0.44141835  , -0.007797911, -0.0118754962, 2.398801    , 3.27        , 3           , 11          , 0.00701412652, 0.00701412139
-0.109707564, 0.07293782  , -9.802717   , 0.00165923475, 2.12370651E-06, 0.000141970726, -0.176351622, -0.166239724, 0.441283524 , -0.00778133469, -0.0118754636, 2.398803    , 3.28        , 3           , 12          , 0.05455581  , 0
-0.139217257, 0.06518529  , -9.809754   , -0.000309967145, -0.00141906738, 0.00154327007, -0.176351622, -0.1666442  , 0.441350937 , -0.007784618, -0.0118895341, 2.39881825  , 3.29        , 3           , 50          , 0           , 0
-0.111515626, 0.072068885 , -9.80635    , -0.00170068489, -0.00286271377, -0.00129095372, -0.176351622, -0.1666442  , 0.441350937 , -0.007766344, -0.0119756339, 2.39880681  , 3.3         , 3           , 11          , 0.0069242497, 0.006924244
-0.0896022245, 0.0880279541, -9.797981   , -0.00198385329, -0.00258305576, -0.00016168681, -0.176149383, -0.166509375, 0.441013873 , -0.00778616639, -0.0120014763, 2.39880586  , 3.31        , 3           , 12          , 0.05556874  , 0
-0.107141227, 0.0936884   , -9.809842   , 0.00110423041, 0.00109829765, -0.0009891719, -0.176486447, -0.166509375, 0.441283524 , -0.007775005, -0.0119905723, 2.39879537  , 3.32        , 3           , 50          , 0           , 0
-0.125566989, 0.06954339  , -9.81143951 , -0.001996963, -0.000330544426, -0.003548665, -0.176351622, -0.166509375, 0.441283524 , -0.00779454876, -0.0119941533, 2.39876     , 3.33        , 3           , 11          , 0.0069242497, 0.006924244
-0.0989559144, 0.0606654473, -9.813532   , -0.00199984 , 0.000514157058, -0.00128706347, -0.176351622, -0.166509375, 0.441283524 , -0.007814392, -0.0119891111, 2.39874721  , 3.34        , 3           , 12          , 0.05556874  , 0
-0.104153343, 0.08502336  , -9.793132   , 0.0025215256, 0.000263156951, 0.000711335742, -0.176486447, -0.1666442  , 0.4410813   , -0.00778926257, -0.0119864242, 2.39875436  , 3.35        , 3           , 50          , 0           , 0
-0.105216078, 0.039006725 , -9.791975   , -0.004529136, -0.00203711842, -0.00130282133, -0.176621273, -0.166307136, 0.441283524 , -0.0078344  , -0.0120068975, 2.39874148  , 3.36        , 3           , 11          , 0.0069242497, 0.006924244
-0.113738537, 0.07971665  , -9.791872   , -0.0014096566, -0.00426862156, 0.00153356814, -0.176621273, -0.166374549, 0.441350937 , -0.007848685, -0.0120494608, 2.39875722  , 3.37        , 3           , 12          , 0.05556874  , 0
-0.109269708, 0.07292042  , -9.799097   , -0.00142318162, -0.00173454033, -0.000157751143, -0.176621273, -0.166374549, 0.441350937 , -0.007862899, -0.0120668178, 2.39875579  , 3.38        , 3           , 50          , 0           , 0
-0.128023922, 0.0555767156, -9.809257   , 0.0010977498, 0.00250612525, -0.000139389726, -0.176284209, -0.166509375, 0.441013873 , -0.007851903, -0.0120417681, 2.39875436  , 3.39        , 3           , 11          , 0.0069242497, 0.006924244
-0.122716129, 0.0469304733, -9.80608749 , 0.0003064542, -0.00113783614, -0.000148901483, -0.17655386 , -0.166441962, 0.44141835  , -0.007763538, -0.01200333 , 2.3987534   , 3.4         , 3           , 12          , 0.0565906838, 0
-0.132383257, 0.07183503  , -9.798374   , 0.00254570041, 0.00281935185, -0.00126244081, -0.176486447, -0.166374549, 0.44141835  , -0.007737927, -0.0119752353, 2.398741    , 3.41        , 3           , 50          , 0           , 0
-0.118993133, 0.0545575246, -9.806027   , 0.00197264575, 0.004504923 , -0.0009799337, -0.176486447, -0.166374549, 0.44141835  , -0.00771807972, -0.0119302645, 2.39873052  , 3.42        , 3           , 11          , 0.00683651958, 0.006836513
-0.112840056, 0.07255866  , -9.813137   , 0.00339863077, 0.00198039343, 0.00128304539, -0.176351622, -0.166576788, 0.4412161   , -0.00768424338, -0.01191036 , 2.39874339  , 3.43        , 3           , 12          , 0.0565906838, 0
-0.115571618, 0.07525664  , -9.800944   , 0.00509876758, 0.000865592854, 0.00128921121, -0.176419035, -0.1666442  , 0.441350937 , -0.007633409, -0.0119016077, 2.39875627  , 3.44        , 3           , 50          , 0           , 0
-0.117367268, 0.073505044 , -9.810457   , 0.000860319 , 0.00111850526, 0.0001397411, -0.176419035, -0.166374549, 0.441350937 , -0.007624822, -0.0118904142, 2.3987577   , 3.45        , 3           , 11          , 0.00683651958, 0.006836513
-0.109396875, 0.06478307  , -9.794161   , 0.00284878537, -0.00112064392, 0.000710563152, -0.176284209, -0.166846439, 0.4412161   , -0.007596419, -0.011901563, 2.39876485  , 3.46        , 3           , 12          , 0.0565906838, 0
-0.118680939, 0.0708790943, -9.829912   , 0.00283386628, 0.00169500208, -0.0009803222, -0.176284209, -0.166846439, 0.4412161   , -0.00756796263, -0.0118846875, 2.39875484  , 3.47        , 3           , 50          , 0           , 0
-0.1256249  , 0.102005892 , -9.803622   , 0.0025460266, 0.00281935348, -0.0006973659, -0.176284209, -0.166307136, 0.4411487   , -0.007542416, -0.0118565485, 2.39874768  , 3.48        , 3           , 11          , 0.00683651958, 0.006836513
-0.106636181, 0.068803966 , -9.79186249 , -0.000842027657, 0.00251486688, -0.001278678, -0.176351622, -0.166374549, 0.441553175 , -0.00755068241, -0.0118314959, 2.39873481  , 3.49        , 3           , 12          , 0.0565906838, 0
-0.109250389, 0.0738287643, -9.800901   , -0.0002577317, -0.000296766229, -0.0009975388, -0.176688686, -0.166441962, 0.4411487   , -0.007540759, -0.0118340775, 2.3987267   , 3.5         , 3           , 50          , 0           , 0
-0.120579131, 0.07172253  , -9.805969   , -0.0008283245, 0.000825673342, -0.00128097436, -0.176688686, -0.166441962, 0.4411487   , -0.007548889, -0.0118259173, 2.39871383  , 3.51        , 3           , 11          , 0.00675104233, 0.00675103441
-0.129540026, 0.07904726  , -9.806007   , 0.00088238623, -0.00226007868, 0.000134841161, -0.176486447, -0.166576788, 0.4412161   , -0.00754008349, -0.0118485074, 2.39871526  , 3.52        , 3           , 12          , 0.0576209128, 0
-0.11319989 , 0.05485945  , -9.782028   , 0.0008750899, -0.000852255034, -0.000428063882, -0.17655386 , -0.166307136, 0.44141835  , -0.007531282, -0.0118570626, 2.39871144  , 3.53        , 3           , 50          , 0           , 0
-0.112324163, 0.07215813  , -9.829859   , -0.00279580615, -0.000877081533, 0.000684965751, -0.176419035, -0.1666442  , 0.4412161   , -0.00755932229, -0.0118657844, 2.398718    , 3.54        , 3           , 11          , 0.00675104233, 0.00675103441
-0.113966867, 0.078118436 , -9.851994   , 0.00141494034, 0.003938165 , -0.002678353, -0.176419035, -0.1666442  , 0.4412161   , -0.007544853, -0.0118266027, 2.398691    , 3.55        , 3           , 12          , 0.0576209128, 0
-0.09800382 , 0.06560236  , -9.808985   , -0.001389085, 0.0002587295, 0.000975823554, -0.17655386 , -0.1666442  , 0.441283524 , -0.00755886 , -0.011823941, 2.398701    , 3.56        , 3           , 50          , 0           , 0
-0.08177027 , 0.06089344  , -9.807073   , -0.00110493787, -2.09239661E-05, 0.00154178159, -0.17655386 , -0.166711614, 0.4412161   , -0.007570091, -0.0118240342, 2.39871621  , 3.57        , 3           , 11          , 0.00675104233, 0.00675103441
-0.08459098 , 0.09156509  , -9.79386    , -0.0002619137, 0.000547928968, -0.0009962369, -0.176351622, -0.166509375, 0.441350937 , -0.0075725913, -0.01181863 , 2.3987062   , 3.58        , 3           , 12          , 0.0576209128, 0
-0.106135331, 0.0733011   , -9.789128   , 2.55108753E-05, -0.000294852362, 0.000416465424, -0.176351622, -0.166509375, 0.441350937 , -0.007572386, -0.0118215475, 2.39871049  , 3.59        , 3           , 50          , 0           , 0
-0.120471418, 0.091449216 , -9.768823   , -0.00109680544, -0.0008160163, -0.00100162521, -0.176486447, -0.166441962, 0.441350937 , -0.00757032167, -0.01171123 , 2.39870238  , 3.6         , 3           , 11          , 0.00666781329, 0.006667804
-0.118835934, 0.07566335  , -9.77656    , -0.00249746116, -0.003078085, -0.000446606369, -0.176419035, -0.1661049  , 0.4412161   , -0.007595247, -0.0117420442, 2.398698    , 3.61        , 3           , 12          , 0.0586587526, 0
-0.122465543, 0.07079008  , -9.79062    , 0.000588813156, 0.00116640318, 0.000422001147, -0.176419035, -0.166711614, 0.441350937 , -0.00758940773, -0.0117303468, 2.39870238  , 3.62        , 3           , 50          , 0           , 0
-0.122420326, 0.07395117  , -9.79151    , 0.00170810963, 0.00314499554, -0.000699843338, -0.176419035, -0.166711614, 0.441350937 , -0.00757224346, -0.0116989519, 2.39869523  , 3.63        , 3           , 11          , 0.00666781329, 0.006667804
-0.128974736, 0.0600141957, -9.783935   , 0.002845603 , 0.001744814 , 0.000715942 , -0.176351622, -0.166441962, 0.4412161   , -0.007543868, -0.01168145 , 2.398702    , 3.64        , 3           , 12          , 0.0586587526, 0
-0.127045929, 0.06276636  , -9.803796   , 0.002280423 , 0.0017409923, 0.0001482331, -0.17655386 , -0.166441962, 0.4411487   , -0.00752108032, -0.01166403 , 2.39870381  , 3.65        , 3           , 50          , 0           , 0
-0.09571391 , 0.07050669  , -9.799456   , -0.001962297, 0.0031201716, 0.00126079877, -0.176419035, -0.166441962, 0.4412161   , -0.00754084671, -0.011632733, 2.39871621  , 3.66        , 3           , 11          , 0.00666781329, 0.006667804
-0.094292   , 0.07322034  , -9.806213   , 0.000592668832, 0.000321706379, -0.000144375415, -0.176419035, -0.166441962, 0.4412161   , -0.007534902, -0.0116295265, 2.3987143   , 3.67        , 3           , 12          , 0.0586587526, 0
-0.132468134, 0.09802677  , -9.804142   , -0.00140293036, 0.00396868028, -0.0009955653, -0.176419035, -0.166509375, 0.4411487   , -0.007548812, -0.0115899155, 2.39870381  , 3.68        , 3           , 50          , 0           , 0
-0.126731038, 0.08533905  , -9.80822    , 0.00031024206, 0.0003197964, -0.000145692349, -0.176351622, -0.166441962, 0.441283524 , -0.007545692, -0.0115867276, 2.39870286  , 3.69        , 3           , 11          , 0.00666781329, 0.006667804
-0.09101981 , 0.08353239  , -9.79801    , -0.00167104881, -0.00139412493, 0.000690538 , -0.176419035, -0.166441962, 0.441485763 , -0.00759484 , -0.0116280569, 2.3987124   , 3.7         , 3           , 12          , 0.0597035624, 0
-0.127332851, 0.08299185  , -9.779306   , 0.00227653515, -0.0002411292, -0.000701976358, -0.176284209, -0.166779026, 0.4412161   , -0.007571993, -0.01163052 , 2.39870524  , 3.71        , 3           , 50          , 0           , 0
-0.118968025, 0.0608267672, -9.79199    , 0.00396428863, 0.00117815682, -0.0004093676, -0.176284209, -0.166779026, 0.4412161   , -0.007532301, -0.01161877 , 2.398701    , 3.72        , 3           , 11          , 0.006586154 , 0.00658614561
-0.113883793, 0.0621913   , -9.81273651 , -0.00167367363, -0.0008309944, 0.00097394333, -0.176419035, -0.166846439, 0.441553175 , -0.007549152, -0.0116270054, 2.398711    , 3.73        , 3           , 12          , 0.0597035624, 0
-0.113052152, 0.0554254949, -9.816374   , -0.00140059 , 0.000860301545, -0.0007173608, -0.17655386 , -0.166576788, 0.441485763 , -0.007563074, -0.0116184568, 2.39870381  , 3.74        , 3           , 50          , 0           , 0
-0.127879322, 0.07220884  , -9.791107   , -0.00138804386, -0.00167378411, -0.0007212662, -0.176486447, -0.1666442  , 0.4412161   , -0.007576872, -0.0116352495, 2.39869666  , 3.75        , 3           , 11          , 0.006586154 , 0.00658614561
-0.132492229, 0.0681759343, -9.783475   , -0.00309261447, 0.0005672821, 0.001252066 , -0.176486447, -0.1666442  , 0.4412161   , -0.00760794338, -0.01162948 , 2.398709    , 3.76        , 3           , 12          , 0.0597035624, 0
-0.116162106, 0.0680087656, -9.790583   , 0.00114280882, 0.000595927 , -0.0004234048, -0.176351622, -0.166374549, 0.441485763 , -0.007596464, -0.0116235549, 2.39870477  , 3.77        , 3           , 50          , 0           , 0
-0.09557061 , 0.08535236  , -9.786737   , -0.00251479982, -0.00224455353, -0.00044486433, -0.176351622, -0.166374549, 0.441283524 , -0.007621563, -0.0116460314, 2.39870048  , 3.78        , 3           , 11          , 0.006586154 , 0.00658614561
-0.111472741, 0.07969159  , -9.792307   , 0.001990994 , 0.000320089457, -0.00126750034, -0.176351622, -0.166441962, 0.4412161   , -0.00760150375, -0.0116429273, 2.3986876   , 3.79        , 3           , 12          , 0.0597035624, 0
-0.110058725, 0.0543529429, -9.776582   , 0.000576933846, 0.0014347363, 0.000140674732, -0.176351622, -0.166441962, 0.4412161   , -0.00758859329, -0.0116337892, 2.39869142  , 3.8         , 3           , 50          , 0           , 0
-0.10508623 , 0.07831662  , -9.808083   , -0.0002551757, -0.00166820991, -0.00015058658, -0.176486447, -0.166441962, 0.44141835  , -0.00759112928, -0.01165048 , 2.39868951  , 3.81        , 3           , 11          , 0.006506629 , 0.006506622
-0.10013818 , 0.07957079  , -9.795836   , 0.00253817276, 0.004826892 , 0.00185032538, -0.176351622, -0.166441962, 0.441350937 , -0.00756595936, -0.011602073, 2.398708    , 3.82        , 3           , 12          , 0.06075474  , 0
-0.129149139, 0.07854543  , -9.792446   , 0.0036883   , 0.000611053139, 0.00100147165, -0.176486447, -0.166307136, 0.4410813   , -0.007529191, -0.0115958871, 2.398718    , 3.83        , 3           , 50          , 0           , 0
-0.11972487 , 0.105518766 , -9.795426   , 0.000593009347, -0.00194404752, -0.0009946823, -0.176486447, -0.166307136, 0.4410813   , -0.00752314646, -0.0116154011, 2.398708    , 3.84        , 3           , 11          , 0.006506629 , 0.006506622
-0.117079966, 0.06399229  , -9.80055    , 0.00144946971, -0.00362770446, 0.0004193522, -0.176486447, -0.166239724, 0.4412161   , -0.00750870444, -0.0116516491, 2.3987124   , 3.85        , 3           , 12          , 0.06075474  , 0
-0.11103446 , 0.0400234871, -9.805575   , 0.00368428137, 0.001455749 , 0.00128531107, -0.176351622, -0.166374549, 0.4412161   , -0.0074720094, -0.0116369929, 2.39872575  , 3.86        , 3           , 50          , 0           , 0
-0.1290617  , 0.0456605144, -9.808853   , 0.00255596847, 0.00116654416, 0.00127960928, -0.176284209, -0.166374549, 0.441350937 , -0.007446599, -0.0116252331, 2.39873815  , 3.87        , 3           , 11          , 0.006506629 , 0.006506622
-0.1036495  , 0.06103067  , -9.771985   , 0.00285291369, -0.00192876544, -0.000136534247, -0.176284209, -0.166374549, 0.441350937 , -0.00741805555, -0.01164453 , 2.39873719  , 3.88        , 3           , 12          , 0.06075474  , 0
-0.107387163, 0.08634751  , -9.773265   , -0.0002628871, 2.11834558E-05, 0.0009821667, -0.176419035, -0.166441962, 0.4412161   , -0.0074208  , -0.0116442442, 2.39874673  , 3.89        , 3           , 50          , 0           , 0
-0.114121079, 0.07888618  , -9.811765   , 3.923473E-05, -0.00138246128, -0.0001485805, -0.176486447, -0.166172311, 0.441350937 , -0.0073856567, -0.0116521642, 2.39874768  , 3.9         , 3           , 11          , 0.00642958051, 0.00642957259
-0.120446905, 0.08164938  , -9.806378   , 0.004549863 , 0.000337489269, 0.0001576313, -0.176351622, -0.166711614, 0.441350937 , -0.00734017557, -0.0116487788, 2.39874864  , 3.91        , 3           , 12          , 0.0618117265, 0
-0.106154546, 0.07507093  , -9.778726   , 0.0034176195, 0.000611408963, -0.00182496477, -0.176351622, -0.166711614, 0.441350937 , -0.00730578648, -0.0116427969, 2.39873052  , 3.92        , 3           , 50          , 0           , 0
-0.125519916, 0.07270598  , -9.812782   , 0.00143127458, 0.00285056885, 0.00127720041, -0.176486447, -0.166374549, 0.44141835  , -0.00729162 , -0.0116141979, 2.398743    , 3.93        , 3           , 11          , 0.00642958051, 0.00642957259
-0.106905021, 0.07297547  , -9.823486   , -0.00251055555, 8.169562E-06, -0.00185348827, -0.1762168  , -0.166374549, 0.441485763 , -0.007316511, -0.0116142519, 2.39872479  , 3.94        , 3           , 12          , 0.0618117265, 0
-0.122008152, 0.0694494545, -9.796045   , -0.00279651163, 0.000850957935, -0.000723353354, -0.176351622, -0.166374549, 0.44141835  , -0.00734439073, -0.0116057964, 2.39871716  , 3.95        , 3           , 50          , 0           , 0
-0.106382929, 0.08864857  , -9.78997    , -0.00053906953, 0.00142937154, 0.000700737233, -0.176486447, -0.166711614, 0.441013873 , -0.00734986225, -0.01159145 , 2.39872432  , 3.96        , 3           , 11          , 0.00642958051, 0.00642957259
-0.09610888 , 0.0781468153, -9.789032   , -0.001113103, 0.00311493874, -0.0007119803, -0.176486447, -0.166711614, 0.441013873 , -0.007360907, -0.0115603535, 2.39871716  , 3.97        , 3           , 12          , 0.0618117265, 0
-0.116015173, 0.05525782  , -9.756736   , -0.00224838615, 0.00423355866, -0.0007155123, -0.176688686, -0.166374549, 0.441283524 , -0.00738330558, -0.01151807 , 2.39870954  , 3.98        , 3           , 50          , 0           , 0
-0.107022829, 0.0399242453, -9.790177   , -0.00278839958, -0.000556862156, 0.00125223922, -0.17655386 , -0.166307136, 0.441553175 , -0.00741133373, -0.0115235467, 2.398722    , 3.99        , 3           , 11          , 0.00642958051, 0.00642957259
-0.116410688, 0.08201639  , -9.795498   , -0.001086437, 0.00171358266, -0.0007138959, -0.17655386 , -0.166509375, 0.441283524 , -0.00736959651, -0.0114891967, 2.39871669  , 4           , 3           , 12          , 0.0628740042, 0
-0.102886476, 0.07466723  , -9.804013   , -0.0007748992, -0.004197375, -0.00100422907, -0.17655386 , -0.166509375, 0.441283524 , -0.007377234, -0.011531244, 2.39870667  , 4.01        , 3           , 50          , 0           , 0
-0.128458083, 0.06318508  , -9.789341   , -0.000218661589, -0.00222259387, 0.0009792045, -0.17655386 , -0.1666442  , 0.4412161   , -0.007379535, -0.0115533983, 2.39871716  , 4.02        , 3           , 11          , 0.00635440368, 0.00635439251
-0.135122553, 0.06649242  , -9.810169   , 0.00146163313, 0.0006045153, 0.000426370476, -0.177227989, -0.166239724, 0.4416206   , -0.0073649683, -0.0115473224, 2.398721    , 4.03        , 3           , 12          , 0.0628740042, 0
-0.112834573, 0.069885    , -9.823092   , 0.001465652 , -0.000240180714, 0.000142531208, -0.176688686, -0.166576788, 0.4412161   , -0.00735032838, -0.011549714, 2.398723    , 4.04        , 3           , 50          , 0           , 0
-0.108874641, 0.0679584742, -9.800922   , 0.00146147  , 0.0006045145, 0.000143833 , -0.176688686, -0.166576788, 0.4412161   , -0.007335728, -0.0115436548, 2.39872384  , 4.05        , 3           , 11          , 0.00635440368, 0.00635439251
-0.123025954, 0.0613348335, -9.794731   , 4.138681E-05, 0.00200278545, -0.00155580672, -0.176351622, -0.166509375, 0.441283524 , -0.007335134, -0.0115237441, 2.39870858  , 4.06        , 3           , 12          , 0.0628740042, 0
-0.1319489  , 0.06958304  , -9.801093   , 0.00032307228, 0.00228626351, -0.0004239059, -0.176621273, -0.166576788, 0.441553175 , -0.007331852, -0.0115009109, 2.39870381  , 4.07        , 3           , 50          , 0           , 0
-0.114436008, 0.06390144  , -9.782904   , 0.002302107 , 0.00201807148, 0.0007150285, -0.176351622, -0.166374549, 0.441350937 , -0.00730891339, -0.0114806788, 2.398711    , 4.08        , 3           , 11          , 0.00635440368, 0.00635439251
-0.08931655 , 0.07628213  , -9.794863   , 0.000323561748, 0.00228626584, 0.00042370634, -0.176351622, -0.166374549, 0.441350937 , -0.007305724, -0.011457785, 2.39871526  , 4.09        , 3           , 12          , 0.0628740042, 0
-0.102159917, 0.0869352147, -9.831528   , 0.0006369646, -0.00193965447, 0.000701308 , -0.176688686, -0.166374549, 0.441283524 , -0.007272342, -0.01148904 , 2.39872432  , 4.1         , 3           , 50          , 0           , 0
-0.127943531, 0.08591953  , -9.842125   , -0.00332233519, -0.00112170447, -0.00129358948, -0.176486447, -0.166441962, 0.44141835  , -0.00730541861, -0.0115003511, 2.39871144  , 4.11        , 3           , 11          , 0.00628176332, 0.006281755
-0.116844662, 0.06953915  , -9.840301   , -0.00134625169, -0.000826767238, -0.000436324539, -0.176621273, -0.166509375, 0.44141835  , -0.007318831, -0.011508652, 2.39870715  , 4.12        , 3           , 12          , 0.06394107  , 0
-0.112059049, 0.0679836   , -9.797332   , 0.00117992936, 0.00228763651, -0.0009847739, -0.176621273, -0.166509375, 0.44141835  , -0.007306917, -0.0114858476, 2.39869714  , 4.13        , 3           , 50          , 0           , 0
-0.107523747, 0.06793648  , -9.799105   , -0.001062846, -0.0008248527, 0.00126021716, -0.176351622, -0.166441962, 0.4410813   , -0.00731769 , -0.011494006, 2.39870954  , 4.14        , 3           , 11          , 0.00628176332, 0.006281755
-0.124648266, 0.072221525 , -9.805998   , 0.0006292605, -0.000531832746, -0.000567940937, -0.17655386 , -0.166441962, 0.441283524 , -0.007311332, -0.0114993658, 2.39870381  , 4.15        , 3           , 12          , 0.06394107  , 0
-0.11198651 , 0.07027413  , -9.807716   , -8.004695E-05, 0.0001673062, -0.000146342209, -0.176486447, -0.166509375, 0.44141835  , -0.00731211528, -0.0114977043, 2.39870286  , 4.16        , 3           , 50          , 0           , 0
-0.1028881  , 0.0648462251, -9.83524    , 0.00076756  , 0.000173037668, 0.000422683574, -0.176486447, -0.166509375, 0.44141835  , -0.00730448961, -0.0114959422, 2.39870667  , 4.17        , 3           , 11          , 0.00628176332, 0.006281755
-0.103109784, 0.06511293  , -9.7801     , 0.00189058646, 0.00144771836, -0.0002764397, -0.176688686, -0.166509375, 0.44141835  , -0.00728555024, -0.0114814853, 2.39870381  , 4.18        , 3           , 12          , 0.06394107  , 0
-0.109005466, 0.0700842142, -9.762045   , 0.000473617547, 0.00228286046, -0.00141187245, -0.17655386 , -0.166509375, 0.44141835  , -0.00728065055, -0.01145876 , 2.39868951  , 4.19        , 3           , 50          , 0           , 0
-0.107955039, 0.0768862143, -9.775568   , -0.000215939464, 0.000171175736, -0.000429150037, -0.176621273, -0.166172311, 0.441553175 , -0.00726737967, -0.0114435218, 2.3986876   , 4.2         , 3           , 11          , 0.006210808 , 0.006210799
-0.104013145, 0.0579837561, -9.803638   , -0.00105814065, -0.0006792451, 0.00111955346, -0.176419035, -0.166711614, 0.441283524 , -0.00727809127, -0.0114502339, 2.398699    , 4.21        , 3           , 12          , 0.0650124848, 0
-0.108488873, 0.06298899  , -9.800488   , -0.000918936566, -0.000255942257, 0.00126213161, -0.176419035, -0.166711614, 0.441283524 , -0.007287425, -0.0114527019, 2.39871144  , 4.22        , 3           , 50          , 0           , 0
-0.0956743062, 0.07366324  , -9.79899    , -0.000208806276, -0.00123664888, -0.0001487822, -0.176486447, -0.166441962, 0.441350937 , -0.00728949625, -0.01146508 , 2.39871049  , 4.23        , 3           , 11          , 0.006210808 , 0.006210799
-0.133879662, 0.06415118  , -9.789379   , -0.00105928245, -0.0006792505, -0.000858208747, -0.176621273, -0.1661049  , 0.441485763 , -0.00729999132, -0.0114719365, 2.398702    , 4.24        , 3           , 12          , 0.0650124848, 0
-0.134180382, 0.0807946548, -9.77304    , -0.00120352872, -0.000117076619, -0.00128180569, -0.176486447, -0.166374549, 0.441350937 , -0.00731187966, -0.0114731975, 2.398689    , 4.25        , 3           , 50          , 0           , 0
-0.117304735, 0.08248271  , -9.796859   , -7.997578E-05, 0.00129839254, 0.000138319228, -0.176486447, -0.166374549, 0.441350937 , -0.007312695, -0.0114602037, 2.39869046  , 4.26        , 3           , 11          , 0.006210808 , 0.006210799
-0.121055707, 0.0672450662, -9.814578   , 0.00091372343, 0.000319601269, 0.0007064848, -0.176419035, -0.166307136, 0.44141835  , -0.00730363838, -0.0114569552, 2.39869714  , 4.27        , 3           , 12          , 0.0650124848, 0
-0.122627825, 0.05548269  , -9.800177   , 0.0005017319, -0.00221735379, -0.000853352132, -0.176486447, -0.1661049  , 0.441485763 , -0.00729852542, -0.0114791906, 2.398689    , 4.28        , 3           , 50          , 0           , 0
-0.103858113, 0.07105353  , -9.799517   , 0.00119820423, -0.000241622547, -0.0005644849, -0.1762168  , -0.166441962, 0.44141835  , -0.0072864783, -0.0114816474, 2.39868379  , 4.29        , 3           , 11          , 0.006210808 , 0.006210799
-0.133658111, 0.0763821453, -9.804242   , 0.00176008581, 0.00186572387, 0.000148011241, -0.1762168  , -0.166441962, 0.44141835  , -0.00724854274, -0.0114866029, 2.39868712  , 4.3         , 3           , 12          , 0.0660878   , 0
-0.122472994, 0.07078404  , -9.788812   , 0.001482249 , 0.0010191208, 0.000851736346, -0.1762168  , -0.166307136, 0.441283524 , -0.0072338176, -0.01147635 , 2.39869523  , 4.31        , 3           , 50          , 0           , 0
-0.113849893, 0.07025306  , -9.795075   , 0.001485897 , 0.0003152088, 0.001133189 , -0.176621273, -0.166239724, 0.441350937 , -0.00721908826, -0.0114731165, 2.39870667  , 4.32        , 3           , 11          , 0.00614188751, 0.00614187866
-0.126671   , 0.08583404  , -9.821323   , 0.000922273961, 2.98229679E-05, 0.0008475836, -0.176351622, -0.1661049  , 0.4412161   , -0.007209963, -0.011472756, 2.39871526  , 4.33        , 3           , 12          , 0.0660878   , 0
-0.1127006  , 0.0771351755, -9.832553   , -6.523369E-05, -0.000258428947, 0.000136196788, -0.176351622, -0.1661049  , 0.4412161   , -0.007210631, -0.0114753311, 2.39871621  , 4.34        , 3           , 50          , 0           , 0
-0.126985744, 0.0762056559, -9.775264   , -0.000491254, 0.0003018383, 0.000841433066, -0.17655386 , -0.166441962, 0.4412161   , -0.00721563958, -0.0114722541, 2.39872479  , 4.35        , 3           , 11          , 0.00614188751, 0.00614187866
-0.118153244, 0.08655673  , -9.797753   , 0.00120703678, -0.000390613422, 0.0012720559, -0.176486447, -0.166374549, 0.441553175 , -0.00720371539, -0.011476066, 2.39873767  , 4.36        , 3           , 12          , 0.0660878   , 0
-0.102404632, 0.07870263  , -9.798117   , 0.00135641382, -0.00221983576, -0.0002840623, -0.176621273, -0.166374549, 0.441283524 , -0.007190121, -0.0114982836, 2.39873528  , 4.37        , 3           , 50          , 0           , 0
-0.1307568  , 0.08140967  , -9.833125   , -0.0007693285, -0.000826337957, -0.00128065073, -0.176621273, -0.166374549, 0.441283524 , -0.007197669, -0.0115066422, 2.39872241  , 4.38        , 3           , 11          , 0.00614188751, 0.00614187866
-0.110623278, 0.101878859 , -9.817971   , -0.0013407442, 0.0005776694, -0.0005747714, -0.1762168  , -0.166172311, 0.4411487   , -0.007211009, -0.0115009053, 2.39871621  , 4.39        , 3           , 12          , 0.0660878   , 0
-0.1255689  , 0.07712981  , -9.78655    , 0.000184588775, 1.05490362E-05, -0.000285220129, -0.176486447, -0.166374549, 0.441485763 , -0.00730043836, -0.0115435487, 2.39871716  , 4.4         , 3           , 50          , 0           , 0
-0.142302081, 0.076449886 , -9.794364   , 3.919331E-05, 0.0008542892, -0.0002845767, -0.176419035, -0.166172311, 0.441283524 , -0.00730001228, -0.0115350289, 2.3987143   , 4.41        , 3           , 11          , 0.006074559 , 0.006074549
-0.114052951, 0.087868385 , -9.799525   , -0.0008074346, 0.0008485625, 0.000841622241, -0.176419035, -0.166172311, 0.441283524 , -0.00730818231, -0.01152648 , 2.398723    , 4.42        , 3           , 12          , 0.06716661  , 0
-0.115300924, 0.0532326028, -9.827249   , 0.0001811409, 0.000855247839, 0.0009875002, -0.176284209, -0.166307136, 0.441283524 , -0.00730648357, -0.0115178553, 2.39873242  , 4.43        , 3           , 50          , 0           , 0
-0.130511656, 0.07543356  , -9.80151    , 0.00201589218, 0.00100844353, 0.0004312024, -0.176419035, -0.166307136, 0.44141835  , -0.00728637353, -0.0115077412, 2.39873624  , 4.44        , 3           , 11          , 0.006074559 , 0.006074549
-0.115424074, 0.0531328171, -9.797419   , 0.00398611743, 0.002288854 , -0.00040523865, -0.176351622, -0.166307136, 0.441350937 , -0.007246464, -0.0114848819, 2.39873242  , 4.45        , 3           , 12          , 0.06716661  , 0
-0.0940644443, 0.0885806456, -9.812475   , 0.0048316326, 0.00271693314, 0.000164437879, -0.176351622, -0.166711614, 0.4411487   , -0.007198165, -0.0114577031, 2.39873385  , 4.46        , 3           , 50          , 0           , 0
-0.138511345, 0.08234641  , -9.816457   , 0.0023062746, -0.000679038931, -0.000276427949, -0.176351622, -0.166711614, 0.4411487   , -0.007175071, -0.0114645138, 2.39873147  , 4.47        , 3           , 11          , 0.006074559 , 0.006074549
-0.124318257, 0.06497511  , -9.799246   , 0.000335604564, -0.002100237, -0.001417966, -0.176419035, -0.166509375, 0.441283524 , -0.00717155449, -0.0114856167, 2.39871716  , 4.48        , 3           , 12          , 0.06716661  , 0
-0.115765169, 0.06304833  , -9.79286    , -9.226205E-05, -0.00111762132, -0.0002882727, -0.176351622, -0.166441962, 0.44141835  , -0.007172444, -0.011496814, 2.3987143   , 4.49        , 3           , 50          , 0           , 0
-0.132066131, 0.0872679055, -9.826331   , 0.000176037793, 0.0004120918, 0.0007046719, -0.176419035, -0.166509375, 0.4411487   , -0.00719200075, -0.0115554444, 2.39872432  , 4.5         , 3           , 11          , 0.00600920338, 0.006009194
-0.09442364 , 0.09669611  , -9.809281   , 0.00144494919, 0.000843034766, 0.0008525178, -0.176419035, -0.166509375, 0.4411487   , -0.007177648, -0.0115469536, 2.39873242  , 4.51        , 3           , 12          , 0.0682485551, 0
-0.09212334 , 0.07043848  , -9.791745   , 0.00103151915, -0.0012715694, 0.000423481659, -0.176351622, -0.166374549, 0.44141835  , -0.00716738356, -0.0115596373, 2.39873719  , 4.52        , 3           , 50          , 0           , 0
-0.120707944, 0.0613520965, -9.807821   , -0.000662507955, -0.00142381259, 0.000132825589, -0.176351622, -0.1666442  , 0.441283524 , -0.00717402529, -0.0115738651, 2.39873862  , 4.53        , 3           , 11          , 0.00600920338, 0.006009194
-0.113904759, 0.0666378   , -9.79328251 , -0.0022157738, -0.001434317, 0.000266851072, -0.17608197 , -0.166576788, 0.441350937 , -0.007196216, -0.011588187, 2.398741    , 4.54        , 3           , 12          , 0.0682485551, 0
-0.127053767, 0.06990162  , -9.778907   , -0.0016525588, -0.00114893308, -0.000153887217, -0.17608197 , -0.166576788, 0.441350937 , -0.007212725, -0.0115996879, 2.39874     , 4.55        , 3           , 50          , 0           , 0
-0.131398231, 0.075905934 , -9.804678   , 0.00144540134, 0.0007022511, 0.000428494619, -0.176351622, -0.166307136, 0.4410813   , -0.00719832024, -0.011592635, 2.39874387  , 4.56        , 3           , 11          , 0.00600920338, 0.006009194
-0.126594037, 0.06409939  , -9.799267   , 0.002716567 , 0.000710847147, 0.000858226849, -0.176351622, -0.166509375, 0.4412161   , -0.00717125274, -0.0115854647, 2.39875245  , 4.57        , 3           , 12          , 0.0682485551, 0
-0.124307528, 0.06944731  , -9.787476   , 0.00130710192, -2.619356E-06, -0.00056212995, -0.176419035, -0.166576788, 0.441283524 , -0.00715811644, -0.0115855318, 2.39874673  , 4.58        , 3           , 50          , 0           , 0
-0.126504362, 0.06685013  , -9.812362   , 0.000606774061, -0.00113365392, -0.000284620561, -0.176419035, -0.166576788, 0.441283524 , -0.00715201674, -0.0115968892, 2.39874387  , 4.59        , 3           , 11          , 0.00600920338, 0.006009194
-0.129657537, 0.07136409  , -9.801971   , -0.00122936966, -0.00144958275, -0.000152029228, -0.176351622, -0.166374549, 0.4412161   , -0.007170006, -0.0116792014, 2.39874578  , 4.6         , 3           , 12          , 0.0693332553, 0
-0.09217085 , 0.106926553 , -9.773515   , -0.0005399047, 0.00179318781, -0.00113262783, -0.176284209, -0.166509375, 0.441283524 , -0.00717527233, -0.0116613507, 2.39873433  , 4.61        , 3           , 50          , 0           , 0
-0.107855536, 0.0854475051, -9.77236748 , 0.00144093146, 0.00124343263, 0.0007122163, -0.176351622, -0.166307136, 0.44141835  , -0.00716094347, -0.0116488663, 2.398741    , 4.62        , 3           , 11          , 0.005945545 , 0.005945535
-0.121751159, 0.08170916  , -9.819496   , 0.001449785 , -0.000445955637, 0.00155722525, -0.176351622, -0.166307136, 0.44141835  , -0.00714662764, -0.0116532138, 2.39875674  , 4.63        , 3           , 12          , 0.0693332553, 0
-0.0981507  , 0.08861941  , -9.809795   , 0.001016268 , 0.00138134859, 0.000145383077, -0.176486447, -0.166239724, 0.4410813   , -0.00713648 , -0.011639392, 2.39875817  , 4.64        , 3           , 50          , 0           , 0
-0.09846826 , 0.07006175  , -9.791795   , 0.000169439736, 0.0012348349, -0.00028259086, -0.176419035, -0.166172311, 0.441283524 , -0.00713475235, -0.0116270632, 2.39875531  , 4.65        , 3           , 11          , 0.005945545 , 0.005945535
-0.133453578, 0.09083107  , -9.80779648 , 0.00116453308, -2.55214218E-05, 0.000285140617, -0.17655386 , -0.166172311, 0.44141835  , -0.00712313969, -0.0116272969, 2.39875817  , 4.66        , 3           , 12          , 0.0693332553, 0
-0.115955062, 0.08335245  , -9.791874   , 0.0020175972, -0.00128683657, -0.000560473767, -0.17655386 , -0.166172311, 0.44141835  , -0.00710289925, -0.0116402078, 2.39875245  , 4.67        , 3           , 50          , 0           , 0
-0.108650006, 0.0619657338, -9.764335   , 0.00201550615, -0.000864488946, -0.000559822831, -0.17655386 , -0.165970072, 0.4410813   , -0.00708268 , -0.0116488915, 2.39874673  , 4.68        , 3           , 11          , 0.005945545 , 0.005945535
-0.126764849, 0.0875434   , -9.792843   , 0.000597054546, 0.0005337896, 0.000565911934, -0.176621273, -0.166037485, 0.441283524 , -0.00707677426, -0.0116435112, 2.39875245  , 4.69        , 3           , 12          , 0.0693332553, 0
-0.0984240547, 0.09680441  , -9.827391   , -0.000137411145, 0.0008047781, -1.29275577E-06, -0.17655386 , -0.165970072, 0.441350937 , -0.00716249738, -0.0116537856, 2.39875674  , 4.7         , 3           , 50          , 0           , 0
-0.122395694, 0.102017067 , -9.81806    , -0.000266857067, -0.00158948032, -0.000146908409, -0.176621273, -0.165970072, 0.4411487   , -0.00716515 , -0.0116696889, 2.39875531  , 4.71        , 3           , 11          , 0.00588360336, 0.005883592
-0.123521842, 0.09113656  , -9.799131   , -0.000683898, -0.00285938638, 0.00041423837, -0.176621273, -0.165970072, 0.4411487   , -0.007172039, -0.0116982525, 2.39876     , 4.72        , 3           , 12          , 0.0704203844, 0
-0.115987547, 0.07975532  , -9.795505   , -0.0004083597, -0.001449651, 0.000558993663, -0.176486447, -0.165767834, 0.44141835  , -0.00717618968, -0.0117127094, 2.39876533  , 4.73        , 3           , 50          , 0           , 0
-0.129975155, 0.08531578  , -9.790165   , -0.002105501, -0.00103876553, -0.000295869337, -0.176688686, -0.165970072, 0.44141835  , -0.0071972115, -0.0117231179, 2.398763    , 4.74        , 3           , 11          , 0.00588360336, 0.005883592
-0.111008987, 0.0819269046, -9.787774   , -0.00337621383, -0.00118814537, -0.00114962482, -0.176823512, -0.166037485, 0.441283524 , -0.00723083876, -0.0117350826, 2.3987515   , 4.75        , 3           , 12          , 0.0704203844, 0
-0.114117481, 0.08379895  , -9.796829   , -0.0008382283, -0.000326258771, -0.000571395853, -0.176823512, -0.166037485, 0.441283524 , -0.007239153, -0.0117383851, 2.39874578  , 4.76        , 3           , 50          , 0           , 0
-0.138229072, 0.07104416  , -9.811079   , 0.00268902956, 0.00040153056, 0.0001524943, -0.176688686, -0.165970072, 0.4412161   , -0.007212281, -0.01173436 , 2.39874673  , 4.77        , 3           , 11          , 0.00588360336, 0.005883592
-0.129260391, 0.064172104 , -9.811489   , 0.00170135882, 0.000113277863, -0.000841430039, -0.176823512, -0.165700421, 0.441350937 , -0.00719516771, -0.0117332879, 2.39873815  , 4.78        , 3           , 12          , 0.0704203844, 0
-0.115299448, 0.06796336  , -9.78018    , -0.00112483744, 0.0005165266, -0.000571411, -0.17655386 , -0.165970072, 0.4411487   , -0.007206349, -0.0117281666, 2.398733    , 4.79        , 3           , 50          , 0           , 0
-0.115537241, 0.05393382  , -9.767134   , -0.00100102485, 0.000503263669, 0.000277497165, -0.17655386 , -0.165970072, 0.4411487   , -0.00727423234, -0.0117690545, 2.39874     , 4.8         , 3           , 11          , 0.005823329 , 0.005823318
-0.135718435, 0.0570084341, -9.805693   , -0.000431907538, -0.0003376113, 0.000420097931, -0.176621273, -0.165902659, 0.441013873 , -0.00727860257, -0.0117724  , 2.39874387  , 4.81        , 3           , 12          , 0.07150963  , 0
-0.120680273, 0.06092816  , -9.815958   , -0.00198525516, -0.0003481161, 0.000412854773, -0.176823512, -0.165902659, 0.441283524 , -0.007298503, -0.0117758494, 2.39874816  , 4.82        , 3           , 50          , 0           , 0
-0.123610735, 0.0491817445, -9.801565   , -0.00170524546, 7.613994E-05, -0.0001502522, -0.176890925, -0.165700421, 0.44094646  , -0.00731553929, -0.0117750987, 2.39874673  , 4.83        , 3           , 11          , 0.005823329 , 0.005823318
-0.117461406, 0.06717986  , -9.807772   , -0.0005729134, -0.000479351147, -0.000428389845, -0.176890925, -0.165700421, 0.44094646  , -0.007321218, -0.011779923, 2.39874244  , 4.84        , 3           , 12          , 0.07150963  , 0
-0.103359789, 0.07465592  , -9.799045   , -0.000142384757, -0.00188431214, -0.0005698529, -0.176958337, -0.165835246, 0.441013873 , -0.00732257636, -0.0117988065, 2.39873719  , 4.85        , 3           , 50          , 0           , 0
-0.110943511, 0.0521486364, -9.788801   , 0.00055884046, -0.000753273256, 0.0007065938, -0.176958337, -0.165430769, 0.441283524 , -0.00731707225, -0.0118062878, 2.39874387  , 4.86        , 3           , 11          , 0.005823329 , 0.005823318
-0.113199383, 0.08558385  , -9.794104   , 0.0009710396, 0.00164289668, 0.00141860126, -0.177093163, -0.165700421, 0.4411487   , -0.00730752852, -0.011789755, 2.39875817  , 4.87        , 3           , 12          , 0.07150963  , 0
-0.118434325, 0.09696725  , -9.806299   , 0.00209730654, 0.00221366365, 0.000294586964, -0.177093163, -0.165700421, 0.4411487   , -0.00728658773, -0.011767596, 2.398761    , 4.88        , 3           , 50          , 0           , 0
-0.101532787, 0.083574526 , -9.774136   , 0.00138984539, 0.00249045365, 0.00029172856, -0.177093163, -0.165767834, 0.44094646  , -0.007272722, -0.011742671, 2.398764    , 4.89        , 3           , 11          , 0.005823329 , 0.005823318
-0.09620087 , 0.0798576847, -9.761002   , -0.00101083482, 0.0007859022, 0.000137383671, -0.177160576, -0.165498182, 0.4410813   , -0.007310401, -0.01173124 , 2.39876962  , 4.9         , 3           , 12          , 0.07260068  , 0
-0.121403836, 0.0802793354, -9.798257   , -0.000723158242, -0.000338449725, -0.000428109983, -0.177362815, -0.1655656  , 0.440879047 , -0.007317583, -0.0117346542, 2.39876485  , 4.91        , 3           , 50          , 0           , 0
-0.118264511, 0.07977132  , -9.792358   , -0.001142164, -0.00132679357, -0.000855410355, -0.177362815, -0.1655656  , 0.440879047 , -0.00732890423, -0.0117479861, 2.39875674  , 4.92        , 3           , 11          , 0.0057646716, 0.005764661
-0.09600125 , 0.08760738  , -9.784924   , -0.000575464161, -0.00174532237, -0.00127723359, -0.177160576, -0.1655656  , 0.440879047 , -0.007334511, -0.0117655313, 2.39874387  , 4.93        , 3           , 12          , 0.07260068  , 0
-0.122646883, 0.0523427762, -9.805613   , 0.00251769857, 0.00109133986, -0.0005520643, -0.177430227, -0.1655656  , 0.4410813   , -0.0073092673, -0.011754659, 2.39873815  , 4.94        , 3           , 50          , 0           , 0
-0.11936155 , 0.065343596 , -9.791974   , 0.00237968122, 0.0005272569, 0.000152752982, -0.1778347  , -0.165363356, 0.44094646  , -0.00728548924, -0.0117493756, 2.39874     , 4.95        , 3           , 11          , 0.0057646716, 0.005764661
-0.100737356, 0.07320858  , -9.7805     , 0.00308890664, -0.0001718824, -0.000410114444, -0.177565053, -0.1655656  , 0.440879047 , -0.00725455256, -0.0117511237, 2.39873624  , 4.96        , 3           , 12          , 0.07260068  , 0
-0.1168681  , 0.08335702  , -9.790072   , 0.004216975 , 0.000117321135, -0.000828218937, -0.177565053, -0.1655656  , 0.440879047 , -0.00721228542, -0.0117500108, 2.39872766  , 4.97        , 3           , 50          , 0           , 0
-0.116962105, 0.07212208  , -9.803227   , 0.00238353643, -0.000317440077, -0.000413623638, -0.177699879, -0.165363356, 0.440744251 , -0.00718840258, -0.0117532155, 2.39872384  , 4.98        , 3           , 11          , 0.0057646716, 0.005764661
-0.112496287, 0.07648216  , -9.773796   , -0.0005852667, 0.000366418739, -0.000143829267, -0.177565053, -0.165026292, 0.440879047 , -0.007194239, -0.0117495628, 2.398722    , 4.99        , 3           , 12          , 0.07260068  , 0
-0.124999858, 0.07543327  , -9.820451   , -2.53791768E-05, -0.0004702626, 0.0007060252, -0.177699879, -0.165363356, 0.440744251 , -0.007227134, -0.0117400493, 2.39873481  , 5           , 3           , 50          , 0           , 0
-0.122425355, 0.06457376  , -9.820477   , 0.00111146132, -0.00187044742, 0.0009916608, -0.177699879, -0.165363356, 0.440744251 , -0.007216137, -0.0117586814, 2.39874482  , 5.01        , 3           , 11          , 0.00570784975, 0.00570784
-0.120440416, 0.08031557  , -9.81226    , -0.000585598464, -0.00145956164, 0.0002780665, -0.177767292, -0.165161118, 0.440676838 , -0.00722202659, -0.0117732584, 2.39874768  , 5.02        , 3           , 12          , 0.0736932456, 0
-0.103894487, 0.0972845852, -9.817035   , -0.000167697362, -0.000330437149, -7.598942E-07, -0.1778347  , -0.1650937  , 0.440811634 , -0.00722370436, -0.0117765618, 2.39874768  , 5.03        , 3           , 50          , 0           , 0
-0.09203181 , 0.07319074  , -9.805292   , 0.00124185625, 0.000101458027, -0.0008411369, -0.177699879, -0.165295944, 0.440676838 , -0.00721118646, -0.0117756091, 2.398739    , 5.04        , 3           , 11          , 0.00570784975, 0.00570784
-0.0939824656, 0.0762234   , -9.761452   , 0.000111533496, 0.00023460103, -0.00070491893, -0.177699879, -0.165295944, 0.440676838 , -0.00720998831, -0.0117733143, 2.39873242  , 5.05        , 3           , 12          , 0.0736932456, 0
-0.105996989, 0.089035444 , -9.772339   , -0.001869147, 0.001065929 , 0.000134776928, -0.177902117, -0.165228531, 0.440542    , -0.00722869532, -0.0117626442, 2.39873338  , 5.06        , 3           , 50          , 0           , 0
-0.112752669, 0.09003714  , -9.778262   , -0.0001724131, 0.0006550415, 0.000283296424, -0.178036943, -0.164958879, 0.440609425 , -0.007230452, -0.0117560746, 2.39873624  , 5.07        , 3           , 11          , 0.00570784975, 0.00570784
