Acc X       , Acc Y       , Acc Z       , Gyro X      , Gyro Y      , Gyro Z      , Magn X      , Magn Y      , Magn Z      , Euler X     , Euler Y     , Euler Z     , Time        , Status      , LowRate X   , LowRate Y   , LowRate Z    
-0.122923583, 0.106425025 , -9.785504   , -0.0025933967, 0.0003970803, -0.000145648854, -0.179991916, -0.1645544  , 0.4501146   , -0.009170779, -0.0122029921, 2.42851     , 0           , 3           , 11          , 0.0346410163, 0.0346410163
-0.1246657  , 0.11409016  , -9.77780151 , -0.0011848663, 0.0009697564, -0.00155088364, -0.180194154, -0.164352164, 0.4501146   , -0.009182438, -0.0121934377, 2.42849422  , 0.01        , 3           , 12          , 0.0346410163, 0
-0.126382157, 0.0758761838, -9.813227   , 0.0003697121, 0.000698695367, -0.00182661193, -0.180126742, -0.164217338, 0.450384259 , -0.009178516, -0.01218662 , 2.42847562  , 0.02        , 3           , 50          , 0           , 0
-0.102198891, 0.09225984  , -9.804839   , -4.44220932E-05, -0.0009935546, 0.000146571343, -0.179991916, -0.164217338, 0.450384259 , -0.00917898 , -0.0121965418, 2.42847753  , 0.03        , 3           , 11          , 0.0346410163, 0.0346410163
-0.11883764 , 0.105939642 , -9.789542   , 9.797778E-05, -0.00113337988, 0.0009946253, -0.179991916, -0.164217338, 0.450384259 , -0.00917812251, -0.0122077838, 2.42848754  , 0.04        , 3           , 12          , 0.0346410163, 0
-0.14076522 , 0.0935398862, -9.782982   , -0.00018702948, -0.000712944544, 0.000146346691, -0.17985709 , -0.164352164, 0.4501146   , -0.009180012, -0.0122148991, 2.428489    , 0.05        , 3           , 50          , 0           , 0
-0.144990325, 0.1148168   , -9.788801   , 0.000373560673, 0.0001355702, 9.013631E-06, -0.17985709 , -0.1640151  , 0.450384259 , -0.009176277, -0.0122135412, 2.428489    , 0.06        , 3           , 11          , 0.0346410163, 0.0346410163
-0.128847942, 0.1002143   , -9.796422   , 0.00065606914, 0.000137480543, 0.000151599292, -0.180059329, -0.164419577, 0.450384259 , -0.009169734, -0.0122121517, 2.42849088  , 0.07        , 3           , 12          , 0.0346410163, 0
-0.12820527 , 0.0799049   , -9.797406   , 0.00206841063, 6.245591E-06, -0.0006896454, -0.180059329, -0.164419577, 0.450384259 , -0.009148966, -0.0122121526, 2.42848372  , 0.08        , 3           , 50          , 0           , 0
-0.11042507 , 0.0878304   , -9.800852   , 0.00291397073, 0.000293539051, -0.00125033548, -0.180059329, -0.164689228, 0.450182021 , -0.009119673, -0.0122093316, 2.42847085  , 0.09        , 3           , 11          , 0.0346410163, 0.0346410163
-0.09960238 , 0.0961477   , -9.762769   , 0.0017933246, -0.00154427381, -0.00125842413, -0.180059329, -0.164284751, 0.450316846 , -0.009101586, -0.0122248894, 2.42845845  , 0.1         , 3           , 12          , 0.0346410163, 0
-0.127304345, 0.0888175   , -9.76753    , 0.00137390359, -0.002251048, 9.93432E-06 , -0.180059329, -0.164217338, 0.4505865   , -0.009087851, -0.0122473976, 2.428459    , 0.11        , 3           , 50          , 0           , 0
-0.13813144 , 0.08719188  , -9.782988   , 0.002075744 , -0.00126079225, 0.00114489533, -0.179991916, -0.164419577, 0.450182021 , -0.009067236, -0.0122599006, 2.42847085  , 0.12        , 3           , 11          , 0.0346410163, 0.0346410163
-0.128314078, 0.106523596 , -9.79594    , 0.00277665025, -0.000411326677, -0.0005457354, -0.179991916, -0.164419577, 0.450182021 , -0.009039403, -0.0122640627, 2.42846513  , 0.13        , 3           , 12          , 0.0346410163, 0
-0.118878007, 0.0992116854, -9.801322   , 0.0009348921, 0.0007025168, -0.0012589033, -0.17985709 , -0.164217338, 0.450451672 , -0.0090299  , -0.0122571513, 2.42845273  , 0.14        , 3           , 50          , 0           , 0
-0.114383072, 0.100024544 , -9.790437   , 8.27324839E-05, 0.00168226473, -0.00126133545, -0.180059329, -0.164352164, 0.450316846 , -0.009028916, -0.0122404434, 2.42843938  , 0.15        , 3           , 11          , 0.0346410163, 0.0346410163
-0.109933637, 0.0820538551, -9.828896   , -0.00147020724, 0.00167176174, -0.0005622349, -0.179722264, -0.164352164, 0.450249434 , -0.009043548, -0.0122237764, 2.42843366  , 0.16        , 3           , 12          , 0.0346410163, 0
-0.135197014, 0.09670975  , -9.805526   , -0.002729568, -0.0005893516, 0.000134711139, -0.179722264, -0.164352164, 0.450249434 , -0.009070861, -0.0122296577, 2.42843556  , 0.17        , 3           , 50          , 0           , 0
-0.143556967, 0.08279857  , -9.799319   , -0.00103131449, -0.0014225893, -0.0007063014, -0.1799245  , -0.164419577, 0.450316846 , -0.00908109 , -0.0122439489, 2.428428    , 0.18        , 3           , 11          , 0.0346410163, 0.0346410163
-0.121631339, 0.09251864  , -9.814026   , -5.147366E-05, 0.000414270384, 7.471999E-06, -0.1799245  , -0.164284751, 0.450182021 , -0.009081607, -0.0122398045, 2.42842841  , 0.19        , 3           , 12          , 0.0346410163, 0
-0.127770558, 0.113287047 , -9.796359   , -0.00103849382, 0.000126017956, 0.000143698941, -0.17985709 , -0.164217338, 0.450316846 , -0.00909206551, -0.0122386143, 2.42842984  , 0.2         , 3           , 50          , 0           , 0
-0.124557391, 0.116856039 , -9.795416   , -0.00131185958, -0.00170606491, 0.000139561555, -0.17985709 , -0.164217338, 0.450316846 , -0.009105204, -0.0122556621, 2.42843175  , 0.21        , 3           , 11          , 0.0346699134, 0.0346699134
-0.114627406, 0.07706271  , -9.804545   , -0.0006108791, -0.00057502737, 0.000992202 , -0.180059329, -0.164621815, 0.450316846 , -0.009111433, -0.0122613218, 2.42844129  , 0.22        , 3           , 12          , 0.03466881  , 0
-0.121911034, 0.07220626  , -9.810948   , -0.000895804842, -0.000154591733, 0.000285192247, -0.17985709 , -0.164891466, 0.450384259 , -0.009120426, -0.0122628408, 2.42844415  , 0.23        , 3           , 50          , 0           , 0
-0.121821254, 0.07763519  , -9.815445   , -0.000329801842, -0.000432337954, -0.000136414033, -0.17985709 , -0.164486989, 0.4501146   , -0.009123709, -0.0122671761, 2.42844319  , 0.24        , 3           , 11          , 0.0346699134, 0.0346699134
-0.116896018, 0.110933982 , -9.80532551 , -0.00132120261, -1.66792233E-05, -0.00155305979, -0.17985709 , -0.164486989, 0.4501146   , -0.009136729, -0.0122674815, 2.42842746  , 0.25        , 3           , 12          , 0.03466881  , 0
-0.114396237, 0.0973357856, -9.795872   , -0.00188203726, -0.000865195238, -0.00183953275, -0.1799245  , -0.164486989, 0.450316846 , -0.009155325, -0.0122763021, 2.42840934  , 0.26        , 3           , 50          , 0           , 0
-0.117655925, 0.0888192654, -9.801355   , 0.0012295295, -0.00154809153, 0.000575437152, -0.17985709 , -0.164621815, 0.450451672 , -0.009143102, -0.0122917295, 2.428415    , 0.27        , 3           , 11          , 0.0346699134, 0.0346699134
-0.0932142958, 0.08673972  , -9.804793   , 0.00264276867, -0.00167932233, 0.00128814834, -0.180194154, -0.164689228, 0.450519085 , -0.009116835, -0.0123084057, 2.428428    , 0.28        , 3           , 12          , 0.03466881  , 0
-0.09651658 , 0.08622296  , -9.774086   , 0.0003769179, -0.00042756 , 0.0009970281, -0.180194154, -0.164689228, 0.450519085 , -0.009113188, -0.0123125892, 2.42843843  , 0.29        , 3           , 50          , 0           , 0
-0.112553678, 0.07197216  , -9.774267   , -5.748434E-05, 0.000442367716, 0.000855422346, -0.1799245  , -0.164891466, 0.450384259 , -0.009247731, -0.0117293233, 2.42844844  , 0.3         , 3           , 11          , 0.034753412 , 0.03475341
-0.1211347  , 0.101475872 , -9.795906   , 0.0007919315, -0.000115035713, -0.000271644618, -0.179991916, -0.164352164, 0.450384259 , -0.009239781, -0.0117305014, 2.42844558  , 0.31        , 3           , 12          , 0.0347538777, 0
-0.116934836, 0.08642739  , -9.76384449 , -0.00154167844, 0.0006435122, 0.000142490157, -0.1799245  , -0.164149925, 0.450182021 , -0.009255214, -0.0117240511, 2.428447    , 0.32        , 3           , 50          , 0           , 0
-0.101285048, 0.0633173   , -9.789133   , -0.000270616874, 0.0007225007, 0.0009961374, -0.1799245  , -0.164149925, 0.450182021 , -0.009258036, -0.0117167346, 2.428457    , 0.33        , 3           , 11          , 0.034753412 , 0.03475341
-0.1266729  , 0.09342045  , -9.796433   , 0.002700259 , -0.0004540987, 8.987422E-05, -0.179722264, -0.164352164, 0.450249434 , -0.009231045, -0.0117212674, 2.4284575   , 0.34        , 3           , 12          , 0.0347538777, 0
-0.116375804, 0.08383007  , -9.79820251 , 0.0002968652, 2.240389E-05, -0.0004856353, -0.180126742, -0.164284751, 0.450249434 , -0.00922802 , -0.0117210876, 2.42845273  , 0.35        , 3           , 50          , 0           , 0
-0.119208395, 0.07841186  , -9.787399   , -0.000332900352, -0.0009673675, 0.0009225702, -0.17985709 , -0.164284751, 0.450316846 , -0.00923145749, -0.0117306747, 2.42846227  , 0.36        , 3           , 11          , 0.034753412 , 0.03475341
-0.1420878  , 0.09403117  , -9.790221   , 0.000657358265, -0.00138303183, 0.00036145348, -0.17985709 , -0.164284751, 0.450316846 , -0.009224927, -0.0117444713, 2.428466    , 0.37        , 3           , 12          , 0.0347538777, 0
-0.127783284, 0.113723107 , -9.791839   , -0.000962985039, -0.00223871181, -0.0006363017, -0.179789677, -0.164284751, 0.450249434 , -0.009234485, -0.0117669161, 2.42846     , 0.38        , 3           , 50          , 0           , 0
-0.141966224, 0.102163978 , -9.793803   , -0.000337264064, -0.000193065949, 5.516597E-06, -0.17985709 , -0.164419577, 0.450316846 , -0.00923785847, -0.0117688458, 2.42846     , 0.39        , 3           , 11          , 0.034753412 , 0.03475341
-0.109291174, 0.106751494 , -9.795794   , -0.0007741885, 0.000323137618, -0.000772854139, -0.180059329, -0.164284751, 0.450384259 , -0.009337846, -0.0121705513, 2.42845321  , 0.4         , 3           , 12          , 0.0348953567, 0
-0.10378965 , 0.08048235  , -9.785918   , 9.325754E-06, -0.000797864457, 0.00141869707, -0.179789677, -0.164486989, 0.450182021 , -0.009337927, -0.0121783977, 2.42846751  , 0.41        , 3           , 50          , 0           , 0
-0.115280673, 0.105844207 , -9.773696   , 0.002688773 , -7.580746E-05, 0.00122038962, -0.179789677, -0.164486989, 0.450182021 , -0.009311188, -0.0121790422, 2.42847943  , 0.42        , 3           , 11          , 0.0176882464, 0.0176882781
-0.127704144, 0.09243657  , -9.768874   , 0.0007015415, 0.00174099009, -0.000834404957, -0.179991916, -0.164284751, 0.450249434 , -0.009304069, -0.0121617112, 2.42847085  , 0.43        , 3           , 12          , 0.0348953567, 0
-0.111472085, 0.08058482  , -9.789591   , 0.0006377011, 0.000332686352, -0.00119007565, -0.1799245  , -0.164486989, 0.450249434 , -0.009297546, -0.0121584963, 2.42845941  , 0.44        , 3           , 50          , 0           , 0
-0.09979667 , 0.07278006  , -9.790438   , 0.00281843  , 0.0020368807, -0.0006828252, -0.17985709 , -0.164419577, 0.450249434 , -0.0092692785, -0.01213819 , 2.42845225  , 0.45        , 3           , 11          , 0.0176882464, 0.0176882781
-0.121076383, 0.07972611  , -9.769329   , 0.00176812394, 0.000269936718, -0.000549207034, -0.17985709 , -0.164419577, 0.450249434 , -0.00925153 , -0.0121355411, 2.428447    , 0.46        , 3           , 12          , 0.0348953567, 0
-0.113456324, 0.100923777 , -9.792686   , 0.000784913253, -0.000581438129, 0.00135200971, -0.180126742, -0.164284751, 0.450249434 , -0.009243846, -0.01214123 , 2.42846036  , 0.47        , 3           , 50          , 0           , 0
-0.130776584, 0.0849644542, -9.816839   , 0.00127959391, -0.0007892724, 0.000294473517, -0.180126742, -0.164284751, 0.450316846 , -0.009231086, -0.0121490946, 2.42846322  , 0.48        , 3           , 11          , 0.0176882464, 0.0176882781
-0.140927345, 0.07332274  , -9.808377   , 0.00212351559, -0.000220415182, -0.000689589, -0.180059329, -0.164352164, 0.450249434 , -0.009209768, -0.0121513633, 2.42845654  , 0.49        , 3           , 12          , 0.0348953567, 0
-0.11034435 , 0.101286329 , -9.777293   , 0.0006611247, 0.000595126941, -0.0004131288, -0.180059329, -0.164352164, 0.450249434 , -0.009085999, -0.0122373663, 2.42845082  , 0.5         , 3           , 50          , 0           , 0
-0.09116907 , 0.118599005 , -9.759447   , -0.00286390143, -0.00048461635, -0.000289949, -0.180261567, -0.164352164, 0.450316846 , -0.00911460351, -0.012242239, 2.428448    , 0.51        , 3           , 11          , 0.0134313982, 0.013431414
-0.113339052, 0.110838532 , -9.78948    , -0.00195321045, 0.0009998083, -7.148789E-05, -0.179654852, -0.164284751, 0.450316846 , -0.009134125, -0.0122322477, 2.428447    , 0.52        , 3           , 12          , 0.0350921378, 0
-0.12310908 , 0.08484991  , -9.809549   , 0.000804918469, 0.000173736611, 0.000434491 , -0.179991916, -0.164486989, 0.450316846 , -0.009126129, -0.01223047 , 2.42845178  , 0.53        , 3           , 50          , 0           , 0
-0.121319577, 0.08838191  , -9.792798   , 0.0004533606, -0.0001102155, 0.00057367963, -0.179991916, -0.164486989, 0.450316846 , -0.009121665, -0.01223152 , 2.4284575   , 0.54        , 3           , 11          , 0.0134313982, 0.013431414
-0.125285149, 0.0978918448, -9.789173   , 0.000941664446, 0.00101938541, -5.79891857E-05, -0.1799245  , -0.164284751, 0.450249434 , -0.009112241, -0.0122213326, 2.42845654  , 0.55        , 3           , 12          , 0.0350921378, 0
-0.124441534, 0.08711858  , -9.808646   , -0.000464459939, -0.000327601476, -0.0011261506, -0.180126742, -0.164284751, 0.4500472   , -0.009116748, -0.0122247105, 2.428445    , 0.56        , 3           , 50          , 0           , 0
-0.112447619, 0.106799282 , -9.798981   , -0.00124662812, 0.0007934068, -0.0009867677, -0.1799245  , -0.164486989, 0.450316846 , -0.009129093, -0.012216866, 2.42843556  , 0.57        , 3           , 11          , 0.0134313982, 0.013431414
-0.110836804, 0.08786898  , -9.8108     , -0.00152548845, 8.75845944E-05, -0.000847900752, -0.1799245  , -0.164486989, 0.450316846 , -0.009144244, -0.0122160679, 2.428427    , 0.58        , 3           , 12          , 0.0350921378, 0
-0.119795546, 0.103229761 , -9.785493   , 0.00243734033, -0.00157506368, 1.55450489E-05, -0.179991916, -0.164621815, 0.450182021 , -0.009119876, -0.0122318175, 2.428427    , 0.59        , 3           , 50          , 0           , 0
-0.11948365 , 0.09418328  , -9.780105   , 0.00476971548, 0.0018389714, 0.0009509982, -0.180059329, -0.164352164, 0.450249434 , -0.009227717, -0.0121565526, 2.42843843  , 0.6         , 3           , 11          , 0.0113490056, 0.0113490093
-0.10962867 , 0.07880431  , -9.8031435  , 0.00130881881, 0.00202674721, 0.000723288162, -0.180126742, -0.164352164, 0.450182021 , -0.009214713, -0.01213622 , 2.428446    , 0.61        , 3           , 12          , 0.03534287  , 0
-0.09963208 , 0.08362584  , -9.795815   , 4.884618E-05, -0.000234369334, 0.000360718579, -0.180126742, -0.164352164, 0.450182021 , -0.009214269, -0.0121385306, 2.42844939  , 0.62        , 3           , 50          , 0           , 0
-0.111416437, 0.08018355  , -9.804507   , -0.00205765059, -0.002571605, 0.000700433447, -0.179722264, -0.164352164, 0.450182021 , -0.009234934, -0.0121641811, 2.42845654  , 0.63        , 3           , 11          , 0.0113490056, 0.0113490093
-0.116504379, 0.07122808  , -9.807296   , -0.000443739846, -0.0005896685, 0.000216602741, -0.180261567, -0.164419577, 0.4500472   , -0.0092394  , -0.0121700587, 2.428459    , 0.64        , 3           , 12          , 0.03534287  , 0
-0.12109    , 0.09883399  , -9.81535149 , -9.900375E-05, 0.0008909308, -0.00147469784, -0.179789677, -0.164419577, 0.450182021 , -0.00924021 , -0.0121612828, 2.42844415  , 0.65        , 3           , 50          , 0           , 0
-0.112202443, 0.09323523  , -9.791803   , 0.000397660478, 0.000471927255, -0.000907968963, -0.179789677, -0.164419577, 0.450182021 , -0.009236121, -0.0121566495, 2.42843461  , 0.66        , 3           , 11          , 0.0113490056, 0.0113490093
-0.120872192, 0.09372843  , -9.77424049 , -0.000453909364, 0.00152207084, 0.000714298 , -0.179991916, -0.164621815, 0.449979782 , -0.009240746, -0.0121413637, 2.42844224  , 0.67        , 3           , 12          , 0.03534287  , 0
-0.13168788 , 0.08988031  , -9.799651   , -0.0024970104, 0.000452351058, -0.000568295654, -0.179991916, -0.164621815, 0.450249434 , -0.009265645, -0.0121368943, 2.42843652  , 0.68        , 3           , 50          , 0           , 0
-0.118338957, 0.10240072  , -9.812152   , -0.00178255723, -0.00130265707, -0.00113279046, -0.17985709 , -0.164352164, 0.450316846 , -0.009283336, -0.0121500278, 2.428425    , 0.69        , 3           , 11          , 0.0113490056, 0.0113490093
-0.101422913, 0.08589529  , -9.79356    , -0.00391381048, -0.000674579642, -0.00114148541, -0.17985709 , -0.164284751, 0.450249434 , -0.009343308, -0.0121380929, 2.42841363  , 0.7         , 3           , 12          , 0.0356459878, 0
-0.120330952, 0.09736558  , -9.784166   , -0.00243558176, 0.0003209271, -0.0004973433, -0.17985709 , -0.164284751, 0.450249434 , -0.009367604, -0.01213493 , 2.42840886  , 0.71        , 3           , 50          , 0           , 0
-0.116126768, 0.1081348   , -9.780924   , -0.00102332514, 0.000330477546, -0.000278855528, -0.179991916, -0.164284751, 0.449912369 , -0.009377803, -0.0121316519, 2.428406    , 0.72        , 3           , 11          , 0.0101316972, 0.0101317037
-0.100947872, 0.0908178538, -9.78314    , -0.00124106987, 0.0015256966, -0.000277998974, -0.1799245  , -0.164352164, 0.450451672 , -0.009390178, -0.01211642 , 2.42840314  , 0.73        , 3           , 12          , 0.0356459878, 0
-0.131333441, 0.08800991  , -9.781576   , 0.000524954346, 0.00153763813, 0.00121355336, -0.17985709 , -0.164352164, 0.450249434 , -0.009385074, -0.01210093 , 2.428415    , 0.74        , 3           , 50          , 0           , 0
-0.127592415, 0.09475884  , -9.788752   , -0.00158758194, 0.000115481707, -0.00105879316, -0.17985709 , -0.164352164, 0.450249434 , -0.009400822, -0.0120998779, 2.42840457  , 0.75        , 3           , 11          , 0.0101316972, 0.0101317037
-0.1065613  , 0.109408371 , -9.790338   , 0.00195193314, -0.0015500302, 0.0003677524, -0.1799245  , -0.164217338, 0.4501146   , -0.009381349, -0.0121153407, 2.42840838  , 0.76        , 3           , 12          , 0.0356459878, 0
-0.123462476, 0.09832626  , -9.790514   , 0.0021565163, -7.03806945E-05, 0.000512286962, -0.1799245  , -0.164217338, 0.4501146   , -0.009359847, -0.0121159963, 2.42841363  , 0.77        , 3           , 50          , 0           , 0
-0.09856727 , 0.09222487  , -9.807071   , -0.000395101641, 0.001812992 , -0.00013234558, -0.179991916, -0.164284751, 0.449979782 , -0.009363779, -0.0120978793, 2.4284122   , 0.78        , 3           , 11          , 0.0101316972, 0.0101317037
-0.124070272, 0.07767385  , -9.819078   , 0.001647673 , 0.00288271043, 0.000585173 , -0.179991916, -0.164284751, 0.449979782 , -0.009347371, -0.012068999, 2.42841744  , 0.79        , 3           , 12          , 0.0356459878, 0
-0.121388376, 0.08609441  , -9.783316   , 0.0008529283, 0.003747576 , 0.0006539003, -0.1799245  , -0.164419577, 0.450182021 , -0.009361977, -0.0119893765, 2.42842412  , 0.8         , 3           , 50          , 0           , 0
-0.09938981 , 0.101229809 , -9.798452   , 0.0005120329, 0.00121110049, -5.79948E-05, -0.17985709 , -0.164284751, 0.450249434 , -0.009356849, -0.0119772712, 2.42842364  , 0.81        , 3           , 11          , 0.00937844  , 0.00937844347
-0.104231656, 0.1125595   , -9.796183   , -0.000252669444, -0.00118745409, 0.000146598162, -0.180126742, -0.164217338, 0.4500472   , -0.009359394, -0.0119891316, 2.428425    , 0.82        , 3           , 12          , 0.0359997563, 0
-0.137977272, 0.09401206  , -9.798779   , 0.000303760782, 0.0004353629, -0.000554616447, -0.180126742, -0.164217338, 0.4500472   , -0.009356289, -0.0119848307, 2.42841935  , 0.83        , 3           , 50          , 0           , 0
-0.136371642, 0.07820202  , -9.799283   , -0.00194977 , -0.0007765688, -0.0006376304, -0.179789677, -0.164486989, 0.449979782 , -0.009375712, -0.0119926566, 2.42841363  , 0.84        , 3           , 11          , 0.00937844  , 0.00937844347
-0.124297716, 0.1001793   , -9.801811   , -0.00257541286, -0.002681428, 6.282093E-05, -0.180126742, -0.1645544  , 0.450249434 , -0.009401477, -0.0120194638, 2.42841458  , 0.85        , 3           , 12          , 0.0359997563, 0
-0.125468656, 0.114183955 , -9.802666   , -0.00123745576, -0.0018276578, 0.0011298937, -0.17985709 , -0.164217338, 0.450249434 , -0.009413989, -0.012037633, 2.428426    , 0.86        , 3           , 50          , 0           , 0
-0.143014982, 0.09000715  , -9.797929   , -0.00272913161, -0.000148297549, 0.000136702409, -0.17985709 , -0.164217338, 0.450249434 , -0.0094412975, -0.0120391026, 2.428427    , 0.87        , 3           , 11          , 0.00937844  , 0.00937844347
-0.133148059, 0.08579659  , -9.787927   , 2.90790467E-05, -0.00097436877, 0.00078395  , -0.179789677, -0.164486989, 0.4500472   , -0.009441102, -0.0120487725, 2.428435    , 0.88        , 3           , 12          , 0.0359997563, 0
-0.102933653, 0.111601926 , -9.784426   , 0.0009383833, 0.0005100491, -0.00139915745, -0.179654852, -0.164149925, 0.450182021 , -0.009431548, -0.0120438039, 2.42842126  , 0.89        , 3           , 50          , 0           , 0
-0.09936644 , 0.102587789 , -9.799803   , -0.00130361679, -0.00167377642, -0.00141237536, -0.179991916, -0.164352164, 0.449912369 , -0.00953348447, -0.0121408235, 2.428408    , 0.9         , 3           , 11          , 0.008914059 , 0.008914064
-0.109310821, 0.105396524 , -9.795347   , -0.00179206871, -0.00259219948, 0.0007735752, -0.179991916, -0.164352164, 0.449912369 , -0.009551503, -0.01216667 , 2.42841649  , 0.91        , 3           , 12          , 0.03640229  , 0
-0.112787634, 0.07795735  , -9.808596   , -0.00130120316, -0.00195533666, 0.0003530498, -0.179722264, -0.1645544  , 0.4500472   , -0.00956456 , -0.01218619 , 2.42841983  , 0.92        , 3           , 50          , 0           , 0
-0.126615614, 0.09525228  , -9.804562   , 0.000525391544, -0.0002535354, -0.00104847376, -0.179991916, -0.164352164, 0.450249434 , -0.009559179, -0.0121888248, 2.42840934  , 0.93        , 3           , 11          , 0.008914059 , 0.008914064
-0.147478074, 0.09189817  , -9.80789852 , 0.0002449927, -0.0006074004, -0.0005558924, -0.179991916, -0.164284751, 0.450249434 , -0.009556663, -0.0121949511, 2.428404    , 0.94        , 3           , 12          , 0.03640229  , 0
-0.127084792, 0.105956726 , -9.766102   , -0.001940968, -0.00111493957, 0.000139485477, -0.179654852, -0.164486989, 0.4500472   , -0.009576092, -0.0122060832, 2.42840552  , 0.95        , 3           , 50          , 0           , 0
-0.113708444, 0.120284751 , -9.7795     , -0.0008823603, -0.0009669937, 0.000497812871, -0.179654852, -0.164486989, 0.4500472   , -0.009584975, -0.0122157056, 2.42841077  , 0.96        , 3           , 11          , 0.008914059 , 0.008914064
-0.118422009, 0.0934064239, -9.820778   , 0.00116283551, -0.0004604073, 0.000578754349, -0.179991916, -0.164082512, 0.450249434 , -0.00957342 , -0.0122202551, 2.42841649  , 0.97        , 3           , 12          , 0.03640229  , 0
-0.141425744, 0.102229729 , -9.815042   , -0.000875001, -0.00244520977, 0.000566169 , -0.1799245  , -0.164082512, 0.4500472   , -0.00958224 , -0.012244652, 2.42842221  , 0.98        , 3           , 50          , 0           , 0
-0.1282741  , 0.08520532  , -9.763485   , -0.0008807367, -0.00145973626, -0.0009156339, -0.17985709 , -0.164486989, 0.4500472   , -0.009590938, -0.0122593362, 2.42841315  , 0.99        , 3           , 11          , 0.008914059 , 0.008914064
-0.13395834 , 0.0636410639, -9.771753   , -0.00107388245, -0.00117944984, 0.0002849944, -0.17985709 , -0.164486989, 0.4500472   , -0.009665551, -0.012359811, 2.428417    , 1           , 3           , 12          , 0.03685158  , 0
-0.133050218, 0.05693724  , -9.793921   , 0.00132846588, -0.00144477864, 0.0008608293, -0.179991916, -0.164419577, 0.4501146   , -0.009652375, -0.0123741748, 2.428426    , 1.01        , 3           , 50          , 0           , 0
-0.123495579, 0.08624798  , -9.821299   , 0.0017460594, -0.000245262636, 0.000652745948, -0.1799245  , -0.164419577, 0.450182021 , -0.009634996, -0.0123765646, 2.42843223  , 1.02        , 3           , 11          , 0.008636617 , 0.008636621
-0.117417425, 0.07123266  , -9.805494   , -0.00115211529, 0.000368680834, 0.0003576862, -0.17985709 , -0.164419577, 0.449979782 , -0.009646561, -0.0123728439, 2.42843556  , 1.03        , 3           , 12          , 0.03685158  , 0
-0.12558414 , 0.07667109  , -9.784292   , -0.000369246583, -0.001033896, -0.0009829148, -0.17985709 , -0.164419577, 0.449979782 , -0.009650133, -0.0123832775, 2.428426    , 1.04        , 3           , 50          , 0           , 0
-0.116172612, 0.104080483 , -9.782749   , 0.000197490546, -0.00131163886, -0.000133102527, -0.179991916, -0.164352164, 0.4501146   , -0.009648143, -0.0123964045, 2.428425    , 1.05        , 3           , 11          , 0.008636617 , 0.008636621
-0.103204884, 0.09263544  , -9.779081   , 0.000840288063, -0.00271516433, 0.0005034002, -0.180059329, -0.164352164, 0.450182021 , -0.009639805, -0.0124235069, 2.42842984  , 1.06        , 3           , 12          , 0.03685158  , 0
-0.124069542, 0.0888332054, -9.783325   , 0.00252607348, -0.0008735306, 0.00100856309, -0.17985709 , -0.164486989, 0.4501146   , -0.009614672, -0.012432145, 2.42844033  , 1.07        , 3           , 50          , 0           , 0
-0.118179515, 0.09144531  , -9.775585   , 0.001740053 , 0.0009513886, 0.000513321371, -0.17985709 , -0.164486989, 0.4501146   , -0.009597334, -0.0124225821, 2.42844558  , 1.08        , 3           , 11          , 0.008636617 , 0.008636621
-0.1264537  , 0.0749255   , -9.798768   , 0.00194718339, 0.00172712083, -0.0009678192, -0.179722264, -0.164689228, 0.450182021 , -0.00957774 , -0.0124054067, 2.42843556  , 1.09        , 3           , 12          , 0.03685158  , 0
-0.108070962, 0.0963575542, -9.795375   , 0.00206534448, 0.000809191668, 0.000300781045, -0.180126742, -0.1640151  , 0.449912369 , -0.009424409, -0.0124006467, 2.428437    , 1.1         , 3           , 50          , 0           , 0
-0.128376544, 0.107812047 , -9.7765     , -0.00117581314, -0.000831778336, -0.0019065243, -0.179789677, -0.164284751, 0.4500472   , -0.009435931, -0.012409145, 2.428418    , 1.11        , 3           , 11          , 0.008481777 , 0.008481778
-0.122858189, 0.07396858  , -9.795129   , -0.000115529794, -0.000824610237, 0.000146810955, -0.179789677, -0.164284751, 0.4500472   , -0.009437106, -0.0124173779, 2.42841935  , 1.12        , 3           , 12          , 0.0373455547, 0
-0.112716332, 0.08872753  , -9.791375   , 0.00120957755, 0.00249285181, 8.753088E-05, -0.180194154, -0.164352164, 0.449979782 , -0.009425018, -0.0123924427, 2.42842031  , 1.13        , 3           , 50          , 0           , 0
-0.13441886 , 0.09079334  , -9.79334    , 0.00100394886, 0.001224376 , -5.6678422E-05, -0.17985709 , -0.164284751, 0.4500472   , -0.009414971, -0.0123802042, 2.42841935  , 1.14        , 3           , 11          , 0.008481777 , 0.008481778
-0.130299792, 0.0947983   , -9.791032   , -0.00103848113, 0.000225052238, 0.000426695682, -0.1799245  , -0.164419577, 0.4500472   , -0.009425408, -0.0123779131, 2.42842364  , 1.15        , 3           , 12          , 0.0373455547, 0
-0.12562041 , 0.105580315 , -9.793212   , -0.00253185863, 0.00225636922, -0.0004953189, -0.1799245  , -0.164419577, 0.4500472   , -0.009450663, -0.0123553975, 2.4284184   , 1.16        , 3           , 50          , 0           , 0
-0.09801871 , 0.100777827 , -9.802963   , 0.0003676246, 0.00150164613, 0.0008590393, -0.1799245  , -0.164419577, 0.449912369 , -0.009447089, -0.0123403  , 2.428427    , 1.17        , 3           , 11          , 0.008481777 , 0.008481778
-0.114668816, 0.08417076  , -9.771521   , 0.00100388215, 0.00143555447, 0.001638872 , -0.17985709 , -0.164082512, 0.4501146   , -0.009437252, -0.01232579 , 2.42844319  , 1.18        , 3           , 12          , 0.0373455547, 0
-0.136219785, 0.08948381  , -9.800138   , -0.00125169533, 0.0005051849, 0.000426141836, -0.180194154, -0.164284751, 0.4500472   , -0.009449821, -0.0123206982, 2.428447    , 1.19        , 3           , 50          , 0           , 0
-0.113487236, 0.08929363  , -9.822565   , -0.00236538053, -0.000292004872, -0.00148772949, -0.180194154, -0.164284751, 0.4500472   , -0.009458169, -0.0123410989, 2.4284327   , 1.2         , 3           , 11          , 0.00840308  , 0.008403074
-0.135355636, 0.113914758 , -9.822178   , 0.000671731133, -0.000412253721, -0.0009087142, -0.179991916, -0.164486989, 0.449777544 , -0.009451341, -0.0123453075, 2.42842317  , 1.21        , 3           , 12          , 0.0378820673, 0
-0.116229638, 0.09242915  , -9.806302   , -0.0008151103, 0.000422414538, -0.0007730576, -0.179991916, -0.164352164, 0.449912369 , -0.009459394, -0.0123411566, 2.42841554  , 1.22        , 3           , 50          , 0           , 0
-0.1052376  , 0.105347164 , -9.794865   , 2.99345411E-05, 0.000920884253, -0.0004151755, -0.17985709 , -0.164352164, 0.4500472   , -0.009459044, -0.0123319868, 2.42841125  , 1.23        , 3           , 11          , 0.00840308  , 0.008403074
-0.109954074, 0.0923033357, -9.790887   , 0.00102086435, 0.000575616141, 0.0007896755, -0.179789677, -0.164419577, 0.449777544 , -0.009448932, -0.0123261558, 2.42841935  , 1.24        , 3           , 12          , 0.0378820673, 0
-0.119257614, 0.109988712 , -9.784557   , -0.001368163, -0.00169313722, 0.001551988 , -0.179789677, -0.164419577, 0.449777544 , -0.009462807, -0.012342941, 2.42843461  , 1.25        , 3           , 50          , 0           , 0
-0.12747097 , 0.107801408 , -9.776492   , -0.002005896, -0.00134548068, 0.00063132064, -0.1799245  , -0.164284751, 0.4501146   , -0.009482944, -0.0123563353, 2.42844129  , 1.26        , 3           , 11          , 0.00840308  , 0.008403074
-0.128951222, 0.09923792  , -9.774281   , -0.00193145208, -0.00226009288, -0.0005705446, -0.180059329, -0.164082512, 0.449777544 , -0.00950219 , -0.012378986, 2.42843556  , 1.27        , 3           , 12          , 0.0378820673, 0
-0.1094337  , 0.0954772457, -9.797197   , 0.000379153265, 0.001767969 , 0.000223481664, -0.180059329, -0.164352164, 0.449979782 , -0.009498424, -0.0123612862, 2.42843747  , 1.28        , 3           , 50          , 0           , 0
-0.1309973  , 0.103904516 , -9.812695   , -0.000953684, 6.950745E-05, 0.000779697439, -0.180059329, -0.164352164, 0.449979782 , -0.009508058, -0.0123605169, 2.42844558  , 1.29        , 3           , 11          , 0.00840308  , 0.008403074
-0.142749235, 0.111647293 , -9.793317   , 0.000788165955, -0.0007614114, -0.0002006937, -0.1799245  , -0.164621815, 0.449979782 , -0.009610101, -0.0123665975, 2.428445    , 1.3         , 3           , 12          , 0.03845896  , 0
-0.107704557, 0.09806764  , -9.768698   , 0.00162849855, 0.000581751 , -0.0007597566, -0.179789677, -0.164352164, 0.4500472   , -0.009593721, -0.0123608541, 2.42843747  , 1.31        , 3           , 50          , 0           , 0
-0.130710542, 0.09617671  , -9.79690552 , -0.00154410629, -0.0004956078, -0.00169444631, -0.179991916, -0.164486989, 0.449912369 , -0.009608954, -0.0123659717, 2.42842031  , 1.32        , 3           , 11          , 0.008365215 , 0.008365211
-0.132405058, 0.105219491 , -9.79643    , -0.001748678, -0.00162329234, 0.0011988394, -0.179991916, -0.164486989, 0.449912369 , -0.009626592, -0.0123820892, 2.4284327   , 1.33        , 3           , 12          , 0.03845896  , 0
-0.124347076, 0.09389039  , -9.809973   , -0.00378778647, -0.0033265294, 0.001398591 , -0.180059329, -0.1645544  , 0.449912369 , -0.009664647, -0.0124152172, 2.428447    , 1.34        , 3           , 50          , 0           , 0
-0.09759029 , 0.0980746746, -9.805684   , -0.001183083, -0.00190104055, 7.0889495E-05, -0.17985709 , -0.164621815, 0.4500472   , -0.009676488, -0.0124342218, 2.428448    , 1.35        , 3           , 11          , 0.008365215 , 0.008365211
-0.102860294, 0.0849545151, -9.777304   , -0.00217455 , -0.00127420342, 0.000349794 , -0.17985709 , -0.164217338, 0.449912369 , -0.009698279, -0.0124469278, 2.42845178  , 1.36        , 3           , 12          , 0.03845896  , 0
-0.126255   , 0.09160146  , -9.793726   , -0.0014067298, 0.000420437049, -0.000491593149, -0.17985709 , -0.164217338, 0.449912369 , -0.0097122835, -0.01244277 , 2.428447    , 1.37        , 3           , 50          , 0           , 0
-0.12397559 , 0.08980203  , -9.803208   , 0.002481577 , -0.0004683853, 0.000231447964, -0.17985709 , -0.164621815, 0.449777544 , -0.009687498, -0.0124474326, 2.428449    , 1.38        , 3           , 11          , 0.008365215 , 0.008365211
-0.13236627 , 0.077205    , -9.785244   , 0.0004297414, 0.000292069453, -0.0004832501, -0.1799245  , -0.164284751, 0.450249434 , -0.00968314 , -0.0124445586, 2.42844415  , 1.39        , 3           , 12          , 0.03845896  , 0
-0.128883392, 0.100185588 , -9.787834   , 0.0004737687, -0.001183837, 0.00191565161, -0.180126742, -0.164284751, 0.449912369 , -0.009638538, -0.0124536008, 2.42846322  , 1.4         , 3           , 50          , 0           , 0
-0.123846047, 0.103743874 , -9.790042   , 0.00146796473, -0.00244419766, 0.000929426868, -0.180126742, -0.164284751, 0.449912369 , -0.009623977, -0.012477953, 2.42847276  , 1.41        , 3           , 11          , 0.008345668 , 0.008345666
-0.0956784  , 0.08080154  , -9.775005   , 0.00124483288, -0.0003338961, -0.0005516277, -0.179789677, -0.164419577, 0.449844956 , -0.00961146 , -0.0124813449, 2.428467    , 1.42        , 3           , 12          , 0.0390740633, 0
-0.135023281, 0.0772852749, -9.799728   , 0.00130922929, 0.0008632314, -0.00104389479, -0.179991916, -0.164149925, 0.4501146   , -0.009598238, -0.0124728158, 2.42845654  , 1.43        , 3           , 50          , 0           , 0
-0.127431229, 0.106048211 , -9.791868   , 0.00243900018, 0.0008004787, -0.00153317617, -0.179991916, -0.164217338, 0.4500472   , -0.009573655, -0.0124649564, 2.42844129  , 1.44        , 3           , 11          , 0.008345668 , 0.008345666
-0.116133004, 0.107237026 , -9.782284   , 0.00405841647, 0.00200811937, 0.0008778087, -0.179991916, -0.164217338, 0.4500472   , -0.009533178, -0.0124447914, 2.42844987  , 1.45        , 3           , 12          , 0.0390740633, 0
-0.112906739, 0.103228644 , -9.808944   , 3.35335935E-05, 0.00176972209, -0.00147221726, -0.17985709 , -0.164486989, 0.4500472   , -0.009532658, -0.012427236, 2.42843461  , 1.46        , 3           , 50          , 0           , 0
-0.115101837, 0.0806212947, -9.787811   , -0.000808463665, 0.000919302169, 0.0004296583, -0.179722264, -0.164352164, 0.4500472   , -0.009540794, -0.0124180019, 2.42843938  , 1.47        , 3           , 11          , 0.008345668 , 0.008345666
-0.145784259, 0.0895500854, -9.786652   , -0.00165977806, 0.00154708931, -0.00112727238, -0.17985709 , -0.164486989, 0.450182021 , -0.009557251, -0.01240264 , 2.428428    , 1.48        , 3           , 12          , 0.0390740633, 0
-0.1291708  , 0.10702014  , -9.80634    , -0.00242622267, -0.00049950945, -0.000922136765, -0.17985709 , -0.164486989, 0.450182021 , -0.009581398, -0.0124077229, 2.4284184   , 1.49        , 3           , 50          , 0           , 0
-0.11683327 , 0.117680073 , -9.79897    , -0.00110857643, -0.00046056445, -0.0009864925, -0.180059329, -0.164149925, 0.449912369 , -0.009619539, -0.0124592893, 2.42840886  , 1.5         , 3           , 11          , 0.008329317 , 0.008329314
-0.108240992, 0.115785055 , -9.802076   , -0.00124702754, -0.0008134709, 0.0007781659, -0.180059329, -0.164352164, 0.449979782 , -0.009632106, -0.01246735 , 2.428417    , 1.51        , 3           , 12          , 0.039725244 , 0
-0.102157809, 0.06737166  , -9.784151   , -0.00188107532, -0.00102894043, 0.00141058664, -0.17985709 , -0.164352164, 0.449979782 , -0.009651095, -0.0124775022, 2.4284308   , 1.52        , 3           , 50          , 0           , 0
-0.13374491 , 0.0749727562, -9.787525   , 0.0009379097, -0.000165150719, -0.000482070231, -0.179789677, -0.164352164, 0.449844956 , -0.009641655, -0.012479201, 2.428426    , 1.53        , 3           , 11          , 0.008329317 , 0.008329314
-0.130288824, 0.09703893  , -9.786503   , 0.00255259546, 0.0018167895, 0.000376152049, -0.179789677, -0.164352164, 0.449844956 , -0.009616174, -0.0124609973, 2.42842984  , 1.54        , 3           , 12          , 0.039725244 , 0
-0.109094046, 0.0886850059, -9.7913475  , 1.89511866E-05, 0.000250994432, 0.00128015981, -0.179789677, -0.164217338, 0.4500472   , -0.009616144, -0.0124583654, 2.42844272  , 1.55        , 3           , 50          , 0           , 0
-0.119436555, 0.08975794  , -9.805884   , -0.00323030655, 0.0003698092, 0.0001350823, -0.179789677, -0.164217338, 0.4500472   , -0.009648464, -0.0124546532, 2.42844415  , 1.56        , 3           , 11          , 0.008329317 , 0.008329314
-0.123080462, 0.09335374  , -9.789175   , 0.000499799033, 0.00264763273, -0.001397953, -0.17985709 , -0.164149925, 0.449912369 , -0.009643287, -0.0124283135, 2.42842984  , 1.57        , 3           , 12          , 0.039725244 , 0
-0.123637289, 0.088811256 , -9.77835    , -0.00174330233, -0.0004648583, 0.000281962944, -0.17985709 , -0.164149925, 0.449912369 , -0.009660755, -0.0124329366, 2.4284327   , 1.58        , 3           , 50          , 0           , 0
-0.1049389  , 0.10119985  , -9.770473   , -0.0008893783, -0.00186695508, -0.000281330664, -0.179991916, -0.164082512, 0.4500472   , -0.009669618, -0.0124516292, 2.42842984  , 1.59        , 3           , 11          , 0.008329317 , 0.008329314
-0.125487357, 0.07898128  , -9.800551   , 0.0008239727, -0.00180556218, 0.0005744779, -0.179991916, -0.164217338, 0.449979782 , -0.009639709, -0.0124103175, 2.428436    , 1.6         , 3           , 12          , 0.040410392 , 0
-0.13594532 , 0.07772892  , -9.79431    , 0.00138236023, -0.000957058044, -0.00337711116, -0.179789677, -0.164284751, 0.449912369 , -0.00962546747, -0.0124202128, 2.42840219  , 1.61        , 3           , 50          , 0           , 0
-0.118936174, 0.0987182   , -9.788669   , -0.00226796651, -0.004642219, 0.00196833978, -0.179789677, -0.164284751, 0.449912369 , -0.009648398, -0.0124664446, 2.42842221  , 1.62        , 3           , 11          , 0.008308112 , 0.008308108
-0.117194675, 0.09015985  , -9.799087   , -0.00170991989, -0.00323057245, 0.002255681 , -0.180261567, -0.164352164, 0.449979782 , -0.009665782, -0.0124985306, 2.428445    , 1.63        , 3           , 12          , 0.040410392 , 0
-0.123153165, 0.07811892  , -9.820426   , -0.00117146352, 0.00184141228, 5.825452E-06, -0.179991916, -0.164149925, 0.450182021 , -0.009677496, -0.0124801174, 2.428445    , 1.64        , 3           , 50          , 0           , 0
-0.127224535, 0.08575771  , -9.796921   , -0.00116507174, 0.000715156 , 0.00141677726, -0.179654852, -0.164352164, 0.449912369 , -0.009689321, -0.0124728279, 2.42845941  , 1.65        , 3           , 11          , 0.008308112 , 0.008308108
-0.1282033  , 0.08258459  , -9.789259   , 0.00108098111, 0.00326451776, 1.85306126E-05, -0.179654852, -0.164352164, 0.449912369 , -0.00967851 , -0.0124401851, 2.42845941  , 1.66        , 3           , 12          , 0.040410392 , 0
-0.1347157  , 0.09494216  , -9.818184   , 0.00082102156, -0.00124243309, 0.000292808225, -0.179722264, -0.164082512, 0.449912369 , -0.009670337, -0.01245258 , 2.42846227  , 1.67        , 3           , 50          , 0           , 0
-0.132419631, 0.0980660841, -9.815893   , 0.00109245942, 0.00101199839, 0.000580134161, -0.180059329, -0.164082512, 0.4500472   , -0.009659485, -0.0124424044, 2.428468    , 1.68        , 3           , 11          , 0.008308112 , 0.008308108
-0.125055   , 0.08163752  , -9.786978   , 0.001108698 , -0.00236678449, -0.0002726853, -0.179991916, -0.164352164, 0.450316846 , -0.009648367, -0.0124660982, 2.42846513  , 1.69        , 3           , 12          , 0.040410392 , 0
-0.131218   , 0.0979231447, -9.777919   , -0.000227600161, -0.00158300321, 3.1075615E-06, -0.179991916, -0.164352164, 0.450316846 , -0.009552707, -0.0125449309, 2.42846417  , 1.7         , 3           , 50          , 0           , 0
-0.116032645, 0.07927243  , -9.786015   , 0.00176119246, -0.00382215041, 0.00113900471, -0.1799245  , -0.164284751, 0.449912369 , -0.009535245, -0.0125830425, 2.428476    , 1.71        , 3           , 11          , 0.00827635  , 0.008276347
-0.120018743, 0.08876572  , -9.777418   , 0.000619428349, -0.00129570276, 0.0019852547, -0.179789677, -0.164486989, 0.4500472   , -0.009529301, -0.0125958109, 2.42849612  , 1.72        , 3           , 12          , 0.0411274619, 0
-0.107180513, 0.09097846  , -9.80895    , -0.00107660086, -0.00130716967, -0.00056548405, -0.179654852, -0.164217338, 0.449979782 , -0.009539996, -0.0126089351, 2.42849088  , 1.73        , 3           , 50          , 0           , 0
-0.128238067, 0.07586116  , -9.802394   , -0.00135714433, -0.00159064238, 0.000280377339, -0.179654852, -0.164217338, 0.449979782 , -0.009553606, -0.0126248142, 2.42849374  , 1.74        , 3           , 11          , 0.00827635  , 0.008276347
-0.106404372, 0.11489173  , -9.811105   , -0.000239078465, 0.0006695159, -0.0005584957, -0.17985709 , -0.164621815, 0.449844956 , -0.009555925, -0.0126181738, 2.428488    , 1.75        , 3           , 12          , 0.0411274619, 0
-0.129854247, 0.09255536  , -9.796461   , -0.004468185, -0.0007669574, -1.53446454E-05, -0.179991916, -0.164284751, 0.4501146   , -0.009600606, -0.0126258433, 2.428488    , 1.76        , 3           , 50          , 0           , 0
-0.1393646  , 0.092665486 , -9.7960825  , -0.00165769306, 0.00206779386, 0.000284701528, -0.17985709 , -0.164419577, 0.4500472   , -0.009617216, -0.0126051391, 2.4284904   , 1.77        , 3           , 11          , 0.00827635  , 0.008276347
-0.136192232, 0.0863816962, -9.816874   , 0.00230915472, -0.000439550757, 0.0008643081, -0.17985709 , -0.164419577, 0.4500472   , -0.009594234, -0.0126094529, 2.42849946  , 1.78        , 3           , 12          , 0.0411274619, 0
-0.114154331, 0.07930559  , -9.802272   , 0.000895952864, -0.000167533959, 0.00142323249, -0.179789677, -0.164352164, 0.449912369 , -0.009585454, -0.0126109915, 2.42851377  , 1.79        , 3           , 50          , 0           , 0
-0.12211895 , 0.100976408 , -9.778288   , -0.00328441942, 0.00120189833, -7.911993E-06, -0.180126742, -0.164284751, 0.449912369 , -0.009537223, -0.0126113659, 2.42851233  , 1.8         , 3           , 11          , 0.008232674 , 0.008232667
-0.137853533, 0.110180937 , -9.777015   , 0.000114134389, -0.000746139034, -0.000560221029, -0.180194154, -0.164419577, 0.450249434 , -0.009536012, -0.01261888 , 2.428507    , 1.81        , 3           , 12          , 0.04187446  , 0
-0.127611071, 0.09474372  , -9.784232   , 0.00209702458, -0.00185902789, 1.23365026E-05, -0.17985709 , -0.164419577, 0.4500472   , -0.009515046, -0.0126374653, 2.428507    , 1.82        , 3           , 50          , 0           , 0
-0.125678882, 0.0970523   , -9.80635452 , 0.0023729708, -0.000449290266, 0.000863435562, -0.17985709 , -0.164419577, 0.4500472   , -0.009491426, -0.0126418769, 2.42851567  , 1.83        , 3           , 11          , 0.008232674 , 0.008232667
-0.119634137, 0.112287566 , -9.79585    , -0.00469130371, 6.608671E-05, -0.0005813071, -0.180059329, -0.164419577, 0.4500472   , -0.009538266, -0.0126412753, 2.42851     , 1.84        , 3           , 12          , 0.04187446  , 0
-0.134172335, 0.1142033   , -9.778326   , 0.0006634908, 0.00235489616, -0.0008353514, -0.179991916, -0.164419577, 0.450182021 , -0.009531523, -0.012617805, 2.42850137  , 1.85        , 3           , 50          , 0           , 0
-0.13035807 , 0.09162663  , -9.786978   , 0.00180992647, -0.00101624522, -0.0008352909, -0.179991916, -0.164486989, 0.4500472   , -0.00951331947, -0.0126280459, 2.42849326  , 1.86        , 3           , 11          , 0.008232674 , 0.008232667
-0.130924314, 0.08439841  , -9.782493   , -0.00159485615, 0.00205804966, -0.00141139573, -0.179991916, -0.164486989, 0.4500472   , -0.009529087, -0.0126076015, 2.428479    , 1.87        , 3           , 12          , 0.04187446  , 0
-0.116635218, 0.0733538046, -9.768416   , -0.003277286, -0.000205926175, 0.000272455829, -0.180059329, -0.164419577, 0.449844956 , -0.009561894, -0.0126096345, 2.42848182  , 1.88        , 3           , 50          , 0           , 0
-0.09660393 , 0.07901059  , -9.775925   , -0.007210188, -0.004456141, 0.000530047342, -0.1799245  , -0.164352164, 0.450249434 , -0.009634068, -0.0126541434, 2.42848754  , 1.89        , 3           , 11          , 0.008232674 , 0.008232667
-0.115091041, 0.112693116 , -9.798073   , -0.00153648562, -0.0007283006, -0.00113343971, -0.1799245  , -0.164419577, 0.449979782 , -0.009590913, -0.0126229059, 2.42847562  , 1.9         , 3           , 12          , 0.0426494777, 0
-0.109669849, 0.0836807862, -9.777361   , 0.0018442719, 0.0009840095, -0.00111503294, -0.1799245  , -0.164419577, 0.449979782 , -0.009572329, -0.0126131726, 2.42846417  , 1.91        , 3           , 50          , 0           , 0
-0.126255453, 0.0960646048, -9.779244   , -0.000971632136, -0.000724480662, -0.00113080582, -0.179991916, -0.164284751, 0.4501146   , -0.009581902, -0.0126205254, 2.42845321  , 1.92        , 3           , 11          , 0.008176685 , 0.008176677
-0.112018868, 0.10454274  , -9.80034351 , 0.00157151453, -0.0007072847, 0.00114134641, -0.180059329, -0.164419577, 0.450249434 , -0.009566334, -0.012627488, 2.42846465  , 1.93        , 3           , 12          , 0.0426494777, 0
-0.09821899 , 0.09213489  , -9.781757   , -0.002942065, -0.00186410581, 0.000553464633, -0.17985709 , -0.164486989, 0.4501146   , -0.009595826, -0.0126460753, 2.42847037  , 1.94        , 3           , 50          , 0           , 0
-0.104258783, 0.07601093  , -9.796334   , 0.000713007466, 0.00125793391, -0.001402404, -0.17985709 , -0.164486989, 0.4501146   , -0.009588517, -0.01263363 , 2.42845654  , 1.95        , 3           , 11          , 0.008176685 , 0.008176677
-0.105698057, 0.09999008  , -9.810257   , -0.0004140005, 0.000968735141, 0.0008521939, -0.180059329, -0.164284751, 0.449979782 , -0.009592766, -0.0126238614, 2.42846465  , 1.96        , 3           , 12          , 0.0426494777, 0
-0.115561917, 0.110898368 , -9.79944    , 0.0007098044, 0.002102634 , 0.00029412235, -0.180059329, -0.164284751, 0.4501146   , -0.009585702, -0.012602808, 2.42846751  , 1.97        , 3           , 50          , 0           , 0
-0.125919878, 0.088822715 , -9.773848   , -0.0001378023, 0.00209690235, -0.00027490317, -0.179789677, -0.1645544  , 0.4500472   , -0.009587043, -0.0125818644, 2.42846465  , 1.98        , 3           , 11          , 0.008176685 , 0.008176677
-0.1350708  , 0.07858582  , -9.783904   , 0.0004420591, -0.0009964952, -0.000842117646, -0.179789677, -0.1645544  , 0.4500472   , -0.009582518, -0.0125919087, 2.42845654  , 1.99        , 3           , 12          , 0.0426494777, 0
-0.102325484, 0.117525086 , -9.803379   , -0.00123367272, -0.000667137967, -0.000284175447, -0.1799245  , -0.164419577, 0.449844956 , -0.009567551, -0.01251741 , 2.42845368  , 2           , 3           , 50          , 0           , 0
-0.105116464, 0.110355183 , -9.808403   , -0.004049251, -0.00237562624, 0.00026512632, -0.179991916, -0.164352164, 0.4501146   , -0.009608079, -0.0125411386, 2.42845654  , 2.01        , 3           , 11          , 0.008118491 , 0.008118484
-0.109254621, 0.103210308 , -9.816146   , -0.00122112664, -0.00320122344, -0.000288080832, -0.179991916, -0.164419577, 0.450182021 , -0.009620258, -0.012573177, 2.42845368  , 2.02        , 3           , 12          , 0.04345068  , 0
-0.109855428, 0.09461503  , -9.807599   , -0.0006813651, 0.00187076768, -0.000277636165, -0.179991916, -0.164419577, 0.450182021 , -0.009627036, -0.0125544965, 2.42845082  , 2.03        , 3           , 50          , 0           , 0
-0.124406651, 0.08893226  , -9.81135    , 0.000176414876, -0.000376026146, -0.00140730676, -0.179991916, -0.164419577, 0.449912369 , -0.009625095, -0.0125583913, 2.42843652  , 2.04        , 3           , 11          , 0.008118491 , 0.008118484
-0.135464534, 0.07774628  , -9.801085   , -0.00291150529, -0.00405737851, -0.000297284249, -0.1799245  , -0.1645544  , 0.450182021 , -0.009654176, -0.0125989923, 2.42843413  , 2.05        , 3           , 12          , 0.04345068  , 0
-0.145505026, 0.07155013  , -9.802093   , 0.00101967645, 0.000474399771, -0.00111951679, -0.1799245  , -0.164352164, 0.4501146   , -0.009643839, -0.0125943562, 2.42842317  , 2.06        , 3           , 50          , 0           , 0
-0.133838058, 0.105174974 , -9.77836    , -0.0006728379, 0.000181377982, 2.29748548E-06, -0.1799245  , -0.164352164, 0.4501146   , -0.009650566, -0.012592542, 2.42842317  , 2.07        , 3           , 11          , 0.008118491 , 0.008118484
-0.117964908, 0.06669773  , -9.796929   , 0.000455312256, 0.000470582163, -0.0002745381, -0.17985709 , -0.164419577, 0.449844956 , -0.009645979, -0.0125878649, 2.42842031  , 2.08        , 3           , 12          , 0.04345068  , 0
-0.124907717, 0.0866666958, -9.806844   , 0.000733883237, 0.00131718884, 0.000293155346, -0.180194154, -0.164284751, 0.449979782 , -0.009638675, -0.0125746643, 2.42842317  , 2.09        , 3           , 50          , 0           , 0
-0.115100928, 0.07169502  , -9.816774   , -3.97191034E-05, -9.800611E-05, -0.000278855761, -0.180126742, -0.164486989, 0.4500472   , -0.009543502, -0.0125780143, 2.42841935  , 2.1         , 3           , 11          , 0.008041722 , 0.008041716
-0.126701981, 0.09696768  , -9.777887   , -0.0037092953, -0.0006859697, -0.00170953118, -0.180059329, -0.164352164, 0.449912369 , -0.009580379, -0.0125850374, 2.42840219  , 2.11        , 3           , 12          , 0.0442763269, 0
-0.116447918, 0.0846643448, -9.777861   , -0.000326327921, 0.0007447792, -0.0002788709, -0.180059329, -0.164352164, 0.449912369 , -0.009583607, -0.0125776157, 2.42839932  , 2.12        , 3           , 50          , 0           , 0
-0.1023273  , 0.0926021338, -9.772295   , -0.0009012659, 0.00271191332, -0.0008435423, -0.179991916, -0.164352164, 0.4501146   , -0.009592511, -0.0125505794, 2.42839074  , 2.13        , 3           , 11          , 0.008041722 , 0.008041716
-0.11663083 , 0.07425006  , -9.766605   , -0.0008845378, -0.0006668677, -0.000848749361, -0.179991916, -0.164352164, 0.450249434 , -0.00960125 , -0.0125573305, 2.42838216  , 2.14        , 3           , 12          , 0.0442763269, 0
-0.1255116  , 0.0789616257, -9.794677   , 0.002220274 , -0.0003642953, -0.00168144167, -0.179722264, -0.164486989, 0.450182021 , -0.009578837, -0.0125611331, 2.42836547  , 2.15        , 3           , 50          , 0           , 0
-0.123388313, 0.102849863 , -9.79411    , -0.001455294, 0.000455571077, -0.00141472253, -0.179722264, -0.164486989, 0.450182021 , -0.009593211, -0.01255671 , 2.42835164  , 2.16        , 3           , 11          , 0.008041722 , 0.008041716
-0.09370223 , 0.0947508439, -9.770412   , -0.000602852437, -0.0003833895, 0.000283151167, -0.17985709 , -0.164621815, 0.450182021 , -0.009599277, -0.0125605175, 2.4283545   , 2.17        , 3           , 12          , 0.0442763269, 0
-0.121114194, 0.109080434 , -9.776439   , 0.00334677752, 0.000488044461, 2.035257E-05, -0.1799245  , -0.164284751, 0.450182021 , -0.009565811, -0.0125556365, 2.4283545   , 2.18        , 3           , 50          , 0           , 0
-0.11576733 , 0.09778777  , -9.79136    , -0.000332808471, 0.00215260684, 0.000570911041, -0.180059329, -0.164419577, 0.449979782 , -0.009569208, -0.0125340559, 2.42835975  , 2.19        , 3           , 11          , 0.008041722 , 0.008041716
-0.114482477, 0.086553514 , -9.809477   , -0.0005964226, -3.9948296E-05, -0.0005634924, -0.180059329, -0.164419577, 0.449979782 , -0.009562789, -0.0124428133, 2.4283545   , 2.2         , 3           , 12          , 0.0451247469, 0
-0.109884262, 0.088342756 , -9.820733   , 0.0005277087, 0.00109395187, -0.0005564889, -0.1799245  , -0.164284751, 0.450182021 , -0.009557443, -0.012431927, 2.42834878  , 2.21        , 3           , 50          , 0           , 0
-0.122070313, 0.09610596  , -9.80588    , 0.00222554733, 0.0005422839, 0.000298157 , -0.180126742, -0.164486989, 0.450316846 , -0.009535224, -0.0124264788, 2.42835164  , 2.22        , 3           , 11          , 0.00795789249, 0.007957886
-0.134362325, 0.08905375  , -9.812782   , 0.002794746 , -0.0002985906, 0.000582026667, -0.1799245  , -0.164284751, 0.449979782 , -0.009507348, -0.0124294078, 2.42835736  , 2.23        , 3           , 12          , 0.0451247469, 0
-0.119358063, 0.06757819  , -9.785637   , 0.00194779166, -0.000304318935, 0.00114315073, -0.1799245  , -0.164284751, 0.449979782 , -0.009488013, -0.0124323424, 2.42836881  , 2.24        , 3           , 50          , 0           , 0
-0.103798769, 0.0782432258, -9.790897   , -0.000602651155, 0.00108630885, -0.00169190671, -0.180126742, -0.164486989, 0.4501146   , -0.009493828, -0.0124216424, 2.42835164  , 2.25        , 3           , 11          , 0.00795789249, 0.007957886
-0.145621523, 0.100394353 , -9.791577   , -0.00172219961, -0.0006107128, 0.00140813424, -0.179991916, -0.164352164, 0.450249434 , -0.009511227, -0.0124276141, 2.428366    , 2.26        , 3           , 12          , 0.0451247469, 0
-0.134330273, 0.08952607  , -9.819108   , -0.00200748886, -0.000331064715, -0.00113558606, -0.180126742, -0.164486989, 0.450249434 , -0.00953116 , -0.0124310339, 2.4283545   , 2.27        , 3           , 50          , 0           , 0
-0.1243281  , 0.0943521261, -9.813135   , 0.001654628 , 0.001664722 , -0.0005503533, -0.180126742, -0.164486989, 0.450249434 , -0.009514543, -0.01241444 , 2.42834878  , 2.28        , 3           , 11          , 0.00795789249, 0.007957886
-0.116878867, 0.08647275  , -9.777405   , 0.0005365622, -0.0005954362, 0.0002885197, -0.17985709 , -0.164284751, 0.4500472   , -0.009509213, -0.0124203665, 2.42835164  , 2.29        , 3           , 12          , 0.0451247469, 0
-0.122651719, 0.0910972059, -9.790538   , -0.000566229457, 0.00192346  , 0.0005691514, -0.180059329, -0.164621815, 0.450316846 , -0.009454397, -0.01241271 , 2.428357    , 2.3         , 3           , 50          , 0           , 0
-0.127459317, 0.103347346 , -9.793687   , -0.0002857604, 0.00192536064, -0.00281998143, -0.17985709 , -0.164284751, 0.450316846 , -0.009456902, -0.0123937251, 2.42832875  , 2.31        , 3           , 11          , 0.007869386 , 0.007869381
-0.149018273, 0.08551788  , -9.783981   , -0.000555566861, -0.000329062779, -0.0002819323, -0.17985709 , -0.164284751, 0.450316846 , -0.009462424, -0.0123970443, 2.428326    , 2.32        , 3           , 12          , 0.0459943749, 0
-0.130411267, 0.08265652  , -9.802835   , 0.0002981942, -0.00173116068, -0.00112776365, -0.180059329, -0.164217338, 0.4501146   , -0.009459305, -0.01241446 , 2.42831445  , 2.33        , 3           , 50          , 0           , 0
-0.0949009061, 0.09891334  , -9.796167   , -0.0030923218, -0.00147251529, -0.001143133, -0.179991916, -0.164217338, 0.450182021 , -0.009490087, -0.0124292932, 2.428303    , 2.34        , 3           , 11          , 0.007869386 , 0.007869381
-0.117426813, 0.103734456 , -9.809427   , -0.000544666837, -0.00230001286, 0.00169279228, -0.179991916, -0.164217338, 0.4501146   , -0.009495748, -0.0124521311, 2.42832017  , 2.35        , 3           , 12          , 0.0459943749, 0
-0.119112246, 0.07982883  , -9.806376   , 0.0008705072, -0.00313516357, -0.000279686967, -0.179991916, -0.164217338, 0.4501146   , -0.009487012, -0.0124835074, 2.42831826  , 2.36        , 3           , 50          , 0           , 0
-0.115233794, 0.103650428 , -9.792236   , 0.00113276544, 0.000808654237, -0.0014024449, -0.179991916, -0.164689228, 0.4500472   , -0.009475508, -0.0124755539, 2.428304    , 2.37        , 3           , 11          , 0.007869386 , 0.007869381
-0.123647682, 0.08478567  , -9.788762   , -0.00224348414, -0.00174834952, -0.0008570785, -0.180059329, -0.164217338, 0.450249434 , -0.009497838, -0.0124931186, 2.42829537  , 2.38        , 3           , 12          , 0.0459943749, 0
-0.129100859, 0.08081632  , -9.796957   , -0.00282490253, 0.00162661215, -0.0005719677, -0.179991916, -0.164217338, 0.450249434 , -0.009526013, -0.012476908, 2.42828965  , 2.39        , 3           , 50          , 0           , 0
-0.1523815  , 0.103177957 , -9.790713   , -0.004760383, -0.00035747356, 0.000828120334, -0.17985709 , -0.164352164, 0.4500472   , -0.0095242  , -0.0124800242, 2.42829728  , 2.4         , 3           , 11          , 0.007776324 , 0.00777631765
-0.12214452 , 0.09917028  , -9.777844   , -0.000525374839, -4.72589454E-05, 0.000848308264, -0.17985709 , -0.164352164, 0.4500472   , -0.009529558, -0.0124804173, 2.42830586  , 2.41        , 3           , 12          , 0.0468837172, 0
-0.109610945, 0.08774568  , -9.778699   , -0.000510530255, -0.0031444768, -4.07741754E-06, -0.17985709 , -0.164284751, 0.4501146   , -0.009534667, -0.01251186 , 2.42830586  , 2.42        , 3           , 50          , 0           , 0
-0.11970789 , 0.06811327  , -9.809141   , -0.0005234026, -0.000610393, -0.000565246737, -0.179991916, -0.164284751, 0.450249434 , -0.0095398305, -0.0125180157, 2.42830062  , 2.43        , 3           , 11          , 0.007776324 , 0.00777631765
-0.131613925, 0.0966354758, -9.796006   , -0.00250727148, 0.000502491253, -0.00283302972, -0.180126742, -0.164486989, 0.4500472   , -0.009564549, -0.0125132622, 2.42827249  , 2.44        , 3           , 12          , 0.0468837172, 0
-0.102024913, 0.11337927  , -9.77944    , 0.000602449 , 0.00024194365, 6.397546E-06, -0.180126742, -0.164486989, 0.4500472   , -0.009558524, -0.0125108417, 2.42827249  , 2.45        , 3           , 50          , 0           , 0
-0.121294811, 0.101792492 , -9.755679   , 0.00146662071, -0.00313110626, 0.000287678617, -0.179991916, -0.164217338, 0.4500472   , -0.00954389852, -0.0125421258, 2.42827535  , 2.46        , 3           , 11          , 0.007776324 , 0.00777631765
-0.126588315, 0.101969652 , -9.78961849 , -0.00136199268, -0.00230551185, -6.726419E-06, -0.179654852, -0.164217338, 0.450182021 , -0.009557521, -0.0125651779, 2.42827535  , 2.47        , 3           , 12          , 0.0468837172, 0
-0.113748387, 0.1166816   , -9.78132248 , -0.00277937646, -0.0011888  , 0.0005534997, -0.179587439, -0.164352164, 0.4501146   , -0.009585384, -0.012577014, 2.428281    , 2.48        , 3           , 50          , 0           , 0
-0.158622056, 0.107795656 , -9.800234   , 2.99727253E-05, 0.001645946 , -0.00112421648, -0.179587439, -0.164352164, 0.4501146   , -0.009584941, -0.0125606628, 2.42826962  , 2.49        , 3           , 11          , 0.007776324 , 0.00777631765
-0.129570991, 0.08259298  , -9.787009   , 0.00280953455, -0.0008993836, -0.00139703287, -0.179991916, -0.1645544  , 0.449979782 , -0.009651575, -0.0126202321, 2.42825723  , 2.5         , 3           , 12          , 0.04779138  , 0
-0.120449252, 0.09369892  , -9.767006   , -0.002570189, 0.001879979 , -0.000852640369, -0.180059329, -0.164352164, 0.450316846 , -0.009677168, -0.0126015153, 2.42824864  , 2.51        , 3           , 50          , 0           , 0
-0.1345182  , 0.112509847 , -9.809974   , -0.00396125 , -0.00235304586, -0.0005831965, -0.1799245  , -0.164352164, 0.449979782 , -0.009716711, -0.012625102, 2.428243    , 2.52        , 3           , 11          , 0.007681847 , 0.007681841
-0.112659059, 0.09055935  , -9.799502   , 0.000830574252, -0.0003496193, 7.30360625E-06, -0.1799245  , -0.164352164, 0.449979782 , -0.009708405, -0.0126285963, 2.428243    , 2.53        , 3           , 12          , 0.04779138  , 0
-0.123631261, 0.0919406   , -9.76975    , -0.0002997857, -0.000357262325, -0.00112811383, -0.17985709 , -0.164621815, 0.449912369 , -0.009711261, -0.0126322769, 2.428232    , 2.54        , 3           , 50          , 0           , 0
-0.114815824, 0.06932208  , -9.783336   , 0.00336207938, 0.00192009483, 0.001435315 , -0.1799245  , -0.164217338, 0.450182021 , -0.009677819, -0.0126129379, 2.42824578  , 2.55        , 3           , 11          , 0.007681847 , 0.007681841
-0.110358387, 0.09993588  , -9.778202   , 0.0008134454, 0.002747588 , -0.00309583521, -0.180194154, -0.1645544  , 0.450249434 , -0.009669289, -0.0125857638, 2.42821479  , 2.56        , 3           , 12          , 0.04779138  , 0
-0.12350779 , 0.09248699  , -9.798222   , 0.001967578 , -0.00174980308, 0.0005754767, -0.180194154, -0.1645544  , 0.450249434 , -0.009649688, -0.0126032047, 2.428221    , 2.57        , 3           , 50          , 0           , 0
-0.115862221, 0.08789116  , -9.799991   , 0.000843283255, -0.00288370415, 0.000285935675, -0.1799245  , -0.164352164, 0.4501146   , -0.009641296, -0.0126320133, 2.42822385  , 2.58        , 3           , 11          , 0.007681847 , 0.007681841
-0.12451002 , 0.08527769  , -9.797807   , 0.000544618 , 0.000493169 , 0.00113743846, -0.180194154, -0.164352164, 0.450316846 , -0.009635993, -0.012626972, 2.42823529  , 2.59        , 3           , 12          , 0.04779138  , 0
-0.104696795, 0.105859518 , -9.814745   , -6.734481E-06, 0.001916049 , -0.00168843416, -0.180261567, -0.164486989, 0.449979782 , -0.009597723, -0.012575401, 2.42821813  , 2.6         , 3           , 50          , 0           , 0
-0.120798312, 0.09021749  , -9.803634   , 0.000847679 , 0.000513954437, -0.00140411546, -0.180261567, -0.164486989, 0.449979782 , -0.009589068, -0.0125703951, 2.42820382  , 2.61        , 3           , 11          , 0.007585322 , 0.007585318
-0.10612192 , 0.108945847 , -9.788528   , -1.58398761E-05, 0.00388700771, -0.0005552466, -0.1799245  , -0.164486989, 0.449979782 , -0.00958915148, -0.01253158 , 2.428198    , 2.62        , 3           , 12          , 0.04871604  , 0
-0.115368426, 0.09550704  , -9.78549    , 0.0022581676, 0.00108663971, 0.0005810993, -0.180126742, -0.164217338, 0.450182021 , -0.009566643, -0.012520656, 2.42820382  , 2.63        , 3           , 50          , 0           , 0
-0.132262886, 0.08085957  , -9.798788   , -0.00140304514, -0.00119071431, -0.000852179655, -0.180059329, -0.164284751, 0.450182021 , -0.009580567, -0.012532644, 2.42819524  , 2.64        , 3           , 11          , 0.007585322 , 0.007585318
-0.129086375, 0.08529154  , -9.786091   , -0.00139837363, -0.00203540712, -5.86916576E-06, -0.17985709 , -0.164419577, 0.4500472   , -0.009594552, -0.012552999, 2.42819524  , 2.65        , 3           , 12          , 0.04871604  , 0
-0.120509468, 0.08025963  , -9.795537   , -0.00196806178, -0.001194535, -0.001137351, -0.17985709 , -0.164419577, 0.4500472   , -0.009614092, -0.0125650531, 2.42818427  , 2.66        , 3           , 50          , 0           , 0
-0.12357413 , 0.08082812  , -9.819513   , -0.000844923954, 0.000502503943, 0.00197843229, -0.180126742, -0.164284751, 0.4501146   , -0.009622789, -0.0125598386, 2.42820382  , 2.67        , 3           , 11          , 0.007585322 , 0.007585318
-0.131754041, 0.0835778   , -9.803744   , 0.0008467745, 0.000795521832, -0.0005560691, -0.179991916, -0.164621815, 0.4501146   , -0.009614252, -0.0125519391, 2.428198    , 2.68        , 3           , 12          , 0.04871604  , 0
-0.115803868, 0.0937410146, -9.795445   , -0.00225508586, -7.017996E-05, 0.0005582926, -0.180059329, -0.164352164, 0.4500472   , -0.009636872, -0.0125525855, 2.42820382  , 2.69        , 3           , 50          , 0           , 0
-0.09765745 , 0.09802023  , -9.789413   , -0.00136376591, -0.0006179855, -0.000286625145, -0.180059329, -0.164352164, 0.4500472   , -0.009575813, -0.0125416229, 2.42820048  , 2.7         , 3           , 11          , 0.007488016 , 0.00748800952
-0.145632491, 0.09815372  , -9.796107   , 0.0008998306, -0.001447401, -0.0002773915, -0.180059329, -0.164217338, 0.4501146   , -0.009566783, -0.0125561226, 2.428198    , 2.71        , 3           , 12          , 0.0496564545, 0
-0.128186181, 0.08304481  , -9.791968   , 0.0003499848, -0.004548438, -0.000849873642, -0.179991916, -0.164149925, 0.4501146   , -0.009563182, -0.0126016857, 2.42818952  , 2.72        , 3           , 50          , 0           , 0
-0.10162358 , 0.109315105 , -9.779905   , -0.000776118657, -0.00511920452, 0.000556678046, -0.17985709 , -0.1645544  , 0.449979782 , -0.009571019, -0.01265282 , 2.42819619  , 2.73        , 3           , 11          , 0.007488016 , 0.00748800952
-0.117693573, 0.08834241  , -9.793674   , -0.0005262435, 0.0013587   , -0.000279636821, -0.17985709 , -0.1645544  , 0.449979782 , -0.009576245, -0.0126392609, 2.42819285  , 2.74        , 3           , 12          , 0.0496564545, 0
-0.14342989 , 0.0882577449, -9.812855   , 0.00117028982, 0.0008070257, -0.0016852906, -0.179789677, -0.164284751, 0.4500472   , -0.009564329, -0.0126313521, 2.42817616  , 2.75        , 3           , 50          , 0           , 0
-0.139644355, 0.104862466 , -9.799197   , -0.000788664736, -0.00258511887, 0.00056058343, -0.179789677, -0.164352164, 0.450249434 , -0.009572289, -0.0126571488, 2.428182    , 2.76        , 3           , 11          , 0.007488016 , 0.00748800952
-0.129737839, 0.103808455 , -9.788731   , 0.00144221727, 0.00306145963, -0.000550352153, -0.179789677, -0.164419577, 0.4501146   , -0.009557793, -0.0126265893, 2.42817616  , 2.77        , 3           , 12          , 0.0496564545, 0
-0.113779917, 0.07923677  , -9.783286   , 0.000593542645, 0.00333729479, -0.00055386906, -0.179789677, -0.164419577, 0.4501146   , -0.009551783, -0.01259327 , 2.42817044  , 2.78        , 3           , 50          , 0           , 0
-0.127386123, 0.106531106 , -9.801356   , 0.003987751 , 0.00223395159, -0.001387414, -0.179991916, -0.164217338, 0.4501146   , -0.009511729, -0.0125710648, 2.42815614  , 2.79        , 3           , 11          , 0.007488016 , 0.00748800952
-0.137588352, 0.09083055  , -9.793365   , 0.00340342522, 0.00362550467, -0.0005401555, -0.180194154, -0.164149925, 0.450182021 , -0.009501697, -0.0125579443, 2.428151    , 2.8         , 3           , 12          , 0.05061147  , 0
-0.109891564, 0.10128101  , -9.777288   , 0.00285021332, 0.00136916642, 0.0003013514, -0.179991916, -0.164284751, 0.4501146   , -0.00947323 , -0.0125442231, 2.42815375  , 2.81        , 3           , 50          , 0           , 0
-0.127107576, 0.09522585  , -9.79507351 , 0.00144742208, -0.000329769129, 0.00198738812, -0.179991916, -0.164284751, 0.4501146   , -0.009459005, -0.0125473347, 2.4281733   , 2.82        , 3           , 11          , 0.00739116175, 0.0073911557
-0.142042682, 0.09451408  , -9.79971    , -0.00138693058, 0.00162208511, 0.0014121813, -0.180126742, -0.164352164, 0.4500472   , -0.00947305 , -0.0125309806, 2.42818761  , 2.83        , 3           , 12          , 0.05061147  , 0
-0.09853308 , 0.10073325  , -9.78805351 , -0.00168222969, 0.00415425934, 0.0008496947, -0.180194154, -0.164082512, 0.4501146   , -0.009489973, -0.01248936 , 2.42819571  , 2.84        , 3           , 50          , 0           , 0
-0.101341181, 0.0931031257, -9.790365   , 2.59448716E-05, 0.00135006662, 0.000288182026, -0.180059329, -0.164352164, 0.4501146   , -0.009489747, -0.0124758324, 2.428198    , 2.85        , 3           , 11          , 0.00739116175, 0.0073911557
-0.113572508, 0.0874391347, -9.807658   , 0.001442098 , 0.000514920568, 1.09274115E-05, -0.180059329, -0.164352164, 0.4501146   , -0.009475328, -0.0124706822, 2.428198    , 2.86        , 3           , 12          , 0.05061147  , 0
-0.114640117, 0.1126863   , -9.797618   , -0.0022287094, 0.000208522761, -0.00113677641, -0.17985709 , -0.164284751, 0.449912369 , -0.009497471, -0.012468704, 2.42818666  , 2.87        , 3           , 50          , 0           , 0
-0.107131734, 0.06386476  , -9.797311   , 0.0008762652, 0.000511096 , -0.00168693112, -0.17985709 , -0.164149925, 0.449979782 , -0.009488499, -0.012463754, 2.42817     , 2.88        , 3           , 11          , 0.00739116175, 0.0073911557
-0.107602052, 0.09547262  , -9.80215549 , 0.000601297943, -0.0008986373, -0.0008428053, -0.180059329, -0.164352164, 0.4501146   , -0.009482382, -0.0124728233, 2.42816186  , 2.89        , 3           , 12          , 0.05061147  , 0
-0.113970622, 0.12847881  , -9.799807   , -0.00195263 , 0.00223001  , 0.0005632983, -0.180059329, -0.164352164, 0.4501146   , -0.00949733 , -0.012357207, 2.42816758  , 2.9         , 3           , 50          , 0           , 0
-0.1356607  , 0.09715261  , -9.801459   , -0.0011077224, 0.00251730043, -0.00112754176, -0.17985709 , -0.164352164, 0.449912369 , -0.009508265, -0.0123321414, 2.42815614  , 2.91        , 3           , 11          , 0.007296525 , 0.007296518
-0.135158241, 0.06869526  , -9.794341   , -0.00222513569, 0.000257145322, 0.000841481262, -0.179991916, -0.164217338, 0.450249434 , -0.00953062 , -0.012329489, 2.42816424  , 2.92        , 3           , 12          , 0.05157999  , 0
-0.132800072, 0.07767206  , -9.78841    , 0.00143428217, 0.002534491 , -0.0008331518, -0.179991916, -0.164284751, 0.4500472   , -0.009516172, -0.0123042241, 2.42815566  , 2.93        , 3           , 50          , 0           , 0
-0.106621154, 0.071494244 , -9.78688049 , 0.00115324929, 0.00225101574, -0.0008349027, -0.17985709 , -0.164486989, 0.449979782 , -0.009504536, -0.0122817941, 2.42814755  , 2.94        , 3           , 11          , 0.007296525 , 0.007296518
-0.1038625  , 0.112932757 , -9.774483   , 0.00173499412, -0.00112394441, -0.000554938568, -0.17985709 , -0.164486989, 0.449979782 , -0.009487118, -0.0122930845, 2.42814183  , 2.95        , 3           , 12          , 0.05157999  , 0
-0.119458348, 0.123142421 , -9.80394    , -0.00222136872, -0.000305980066, 0.00253583817, -0.1799245  , -0.164352164, 0.449979782 , -0.009509643, -0.0122959046, 2.428167    , 2.96        , 3           , 50          , 0           , 0
-0.115855217, 0.09236034  , -9.787316   , -0.0022211168, -0.0005875507, 0.000557641964, -0.179789677, -0.1645544  , 0.450249434 , -0.0095319245, -0.0123017253, 2.42817283  , 2.97        , 3           , 11          , 0.007296525 , 0.007296518
-0.139964625, 0.08005369  , -9.800658   , -0.0005294182, -0.000294532772, -0.00197685976, -0.179722264, -0.164486989, 0.450182021 , -0.009536976, -0.0123048583, 2.42815328  , 2.98        , 3           , 12          , 0.05157999  , 0
-0.146858573, 0.07558713  , -9.790335   , 0.00228672358, 0.00169553026, 0.000864721835, -0.179722264, -0.164486989, 0.450182021 , -0.009514214, -0.0122878216, 2.42816186  , 2.99        , 3           , 50          , 0           , 0
-0.124383956, 0.09698495  , -9.790978   , 0.002891249 , -0.00339869712, -0.000553617, -0.180059329, -0.164149925, 0.449912369 , -0.009454675, -0.0123811308, 2.42815614  , 3           , 3           , 11          , 0.00720108859, 0.007201082
-0.102064811, 0.102188185 , -9.8057     , 0.000900157553, -0.00059641694, -0.000841033761, -0.179789677, -0.164217338, 0.4501146   , -0.00944556948, -0.0123871733, 2.42814755  , 3.01        , 3           , 12          , 0.0525609963, 0
-0.108452536, 0.104454875 , -9.786757   , -0.001364833, 0.000514563639, -0.0008498335, -0.17985709 , -0.164284751, 0.449979782 , -0.009459111, -0.0123821087, 2.428139    , 3.02        , 3           , 50          , 0           , 0
-0.107022576, 0.07288023  , -9.795013   , -0.00134917255, -0.00258265063, -0.000289531774, -0.17985709 , -0.164284751, 0.449979782 , -0.009472571, -0.0124079594, 2.42813659  , 3.03        , 3           , 11          , 0.00720108859, 0.007201082
-0.1268108  , 0.0808109045, -9.80326748 , 0.00116741378, 0.00250270963, -0.000552406069, -0.1799245  , -0.164486989, 0.449979782 , -0.009460826, -0.012382986, 2.42813039  , 3.04        , 3           , 12          , 0.0525609963, 0
-0.1246704  , 0.105159372 , -9.805409   , -0.00107608864, -0.000891355041, -0.00198083627, -0.180194154, -0.164149925, 0.450519085 , -0.009471343, -0.01239209 , 2.42811131  , 3.05        , 3           , 50          , 0           , 0
-0.106498592, 0.08096691  , -9.786388   , -0.00162462937, -0.003992386, -0.000293018384, -0.17985709 , -0.164217338, 0.4501146   , -0.009487556, -0.0124320369, 2.42810845  , 3.06        , 3           , 11          , 0.00720108859, 0.007201082
-0.131387174, 0.08082475  , -9.791551   , 0.00203289068, -0.00087033445, 0.00198917463, -0.17985709 , -0.164217338, 0.4501146   , -0.009467477, -0.012440552, 2.42812848  , 3.07        , 3           , 12          , 0.0525609963, 0
-0.142486   , 0.08961721  , -9.817814   , 0.00174358254, 0.0002540098, -0.000270706165, -0.179991916, -0.164419577, 0.449912369 , -0.009450008, -0.0124380365, 2.42812562  , 3.08        , 3           , 50          , 0           , 0
-0.127825379, 0.102083877 , -9.819006   , 0.00230827322, 0.000257828942, -0.0005506098, -0.179789677, -0.164284751, 0.450316846 , -0.009426855, -0.0124355089, 2.42812     , 3.09        , 3           , 11          , 0.00720108859, 0.007201082
-0.106300965, 0.0936248451, -9.794018   , -0.000230420032, 0.00135380146, 0.001699392 , -0.17985709 , -0.164352164, 0.4500472   , -0.009414148, -0.0124486824, 2.428137    , 3.1         , 3           , 12          , 0.053553544 , 0
-0.12288861 , 0.07572935  , -9.782015   , 0.00119262876, -0.00117074244, -0.00112330343, -0.17985709 , -0.164352164, 0.4500472   , -0.009402085, -0.0124604981, 2.42812562  , 3.11        , 3           , 50          , 0           , 0
-0.1370319  , 0.102514341 , -9.781109   , -0.002201743, -6.739999E-05, -0.0005722959, -0.179991916, -0.164217338, 0.449979782 , -0.009424031, -0.0124612236, 2.42812     , 3.12        , 3           , 11          , 0.00710777752, 0.007107773
-0.12801978 , 0.101480015 , -9.773359   , 0.000338541315, 0.000231354061, -0.0008425471, -0.180059329, -0.164284751, 0.450182021 , -0.009420541, -0.0124589894, 2.42811179  , 3.13        , 3           , 12          , 0.053553544 , 0
-0.120730177, 0.09919969  , -9.791392   , 0.00119295507, -0.00117074081, -0.000558228465, -0.17985709 , -0.164486989, 0.450182021 , -0.009408545, -0.0124707483, 2.42810655  , 3.14        , 3           , 50          , 0           , 0
-0.117117561, 0.0987029746, -9.79046249 , 0.000338704471, 0.000231354861, -0.0005600096, -0.17985709 , -0.164486989, 0.450182021 , -0.009405086, -0.012468488, 2.42810082  , 3.15        , 3           , 11          , 0.00710777752, 0.007107773
-0.128486231, 0.0929935947, -9.797353   , 0.000906672445, -0.000327953749, 6.83113467E-06, -0.179991916, -0.164486989, 0.449979782 , -0.00939602 , -0.0124717653, 2.42810082  , 3.16        , 3           , 12          , 0.053553544 , 0
-0.123483233, 0.100541189 , -9.7783     , -0.00107375591, 0.0002218034, -0.00113166927, -0.17985709 , -0.164419577, 0.450182021 , -0.009406617, -0.012469653, 2.42808938  , 3.17        , 3           , 50          , 0           , 0
-0.108887546, 0.105813637 , -9.786755   , 0.005125768 , 0.003361046 , 0.00144491391, -0.17985709 , -0.164419577, 0.4500472   , -0.009355535, -0.0124359084, 2.42810369  , 3.18        , 3           , 11          , 0.00710777752, 0.007107773
-0.11713171 , 0.09467438  , -9.799972   , 0.00202892022, 0.001087509 , -0.0008333437, -0.17985709 , -0.164419577, 0.4500472   , -0.009335141, -0.0124251144, 2.428095    , 3.19        , 3           , 12          , 0.053553544 , 0
-0.107902765, 0.1121161   , -9.785817   , -0.0005277948, -0.0017401448, -0.000849086442, -0.179722264, -0.164419577, 0.449844956 , -0.009401341, -0.012431615, 2.42808747  , 3.2         , 3           , 50          , 0           , 0
-0.09911981 , 0.08590046  , -9.803033   , 0.000326040579, -0.002860671, 0.0008483533, -0.180059329, -0.164419577, 0.450182021 , -0.009398189, -0.0124601405, 2.428096    , 3.21        , 3           , 11          , 0.0070159114, 0.007015904
-0.124239311, 0.09844119  , -9.821706   , 0.004265008 , 0.000263286347, 0.00143663865, -0.17985709 , -0.164352164, 0.450182021 , -0.009355718, -0.0124573745, 2.42811084  , 3.22        , 3           , 12          , 0.0545567274, 0
-0.124385469, 0.08984212  , -9.813607   , 0.004269768 , -0.000862978, 2.22154777E-05, -0.179991916, -0.164419577, 0.4501146   , -0.009313025, -0.0124659995, 2.42811131  , 3.23        , 3           , 50          , 0           , 0
-0.114210375, 0.111769609 , -9.794907   , -0.00138311309, -5.648285E-05, -0.000285358634, -0.179991916, -0.164419577, 0.4501146   , -0.009326819, -0.01246659 , 2.42810845  , 3.24        , 3           , 11          , 0.0070159114, 0.007015904
-0.100519776, 0.0876681   , -9.787218   , -0.0005431289, 0.00135707087, -0.0008443131, -0.17985709 , -0.164217338, 0.450182021 , -0.009332144, -0.0124530979, 2.42809987  , 3.25        , 3           , 12          , 0.0545567274, 0
-0.122111291, 0.106338806 , -9.76289749 , 0.0005832121, 0.00220940984, 0.0005749436, -0.17985709 , -0.164352164, 0.450249434 , -0.009326383, -0.012430951, 2.42810559  , 3.26        , 3           , 50          , 0           , 0
-0.105979905, 0.114417128 , -9.80568    , 1.86104735E-05, 0.00192401931, -0.00140588637, -0.179722264, -0.164284751, 0.4501146   , -0.00932602 , -0.0124118468, 2.42809129  , 3.27        , 3           , 11          , 0.0070159114, 0.007015904
-0.0930791348, 0.100686088 , -9.792982   , 0.00227621617, 0.00250243419, 0.000300741638, -0.179722264, -0.164284751, 0.4501146   , -0.009303291, -0.0123867933, 2.42809415  , 3.28        , 3           , 12          , 0.0545567274, 0
-0.120585091, 0.0788593143, -9.781532   , -0.000824902963, 0.001355164 , 0.000284519629, -0.17985709 , -0.164217338, 0.4501146   , -0.009311574, -0.0123732155, 2.42809653  , 3.29        , 3           , 50          , 0           , 0
-0.100930534, 0.0890465155, -9.793091   , -0.000858168642, 0.00168188242, 0.0011334481, -0.1799245  , -0.164419577, 0.450182021 , -0.009391032, -0.01225764 , 2.42810845  , 3.3         , 3           , 11          , 0.00692603737, 0.00692602945
-0.130064279, 0.09811359  , -9.838023   , -0.001983442, 0.0005479767, -0.000851317542, -0.17985709 , -0.164352164, 0.450249434 , -0.00941076 , -0.01225224 , 2.42809987  , 3.31        , 3           , 12          , 0.0555697158, 0
-0.131434277, 0.1025836   , -9.82084    , 0.000278434251, 1.24768121E-07, -0.00140672491, -0.17985709 , -0.164352164, 0.450249434 , -0.009407804, -0.0122523727, 2.428086    , 3.32        , 3           , 50          , 0           , 0
-0.122724555, 0.08836006  , -9.781509   , -0.001146246, 0.00252466067, -0.00140940421, -0.180059329, -0.164149925, 0.4500472   , -0.009419089, -0.01222726 , 2.42807174  , 3.33        , 3           , 11          , 0.00692603737, 0.00692602945
-0.1458535  , 0.0841378   , -9.78712749 , 0.000274415419, 0.0008448208, -0.00112288573, -0.1799245  , -0.164149925, 0.450249434 , -0.009416208, -0.0122189177, 2.42806077  , 3.34        , 3           , 12          , 0.0555697158, 0
-0.1121786  , 0.0901301   , -9.807636   , 0.000290728349, -0.00225239038, 0.0005675658, -0.1799245  , -0.164486989, 0.450182021 , -0.009413372, -0.0122413877, 2.42806649  , 3.35        , 3           , 50          , 0           , 0
-0.106468953, 0.0832226649, -9.786379   , 0.00197332166, 1.15861476E-05, -0.0008337484, -0.1799245  , -0.164486989, 0.450182021 , -0.009393537, -0.0122413486, 2.428058    , 3.36        , 3           , 11          , 0.00692603737, 0.00692602945
-0.118070893, 0.0594702438, -9.794249   , 0.001989145 , -0.003085627, 9.090581E-06, -0.180059329, -0.164486989, 0.450182021 , -0.009373649, -0.0122722024, 2.428058    , 3.37        , 3           , 12          , 0.0555697158, 0
-0.127280161, 0.07857104  , -9.806443   , 0.00168425112, 0.00141750323, -0.000267820666, -0.179991916, -0.164284751, 0.450249434 , -0.009356772, -0.0122580547, 2.42805552  , 3.38        , 3           , 50          , 0           , 0
-0.137590334, 0.08815085  , -9.801511   , 0.000562744448, -0.000279527943, -0.0005582295, -0.179789677, -0.164284751, 0.450249434 , -0.009351077, -0.0122608989, 2.4280498   , 3.39        , 3           , 11          , 0.00692603737, 0.00692602945
-0.110090584, 0.08415842  , -9.7836895  , 0.00256117177, 0.00113010872, -0.000829810044, -0.179789677, -0.164284751, 0.450249434 , -0.009260978, -0.0122757079, 2.42804074  , 3.4         , 3           , 12          , 0.05659173  , 0
-0.111944944, 0.07611036  , -9.799105   , 0.00200435612, -0.0005631032, -0.00140012254, -0.179991916, -0.164419577, 0.4501146   , -0.009240763, -0.0122814663, 2.428027    , 3.41        , 3           , 50          , 0           , 0
-0.130500033, 0.07856743  , -9.794265   , -0.00139075727, 0.000821807364, 0.0002814686, -0.1799245  , -0.164149925, 0.450384259 , -0.009254703, -0.0122732213, 2.4280293   , 3.42        , 3           , 11          , 0.00683794962, 0.00683794171
-0.134518936, 0.0840169862, -9.790657   , -0.00139272958, 0.0013849414, 0.00169502385, -0.179789677, -0.164621815, 0.450384259 , -0.009268835, -0.0122592151, 2.42804646  , 3.43        , 3           , 12          , 0.05659173  , 0
-0.103315145, 0.07960195  , -9.794053   , 0.0011555925, -5.69663825E-06, 0.0008570942, -0.179789677, -0.164621815, 0.450384259 , -0.009257386, -0.0122591928, 2.428055    , 3.44        , 3           , 50          , 0           , 0
-0.105860353, 0.09227061  , -9.795375   , 0.004251877 , 0.00198626542, -0.0002555317, -0.17985709 , -0.164149925, 0.4501146   , -0.009214834, -0.0122393537, 2.42805219  , 3.45        , 3           , 11          , 0.00683794962, 0.00683794171
-0.1398311  , 0.09176699  , -9.795637   , 0.00117273559, -0.00366604654, -0.0008437716, -0.179789677, -0.164217338, 0.4501146   , -0.00920300651, -0.0122760879, 2.42804456  , 3.46        , 3           , 12          , 0.05659173  , 0
-0.1491648  , 0.101393618 , -9.807873   , -0.00166793424, -0.0003063645, -0.0002866588, -0.180261567, -0.164284751, 0.450316846 , -0.009219651, -0.012279178, 2.4280417   , 3.47        , 3           , 50          , 0           , 0
-0.10761372 , 0.06473912  , -9.787367   , -0.00166949141, -2.48002762E-05, -0.0005687623, -0.180261567, -0.164284751, 0.450316846 , -0.009236277, -0.0122794779, 2.428036    , 3.48        , 3           , 11          , 0.00683794962, 0.00683794171
-0.09610188 , 0.0826159939, -9.776358   , 0.0005897599, -9.52126E-06, -0.0008407644, -0.180261567, -0.164352164, 0.4501146   , -0.0092302775, -0.0122796511, 2.42802739  , 3.49        , 3           , 12          , 0.05659173  , 0
-0.128351077, 0.106939964 , -9.78554249 , -0.00219533779, -0.0017101327, 0.000838452252, -0.17985709 , -0.164486989, 0.450316846 , -0.009183096, -0.01227839 , 2.428035    , 3.5         , 3           , 50          , 0           , 0
-0.111720771, 0.09191426  , -9.803105   , -0.000519877765, 0.00196166825, -0.000843229645, -0.1799245  , -0.164419577, 0.450316846 , -0.009188189, -0.0122588519, 2.42802644  , 3.51        , 3           , 11          , 0.006751823 , 0.006751814
-0.105056405, 0.08592875  , -9.790875   , 0.00118460448, 2.17332854E-06, -0.0005558281, -0.179789677, -0.164352164, 0.450182021 , -0.009176276, -0.01225888 , 2.42802119  , 3.52        , 3           , 12          , 0.0576220378, 0
-0.124025419, 0.08797626  , -9.796888   , -0.000240728361, 0.00252670632, -0.00168865744, -0.179789677, -0.164352164, 0.450182021 , -0.009178474, -0.0122337686, 2.428004    , 3.53        , 3           , 50          , 0           , 0
-0.124575093, 0.08299322  , -9.789229   , -0.00163654936, -0.000580054941, -4.7905487E-06, -0.179722264, -0.164284751, 0.450316846 , -0.00919484 , -0.0122395689, 2.4280045   , 3.54        , 3           , 11          , 0.006751823 , 0.006751814
-0.10615664 , 0.09463449  , -9.826103   , 0.00145334331, 0.002538164 , -0.002528368, -0.179789677, -0.164621815, 0.450316846 , -0.009179993, -0.0122144213, 2.42797875  , 3.55        , 3           , 12          , 0.0576220378, 0
-0.140097231, 0.102189608 , -9.8078     , -0.000803372241, 0.002241325 , -0.00027903766, -0.17985709 , -0.164352164, 0.4500472   , -0.009187991, -0.0121920351, 2.427976    , 3.56        , 3           , 50          , 0           , 0
-0.119137719, 0.08070088  , -9.797333   , 0.000614174642, 0.00112461369, -0.000556726241, -0.17985709 , -0.164352164, 0.4500472   , -0.009181779, -0.01218084 , 2.42797017  , 3.57        , 3           , 11          , 0.006751823 , 0.006751814
-0.11956843 , 0.08027772  , -9.804118   , 0.0003323262, 0.0008411348, -0.00197116472, -0.17985709 , -0.164217338, 0.450316846 , -0.009178215, -0.0121726105, 2.42795014  , 3.58        , 3           , 12          , 0.0576220378, 0
-0.132859975, 0.07226731  , -9.791144   , -0.00247465 , -0.00227517122, 0.00140134257, -0.17985709 , -0.164284751, 0.450316846 , -0.009203134, -0.0121952323, 2.42796445  , 3.59        , 3           , 50          , 0           , 0
-0.113832906, 0.07562303  , -9.781946   , -0.00105887582, 0.00110123318, -0.00169511687, -0.179789677, -0.164284751, 0.4500472   , -0.009160538, -0.0122128455, 2.42794681  , 3.6         , 3           , 11          , 0.006667955 , 0.00666794367
-0.126535237, 0.07307403  , -9.784766   , -0.00303676818, 0.00136943092, -0.000856288942, -0.179789677, -0.164284751, 0.4500472   , -0.0091908  , -0.0121992314, 2.42793822  , 3.61        , 3           , 12          , 0.0586599521, 0
-0.138397485, 0.100292675 , -9.78655052 , -0.000203972726, -0.000300859043, -0.0005631858, -0.17985709 , -0.164149925, 0.450249434 , -0.009192771, -0.0122022917, 2.4279325   , 3.62        , 3           , 50          , 0           , 0
-0.115382805, 0.09370999  , -9.787758   , 0.00233245618, 0.000842591748, -0.0002670601, -0.17985709 , -0.164352164, 0.450249434 , -0.009169414, -0.01219389 , 2.42793     , 3.63        , 3           , 11          , 0.006667955 , 0.00666794367
-0.08520082 , 0.0909967944, -9.75725651 , 0.0009237622, 0.000269914832, 0.0008556371, -0.17985709 , -0.164486989, 0.450249434 , -0.009160281, -0.0121911122, 2.4279387   , 3.64        , 3           , 12          , 0.0586599521, 0
-0.113507271, 0.102667905 , -9.7746     , 0.0006355963, 0.0013942644, 0.000573518453, -0.17985709 , -0.164486989, 0.450249434 , -0.009153991, -0.0121771162, 2.427944    , 3.65        , 3           , 50          , 0           , 0
-0.121825561, 0.07941712  , -9.808659   , 0.0006400303, 0.0002679986, -0.00140597951, -0.1799245  , -0.164149925, 0.450182021 , -0.00914742053, -0.0121745663, 2.42793     , 3.66        , 3           , 11          , 0.006667955 , 0.00666794367
-0.108175986, 0.09046991  , -9.78862    , -0.00189820712, -0.000312317279, -6.01261854E-06, -0.179789677, -0.164689228, 0.450249434 , -0.009166401, -0.0121776881, 2.42793     , 3.67        , 3           , 12          , 0.0586599521, 0
-0.125812531, 0.0902487561, -9.795536   , 0.00231638039, 0.00422137557, 0.0008682968, -0.17985709 , -0.164419577, 0.450316846 , -0.009143339, -0.0121353976, 2.42793822  , 3.68        , 3           , 50          , 0           , 0
-0.111300021, 0.09143664  , -9.796776   , 0.0009190909, 0.00111460767, 9.32641E-06 , -0.17985709 , -0.164419577, 0.450316846 , -0.009134148, -0.01212425 , 2.42793822  , 3.69        , 3           , 11          , 0.006667955 , 0.00666794367
-0.109006479, 0.09366581  , -9.796749   , -0.00247141672, 0.0016643171, -0.000288066571, -0.1799245  , -0.164284751, 0.4501146   , -0.009154983, -0.0120842764, 2.427935    , 3.7         , 3           , 12          , 0.05970484  , 0
-0.111006469, 0.08282165  , -9.785511   , -0.000211676146, 0.00167959824, 0.0002875436, -0.1799245  , -0.164149925, 0.450316846 , -0.009157134, -0.0120674539, 2.42793775  , 3.71        , 3           , 50          , 0           , 0
-0.139835626, 0.09578048  , -9.781609   , 0.002341807 , -0.0005557303, 0.001143537 , -0.180059329, -0.164149925, 0.450384259 , -0.009133856, -0.0120729068, 2.42794919  , 3.72        , 3           , 11          , 0.00658700848, 0.00658699963
-0.129745618, 0.10335578  , -9.78828049 , 0.002631619 , -0.00224321545, -0.00055297435, -0.180059329, -0.164149925, 0.450384259 , -0.009107476, -0.012095388, 2.427944    , 3.73        , 3           , 12          , 0.05970484  , 0
-0.124595977, 0.1074514   , -9.816247   , -0.00105075585, -1.55228772E-05, -1.54826557E-06, -0.180126742, -0.1645544  , 0.450182021 , -0.009117982, -0.0120955454, 2.427944    , 3.74        , 3           , 50          , 0           , 0
-0.09498484 , 0.09125736  , -9.800267   , -0.0021752133, -0.0011494247, -0.0005736265, -0.180126742, -0.164352164, 0.450316846 , -0.009139668, -0.0121070892, 2.42793822  , 3.75        , 3           , 11          , 0.00658700848, 0.00658699963
-0.128590927, 0.08755256  , -9.789242   , 0.002336735 , 7.38893823E-06, -0.00281112 , -0.179789677, -0.164352164, 0.4500472   , -0.00911595952, -0.0121072726, 2.42791     , 3.76        , 3           , 12          , 0.05970484  , 0
-0.13367182 , 0.118253827 , -9.776949   , 0.00348357041, -0.0030821783, 0.000297286868, -0.179789677, -0.164352164, 0.4500472   , -0.00908116251, -0.0121380668, 2.42791343  , 3.77        , 3           , 50          , 0           , 0
-0.110039137, 0.08821727  , -9.78322    , -0.00161741849, 0.000543792034, 0.00169191067, -0.1799245  , -0.164689228, 0.449979782 , -0.009097542, -0.0121324733, 2.42793     , 3.78        , 3           , 11          , 0.00658700848, 0.00658699963
-0.107233651, 0.0922744647, -9.79177    , 8.190269E-05, -0.0005710124, 0.0002853891, -0.180059329, -0.164217338, 0.450316846 , -0.00909675751, -0.0121381562, 2.42793345  , 3.79        , 3           , 12          , 0.05970484  , 0
-0.129992738, 0.08931869  , -9.772973   , 0.000323754444, 0.00281527918, 0.000292298442, -0.17985709 , -0.164284751, 0.450316846 , -0.009153846, -0.0120958285, 2.42793679  , 3.8         , 3           , 50          , 0           , 0
-0.128922254, 0.100600444 , -9.776986   , 0.0031509744, 0.00227124942, 0.0005871375, -0.179789677, -0.164486989, 0.450249434 , -0.009122406, -0.0120730642, 2.42794251  , 3.81        , 3           , 11          , 0.00650752848, 0.0065075215
-0.129958421, 0.110250831 , -9.824863   , 0.0051237056, 0.00284774252, -0.00194561353, -0.179789677, -0.164486989, 0.450249434 , -0.009070931, -0.0120447632, 2.427923    , 3.82        , 3           , 12          , 0.0607561059, 0
-0.12209256 , 0.09117807  , -9.816296   , 0.00204324443, -0.00224143337, 9.851763E-06, -0.179991916, -0.164284751, 0.450249434 , -0.009050502, -0.0120671755, 2.42792344  , 3.83        , 3           , 50          , 0           , 0
-0.120568648, 0.08601424  , -9.762519   , -0.001629209, -0.00198469544, 0.000840778055, -0.17985709 , -0.164419577, 0.450451672 , -0.009066898, -0.0120869456, 2.427932    , 3.84        , 3           , 11          , 0.00650752848, 0.0065075215
-0.123162247, 0.09373383  , -9.767931   , 0.003171721 , -0.00195222732, 0.000298090919, -0.17985709 , -0.164486989, 0.450384259 , -0.009035218, -0.012106441, 2.427935    , 3.85        , 3           , 12          , 0.0607561059, 0
-0.1209809  , 0.08024982  , -9.791021   , 0.00146879582, -0.000274296879, 0.000292792916, -0.17985709 , -0.164486989, 0.450384259 , -0.009020566, -0.0121091576, 2.42793775  , 3.86        , 3           , 50          , 0           , 0
-0.11986433 , 0.09335432  , -9.80045    , 0.00287625869, 0.000579945859, -0.0005469328, -0.180059329, -0.164082512, 0.450249434 , -0.008991736, -0.0121034058, 2.427932    , 3.87        , 3           , 11          , 0.00650752848, 0.0065075215
-0.121193431, 0.102767348 , -9.77737    , 0.002882072 , -0.000264741568, 0.00227714027, -0.180126742, -0.164217338, 0.450316846 , -0.008963193, -0.0121058468, 2.427955    , 3.88        , 3           , 12          , 0.0607561059, 0
-0.11496073 , 0.0874308944, -9.800437   , 0.00175696169, -0.00139864639, 0.000574911654, -0.179789677, -0.164419577, 0.450182021 , -0.008945693, -0.0121197822, 2.42796063  , 3.89        , 3           , 50          , 0           , 0
-0.102282181, 0.0854970962, -9.806223   , -0.000538801658, 0.00167609239, 0.000569338561, -0.179789677, -0.164419577, 0.450182021 , -0.009005735, -0.0121216718, 2.42796731  , 3.9         , 3           , 11          , 0.00643010857, 0.0064301
-0.100531615, 0.0867657959, -9.787222   , -0.0005164976, -0.002828949, 0.000562395668, -0.180059329, -0.164284751, 0.450249434 , -0.009010971, -0.0121499086, 2.427973    , 3.91        , 3           , 12          , 0.0618131869, 0
-0.121047467, 0.106010064 , -9.802666   , 0.00285229273, 0.0011358778, -0.0008284133, -0.179722264, -0.164149925, 0.450384259 , -0.008982346, -0.0121386247, 2.42796445  , 3.92        , 3           , 50          , 0           , 0
-0.117808476, 0.08423215  , -9.778777   , 0.00143711839, 0.00197102875, 0.001144066 , -0.179722264, -0.164217338, 0.450519085 , -0.008968112, -0.0121188127, 2.427976    , 3.93        , 3           , 11          , 0.00643010857, 0.0064301
-0.12548548 , 0.07898279  , -9.801004   , 1.99865317E-05, 0.00280617038, -0.000273904065, -0.179722264, -0.164217338, 0.450519085 , -0.008967876, -0.0120907761, 2.427973    , 3.94        , 3           , 12          , 0.0618131869, 0
-0.1451952  , 0.09992125  , -9.786605   , -0.000249152828, -1.1393684E-05, -0.00140971027, -0.179654852, -0.164284751, 0.450249434 , -0.008970197, -0.0120910183, 2.42795873  , 3.95        , 3           , 50          , 0           , 0
-0.107580878, 0.103970408 , -9.779973   , -0.00108667533, -0.00198807917, -0.00141669868, -0.179991916, -0.164217338, 0.450451672 , -0.008980894, -0.0121110268, 2.427945    , 3.96        , 3           , 11          , 0.00643010857, 0.0064301
-0.0990983  , 0.08725694  , -9.803932   , -0.004204686, 0.00024343103, -0.001710251, -0.180194154, -0.164217338, 0.450451672 , -0.009022733, -0.0121087441, 2.42792773  , 3.97        , 3           , 12          , 0.0618131869, 0
-0.115817383, 0.05541807  , -9.804644   , 0.00170971313, 0.003662322 , -0.00139485055, -0.180194154, -0.164217338, 0.450451672 , -0.009005465, -0.0120722493, 2.42791343  , 3.98        , 3           , 50          , 0           , 0
-0.09927246 , 0.07863518  , -9.789054   , 0.0003255332, -0.001696957, 0.00113315717, -0.179991916, -0.164352164, 0.450316846 , -0.009002349, -0.0120891184, 2.42792487  , 3.99        , 3           , 11          , 0.00643010857, 0.0064301
-0.1091274  , 0.08642623  , -9.790453   , 0.00228097523, 0.004527942 , -0.0005432593, -0.180126742, -0.164217338, 0.450249434 , -0.008952535, -0.0119982688, 2.42791867  , 4           , 3           , 12          , 0.06287557  , 0
-0.12576282 , 0.0893963352, -9.810455   , 0.00202126731, -0.0002605792, -0.00224717823, -0.17985709 , -0.1645544  , 0.450249434 , -0.008932053, -0.0120010758, 2.42789626  , 4.01        , 3           , 50          , 0           , 0
-0.127626717, 0.08357228  , -9.816369   , 0.00229105935, 0.00255698781, 1.87778787E-05, -0.17985709 , -0.1645544  , 0.450249434 , -0.008909143, -0.0119755063, 2.42789626  , 4.02        , 3           , 11          , 0.006355124 , 0.00635511149
-0.1092063  , 0.0805597454, -9.790026   , 0.0023133636, -0.00194805348, 1.18349271E-05, -0.1799245  , -0.164419577, 0.450249434 , -0.008886013, -0.0119949849, 2.42789674  , 4.03        , 3           , 12          , 0.06287557  , 0
-0.105899967, 0.08911407  , -9.795841   , 0.000890240248, 0.000294918078, 0.000291259232, -0.180194154, -0.164217338, 0.450249434 , -0.008877146, -0.0119920094, 2.4278996   , 4.04        , 3           , 50          , 0           , 0
-0.130338535, 0.0903034061, -9.796022   , 0.000888846465, 0.000576483144, 0.000291693141, -0.180126742, -0.164486989, 0.450249434 , -0.008868291, -0.0119862175, 2.42790246  , 4.05        , 3           , 11          , 0.006355124 , 0.00635511149
-0.133264318, 0.104821309 , -9.80909252 , -0.0012319797, 0.00112528924, 0.0005652215, -0.17985709 , -0.164284751, 0.450316846 , -0.008880678, -0.0119749149, 2.42790818  , 4.06        , 3           , 12          , 0.06287557  , 0
-0.127757847, 0.0776634738, -9.80328751 , -0.000808257842, 0.00112815457, 0.000708465639, -0.17985709 , -0.164284751, 0.450316846 , -0.00888884347, -0.0119635705, 2.42791486  , 4.07        , 3           , 50          , 0           , 0
-0.109252945, 0.08052195  , -9.778728   , 0.0001836394, 0.000430926477, 0.0005707213, -0.17985709 , -0.164149925, 0.450249434 , -0.008887076, -0.011959211, 2.42792058  , 4.08        , 3           , 11          , 0.006355124 , 0.00635511149
-0.134454191, 0.0858548656, -9.800592   , 0.002022899 , -0.000260571367, 0.0005781966, -0.179991916, -0.164352164, 0.450249434 , -0.00886691548, -0.0119617656, 2.4279263   , 4.09        , 3           , 12          , 0.06287557  , 0
-0.147054374, 0.08785214  , -9.813788   , 0.00132669846, -0.0018282237, 0.0007136884, -0.180059329, -0.164621815, 0.450451672 , -0.00884793047, -0.012019041, 2.427934    , 4.1         , 3           , 50          , 0           , 0
-0.1345365  , 0.0880199   , -9.773464   , -0.00220666965, -0.00128896942, 0.000274288352, -0.180059329, -0.164621815, 0.450451672 , -0.008870032, -0.0120319072, 2.42793679  , 4.11        , 3           , 11          , 0.006282066 , 0.00628205528
-0.114484794, 0.09101513  , -9.794543   , -0.00037753873, 0.000131272187, 0.000850092969, -0.179991916, -0.164352164, 0.450182021 , -0.008873909, -0.01203052 , 2.42794538  , 4.12        , 3           , 12          , 0.0639427453, 0
-0.112062745, 0.10316813  , -9.794022   , 0.001744926 , -0.000699097931, 0.000999937 , -0.179991916, -0.164217338, 0.450451672 , -0.008856581, -0.0120374206, 2.42795539  , 4.13        , 3           , 50          , 0           , 0
-0.08976816 , 0.08298365  , -9.773595   , 0.000753362139, -0.0002834399, -0.000699246244, -0.180194154, -0.164621815, 0.4501146   , -0.008848963, -0.0120403171, 2.42794824  , 4.14        , 3           , 11          , 0.006282066 , 0.00628205528
-0.114031583, 0.0941346139, -9.784583   , 0.00173025182, 0.00211654929, -0.000267142255, -0.180194154, -0.164621815, 0.4501146   , -0.008831626, -0.012019177, 2.42794538  , 4.15        , 3           , 12          , 0.0639427453, 0
-0.1499008  , 0.08643988  , -9.786697   , 0.00158571638, 0.00281950785, 1.58216153E-05, -0.180126742, -0.164419577, 0.450384259 , -0.008815767, -0.0119909821, 2.42794538  , 4.16        , 3           , 50          , 0           , 0
-0.106151827, 0.09865554  , -9.814333   , 0.0004607693, 0.00168560364, -0.00140386936, -0.17985709 , -0.164689228, 0.450384259 , -0.008810989, -0.0119742481, 2.427931    , 4.17        , 3           , 11          , 0.006282066 , 0.00628205528
-0.10888622 , 0.100012176 , -9.805762   , 0.0006040738, 0.00126421114, -0.0014038618, -0.1799245  , -0.164284751, 0.450316846 , -0.0088047795, -0.0119617321, 2.42791677  , 4.18        , 3           , 12          , 0.0639427453, 0
-0.133375391, 0.103392258 , -9.7865     , -0.00165370223, 0.000967367436, -0.0009910248, -0.1799245  , -0.164284751, 0.450316846 , -0.008821196, -0.0119521469, 2.42790723  , 4.19        , 3           , 50          , 0           , 0
-0.1432944  , 0.102650747 , -9.799686   , -0.00337192649, 0.000804099545, -0.000433860056, -0.1799245  , -0.164284751, 0.450384259 , -0.008924167, -0.0119751086, 2.42790341  , 4.2         , 3           , 11          , 0.00621102238, 0.006211011
-0.128086448, 0.08937453  , -9.79601    , -0.000686209649, 0.000399899465, 0.000566881034, -0.17985709 , -0.164352164, 0.450316846 , -0.008931097, -0.0119710593, 2.42790914  , 4.21        , 3           , 12          , 0.0650142655, 0
-0.114021264, 0.09548202  , -9.782769   , 0.0001710736, -0.00156532484, 0.0009916006, -0.179991916, -0.164352164, 0.4500472   , -0.008929507, -0.0119866244, 2.42791963  , 4.22        , 3           , 50          , 0           , 0
-0.125839412, 0.08665617  , -9.800524   , 0.00101848016, -0.00170038023, 6.45331966E-06, -0.179991916, -0.164352164, 0.4500472   , -0.008919325, -0.0120036267, 2.42791963  , 4.23        , 3           , 11          , 0.00621102238, 0.006211011
-0.117542677, 0.09828437  , -9.798604   , 0.00185374846, 0.0006986518, -0.000268444972, -0.179991916, -0.164486989, 0.450384259 , -0.008900754, -0.0119966669, 2.42791677  , 4.24        , 3           , 12          , 0.0650142655, 0
-0.129305348, 0.10155493  , -9.790997   , 0.0004409988, 0.0008298849, -0.0001335439, -0.180126742, -0.164419577, 0.450384259 , -0.008896327, -0.0119883781, 2.42791581  , 4.25        , 3           , 50          , 0           , 0
-0.1236398  , 0.08791652  , -9.780614   , 0.0007218686, 0.00111335923, -0.000414330425, -0.179722264, -0.1645544  , 0.4501146   , -0.008889058, -0.0119772805, 2.427911    , 4.26        , 3           , 11          , 0.00621102238, 0.006211011
-0.121606529, 0.09075334  , -9.825785   , 0.00157124014, 0.000696741568, -0.0004110305, -0.179722264, -0.1645544  , 0.4501146   , -0.008873294, -0.0119703505, 2.42790723  , 4.27        , 3           , 12          , 0.0650142655, 0
-0.127658784, 0.08309996  , -9.810043   , -0.0005416299, -0.0004438447, -0.00084644946, -0.1799245  , -0.164284751, 0.450249434 , -0.00887861 , -0.0119748628, 2.42789865  , 4.28        , 3           , 50          , 0           , 0
-0.118108936, 0.09105614  , -9.794118   , -0.00139378943, 0.000535903149, -0.000848881435, -0.180126742, -0.164419577, 0.450519085 , -0.008892445, -0.0119695794, 2.42789     , 4.29        , 3           , 11          , 0.00621102238, 0.006211011
-0.112570263, 0.09464842  , -9.808072   , -0.00155638519, 0.00192473561, -0.0005647575, -0.180126742, -0.164621815, 0.450451672 , -0.008949877, -0.0120022958, 2.42788529  , 4.3         , 3           , 12          , 0.0660897   , 0
-0.11464411 , 0.0797272846, -9.791879   , -0.0011269243, 0.000801341434, -0.000140711752, -0.180126742, -0.164621815, 0.450451672 , -0.008961128, -0.0119942976, 2.42788339  , 4.31        , 3           , 50          , 0           , 0
-0.125788614, 0.08982179  , -9.80277    , 0.00255278079, -0.0007224346, 0.0007216341, -0.17985709 , -0.164486989, 0.450249434 , -0.008935689, -0.0120014567, 2.427891    , 4.32        , 3           , 11          , 0.00614194572, 0.00614193641
-0.12508    , 0.07804645  , -9.792418   , 0.00437908666, 0.00112015137, 2.6671114E-05, -0.1799245  , -0.164689228, 0.450519085 , -0.008891899, -0.011990252, 2.427891    , 4.33        , 3           , 12          , 0.0660897   , 0
-0.120452628, 0.08655457  , -9.789183   , 0.003807018 , 0.00252415566, -0.00039759936, -0.179991916, -0.164486989, 0.450249434 , -0.008853779, -0.0119650485, 2.42788672  , 4.34        , 3           , 50          , 0           , 0
-0.113833956, 0.106792547 , -9.79221249 , 0.002266053 , -2.04358E-05, -0.000691285357, -0.180059329, -0.1645544  , 0.450249434 , -0.008831036, -0.011965313, 2.42787957  , 4.35        , 3           , 11          , 0.00614194572, 0.00614193641
-0.135295361, 0.09484467  , -9.787454   , 0.00199006265, -0.0012893877, -0.000412017485, -0.180059329, -0.1645544  , 0.450249434 , -0.008811087, -0.0119782444, 2.42787576  , 4.36        , 3           , 12          , 0.0660897   , 0
-0.1403914  , 0.07740198  , -9.815588   , 0.0005705062, 0.0002496715, 7.590779E-06, -0.179789677, -0.164352164, 0.450316846 , -0.008805384, -0.0119757457, 2.42787576  , 4.37        , 3           , 50          , 0           , 0
-0.109085917, 0.08958428  , -9.79044    , -0.000849250529, 0.00164794386, -0.00112697412, -0.179991916, -0.164486989, 0.450316846 , -0.008813738, -0.0119593665, 2.42786431  , 4.38        , 3           , 11          , 0.00614194572, 0.00614193641
-0.117252737, 0.08475661  , -9.802274   , 0.00126653339, 0.00208461471, -0.00168152119, -0.17985709 , -0.164621815, 0.450316846 , -0.008800872, -0.01193867 , 2.42784762  , 4.39        , 3           , 12          , 0.0660897   , 0
-0.126571938, 0.09885846  , -9.803642   , 0.001404395 , 0.00136656326, -0.0009756381, -0.17985709 , -0.164621815, 0.450316846 , -0.008808059, -0.0119695989, 2.42783761  , 4.4         , 3           , 50          , 0           , 0
-0.1273047  , 0.113292322 , -9.79952049 , -0.000144859412, 0.0007929346, 0.0012765507, -0.180126742, -0.164082512, 0.450384259 , -0.008809657, -0.0119615588, 2.427851    , 4.41        , 3           , 11          , 0.006074667 , 0.0060746586
-0.113192916, 0.08425006  , -9.799984   , -0.000849695643, 0.000506593846, 0.0009902872, -0.180126742, -0.164284751, 0.450384259 , -0.0088182725, -0.0119564068, 2.4278605   , 4.42        , 3           , 12          , 0.06716863  , 0
-0.12272051 , 0.0888097   , -9.781055   , 0.000561126042, 0.0007977091, 0.00113857433, -0.17985709 , -0.164621815, 0.450249434 , -0.008812795, -0.0119483275, 2.427872    , 4.43        , 3           , 50          , 0           , 0
-0.124262065, 0.105564378 , -9.793201   , 0.002666863 , 0.00334611977, 0.00129362545, -0.17985709 , -0.164621815, 0.450249434 , -0.008786279, -0.0119147543, 2.42788434  , 4.44        , 3           , 11          , 0.006074667 , 0.0060746586
-0.108164228, 0.08869402  , -9.797215   , 0.00309673883, 0.00194115646, 2.20126149E-05, -0.1799245  , -0.164621815, 0.450316846 , -0.008755312, -0.0118953446, 2.42788434  , 4.45        , 3           , 12          , 0.06716863  , 0
-0.114639632, 0.0833017156, -9.781468   , 0.0025481612, -0.001300661, 0.0004381946, -0.1799245  , -0.164621815, 0.4505865   , -0.008729885, -0.01190831 , 2.427889    , 4.46        , 3           , 50          , 0           , 0
-0.135174766, 0.101637647 , -9.795108   , 7.795279E-06, -0.00159941544, 0.0005671771, -0.17985709 , -0.164217338, 0.450316846 , -0.008729877, -0.0119242528, 2.42789483  , 4.47        , 3           , 11          , 0.006074667 , 0.0060746586
-0.145667583, 0.0909836739, -9.810601   , 6.03049557E-06, -0.00117706636, 0.001132903 , -0.17985709 , -0.164217338, 0.450316846 , -0.008729952, -0.0119359251, 2.42790627  , 4.48        , 3           , 12          , 0.06716863  , 0
-0.109074175, 0.08780841  , -9.799034   , 0.0005614968, 0.000656925 , 0.000573282538, -0.180059329, -0.164217338, 0.450384259 , -0.0087244045, -0.0119293071, 2.427912    , 4.49        , 3           , 50          , 0           , 0
-0.12222141 , 0.0883955657, -9.793708   , -0.00157663075, 0.000766033656, -0.000142586476, -0.180059329, -0.164284751, 0.450316846 , -0.008796974, -0.0119740339, 2.427911    , 4.5         , 3           , 11          , 0.00600953354, 0.006009524
-0.123945326, 0.09295102  , -9.800483   , -0.000447130966, 0.00091445836, 0.000710510649, -0.17985709 , -0.164352164, 0.450316846 , -0.008801528, -0.0119648287, 2.42791867  , 4.51        , 3           , 12          , 0.06825069  , 0
-0.1316351  , 0.0957256258, -9.793751   , 0.0005459972, -6.43356543E-05, 0.000289795 , -0.17985709 , -0.164352164, 0.450316846 , -0.008796102, -0.0119654462, 2.42792153  , 4.52        , 3           , 50          , 0           , 0
-0.110977381, 0.07927443  , -9.804056   , -0.001142454, -0.0013428391, -2.596812E-06, -0.180194154, -0.164419577, 0.450316846 , -0.008807529, -0.011978874, 2.42792153  , 4.53        , 3           , 11          , 0.00600953354, 0.006009524
-0.105478674, 0.0868514851, -9.795396   , -0.00127977459, -0.00204770477, 0.0007020035, -0.180059329, -0.164419577, 0.450384259 , -0.008820413, -0.0119992876, 2.42792869  , 4.54        , 3           , 12          , 0.06825069  , 0
-0.121826038, 0.0914681852, -9.769738   , -0.000715039554, -0.00218467112, -0.000708267, -0.180059329, -0.164352164, 0.450316846 , -0.00882748049, -0.0120211961, 2.42792153  , 4.55        , 3           , 50          , 0           , 0
-0.121338986, 0.0847953856, -9.799593   , -0.0003030408, 7.071194E-05, -0.00155043241, -0.180059329, -0.164352164, 0.450316846 , -0.008830325, -0.0120206261, 2.42790627  , 4.56        , 3           , 11          , 0.00600953354, 0.006009524
-0.116033331, 0.103300616 , -9.819362   , -0.00100898917, 0.000206723445, -0.0001408204, -0.17985709 , -0.164352164, 0.450384259 , -0.008840398, -0.01201857 , 2.42790484  , 4.57        , 3           , 12          , 0.06825069  , 0
-0.119171686, 0.112736434 , -9.796749   , -0.0007273409, 0.000349415554, -0.000280555279, -0.1799245  , -0.164419577, 0.450451672 , -0.008847637, -0.0120151006, 2.427902    , 4.58        , 3           , 50          , 0           , 0
-0.129297554, 0.1020076   , -9.791446   , 0.0008249833, 0.0005007014, -0.000838170061, -0.1799245  , -0.164217338, 0.450451672 , -0.008839286, -0.0120101683, 2.42789388  , 4.59        , 3           , 11          , 0.00600953354, 0.006009524
-0.123151816, 0.0901715   , -9.781957   , 0.0005171454, 0.000489626662, -0.0005567255, -0.1799245  , -0.164217338, 0.450451672 , -0.008913071, -0.0120336507, 2.427889    , 4.6         , 3           , 12          , 0.06933553  , 0
-0.114896759, 0.09328528  , -9.797249   , 0.00135987322, 0.00148083584, 1.38189534E-05, -0.180059329, -0.164284751, 0.450316846 , -0.008899472, -0.0120188417, 2.427889    , 4.61        , 3           , 50          , 0           , 0
-0.109059751, 0.09987157  , -9.763729   , 0.0002314784, 0.00119163049, -0.000133151465, -0.180261567, -0.164149925, 0.450384259 , -0.00889714 , -0.0120069366, 2.4278872   , 4.62        , 3           , 11          , 0.00594579848, 0.005945789
-0.113090925, 0.101294018 , -9.770082   , -0.00160503027, 0.00117921212, -0.0014131302, -0.179991916, -0.164486989, 0.450519085 , -0.008913021, -0.01199527 , 2.427873    , 4.63        , 3           , 12          , 0.06933553  , 0
-0.1234484  , 0.09208876  , -9.814042   , 0.0010737608, 0.00204205187, -0.00154058624, -0.179991916, -0.1645544  , 0.450249434 , -0.008902094, -0.0119749876, 2.42785764  , 4.64        , 3           , 50          , 0           , 0
-0.12684226 , 0.0709657   , -9.827263   , 0.002765534 , 0.00261664181, -0.0015318169, -0.179991916, -0.1645544  , 0.450249434 , -0.008874254, -0.011948959, 2.42784238  , 4.65        , 3           , 11          , 0.00594579848, 0.005945789
-0.133023411, 0.09303919  , -9.795128   , 0.002214413 , -6.20441861E-05, -0.000690960733, -0.179991916, -0.164217338, 0.450316846 , -0.008852029, -0.01194964 , 2.42783523  , 4.66        , 3           , 12          , 0.06933553  , 0
-0.111995421, 0.116166845 , -9.768656   , 0.0009471775, -0.000633764954, 0.0008562014, -0.179991916, -0.164149925, 0.450451672 , -0.008842661, -0.0119559038, 2.42784381  , 4.67        , 3           , 50          , 0           , 0
-0.121093914, 0.06855316  , -9.801014   , 0.000379862031, -7.44530553E-05, 0.00141951046, -0.180194154, -0.164217338, 0.450384259 , -0.008839031, -0.01195652 , 2.427858    , 4.68        , 3           , 11          , 0.00594579848, 0.005945789
-0.114615336, 0.07573344  , -9.811783   , 0.0005339106, -0.00274836854, 0.000709702843, -0.180194154, -0.164217338, 0.450384259 , -0.008833779, -0.01198394 , 2.42786527  , 4.69        , 3           , 12          , 0.06933553  , 0
-0.1412678  , 0.0841315   , -9.801105   , 0.0009429215, -0.00120258064, 7.823405E-06, -0.180059329, -0.164284751, 0.450249434 , -0.008845072, -0.0120139318, 2.42786622  , 4.7         , 3           , 50          , 0           , 0
-0.119830772, 0.100969464 , -9.784146   , -0.000192895648, 5.68231371E-05, 0.000287045754, -0.180261567, -0.164217338, 0.450519085 , -0.00884703547, -0.0120133348, 2.427869    , 4.71        , 3           , 11          , 0.005883811 , 0.00588380359
-0.09987692 , 0.09763648  , -9.801636   , -0.00272907945, -0.00108662655, 0.000414726353, -0.17985709 , -0.1645544  , 0.450316846 , -0.008874377, -0.0120241651, 2.42787337  , 4.72        , 3           , 12          , 0.0704228   , 0
-0.123111404, 0.08931153  , -9.794616   , -0.00173820544, -0.00164307351, -0.000287875853, -0.17985709 , -0.1645544  , 0.450316846 , -0.008891726, -0.0120406188, 2.427871    , 4.73        , 3           , 50          , 0           , 0
-0.148793086, 0.0950736851, -9.808348   , -4.45863261E-05, -0.00149083242, -0.000703563448, -0.1799245  , -0.164621815, 0.450451672 , -0.008892088, -0.0120555907, 2.42786384  , 4.74        , 3           , 11          , 0.005883811 , 0.00588380359
-0.117902882, 0.105059974 , -9.799482   , -0.00019400059, 0.000197603833, -0.0004190807, -0.17985709 , -0.1645544  , 0.450519085 , -0.008893977, -0.0120536508, 2.42785954  , 4.75        , 3           , 12          , 0.0704228   , 0
-0.112695053, 0.0923155844, -9.785032   , 9.346832E-05, -0.000785963144, -0.000136745221, -0.1799245  , -0.164352164, 0.450316846 , -0.008893028, -0.0120615233, 2.42785859  , 4.76        , 3           , 50          , 0           , 0
-0.127641976, 0.08311358  , -9.814111   , 0.000946651038, -0.00190649217, 0.0004305447, -0.1799245  , -0.164352164, 0.450316846 , -0.008883616, -0.0120805483, 2.427863    , 4.77        , 3           , 11          , 0.005883811 , 0.00588380359
-0.114370383, 0.06440096  , -9.797364   , 0.000800432637, -0.000781184, 0.00142050325, -0.180261567, -0.164352164, 0.450249434 , -0.008875784, -0.0120882327, 2.42787719  , 4.78        , 3           , 12          , 0.0704228   , 0
-0.1218358  , 0.08833582  , -9.777434   , 0.000514031446, -7.91836355E-05, 0.0005726588, -0.180059329, -0.164352164, 0.450451672 , -0.008870713, -0.0120889731, 2.427883    , 4.79        , 3           , 50          , 0           , 0
-0.143829927, 0.101696305 , -9.782519   , -0.000196290333, 0.000190314415, -0.000842849433, -0.17985709 , -0.164352164, 0.4505865   , -0.008879184, -0.012110699, 2.4278748   , 4.8         , 3           , 11          , 0.00582381524, 0.00582380733
-0.118974783, 0.0969015062, -9.785061   , -0.0007614331, 0.000327278976, -0.000138922667, -0.17985709 , -0.164352164, 0.4505865   , -0.00888678 , -0.0121074393, 2.42787385  , 4.81        , 3           , 12          , 0.07151219  , 0
-0.126370221, 0.0870446   , -9.780187   , 0.0003743397, -0.000791338971, 0.0007122216, -0.1799245  , -0.164958879, 0.450182021 , -0.008883123, -0.0121152876, 2.42788053  , 4.82        , 3           , 50          , 0           , 0
-0.117314726, 0.08158192  , -9.797316   , 0.000946615648, -0.00233612815, 0.0002886627, -0.17985709 , -0.164352164, 0.450451672 , -0.008873695, -0.0121386237, 2.42788386  , 4.83        , 3           , 11          , 0.00582381524, 0.00582380733
-0.110141516, 0.103236064 , -9.820675   , 0.0002378049, -0.001918559, -0.000844128546, -0.17985709 , -0.164419577, 0.450451672 , -0.008871215, -0.0121578844, 2.42787576  , 4.84        , 3           , 12          , 0.07151219  , 0
-0.114751019, 0.09875957  , -9.815304   , 0.000931859948, 0.000479518436, -0.00111968536, -0.17985709 , -0.164419577, 0.450451672 , -0.00886176 , -0.0121531887, 2.42786431  , 4.85        , 3           , 50          , 0           , 0
-0.12317308 , 0.08658345  , -9.7883     , -0.0001978102, 0.0006126647, 0.000146682534, -0.1799245  , -0.164486989, 0.450316846 , -0.0088637555, -0.0121470485, 2.42786527  , 4.86        , 3           , 11          , 0.00582381524, 0.00582380733
-0.103267439, 0.0836577639, -9.79268    , -5.5039618E-05, 0.000332055468, 0.000429444568, -0.1799245  , -0.164419577, 0.450316846 , -0.008864359, -0.0121436892, 2.42787     , 4.87        , 3           , 12          , 0.07151219  , 0
-0.111395821, 0.08287837  , -9.80088    , 0.00290568871, 0.00119680259, -0.0005443069, -0.1799245  , -0.164217338, 0.450384259 , -0.008835233, -0.012131772, 2.42786431  , 4.88        , 3           , 50          , 0           , 0
-0.109456949, 0.08920951  , -9.81168652 , 0.00248475466, 0.000630807 , -0.000688418862, -0.1799245  , -0.164217338, 0.450384259 , -0.008810301, -0.0121255247, 2.42785764  , 4.89        , 3           , 11          , 0.00582381524, 0.00582380733
-0.116342343, 0.08876704  , -9.790498   , 0.002195334 , 0.0007772793, 1.6935337E-05, -0.180126742, -0.164419577, 0.450384259 , -0.008810504, -0.0120926574, 2.42785764  , 4.9         , 3           , 12          , 0.07260339  , 0
-0.11884959 , 0.102359161 , -9.798144   , 0.0010677994, 0.000347292138, 0.000152285429, -0.180059329, -0.164149925, 0.450451672 , -0.008799845, -0.0120891705, 2.427859    , 4.91        , 3           , 50          , 0           , 0
-0.109559566, 0.08912635  , -9.786829   , -0.00118870137, -0.000371902977, -0.000848216063, -0.1799245  , -0.164284751, 0.450451672 , -0.008811628, -0.0120929647, 2.427851    , 4.92        , 3           , 11          , 0.00576506136, 0.005765052
-0.13814868 , 0.08405347  , -9.788877   , 0.000925606757, 0.0003463325, -0.00154359813, -0.180059329, -0.164689228, 0.450316846 , -0.008802186, -0.0120896371, 2.42783523  , 4.93        , 3           , 12          , 0.07260339  , 0
-0.134321719, 0.0935501456, -9.808244   , 0.00261918176, 0.00063935935, -0.000828918768, -0.180059329, -0.164689228, 0.450316846 , -0.008775895, -0.01208332 , 2.42782712  , 4.94        , 3           , 50          , 0           , 0
-0.125724673, 0.0604886152, -9.801987   , 0.00262503978, -0.000346113753, 0.0008647873, -0.180059329, -0.164352164, 0.450316846 , -0.00874974951, -0.0120867025, 2.4278357   , 4.95        , 3           , 11          , 0.00576506136, 0.005765052
-0.12709859 , 0.0947867855, -9.798691   , 0.0013660494, -0.00274801115, 0.0009964415, -0.180059329, -0.164419577, 0.450519085 , -0.008736213, -0.0121140936, 2.42784619  , 4.96        , 3           , 12          , 0.07260339  , 0
-0.127569363, 0.09567021  , -9.791459   , 9.357168E-05, -0.002475042, 0.0007084117, -0.1799245  , -0.164352164, 0.450316846 , -0.008735366, -0.0121387811, 2.42785287  , 4.97        , 3           , 50          , 0           , 0
-0.135186329, 0.1087699   , -9.769316   , 0.0009270381, 0.000205553486, -0.000272396253, -0.1799245  , -0.164352164, 0.450316846 , -0.008726064, -0.01213675 , 2.42785048  , 4.98        , 3           , 11          , 0.00576506136, 0.005765052
-0.1256022  , 0.110058568 , -9.78325    , -0.0003483908, 0.00104165229, -0.0008420955, -0.180194154, -0.164217338, 0.450451672 , -0.008729446, -0.0121264048, 2.42784238  , 4.99        , 3           , 12          , 0.07260339  , 0
-0.106820546, 0.0864344239, -9.800831   , -0.0005027617, -0.000523381634, -0.000421120349, -0.180126742, -0.164149925, 0.4505865   , -0.008805523, -0.0121838935, 2.42783952  , 5           , 3           , 50          , 0           , 0
-0.107321866, 0.08640043  , -9.78908348 , 0.000912531046, -0.001217746, -0.0009806955, -0.17985709 , -0.164352164, 0.450451672 , -0.008796279, -0.0121961543, 2.42783     , 5.01        , 3           , 11          , 0.005708156 , 0.00570814451
-0.11799439 , 0.102307707 , -9.785935   , 0.000481676077, 0.000187213256, -0.00140430743, -0.17985709 , -0.164352164, 0.450451672 , -0.008791291, -0.0121944072, 2.42781568  , 5.02        , 3           , 12          , 0.0736961439, 0
-0.106723577, 0.0941009745, -9.799894   , 0.000338861 , 0.000608608243, -0.0005567026, -0.180059329, -0.164486989, 0.450316846 , -0.008787833, -0.0121883694, 2.42781     , 5.03        , 3           , 50          , 0           , 0
-0.108271956, 0.0765552744, -9.809923   , 0.0009073628, -9.148378E-05, -0.000272616075, -0.180194154, -0.164756641, 0.4506539   , -0.008778729, -0.0121893082, 2.427807    , 5.04        , 3           , 11          , 0.005708156 , 0.00570814451
-0.125894412, 0.0879506543, -9.78289    , 0.0007667205, -9.243601E-05, 0.0007156067, -0.179991916, -0.164486989, 0.450451672 , -0.008771147, -0.0121901687, 2.42781425  , 5.05        , 3           , 12          , 0.0736961439, 0
-0.145353436, 0.09265143  , -9.771269   , 6.126886E-05, -0.000237993969, 0.000570828561, -0.179991916, -0.164486989, 0.450451672 , -0.008770605, -0.012192498, 2.42782     , 5.06        , 3           , 50          , 0           , 0
-0.104615   , 0.08055799  , -9.805358   , -0.0009248449, -0.0008078109, -0.000140992372, -0.179991916, -0.164621815, 0.450451672 , -0.008779836, -0.0122005884, 2.42781854  , 5.07        , 3           , 11          , 0.005708156 , 0.00570814451
-0.08916898 , 0.08934586  , -9.788933   , 0.000199694347, 0.000326091249, 0.000572354766, -0.180059329, -0.1645544  , 0.450451672 , -0.008777908, -0.0121972775, 2.42782426  , 5.08        , 3           , 12          , 0.0736961439, 0
-0.105854928, 0.104772829 , -9.756453   , -8.445286E-05, 0.0006057448, 6.39694235E-06, -0.180126742, -0.164689228, 0.450519085 , -0.008778753, -0.012191223, 2.42782426  , 5.09        , 3           , 50          , 0           , 0
