Acc X       , Acc Y       , Acc Z       , Gyro X      , Gyro Y      , Gyro Z      , Magn X      , Magn Y      , Magn Z      , Euler X     , Euler Y     , Euler Z     , Time        , Status      , LowRate X   , LowRate Y   , LowRate Z    
-0.00348251429, -0.00686614029, -9.789128   , 6.515079E-05, 0.000252449274, 0.000661833852, -0.515235245, -0.0570311435, 0.324659556 , 0.002116352 , 7.29984E-05 , 3.03003716  , 0           , 3           , 11          , 0.0346410163, 0.0346410163
-0.010170918, -0.00313184038, -9.802724   , -0.00113582308, 0.0005259004, 0.0019280893, -0.515302658, -0.05696373 , 0.324659556 , 0.002104995 , 7.821671E-05, 3.03005624  , 0.01        , 3           , 12          , 0.0346410163, 0
0.0262423158, -0.01805821 , -9.78488    , 0.0009142181, -0.000234562875, -0.0004651246, -0.515235245, -0.05696373 , 0.326075226 , 0.0021141367, 7.58809038E-05, 3.03005147  , 0.02        , 3           , 14          , 0.00043254497, 0.000476470741
-0.0006342754, -0.0330519825, -9.794639   , 0.00163200812, -0.00248230575, 0.000523577444, -0.515235245, -0.05696373 , 0.326075226 , 0.00213045743, 5.1046758E-05, 3.03005719  , 0.03        , 3           , 15          , 0           , -4.05961218E-05
-0.00505312346, 0.005847829 , -9.807167   , 0.00183417415, -0.000580310239, 0.000103688057, -0.5164487  , -0.057233382, 0.325535923 , 0.00214879913, 4.524149E-05, 3.03005815  , 0.04        , 3           , 50          , 0           , 0
-0.01239409 , -0.0284400564, -9.783409   , 0.00104874349, 0.001315005 , 0.00123314548, -0.515167832, -0.057233382, 0.324794382 , 0.00215928745, 5.836491E-05, 3.03007054  , 0.05        , 3           , 11          , 0.0346410163, 0.0346410163
-0.0174233057, -0.038687   , -9.804733   , 0.000972998 , 0.002088825 , -0.00102629035, -0.515167832, -0.05716597 , 0.326075226 , 0.00216901652, 7.927535E-05, 3.03006     , 0.06        , 3           , 12          , 0.0346410163, 0
0.0007182127, -0.00591945555, -9.816662   , -0.0006383472, -0.0005266356, -0.00153231726, -0.515167832, -0.05716597 , 0.326075226 , 0.002162632 , 7.404224E-05, 3.03004479  , 0.07        , 3           , 14          , 0.00043254497, 0.000476470741
0.0191606078, -0.0120386481, -9.805699   , -0.00014447092, -0.0003825091, -0.0009647206, -0.5165161  , -0.057233382, 0.3254685   , 0.002161187 , 7.0238E-05  , 3.03003526  , 0.08        , 3           , 15          , 0           , -4.05961218E-05
-0.0221317261, -0.0183221921, -9.806041   , 0.001057252 , -0.000444777921, 0.0008772615, -0.5154375  , -0.05716597 , 0.3248618   , 0.00217175949, 6.577122E-05, 3.03004384  , 0.09        , 3           , 50          , 0           , 0
0.0123309568, -0.0102042006, -9.790828   , 0.000909932 , 0.0006805246, -3.99081946E-05, -0.5153701  , -0.0568289049, 0.3260078   , 0.00218084734, 7.256647E-05, 3.03004384  , 0.1         , 3           , 11          , 0.0346410163, 0.0346410163
0.004067818 , -0.0218051877, -9.800883   , 0.0003479295, 4.31819E-05 , -0.000537959044, -0.5153701  , -0.0568289049, 0.3260078   , 0.00218432653, 7.301004E-05, 3.030038    , 0.11        , 3           , 12          , 0.0346410163, 0
0.00246510375, -0.037163157, -9.790564   , 0.001049099 , 0.000963041559, -0.00116896571, -0.516381264, -0.0570985563, 0.325603336 , 0.00219481648, 8.266604E-05, 3.03002667  , 0.12        , 3           , 14          , 0.000432545145, 0.000476470916
-0.002616983, -0.0131581072, -9.799543   , -0.000569383, -0.00010380859, -0.0007543591, -0.5151004  , -0.057233382, 0.3249292   , 0.00218912167, 8.16444954E-05, 3.030019    , 0.13        , 3           , 15          , 0           , -4.05959545E-05
-0.004668098, -0.0276145153, -9.7874155  , -0.0005729718, 0.0006704965, -0.00032935958, -0.515302658, -0.0570985563, 0.3260078   , 0.00218339148, 8.83566245E-05, 3.03001571  , 0.14        , 3           , 50          , 0           , 0
-0.0206136853, -0.0315251127, -9.776706   , 6.345247E-05, 0.0004636197, -0.000467990641, -0.515302658, -0.0570985563, 0.3260078   , 0.00218402548, 9.300303E-05, 3.030011    , 0.15        , 3           , 11          , 0.0346410163, 0.0346410163
-0.01138943 , -0.0230141915, -9.790159   , 0.000217905312, -0.00206950749, 0.000729546533, -0.516246438, -0.05716597 , 0.325535923 , 0.00218620524, 7.22920449E-05, 3.030018    , 0.16        , 3           , 12          , 0.0346410163, 0
-0.0256356038, -0.0119348215, -9.814629   , 0.0006311757, -9.569008E-05, -0.000324956, -0.5153701  , -0.057233382, 0.3248618   , 0.00219251681, 7.134228E-05, 3.03001523  , 0.17        , 3           , 14          , 0.000432545145, 0.000476470916
-0.0103951851, -0.021613922, -9.807322   , -0.000719105, 0.00165501924, -0.000399133656, -0.515302658, -0.057233382, 0.326075226 , 0.00218532537, 8.790121E-05, 3.030011    , 0.18        , 3           , 15          , 0           , -4.05959545E-05
-0.00259999 , -0.00778814871, -9.786413   , -0.0003588975, 0.000249582168, -4.64852565E-05, -0.515302658, -0.057233382, 0.326075226 , 0.00218173629, 9.03980253E-05, 3.03001046  , 0.19        , 3           , 50          , 0           , 0
-0.007815599, 0.004503591 , -9.800413   , 0.000553821155, 0.00138205115, 0.0006658736, -0.5165161  , -0.0570985563, 0.325535923 , 0.00218726764, 0.000104178616, 3.03001714  , 0.2         , 3           , 11          , 0.0346694328, 0.0346694328
-0.0194950141, -0.02065066 , -9.793827   , -0.000293422083, 0.00151710713, 0.00193355826, -0.515167832, -0.05696373 , 0.324794382 , 0.00218433538, 0.000119307362, 3.03003669  , 0.21        , 3           , 12          , 0.0346692465, 0
-0.00194029335, -0.03031552 , -9.798705   , 0.00020191478, 0.00116849  , 0.000805170566, -0.5155049  , -0.0568963178, 0.3259404   , 0.00218635588, 0.000130974659, 3.03004479  , 0.22        , 3           , 14          , 0.0004325454, 0.00047647176
0.008267741 , -0.009254055, -9.790855   , 0.000268157775, 0.00194326893, -0.00011155352, -0.5155049  , -0.0568963178, 0.3259404   , 0.00218903716, 0.000150409731, 3.03004384  , 0.23        , 3           , 15          , 0           , -4.059543E-05
0.00770951668, -0.0182611831, -9.794062   , -0.00128352863, 0.00158080738, -0.000260607747, -0.516179   , -0.0573682077, 0.325198859 , 0.00217620167, 0.000166223472, 3.030041    , 0.24        , 3           , 50          , 0           , 0
-0.00312787085, 0.01395334  , -9.808926   , 0.0022396103, 0.00308289938, -2.99647982E-05, -0.5149656  , -0.0573682077, 0.324726969 , 0.00219859788, 0.000197053014, 3.030041    , 0.25        , 3           , 11          , 0.0346694328, 0.0346694328
-0.00712257344, -0.008177072, -9.789162   , 0.001675513 , 0.00300869  , 0.000673636445, -0.5154375  , -0.0566940829, 0.326075226 , 0.00221535424, 0.000227124954, 3.03004766  , 0.26        , 3           , 12          , 0.0346692465, 0
-0.0294768177, -0.0205503479, -9.788931   , -0.000219856985, 0.0006728836, -0.000186445162, -0.5154375  , -0.0566940829, 0.326075226 , 0.00221315539, 0.000233857922, 3.03004575  , 0.27        , 3           , 14          , 0.0004325454, 0.00047647176
-0.00982491 , -0.00634813076, -9.786915   , 0.000421464851, -0.000449077983, 0.000309222669, -0.516313851, -0.0570311435, 0.325333685 , 0.00221737125, 0.000229360317, 3.03004861  , 0.28        , 3           , 15          , 0           , -4.059543E-05
-0.0149741666, -0.0251729973, -9.806467   , -0.0002826965, -0.0008058085, 0.0005879253, -0.5151004  , -0.057233382, 0.3249292   , 0.00221454538, 0.0002212892, 3.03005433  , 0.29        , 3           , 50          , 0           , 0
-0.0089867115, -0.0117695536, -9.787834   , 0.00127241109, -0.00107686862, 0.0012304429, -0.5153701  , -0.0570311435, 0.326075226 , 0.00222724932, 0.000210458718, 3.03006673  , 0.3         , 3           , 11          , 0.0347551256, 0.0347551219
0.00498808827, -0.0195721611, -9.797252   , 0.000203704258, 0.0005349605, -0.00152674073, -0.5153701  , -0.0570311435, 0.326075226 , 0.00222928333, 0.00021584233, 3.03005147  , 0.31        , 3           , 12          , 0.03475475  , 0
0.00499365665, -0.0119796935, -9.774168   , 0.0004917478, -0.0005893896, -0.00145652518, -0.5164487  , -0.05743562 , 0.325198859 , 0.00223419745, 0.000209980935, 3.03003716  , 0.32        , 3           , 14          , 0.0004325465, 0.000476473448
0.012204566 , -0.0223580711, -9.799015   , 0.00013764661, -0.000310210424, -0.0008926625, -0.515167832, -0.05716597 , 0.324726969 , 0.00223557232, 0.000206898781, 3.030028    , 0.33        , 3           , 15          , 0           , -4.05944447E-05
0.0040827496, -0.0217930954, -9.804499   , 0.00120037678, -0.00107735291, -0.00124208909, -0.5153701  , -0.0573682077, 0.326142639 , 0.00224757334, 0.000196153138, 3.03001571  , 0.34        , 3           , 50          , 0           , 0
-0.00174970925, -0.0145388274, -9.79457    , 0.0007743378, -0.000587478862, -0.00117267063, -0.5153701  , -0.0573682077, 0.326142639 , 0.0022553145, 0.000190304767, 3.03000379  , 0.35        , 3           , 11          , 0.0347551256, 0.0347551219
-0.0132501666, -0.02705027 , -9.791094   , -0.000774156535, -0.001372283, 0.0005847519, -0.516246438, -0.0570311435, 0.325131446 , 0.002247574 , 0.0001765688, 3.03000951  , 0.36        , 3           , 12          , 0.03475475  , 0
0.005216577 , -0.03047163 , -9.777408   , 0.000279760861, -0.000450036983, -0.0005390491, -0.5149656  , -0.05716597 , 0.324659556 , 0.002250371 , 0.000172080618, 3.03000474  , 0.37        , 3           , 14          , 0.0004325465, 0.000476473448
-0.00668530352, -0.04159708 , -9.782065   , -0.000508862, 0.00186762027, -0.00131606881, -0.5155049  , -0.0570985563, 0.3260078   , 0.00224528  , 0.000190786348, 3.02999139  , 0.38        , 3           , 15          , 0           , -4.05944447E-05
-0.0231840052, -0.0251257  , -9.792066   , 0.00139261794, 0.002936383 , -0.0007404773, -0.5155049  , -0.0570985563, 0.3260078   , 0.00225920463, 0.000220166752, 3.02998376  , 0.39        , 3           , 50          , 0           , 0
-0.00155255 , 0.0025822348, -9.787718   , 6.23837E-05 , 0.0007451823, 9.75162038E-05, -0.516381264, -0.0573007949, 0.325266272 , 0.00225983327, 0.0002275919, 3.02998471  , 0.4         , 3           , 11          , 0.034897238 , 0.03489724
-0.004999046, -0.0292958729, -9.82267952 , -0.00253989128, -0.00152501033, -0.00161336164, -0.5149656  , -0.05716597 , 0.3249292   , 0.00223443052, 0.000212378043, 3.0299685   , 0.41        , 3           , 12          , 0.0348966755, 0
0.005150223 , -0.0421305038, -9.798699   , 0.000434358546, -0.00305355829, 0.000305207446, -0.515302658, -0.0570311435, 0.326142639 , 0.002238775 , 0.00018183577, 3.02997184  , 0.42        , 3           , 14          , 0.000432546251, 0.000476475019
-0.0158539116, -0.00773377344, -9.756683   , 0.000567782554, -0.00150399585, 9.634948E-05, -0.515302658, -0.0570311435, 0.326142639 , 0.002244453 , 0.000166793659, 3.02997231  , 0.43        , 3           , 15          , 0           , -4.05940918E-05
-0.0139654838, -0.011709569, -9.788324   , -0.00148798688, -3.96306E-05, -0.00139424182, -0.5160442  , -0.05716597 , 0.325131446 , 0.00222957064, 0.000166428552, 3.029959    , 0.44        , 3           , 50          , 0           , 0
-0.0166963376, -0.0157062821, -9.797853   , 0.000215012464, -0.00143598916, 0.0011543273, -0.5149656  , -0.0573007949, 0.3249292   , 0.0022317227, 0.000152042951, 3.02997041  , 0.45        , 3           , 11          , 0.034897238 , 0.03489724
-0.008311951, 0.00358090457, -9.792736   , -0.0020362013, -0.00314066024, 0.0008586507, -0.5155723  , -0.05696373 , 0.326142639 , 0.002211362 , 0.00012061734, 3.029979    , 0.46        , 3           , 12          , 0.0348966755, 0
0.005300672 , -0.035313338, -9.813585   , 0.00133521378, 0.000261035661, -0.000815563661, -0.5155723  , -0.05696373 , 0.326142639 , 0.0022247124, 0.000123245787, 3.02997041  , 0.47        , 3           , 14          , 0.000432546251, 0.000476475019
0.0121673495, -0.0197101273, -9.781378   , -0.00259900815, -0.00342604215, 0.001985733 , -0.5165161  , -0.057233382, 0.32499662  , 0.00219872454, 8.894153E-05, 3.02999043  , 0.48        , 3           , 15          , 0           , -4.05940918E-05
0.0102619985, 0.00649532164, -9.7849     , -8.142879E-05, 0.00109617948, -0.0013859215, -0.515033   , -0.0570311435, 0.32499662  , 0.00219790917, 9.99337644E-05, 3.02997661  , 0.49        , 3           , 50          , 0           , 0
0.00309959613, -0.0258624814, -9.798648   , 0.00190366956, -0.0002982711, 0.0005988894, -0.5156397  , -0.0570985563, 0.3260078   , 0.00221692584, 9.693121E-05, 3.02998281  , 0.5         , 3           , 11          , 0.0350946635, 0.0350946635
0.008391605 , -0.0407704152, -9.811776   , 0.00160713936, 0.00251546921, 0.000319374318, -0.5156397  , -0.0570985563, 0.3260078   , 0.002232998 , 0.000122078738, 3.02998567  , 0.51        , 3           , 12          , 0.0350939035, 0
-0.005916171, -0.0221530031, -9.796893   , 0.00132331881, 0.002795124 , 0.000318491337, -0.516313851, -0.057233382, 0.3249292   , 0.002246232 , 0.000150022825, 3.029989    , 0.52        , 3           , 14          , 0.000432547822, 0.000476475543
-0.0187519044, 0.0014504306, -9.79373    , 0.000201812247, 0.00109809288, 2.80827353E-05, -0.514763355, -0.0575704463, 0.324794382 , 0.00224824972, 0.000161003059, 3.02998948  , 0.53        , 3           , 15          , 0           , -4.05939027E-05
0.016852783 , -0.013386691, -9.799395   , -0.00232927781, -0.00145319116, -0.00309558748, -0.5156397  , -0.05696373 , 0.3260078   , 0.00222495222, 0.00014654042, 3.029958    , 0.54        , 3           , 50          , 0           , 0
0.004496153 , -0.02718652 , -9.8122015  , 0.00272783032, 0.00421249634, -0.000802904, -0.5156397  , -0.05696373 , 0.3260078   , 0.00225222926, 0.000188683247, 3.02995038  , 0.55        , 3           , 11          , 0.0350946635, 0.0350946635
0.0101046711, -0.009700771, -9.798528   , -0.00401565246, -0.00259089842, 0.00141537481, -0.516246438, -0.0570311435, 0.3248618   , 0.00221207552, 0.000162742741, 3.02996469  , 0.56        , 3           , 12          , 0.0350939035, 0
0.006276229 , -0.0263402537, -9.801789   , 0.00161624467, 0.0005445102, -0.000813812949, -0.5149656  , -0.0573007949, 0.3249292   , 0.002228236 , 0.0001682059, 3.029956    , 0.57        , 3           , 14          , 0.000432547822, 0.000476475543
-0.000556397252, -0.02093742 , -9.7747     , 0.00388746336, -0.00169272756, 0.000323400775, -0.5155049  , -0.057233382, 0.326142639 , 0.00226711133, 0.000151271379, 3.02996     , 0.58        , 3           , 15          , 0           , -4.05939027E-05
0.00343270367, 0.00118845329, -9.79311    , 0.00133972056, -0.000583658461, -0.000251790625, -0.5155049  , -0.057233382, 0.326142639 , 0.00228050817, 0.000145440543, 3.029957    , 0.59        , 3           , 50          , 0           , 0
0.006109707 , -0.00467816554, -9.802153   , -0.00147553324, -0.002292145, 0.00086258474, -0.516246438, -0.05716597 , 0.3248618   , 0.0022657332, 0.0001225029, 3.02996564  , 0.6         , 3           , 11          , 0.03534605  , 0.03534605
-0.00543051865, -0.0506239645, -9.785708   , 0.00302730966, 0.0008356271, -0.000241720772, -0.5149656  , -0.05716597 , 0.324726969 , 0.00229600561, 0.000130864661, 3.02996325  , 0.61        , 3           , 12          , 0.0353450961, 0
-0.0139116338, -0.0446217135, -9.796596   , 0.00247270335, -0.001139146, 0.00060022  , -0.515707135, -0.0568289049, 0.326075226 , 0.00232073339, 0.000119459364, 3.02996945  , 0.62        , 3           , 14          , 0.000432549743, 0.000476475223
-0.00688217068, -0.03335009 , -9.818191   , -0.00148159859, -0.00116588711, 1.67082217E-05, -0.515707135, -0.0568289049, 0.326075226 , 0.00230591744, 0.000107800137, 3.02996945  , 0.63        , 3           , 15          , 0           , -4.05924657E-05
0.00542961061, -0.02985266 , -9.827573   , -0.0034561248, -0.00174238894, -0.0005584532, -0.5159768  , -0.05716597 , 0.324726969 , 0.00227135583, 9.038909E-05, 3.02996373  , 0.64        , 3           , 50          , 0           , 0
0.002227284 , -0.0262712482, -9.808147   , -0.000632761, -0.00144172157, 0.000302762317, -0.5148982  , -0.0570985563, 0.324794382 , 0.00226502819, 7.596503E-05, 3.02996659  , 0.65        , 3           , 11          , 0.03534605  , 0.03534605
0.005476853 , -0.0137457671, -9.78728    , 0.00219585258, -0.00226731645, 0.000597167353, -0.515841961, -0.0568289049, 0.3259404   , 0.00228698715, 5.327833E-05, 3.02997231  , 0.66        , 3           , 12          , 0.0353450961, 0
-0.0119770207, -0.00132109132, -9.798209   , -0.00176279445, -0.00144936307, -0.000267580152, -0.515841961, -0.0568289049, 0.3259404   , 0.00226935884, 3.87908221E-05, 3.02997     , 0.67        , 3           , 14          , 0.000432549743, 0.000476475223
0.001499136 , -0.0131726963, -9.809456   , -0.00204103952, -0.00229596812, -0.000270198856, -0.516246438, -0.05696373 , 0.3248618   , 0.00224894844, 1.5837315E-05, 3.029967    , 0.68        , 3           , 15          , 0           , -4.05924657E-05
0.001179059 , -0.0326251164, -9.793719   , -0.00234003132, 0.00108090346, 1.62288925E-05, -0.5148982  , -0.0570311435, 0.324794382 , 0.00222554826, 2.66459538E-05, 3.02996755  , 0.69        , 3           , 50          , 0           , 0
-0.003034018, -0.005089526, -9.782337   , 0.00303123938, 0.000272502046, 0.00173517328, -0.515707135, -0.05696373 , 0.326142639 , 0.00225586  , 2.93296616E-05, 3.02998471  , 0.7         , 3           , 11          , 0.0356498435, 0.03564984
-0.00510769151, -0.0325083621, -9.806421   , 0.00189850677, 0.0005464195, -0.00109503523, -0.515707135, -0.05696373 , 0.326142639 , 0.002274844 , 3.48186368E-05, 3.02997375  , 0.71        , 3           , 12          , 0.03564869  , 0
-0.0123385079, -0.039107427, -9.831364   , 0.000215913358, -0.00171755708, 0.000306278875, -0.516246438, -0.0573682077, 0.3249292   , 0.00227700383, 1.76361573E-05, 3.029977    , 0.72        , 3           , 14          , 0.0004325499, 0.000476475485
0.0009797364, -0.0150067527, -9.79907    , -8.373096E-05, 0.00165931159, -0.0005374431, -0.514763355, -0.057233382, 0.324726969 , 0.00227616588, 3.424145E-05, 3.02997136  , 0.73        , 3           , 15          , 0           , -4.059213E-05
0.0017009452, -0.0223083757, -9.777401   , -0.00346604618, 0.000228565739, -0.0008379535, -0.515707135, -0.05696373 , 0.3260078   , 0.00224150531, 3.65460219E-05, 3.02996278  , 0.74        , 3           , 50          , 0           , 0
-0.00525100436, -0.0397660956, -9.794702   , -0.00291603687, 0.0033296037, 1.70661624E-05, -0.515707135, -0.05696373 , 0.3260078   , 0.002212345 , 6.98416043E-05, 3.02996325  , 0.75        , 3           , 11          , 0.0356498435, 0.03564984
0.00685124565, -0.0173195228, -9.802651   , -0.00205047126, -0.00032501138, 0.000297913066, -0.5159768  , -0.0573007949, 0.32499662  , 0.00219184021, 6.658494E-05, 3.02996659  , 0.76        , 3           , 12          , 0.03564869  , 0
-0.00133260526, -0.0123413047, -9.778738   , -0.00149856426, 0.00193132076, -0.00280389376, -0.5148982  , -0.057233382, 0.3248618   , 0.00217685243, 8.595933E-05, 3.029938    , 0.77        , 3           , 14          , 0.0004325499, 0.000476475485
0.00675893528, -0.0160552673, -9.77598    , -0.00177287892, 0.0005215906, -0.000829617959, -0.515707135, -0.0570311435, 0.326210052 , 0.002159123 , 9.11932148E-05, 3.02993035  , 0.78        , 3           , 15          , 0           , -4.059213E-05
0.0162122361, -0.02022877 , -9.775474   , -6.995408E-05, -0.00115633989, -0.00082432 , -0.515707135, -0.0570311435, 0.326210052 , 0.002158423 , 7.964764E-05, 3.02992177  , 0.79        , 3           , 50          , 0           , 0
-0.0120306052, -0.0383374356, -9.793391   , -0.00261344155, -0.000610393356, 0.00114245852, -0.5159094  , -0.0573007949, 0.324726969 , 0.00213228888, 7.35255453E-05, 3.02993321  , 0.8         , 3           , 11          , 0.0360043049, 0.0360043049
-0.000972094946, -0.0186702982, -9.776502   , 0.00303165475, -9.06692E-06, 3.95154275E-05, -0.514763355, -0.0573682077, 0.324726969 , 0.00216260576, 7.343403E-05, 3.02993369  , 0.81        , 3           , 12          , 0.03600294  , 0
-0.00457607862, -0.0114713376, -9.757969   , -0.0006518621, 0.00221862039, -0.00138682069, -0.515774548, -0.057233382, 0.3260078   , 0.002156086 , 9.56501244E-05, 3.02991986  , 0.82        , 3           , 14          , 0.000432549947, 0.000476474757
0.0116861491, -0.022852283, -9.784558   , -0.000924041437, 0.000245756935, -0.0005435627, -0.515774548, -0.057233382, 0.3260078   , 0.00214684452, 9.811936E-05, 3.02991414  , 0.83        , 3           , 15          , 0           , -4.05929859E-05
0.0155066708, -0.0445311926, -9.79185    , -0.00177738734, 0.001366285 , -0.00139339024, -0.516179   , -0.0570985563, 0.324794382 , 0.0021290693, 0.000111811976, 3.02990079  , 0.84        , 3           , 50          , 0           , 0
0.00484500732, -0.0290614553, -9.792771   , -0.0017764084, 0.00136628968, 0.000301834458, -0.514763355, -0.057233382, 0.3248618   , 0.00211130572, 0.000125468418, 3.02990365  , 0.85        , 3           , 11          , 0.0360043049, 0.0360043049
-0.0054362826, -0.0207973048, -9.799145   , -0.002329695, -0.00117162056, -0.00139992952, -0.5155723  , -0.0570985563, 0.326142639 , 0.00208800659, 0.000113781629, 3.02988935  , 0.86        , 3           , 12          , 0.03600294  , 0
0.0106170345, -0.00474795047, -9.797147   , 0.00160820491, 0.00223390339, -0.000246135285, -0.5155723  , -0.0570985563, 0.326142639 , 0.00210408843, 0.000136125775, 3.029887    , 0.87        , 3           , 14          , 0.000432549947, 0.000476474757
0.0396075659, -0.001061054, -9.786966   , -0.00121745723, 0.00249636872, -0.000258870685, -0.5159768  , -0.0570985563, 0.3249292   , 0.00209191325, 0.000161094824, 3.02988458  , 0.88        , 3           , 15          , 0           , -4.05929859E-05
-0.000826494768, -0.008286261, -9.778718   , 0.00219183369, -0.00142261991, 0.000881007232, -0.514830768, -0.05716597 , 0.3249292   , 0.002113833 , 0.000146850129, 3.02989316  , 0.89        , 3           , 50          , 0           , 0
-0.00539042242, -0.0167429969, -9.797318   , 0.0002024611, 0.0010980994, 0.00115823036, -0.5155723  , -0.0570311435, 0.326210052 , 0.00211584661, 0.000157827511, 3.0299046   , 0.9         , 3           , 11          , 0.0364075564, 0.0364075527
-0.0102266651, -0.005408764, -9.796405   , 0.004156851 , 0.000843269343, -0.0005189912, -0.5155723  , -0.0570311435, 0.326210052 , 0.00215741433, 0.00016627126, 3.02989984  , 0.91        , 3           , 12          , 0.0364059769, 0
-0.008249691, -0.0203974135, -9.774304   , 0.00104941521, 0.00110382773, 0.0005971062, -0.516179   , -0.0570311435, 0.324726969 , 0.00216790941, 0.0001772966, 3.02990556  , 0.92        , 3           , 14          , 0.0004325516, 0.00047647208
-0.0008844677, -0.0461988673, -9.775711   , 0.000769613136, 0.0005387869, 0.0003123839, -0.514695942, -0.0573007949, 0.324726969 , 0.00217560632, 0.000182677672, 3.029909    , 0.93        , 3           , 15          , 0           , -4.05918072E-05
-0.0108744195, -0.022076387, -9.802355   , 0.000493088737, -0.0005893818, 0.000874406251, -0.515707135, -0.05696373 , 0.325873    , 0.00218053861, 0.000176764821, 3.02991748  , 0.94        , 3           , 50          , 0           , 0
-0.01259747 , -0.0112713361, -9.789216   , -0.00120098284, -0.000600839267, 0.001714117 , -0.515707135, -0.05696373 , 0.325873    , 0.002168532 , 0.000170719184, 3.02993464  , 0.95        , 3           , 11          , 0.0364075564, 0.0364075527
0.009093864 , -0.0133462138, -9.784538   , -0.00149061717, 0.0005235033, -0.00111083873, -0.516246438, -0.0570985563, 0.324659556 , 0.00215362385, 0.0001759782, 3.02992368  , 0.96        , 3           , 12          , 0.0364059769, 0
0.009434501 , -0.0187986065, -9.774615   , 0.002178144 , 0.00111146306, -0.00109285081, -0.5148982  , -0.05716597 , 0.324794382 , 0.002175403 , 0.000187116471, 3.02991271  , 0.97        , 3           , 14          , 0.0004325516, 0.00047647208
-0.0202703327, -0.0133928834, -9.802391   , 0.000204922762, 0.000534967752, 0.0005922875, -0.515707135, -0.0570311435, 0.3259404   , 0.00217745337, 0.000192453241, 3.029919    , 0.98        , 3           , 15          , 0           , -4.05918072E-05
-0.00313166529, -0.0136493081, -9.785991   , -0.0003600197, 0.0008127192, 0.00285038725, -0.515707135, -0.0570311435, 0.3259404   , 0.00217385869, 0.000200518378, 3.02994752  , 0.99        , 3           , 50          , 0           , 0
-0.0181124024, -0.0206469577, -9.799692   , -7.61120755E-05, 0.000251490477, 0.0005905377, -0.516313851, -0.057233382, 0.324726969 , 0.0021730843, 0.000203004689, 3.02995324  , 1           , 3           , 11          , 0.0368575975, 0.0368576
0.000229981728, -0.005942869, -9.808079   , 0.00302935229, 0.000554066035, 0.000887995469, -0.5148982  , -0.057233382, 0.324794382 , 0.00220337976, 0.000208525889, 3.02996182  , 1.01        , 3           , 12          , 0.0368557945, 0
-0.0139039112, -0.0116596734, -9.803238   , 0.00160213583, 0.00336016179, -0.00109201216, -0.515774548, -0.0568963178, 0.326142639 , 0.00221939851, 0.000242151582, 3.02995133  , 1.02        , 3           , 14          , 0.0004325536, 0.000476474263
0.0139590781, -0.0233179163, -9.788159   , -0.00176837447, -0.000323101762, -0.00026584405, -0.515774548, -0.0568963178, 0.326142639 , 0.00220171432, 0.0002389264, 3.02994847  , 1.03        , 3           , 15          , 0           , -4.05928367E-05
-0.003735421, -0.0262641273, -9.789662   , -0.0017559171, -0.002575616, 0.00199098419, -0.516179   , -0.0570311435, 0.324794382 , 0.00218415912, 0.000213126652, 3.0299685   , 1.04        , 3           , 50          , 0           , 0
-0.00142255891, -0.0231266022, -9.791439   , -0.00231338572, -0.004268831, 0.000290521741, -0.514763355, -0.05696373 , 0.324726969 , 0.00216102647, 0.000170432148, 3.02997136  , 1.05        , 3           , 11          , 0.0368575975, 0.0368576
0.00275719259, -0.0177334175, -9.79952049 , 0.00303074624, 0.000272500882, 0.0008875614, -0.5156397  , -0.0570311435, 0.326075226 , 0.002191335 , 0.000173137843, 3.02998     , 1.06        , 3           , 12          , 0.0368557945, 0
-0.00211859588, -0.0420651026, -9.792879   , -0.00318108685, -5.10826067E-05, 0.00114069239, -0.5156397  , -0.0570311435, 0.326075226 , 0.00215952634, 0.0001726022, 3.02999139  , 1.07        , 3           , 14          , 0.0004325536, 0.000476474263
-0.009599997, -0.0297483  , -9.806445   , -0.0017631246, -0.00144936366, -0.000832654769, -0.516313851, -0.05716597 , 0.324659556 , 0.00214189338, 0.00015812651, 3.02998281  , 1.08        , 3           , 15          , 0           , -4.05928367E-05
-0.0188875254, -0.008032811, -9.79105949 , -0.0003578863, 0.000249583652, 0.00171937083, -0.5149656  , -0.0573007949, 0.3249292   , 0.00213831733, 0.000160585536, 3.03        , 1.09        , 3           , 50          , 0           , 0
-0.003007343, -0.00685331644, -9.794548   , -7.964144E-05, 0.00109618506, 0.00172198564, -0.515774548, -0.0573007949, 0.3260078   , 0.00213752384, 0.0001714855, 3.03001714  , 1.1         , 3           , 11          , 0.0373523571, 0.03735236
-0.001989456, -0.03124806 , -9.78967    , -0.00120598252, 0.000243846152, 0.000302728644, -0.515774548, -0.0573007949, 0.3260078   , 0.00212546461, 0.000173917491, 3.03002048  , 1.11        , 3           , 12          , 0.03735032  , 0
-0.00340054836, -0.00188987143, -9.793175   , -0.00232084515, -0.00286101177, -0.0005549246, -0.516179   , -0.05696373 , 0.324659556 , 0.00210225536, 0.00014531918, 3.03001523  , 1.12        , 3           , 14          , 0.000432553556, 0.000476477959
-0.0206641  , -0.00664448831, -9.795134   , -0.00402286556, -0.00146464864, -0.001408269, -0.5151004  , -0.05716597 , 0.32499662  , 0.00206202478, 0.000130702028, 3.030001    , 1.13        , 3           , 15          , 0           , -4.05890351E-05
0.0168044   , -0.0183357485, -9.803483   , 0.000195577944, 0.00222434779, -0.00110033632, -0.5155723  , -0.0568963178, 0.3259404   , 0.0020639787, 0.000152968161, 3.02999     , 1.14        , 3           , 50          , 0           , 0
0.0005581132, -0.0131907938, -9.800875   , -0.0009321716, 0.00221671746, 0.00228484557, -0.5155723  , -0.0568963178, 0.3259404   , 0.002054661 , 0.000175088237, 3.03001285  , 1.15        , 3           , 11          , 0.0373523571, 0.03735236
-0.006378839, -0.0203702953, -9.788754   , -9.53018E-05, 0.00419339957, 0.00116168393, -0.5161116  , -0.05716597 , 0.324726969 , 0.00205371017, 0.000216998276, 3.03002477  , 1.16        , 3           , 12          , 0.03735032  , 0
-0.0008066539, -0.04435041 , -9.788811   , -0.00178124674, 0.00221097912, -0.0008270175, -0.514695942, -0.0570311435, 0.3249292   , 0.00203589583, 0.000239124915, 3.03001618  , 1.17        , 3           , 14          , 0.000432553556, 0.000476477959
0.008694172 , -0.00704897242, -9.777284   , -0.000361816317, 0.000812704733, -0.000257527427, -0.515841961, -0.0568289049, 0.326142639 , 0.00203227717, 0.00024725718, 3.03001332  , 1.18        , 3           , 15          , 0           , -4.05890351E-05
0.0142592853, -0.00298889633, -9.796207   , -0.00177436566, 0.00108472444, 0.00143154652, -0.515841961, -0.0568289049, 0.326142639 , 0.00201453688, 0.000258075452, 3.030028    , 1.19        , 3           , 50          , 0           , 0
0.0316394679, -0.03198825 , -9.820602   , -0.00178150064, 0.002492549 , 0.00115118315, -0.516179   , -0.0573007949, 0.324726969 , 0.00199671253, 0.000282973662, 3.03003955  , 1.2         , 3           , 11          , 0.03788969  , 0.0378896929
-0.008388195, -0.006300578, -9.805886   , -0.00149333477, 0.001368199 , 0.00143330183, -0.5149656  , -0.0573007949, 0.324794382 , 0.00198178343, 0.0002966271, 3.03005385  , 1.21        , 3           , 12          , 0.0378874056, 0
0.00486634765, 0.0021262127, -9.808462   , -0.0009306908, 0.00165358023, 2.368236E-05, -0.5160442  , -0.0568963178, 0.325805575 , 0.00197247649, 0.000313162425, 3.03005433  , 1.22        , 3           , 14          , 0.0004325555, 0.0004764786
-0.0109666679, -0.0359879956, -9.824561   , 0.00216526748, 0.00364554068, -0.00165401876, -0.5160442  , -0.0568963178, 0.325805575 , 0.00199412368, 0.000349650567, 3.03003764  , 1.23        , 3           , 15          , 0           , -4.05933934E-05
-0.0128657315, -0.0338062234, -9.796091   , 0.00191514008, -0.002550793, 0.00116049242, -0.5161116  , -0.0570985563, 0.324726969 , 0.00201327866, 0.0003241194, 3.03004956  , 1.24        , 3           , 50          , 0           , 0
-0.01782899 , -0.0003315406, -9.803675   , -0.00121139735, 0.00137010659, 0.0005870062, -0.515033   , -0.05716597 , 0.324794382 , 0.00200116681, 0.000337808684, 3.03005528  , 1.25        , 3           , 11          , 0.03788969  , 0.0378896929
-0.010673726, -0.0103086587, -9.813604   , 0.00134438416, -0.00142835442, 0.000594519253, -0.515841961, -0.0570311435, 0.3260078   , 0.00201461255, 0.0003235132, 3.030061    , 1.26        , 3           , 12          , 0.0378874056, 0
0.0127960481, -0.0137703456, -9.805303   , -0.00118909322, -0.00313493446, 0.000580063264, -0.515841961, -0.0570311435, 0.3260078   , 0.002002723 , 0.000292152225, 3.03006673  , 1.27        , 3           , 14          , 0.0004325555, 0.0004764786
-0.0100346422, -0.0528643578, -9.774453   , 0.00106286188, -0.00171183189, -0.000254843821, -0.5164487  , -0.05696373 , 0.324457318 , 0.00201335084, 0.000275039085, 3.03006434  , 1.28        , 3           , 15          , 0           , -4.05933934E-05
-0.0118527561, -0.0221247151, -9.784736   , -0.0028841435, -0.00314639672, -0.000275450555, -0.514763355, -0.0573007949, 0.3249292   , 0.001984509 , 0.0002435807, 3.03006148  , 1.29        , 3           , 50          , 0           , 0
-0.014400363, -0.0152605483, -9.804161   , 0.000218860121, -0.00228069373, 0.000587945 , -0.5159768  , -0.0570985563, 0.3260078   , 0.00198670663, 0.0002207365, 3.03006721  , 1.3         , 3           , 11          , 0.03846744  , 0.0384674519
-0.00384547655, -0.0339412652, -9.787435   , -0.00204489962, -0.00145127892, 0.000296173821, -0.5159768  , -0.0570985563, 0.3260078   , 0.001966258 , 0.000206217868, 3.03007054  , 1.31        , 3           , 12          , 0.0384649038, 0
-0.0199952945, -0.0269327369, -9.802444   , -0.0012035215, -0.000319290324, -0.000263214373, -0.516246438, -0.0573682077, 0.324659556 , 0.00195422233, 0.000203030126, 3.03006768  , 1.32        , 3           , 14          , 0.000432554254, 0.000476482761
-0.0273511261, -0.033633098, -9.797104   , -0.00176591333, -0.000886242, -0.000831791, -0.5151004  , -0.05696373 , 0.3249292   , 0.00193656166, 0.000194183915, 3.030059    , 1.33        , 3           , 15          , 0           , -4.058865E-05
0.002958905 , -0.0295472778, -9.776066   , 0.00134520116, -0.00142835465, 0.002007202 , -0.5159768  , -0.057233382, 0.326075226 , 0.00195001764, 0.000179861381, 3.03007913  , 1.34        , 3           , 50          , 0           , 0
0.008417597 , -0.035839498, -9.802264   , 0.00105515169, -2.2442342E-05, 0.000877904764, -0.5159768  , -0.057233382, 0.326075226 , 0.00196057046, 0.00017961979, 3.03008771  , 1.35        , 3           , 11          , 0.03846744  , 0.0384674519
0.009090492 , -0.0204905458, -9.806716   , 0.000768468366, 0.0005387707, -0.00166538148, -0.5161116  , -0.05716597 , 0.324659556 , 0.00196825224, 0.000185040248, 3.0300715   , 1.36        , 3           , 12          , 0.0384649038, 0
0.000118815347, -0.0100500993, -9.794085   , -7.79073744E-05, 0.000251473364, -0.00251737866, -0.514763355, -0.0570311435, 0.325064033 , 0.00196746853, 0.000187604484, 3.03004622  , 1.37        , 3           , 14          , 0.000432554254, 0.000476482761
0.006464684 , -0.0435210653, -9.792367   , -0.00036091244, 0.000531132449, -0.00110557419, -0.516179   , -0.0570311435, 0.326075226 , 0.00196385733, 0.000192937528, 3.03003526  , 1.38        , 3           , 15          , 0           , -4.058865E-05
-0.00332827 , -0.0325553268, -9.798725   , -0.00205490948, 0.000801247137, 0.0022774078, -0.516179   , -0.0570311435, 0.326075226 , 0.0019433127, 0.000200905488, 3.03005815  , 1.39        , 3           , 50          , 0           , 0
-0.00759670325, -0.0220259055, -9.828545   , -0.000915512966, -0.00144364312, -0.000263630645, -0.5164487  , -0.0573007949, 0.324726969 , 0.0019341904, 0.0001864594, 3.03005528  , 1.4         , 3           , 11          , 0.03908346  , 0.03908347
0.02581873  , -0.0189219341, -9.794829   , -0.0006346433, -0.0011601689, -0.000544417242, -0.5151004  , -0.0570311435, 0.325064033 , 0.001927843 , 0.000174868226, 3.03004956  , 1.41        , 3           , 12          , 0.03908065  , 0
-0.007454597, -0.03120997 , -9.782027   , 0.001048113 , 0.00110380829, -0.001663194, -0.5159094  , -0.05716597 , 0.326142639 , 0.00193832116, 0.000185938436, 3.03003335  , 1.42        , 3           , 14          , 0.0004325486, 0.000476485264
-0.008687418, -0.0252897479, -9.793763   , -0.0009265018, 0.000808878336, 2.23783481E-05, -0.5159094  , -0.05716597 , 0.326142639 , 0.00192905613, 0.000194026783, 3.03003335  , 1.43        , 3           , 15          , 0           , -4.05911851E-05
0.009279532 , -0.00426876359, -9.800771   , -6.5281376E-05, -0.00200104271, 2.198981E-05, -0.516246438, -0.057233382, 0.3248618   , 0.00192840339, 0.000174015979, 3.03003335  , 1.44        , 3           , 50          , 0           , 0
0.0161813628, 0.00332863652, -9.802946   , 0.0013346331, 0.000542594469, 0.0005975546, -0.5149656  , -0.05743562 , 0.3248618   , 0.00194175087, 0.000179430339, 3.03003955  , 1.45        , 3           , 11          , 0.03908346  , 0.03908347
0.009421076 , 0.005665638 , -9.80344    , 0.005006345 , 0.0005674249, 0.000897212245, -0.5159094  , -0.057233382, 0.326075226 , 0.00199181587, 0.000185086916, 3.03004861  , 1.46        , 3           , 12          , 0.03908065  , 0
0.01286993  , -0.0346147977, -9.779627   , 0.00218528  , -0.000296374783, -0.00081248366, -0.5159094  , -0.057233382, 0.326075226 , 0.002013667 , 0.000182139454, 3.0300405   , 1.47        , 3           , 14          , 0.0004325486, 0.000476485264
-0.00591735076, -0.02884921 , -9.818165   , 0.00276242755, -0.00254507 , 0.001164441 , -0.515774548, -0.0570985563, 0.324659556 , 0.00204129331, 0.000156665192, 3.03005242  , 1.48        , 3           , 15          , 0           , -4.05911851E-05
-0.006443329, -0.0320276581, -9.810498   , -0.00375413639, 0.0016344781, 0.001423198 , -0.5148982  , -0.05716597 , 0.325064033 , 0.00200375426, 0.000172981148, 3.03006625  , 1.49        , 3           , 50          , 0           , 0
0.000548684038, -0.01587653 , -9.807213   , -0.003180502, -0.00033266237, -0.00027243307, -0.5159768  , -0.05696373 , 0.325805575 , 0.00197195658, 0.000169661289, 3.03006387  , 1.5         , 3           , 11          , 0.0397356041, 0.03973561
-0.0253144111, -0.0133858183, -9.787062   , -0.0023239532, -0.00229789037, -0.00111913227, -0.5159768  , -0.05696373 , 0.325805575 , 0.0019487153, 0.000146704377, 3.03005242  , 1.51        , 3           , 12          , 0.0397325046, 0
-0.0184989311, -0.0116609493, -9.787003   , 0.000486123055, 0.0008184307, 0.000876572565, -0.5161116  , -0.0570985563, 0.324659556 , 0.00195357762, 0.000154871552, 3.030061    , 1.52        , 3           , 14          , 0.00043254724, 0.000476485031
0.008298902 , -0.00744339731, -9.792656   , -0.00175779429, -0.00229406427, 0.00114380126, -0.5149656  , -0.057233382, 0.325064033 , 0.00193600135, 0.0001319087, 3.03007245  , 1.53        , 3           , 15          , 0           , -4.05884675E-05
0.0182872135, -0.0337989628, -9.772801   , -0.00146962842, -0.00341841369, 0.00142591994, -0.516179   , -0.05716597 , 0.326075226 , 0.00192130671, 9.769713E-05, 3.03008676  , 1.54        , 3           , 50          , 0           , 0
-0.00240263343, -0.0280861929, -9.789208   , -0.00205620774, 0.000801238639, 1.71078937E-05, -0.516179   , -0.05716597 , 0.326075226 , 0.00190074451, 0.000105709172, 3.03008676  , 1.55        , 3           , 11          , 0.0397356041, 0.03973561
0.0207816921, -0.0220336169, -9.791265   , 0.000205015938, 0.000253383449, -0.00166844972, -0.5164487  , -0.05716597 , 0.3248618   , 0.00190279284, 0.000108274762, 3.03007054  , 1.56        , 3           , 12          , 0.0397325046, 0
0.0249408185, -0.01933524 , -9.802974   , -0.00120195723, -0.0006008569, 1.88890263E-05, -0.514830768, -0.0570985563, 0.325064033 , 0.00189077354, 0.000102265833, 3.03007054  , 1.57        , 3           , 14          , 0.00043254724, 0.000476485031
0.00550078135, -0.01417273 , -9.794513   , 0.000789133657, -0.00340313721, 0.000306305446, -0.5159094  , -0.0570985563, 0.326210052 , 0.001898665 , 6.822872E-05, 3.0300734   , 1.58        , 3           , 15          , 0           , -4.05884675E-05
0.0117501449, -0.02458583 , -9.805808   , -0.002329618, -0.000890058756, 0.001143337 , -0.5159094  , -0.0570985563, 0.326210052 , 0.00187536946, 5.93065779E-05, 3.03008485  , 1.59        , 3           , 50          , 0           , 0
0.0122181531, -0.0165445078, -9.783625   , -8.421627E-05, 0.001659305 , -0.00138505816, -0.516313851, -0.05716597 , 0.324726969 , 0.00187453476, 7.595356E-05, 3.030071    , 1.6         , 3           , 11          , 0.0404217727, 0.04042178
0.0007428387, -0.03037462 , -9.790549   , -0.00431143865, -5.87314134E-05, 5.27176962E-06, -0.515033   , -0.0570311435, 0.325198859 , 0.00183142023, 7.536615E-05, 3.030071    , 1.61        , 3           , 12          , 0.0404183678, 0
-0.0102814287, -0.00634584 , -9.786014   , -0.00233666087, 0.000236199456, -0.00139776326, -0.5160442  , -0.05716597 , 0.326210052 , 0.00180805253, 7.77535752E-05, 3.03005719  , 1.62        , 3           , 14          , 0.000432545727, 0.000476480054
0.015184463 , -0.03683212 , -9.799053   , -0.000355906173, -0.000313556171, 0.000305812166, -0.5160442  , -0.05716597 , 0.326210052 , 0.00180449372, 7.461249E-05, 3.03006     , 1.63        , 3           , 15          , 0           , -4.05896171E-05
-0.0109318355, -0.01899846 , -9.778388   , 0.000483010284, 0.00138156419, 0.000312366581, -0.516381264, -0.05716597 , 0.324659556 , 0.00180932414, 8.842246E-05, 3.03006339  , 1.64        , 3           , 50          , 0           , 0
-0.0152959824, -0.006761197, -9.779274   , 0.0013476715, -0.00199148385, 0.0014412601, -0.515033   , -0.0573007949, 0.32499662  , 0.00182280189, 6.848147E-05, 3.0300777   , 1.65        , 3           , 11          , 0.0404217727, 0.04042178
0.006268669 , -0.0290244855, -9.80858    , 0.00133545161, 0.0005426036, 0.00201024045, -0.5161116  , -0.0570985563, 0.326210052 , 0.00183615787, 7.387073E-05, 3.03009772  , 1.66        , 3           , 12          , 0.0404183678, 0
0.0176768433, -0.0228367262, -9.809824   , -0.002040294, -0.00257754116, -0.00140078564, -0.5161116  , -0.0570985563, 0.326210052 , 0.00181575411, 4.812094E-05, 3.030084    , 1.67        , 3           , 14          , 0.000432545727, 0.000476480054
-0.0153263565, -0.01258836 , -9.790599   , -0.00175426342, -0.00313875731, 1.23509017E-05, -0.516381264, -0.0573007949, 0.324726969 , 0.00179821136, 1.67331818E-05, 3.030084    , 1.68        , 3           , 15          , 0           , -4.05896171E-05
-0.0162875764, -0.0121764671, -9.775688   , 0.000204275988, 0.000534956635, -0.0005378644, -0.5149656  , -0.05716597 , 0.325266272 , 0.0018002541, 2.20924267E-05, 3.03007817  , 1.69        , 3           , 50          , 0           , 0
0.0100395977, -0.0119852442, -9.78995    , 0.00134079088, -0.000865231268, -0.0008173057, -0.5161116  , -0.0568963178, 0.326210052 , 0.001813666 , 1.344597E-05, 3.03007054  , 1.7         , 3           , 11          , 0.04113992  , 0.04113992
0.0114251869, -0.0155499307, -9.808033   , -0.0006544821, 0.00278174435, -0.00110342051, -0.5161116  , -0.0568963178, 0.326210052 , 0.00180712063, 4.12833433E-05, 3.030059    , 1.71        , 3           , 12          , 0.041136194 , 0
-0.00356150535, -0.0154107977, -9.797299   , -0.00148094131, -0.00116589048, 0.00114685332, -0.515841961, -0.057233382, 0.324794382 , 0.00179231178, 2.960382E-05, 3.03007054  , 1.72        , 3           , 14          , 0.000432545057, 0.000476481684
0.0104468185, -0.008010331, -9.765974   , 0.00160853623, 0.002233898 , 0.0003189343, -0.5149656  , -0.0570311435, 0.32499662  , 0.00180839724, 5.193702E-05, 3.030074    , 1.73        , 3           , 15          , 0           , -4.05878127E-05
-0.00342480163, -0.0019095256, -9.787299   , -0.0006416098, 0.000247659977, -0.0005422509, -0.5161116  , -0.0570985563, 0.3260078   , 0.00180198078, 5.44234063E-05, 3.03006864  , 1.74        , 3           , 50          , 0           , 0
0.00777037  , -0.046704147, -9.789659   , -0.00175967545, -0.00201249821, 0.000296622078, -0.5161116  , -0.0570985563, 0.3260078   , 0.00178438425, 3.429313E-05, 3.0300715   , 1.75        , 3           , 11          , 0.04113992  , 0.04113992
0.0059721265, -0.0168411136, -9.807628   , 0.0002140347, -0.00143600046, -0.000540903769, -0.516246438, -0.05696373 , 0.324794382 , 0.00178652443, 1.994281E-05, 3.03006577  , 1.76        , 3           , 12          , 0.041136194 , 0
0.007635994 , -0.0218915585, -9.787749   , -0.00204767846, -0.0008881477, 0.000297040882, -0.515167832, -0.0570985563, 0.325131446 , 0.00176604756, 1.10560723E-05, 3.03006864  , 1.77        , 3           , 14          , 0.000432545057, 0.000476481684
-0.00355158746, -0.04210963 , -9.774812   , -0.00234715967, 0.00248872186, -0.000264143571, -0.5159768  , -0.0570985563, 0.326210052 , 0.001742576 , 3.59478945E-05, 3.03006673  , 1.78        , 3           , 15          , 0           , -4.05878127E-05
0.0194745976, -0.02331518 , -9.808003   , -0.00176606735, -0.0008862417, -0.00111432932, -0.5159768  , -0.0570985563, 0.326210052 , 0.00172491476, 2.71048048E-05, 3.03005528  , 1.79        , 3           , 50          , 0           , 0
-0.00265626237, -0.015868051, -9.79865    , -8.028076E-05, 0.00109618239, 0.000591837044, -0.516381264, -0.0573007949, 0.324659556 , 0.00172413816, 3.80788224E-05, 3.030061    , 1.8         , 3           , 11          , 0.0418880619, 0.04188807
-2.18451023E-05, -0.0213228278, -9.795941   , -0.000355900731, -0.000313553668, 0.000305812922, -0.515033   , -0.0570985563, 0.325131446 , 0.00172057934, 3.4938028E-05, 3.03006434  , 1.81        , 3           , 12          , 0.0418839939, 0
0.0153156   , 0.0118521731, -9.785291   , 0.00217995  , 0.0011114662, 0.00201505981, -0.516246438, -0.057233382, 0.326075226 , 0.00174237974, 4.60177835E-05, 3.03008437  , 1.82        , 3           , 14          , 0.000432540284, 0.000476477551
0.000303473324, 0.00527543947, -9.789952   , 0.00162592158, -0.001144876, 0.00144387968, -0.516246438, -0.057233382, 0.326075226 , 0.00175863947, 3.45437729E-05, 3.03009915  , 1.83        , 3           , 15          , 0           , -4.05904E-05
-0.00623104675, -0.009538131, -9.790064   , -0.000924031832, 0.000245754141, -0.000543565257, -0.5161116  , -0.05716597 , 0.324726969 , 0.001749399 , 3.70108464E-05, 3.03009343  , 1.84        , 3           , 50          , 0           , 0
-0.0186879747, -0.0278827362, -9.792947   , -0.00178262743, 0.00249254471, -0.0008265822, -0.515033   , -0.0570311435, 0.325266272 , 0.00173157232, 6.195064E-05, 3.03008485  , 1.85        , 3           , 11          , 0.0418880619, 0.04188807
-0.0065009743, -0.02671816 , -9.779289   , -0.0009164836, -0.0014436401, -0.00195885636, -0.5160442  , -0.0573007949, 0.3264123   , 0.00172240636, 4.75480956E-05, 3.03006577  , 1.86        , 3           , 12          , 0.0418839939, 0
-0.009162039, -0.02708753 , -9.794227   , -0.0009367409, 0.002779839 , -0.0008221974, -0.5160442  , -0.0573007949, 0.3264123   , 0.00171303842, 7.53605636E-05, 3.03005719  , 1.87        , 3           , 14          , 0.000432540284, 0.000476477551
0.0071698213, -0.0223434418, -9.785947   , -0.00119588489, -0.00172710733, 0.0008647675, -0.516179   , -0.0573007949, 0.3249292   , 0.00170108024, 5.807475E-05, 3.03006577  , 1.88        , 3           , 15          , 0           , -4.05904E-05
0.0373466164, -0.004602868, -9.799202   , 0.000205512362, 0.000253393257, -0.000820835063, -0.515033   , -0.05716597 , 0.325266272 , 0.00170313485, 6.06226567E-05, 3.03005815  , 1.89        , 3           , 50          , 0           , 0
-0.005536844, 0.001810926 , -9.812611   , -0.0006440667, 0.000810799655, 2.36935357E-05, -0.5159768  , -0.0568963178, 0.326210052 , 0.00169669441, 6.875024E-05, 3.03005815  , 1.9         , 3           , 11          , 0.0426643   , 0.0426643081
0.006990466 , -0.00292350585, -9.790387   , -0.0009300229, 0.001653588 , 0.00115382811, -0.5159768  , -0.0568963178, 0.326210052 , 0.00168739515, 8.526659E-05, 3.03006959  , 1.91        , 3           , 12          , 0.04265987  , 0
-0.000515451655, -0.02358234 , -9.793242   , 0.004450768 , -0.00140734157, 4.3926877E-05, -0.5159768  , -0.0573007949, 0.32499662  , 0.00173190283, 7.119244E-05, 3.03007     , 1.92        , 3           , 14          , 0.000432540284, 0.0004764738
-0.0167593174, -0.0202208236, -9.796968   , -0.00149011635, 0.00052350387, -0.000263228721, -0.515033   , -0.05716597 , 0.325266272 , 0.00171700143, 7.6432E-05  , 3.03006768  , 1.93        , 3           , 15          , 0           , -4.058944E-05
-0.00318842754, -0.05245363 , -9.786151   , -0.000359504484, 0.00024957626, -0.00110600726, -0.516179   , -0.0568963178, 0.326075226 , 0.00171340548, 7.894674E-05, 3.03005624  , 1.94        , 3           , 50          , 0           , 0
0.0184038524, -0.0247774422, -9.77231    , -0.00119063514, -0.00285336538, 0.000297955761, -0.516179   , -0.0568963178, 0.326075226 , 0.00170149945, 5.04080381E-05, 3.030059    , 1.95        , 3           , 11          , 0.0426643   , 0.0426643081
-0.00422572251, -0.03164542 , -9.797824   , -8.86447961E-05, 0.002785577 , 0.0005944396, -0.516179   , -0.05716597 , 0.324659556 , 0.0017006133, 7.82536445E-05, 3.0300653   , 1.96        , 3           , 12          , 0.04265987  , 0
-0.00315216 , -0.0212538727, -9.805456   , 0.00302420487, 0.001398757 , -0.000805931, -0.514830768, -0.0568289049, 0.325198859 , 0.00173085462, 9.225502E-05, 3.03005719  , 1.97        , 3           , 14          , 0.000432540284, 0.0004764738
-0.009866914, -0.0153091708, -9.805483   , 0.003033548 , -0.0002906287, 0.0008866902, -0.5161116  , -0.0568963178, 0.326142639 , 0.00176119083, 8.933325E-05, 3.03006577  , 1.98        , 3           , 15          , 0           , -4.058944E-05
0.003123951 , -0.0231646411, -9.795924   , 0.00106738554, -0.00255652051, 0.00030892517, -0.5161116  , -0.0568963178, 0.326142639 , 0.00177186483, 6.376262E-05, 3.030069    , 1.99        , 3           , 50          , 0           , 0
0.0103508672, -0.0295128934, -9.811715   , 0.000206168988, 0.000253399339, 0.000309321273, -0.5161116  , -0.0570985563, 0.324794382 , 0.00177394843, 6.628664E-05, 3.03007245  , 2           , 3           , 11          , 0.04346681  , 0.0434668139
0.01871345  , -0.0196167249, -9.831498   , -0.000641927239, 0.000247665477, -0.0011073167, -0.515033   , -0.0570311435, 0.325131446 , 0.00176752848, 6.878289E-05, 3.030061    , 2.01        , 3           , 12          , 0.04346199  , 0
0.02003524  , -0.0160914958, -9.811133   , -0.00205094717, -0.000325012865, -0.0005496943, -0.516246438, -0.0568963178, 0.326142639 , 0.00174701877, 6.554242E-05, 3.03005576  , 2.02        , 3           , 14          , 0.0004325362, 0.0004764746
-0.00414221827, -0.0271142516, -9.80368    , -0.000915500568, -0.00144363253, -0.000263624825, -0.516246438, -0.0568963178, 0.326142639 , 0.00173786341, 5.11107028E-05, 3.03005338  , 2.03        , 3           , 15          , 0           , -4.059699E-05
0.009263196 , -0.008745507, -9.811185   , -7.051867E-05, -0.0008747701, 0.000588806055, -0.5159768  , -0.05716597 , 0.324726969 , 0.0017371584, 4.235278E-05, 3.030059    , 2.04        , 3           , 50          , 0           , 0
0.00543449167, -0.0155654941, -9.782768   , 0.00275956327, -0.00170035788, 0.00342604844, -0.5149656  , -0.05716597 , 0.325064033 , 0.00176475511, 2.528925E-05, 3.03009343  , 2.05        , 3           , 11          , 0.04346681  , 0.0434668139
-0.006584903, -0.03437413 , -9.78339    , 0.00160543085, 0.0027970334, -0.0002452634, -0.516179   , -0.0566940829, 0.326277465 , 0.00178080937, 5.32638842E-05, 3.03009057  , 2.06        , 3           , 12          , 0.04346199  , 0
-0.00947043 , -0.0158064514, -9.793279   , 0.00218004268, 0.0008298978, -0.000245667063, -0.516179   , -0.0566940829, 0.326277465 , 0.00180260953, 6.156725E-05, 3.03008819  , 2.07        , 3           , 14          , 0.0004325362, 0.0004764746
0.003251452 , -0.01458067 , -9.799503   , -7.412242E-05, -0.000311643875, -0.0008230133, -0.516179   , -0.0573682077, 0.324659556 , 0.00180186809, 5.846564E-05, 3.03008     , 2.08        , 3           , 15          , 0           , -4.059699E-05
0.008909535 , -0.0282251332, -9.787314   , 0.0016076403, 0.00251547247, 0.00116698979, -0.5151004  , -0.0570985563, 0.3254011   , 0.00181794527, 8.35992E-05 , 3.03009152  , 2.09        , 3           , 50          , 0           , 0
-0.00183485064, -0.02130308 , -9.795503   , -6.7238E-05 , -0.00143789593, 0.0014355504, -0.516179   , -0.0570985563, 0.326075226 , 0.00181729067, 6.920486E-05, 3.03010583  , 2.1         , 3           , 11          , 0.0442938432, 0.0442938469
0.0220202077, -0.0252711214, -9.772285   , -7.45343E-05, -3.00720276E-05, 0.000872645061, -0.516179   , -0.0570985563, 0.326075226 , 0.0018165462, 6.888832E-05, 3.030115    , 2.11        , 3           , 12          , 0.0442886055, 0
0.0273249168, -0.03302716 , -9.765497   , 0.00105902879, -0.0008671289, 0.000311536016, -0.516179   , -0.0570311435, 0.324659556 , 0.00182713673, 6.02113723E-05, 3.03011823  , 2.12        , 3           , 14          , 0.000432532979, 0.000476472575
0.00310804322, -0.02451658 , -9.796383   , -0.000915171, -0.00144362892, 0.00030144956, -0.515033   , -0.057233382, 0.325131446 , 0.00181798532, 4.576962E-05, 3.030121    , 2.13        , 3           , 15          , 0           , -4.05966566E-05
0.006693564 , -0.0263742972, -9.7932     , -0.00120226934, -0.000600846, -0.0005461778, -0.5161116  , -0.056761492, 0.326142639 , 0.0018059623, 3.977106E-05, 3.03011537  , 2.14        , 3           , 50          , 0           , 0
-0.0179211982, -0.0391645879, -9.795248   , 0.00219291821, -0.00170418434, 0.000315501937, -0.5161116  , -0.056761492, 0.326142639 , 0.00182789168, 2.27235287E-05, 3.03011823  , 2.15        , 3           , 11          , 0.0442938432, 0.0442938469
-0.0142831719, -0.008023988, -9.809554   , -0.000907133333, -0.0031330213, -0.000266228744, -0.516179   , -0.0573682077, 0.324659556 , 0.00181882014, -8.601783E-06, 3.03011584  , 2.16        , 3           , 12          , 0.0442886055, 0
-0.0107073421, -0.00274794456, -9.781031   , -0.0009148446, -0.00144362741, 0.0008665245, -0.514830768, -0.057233382, 0.325064033 , 0.00180967175, -2.30537553E-05, 3.03012443  , 2.17        , 3           , 14          , 0.000432532979, 0.000476472575
-0.009048414, -0.04968517 , -9.783924   , -0.0009032775, -0.003977718, -0.0008326056, -0.516246438, -0.05696373 , 0.326142639 , 0.00180063944, -6.28158E-05, 3.03011632  , 2.18        , 3           , 15          , 0           , -4.05966566E-05
0.001927076 , -0.0466002673, -9.800098   , -0.00147928332, -0.00172901712, -0.0008317679, -0.516246438, -0.05696373 , 0.326142639 , 0.00178584724, -8.00910348E-05, 3.03010774  , 2.19        , 3           , 50          , 0           , 0
-0.0174948312, -0.004450134, -9.787869   , -0.00317243952, -0.00202204287, -0.000840097258, -0.516313851, -0.05696373 , 0.324726969 , 0.00175418006, -0.000100300778, 3.03009915  , 2.2         , 3           , 11          , 0.0451437458, 0.04514375
-0.003015101, -0.0148939071, -9.818537   , -0.0003588338, 0.0002495798, 2.41560774E-05, -0.514830768, -0.05696373 , 0.325131446 , 0.00175059156, -9.780542E-05, 3.03009963  , 2.21        , 3           , 12          , 0.04513807  , 0
0.01223062  , -0.032603018, -9.83838    , 0.000203231888, 0.0008165301, 2.76578139E-05, -0.516246438, -0.0570985563, 0.326075226 , 0.00175262382, -8.964063E-05, 3.0301      , 2.22        , 3           , 14          , 0.000432522182, 0.0004764734
-0.002072148, -0.00460818876, -9.794532   , -0.00234081945, 0.00108090136, -0.00139644824, -0.516246438, -0.0570985563, 0.326075226 , 0.00172921678, -7.880732E-05, 3.0300858   , 2.23        , 3           , 15          , 0           , -4.06029139E-05
0.0164123736, -0.00667609228, -9.780839   , -8.558674E-05, 0.00194087659, -0.00138461089, -0.5160442  , -0.0573007949, 0.324659556 , 0.00172836194, -5.93746445E-05, 3.030072    , 2.24        , 3           , 50          , 0           , 0
0.0220653154, -0.02478822 , -9.781775   , 0.0007799789, -0.00171373889, -0.0011037637, -0.514830768, -0.0570311435, 0.325266272 , 0.00173616258, -7.64928845E-05, 3.030061    , 2.25        , 3           , 11          , 0.0451437458, 0.04514375
0.00506652426, -0.009242547, -9.783196   , -0.0006443749, 0.000810798432, -0.000541368, -0.5161116  , -0.0568963178, 0.326075226 , 0.00172971911, -6.83755352E-05, 3.03005528  , 2.26        , 3           , 12          , 0.04513807  , 0
0.000665812753, -0.0362395942, -9.790574   , -0.00120037515, -0.000882409629, 0.000301006774, -0.5161116  , -0.0568963178, 0.326075226 , 0.00171771529, -7.72047861E-05, 3.03005862  , 2.27        , 3           , 14          , 0.000432522182, 0.0004764734
-0.00222239736, -0.04884447 , -9.789292   , -0.00261792215, 0.000234301639, 0.0005786953, -0.5160442  , -0.057233382, 0.324726969 , 0.00169153581, -7.48716557E-05, 3.03006434  , 2.28        , 3           , 15          , 0           , -4.06029139E-05
-0.00269587152, -0.0190245956, -9.799115   , -0.00120546168, 0.000243853035, 0.001150355 , -0.5149656  , -0.05716597 , 0.325266272 , 0.00167948031, -7.245251E-05, 3.03007627  , 2.29        , 3           , 50          , 0           , 0
0.00314666936, -0.0226998813, -9.799991   , 0.0007758795, -0.000587468559, 0.00144080829, -0.516246438, -0.0573682077, 0.326142639 , 0.00168728118, -7.83360447E-05, 3.03009057  , 2.3         , 3           , 11          , 0.0460149534, 0.0460149534
-0.0162165463, -0.0170287732, -9.808702   , -0.00316513469, -0.00342986383, -0.0002771929, -0.516246438, -0.0573682077, 0.326142639 , 0.00165563007, -0.000112630019, 3.03008771  , 2.31        , 3           , 12          , 0.046008803 , 0
0.00456725247, -0.0217727087, -9.81218    , -0.004306899, -0.0009034155, 0.000569057 , -0.516179   , -0.05716597 , 0.324659556 , 0.00161256047, -0.000121673467, 3.03009343  , 2.32        , 3           , 14          , 0.0004325139, 0.000476470421
0.0298045967, -0.0261836611, -9.796185   , -0.00120701059, 0.0005254203, 0.0008682505, -0.515033   , -0.057233382, 0.325131446 , 0.00160048937, -0.000116433221, 3.030102    , 2.33        , 3           , 15          , 0           , -4.06019244E-05
0.006207619 , -0.0232713968, -9.775109   , 0.00105158833, 0.0005406961, -0.0005339013, -0.5160442  , -0.0568963178, 0.326075226 , 0.00161100586, -0.000111017682, 3.03009629  , 2.34        , 3           , 50          , 0           , 0
0.0170864128, -0.0198184885, -9.766425   , -0.0014854928, -0.000602757733, -0.001960177, -0.5160442  , -0.0568963178, 0.326075226 , 0.00159615313, -0.000117013828, 3.03007722  , 2.35        , 3           , 11          , 0.0460149534, 0.0460149534
-0.000938314945, 0.00404678937, -9.82251    , -0.00261554075, -4.72557149E-05, 0.0022734853, -0.5159768  , -0.0573007949, 0.324659556 , 0.00156999507, -0.000117522388, 3.03009963  , 2.36        , 3           , 12          , 0.046008803 , 0
0.003008889 , 0.00255629327, -9.795818   , -7.30324246E-05, -0.0005932063, -0.00138851721, -0.5148982  , -0.05696373 , 0.325064033 , 0.00156926631, -0.000123432663, 3.0300858   , 2.37        , 3           , 14          , 0.0004325139, 0.000476470421
0.0133752581, -0.02654323 , -9.76648    , -0.00431747269, 0.00106753607, -0.000840592664, -0.516246438, -0.0568963178, 0.326344877 , 0.00152609264, -0.0001127443, 3.03007722  , 2.38        , 3           , 15          , 0           , -4.06019244E-05
0.009917595 , -0.023242861, -9.796326   , -0.0003598932, 0.000531149446, 0.000589663745, -0.516246438, -0.0568963178, 0.326344877 , 0.0015224932, -0.000107441781, 3.030083    , 2.39        , 3           , 50          , 0           , 0
0.006703874 , -0.0250268914, -9.791385   , 0.0007631737, 0.00194662542, 0.00116218766, -0.516313851, -0.05716597 , 0.324457318 , 0.0015301411, -8.794761E-05, 3.03009534  , 2.4         , 3           , 11          , 0.04690598  , 0.04690598
0.008782196 , -0.006531299, -9.797169   , 0.00132737472, 0.00195044221, 3.46718552E-05, -0.5148982  , -0.0570311435, 0.325198859 , 0.00154341478, -6.84437546E-05, 3.03009534  , 2.41        , 3           , 12          , 0.0468993261, 0
0.0102908667, 0.00517965853, -9.796204   , 0.00021374294, -0.00143598206, -0.001105953, -0.516246438, -0.056761492, 0.326075226 , 0.001545553 , -8.27864642E-05, 3.03008437  , 2.42        , 3           , 14          , 0.000432510569, 0.000476461631
-0.005804348, -0.0171525422, -9.808171   , 0.000500514871, -0.00227876659, -0.0008234005, -0.516246438, -0.056761492, 0.326075226 , 0.00155055884, -0.000105561376, 3.03007627  , 2.43        , 3           , 15          , 0           , -4.06134823E-05
0.007277026 , -0.01600767 , -9.791796   , -0.000343488122, -0.002847624, 1.939337E-05, -0.5159768  , -0.05696373 , 0.324659556 , 0.00154712389, -0.000134037866, 3.03007627  , 2.44        , 3           , 50          , 0           , 0
0.00476447958, -0.0371610075, -9.799133   , 0.0002180881, -0.0022806765, -0.000824717456, -0.514830768, -0.0573007949, 0.325333685 , 0.00154930609, -0.00015683184, 3.03006768  , 2.45        , 3           , 11          , 0.04690598  , 0.04690598
0.00695066061, -0.011436414, -9.80805    , 0.00104880356, 0.00110383506, -0.00053302187, -0.5165161  , -0.0570311435, 0.326142639 , 0.001559795 , -0.000145785234, 3.030063    , 2.46        , 3           , 12          , 0.0468993261, 0
0.0103970272, -0.0174240358, -9.784094   , 0.00106929871, -0.0028380712, 0.00115612766, -0.5165161  , -0.0570311435, 0.326142639 , 0.00157048611, -0.000174183981, 3.03007436  , 2.47        , 3           , 14          , 0.000432510569, 0.000476461631
-0.00409857929, -0.0159201343, -9.778323   , 0.000216279 , -0.00171754172, 0.000871375145, -0.516179   , -0.05696373 , 0.324794382 , 0.00157264736, -0.000191373038, 3.030083    , 2.48        , 3           , 15          , 0           , -4.06134823E-05
-0.009300276, -0.0401437022, -9.802418   , -0.00150214322, 0.00305760419, 0.000588313 , -0.514763355, -0.05716597 , 0.325333685 , 0.00155762478, -0.000160806245, 3.03008866  , 2.49        , 3           , 50          , 0           , 0
-0.00219552033, -0.04525189 , -9.784306   , -0.002882046, -0.003427937, 0.000854284561, -0.516179   , -0.0568289049, 0.326075226 , 0.00152883364, -0.000195074012, 3.03009725  , 2.5         , 3           , 11          , 0.04781543  , 0.04781544
-0.000654377043, -0.0299438164, -9.77971    , -0.00317718182, -0.000895762059, 0.0005743355, -0.516179   , -0.0568289049, 0.326075226 , 0.00149706053, -0.00020404032, 3.030103    , 2.51        , 3           , 12          , 0.04780825  , 0
-0.00747139 , -0.0312235821, -9.77796    , -0.000625582761, -0.00284952763, 0.000583150366, -0.516179   , -0.057233382, 0.324457318 , 0.00149080355, -0.000232544277, 3.03010869  , 2.52        , 3           , 14          , 0.000432504661, 0.0004764569
-0.000290039, -0.0335916  , -9.769778   , -0.000647308538, 0.00137394434, -0.000823027862, -0.5151004  , -0.0570311435, 0.325198859 , 0.00148433214, -0.000218792629, 3.03010058  , 2.53        , 3           , 15          , 0           , -4.061271E-05
-0.002926617, -0.036172878, -9.79783249 , 0.000775488 , -0.000869028736, -0.00166752713, -0.516313851, -0.0570311435, 0.326075226 , 0.00149209064, -0.000227458077, 3.030084    , 2.54        , 3           , 50          , 0           , 0
-0.00283623952, -0.0222627819, -9.775175   , 0.0004922311, -0.000307799142, 0.00172247365, -0.516313851, -0.0570311435, 0.326075226 , 0.00149700907, -0.000230561825, 3.030101    , 2.55        , 3           , 11          , 0.04781543  , 0.04781544
0.0042428216, -0.00693382462, -9.795849   , 0.0007653149, 0.00138349668, 3.11693475E-05, -0.5159768  , -0.0570985563, 0.324592143 , 0.00150466221, -0.00021672732, 3.030101    , 2.56        , 3           , 12          , 0.04780825  , 0
-0.00439306162, -0.0411543734, -9.787469   , -0.0006530477, 0.00250020414, -0.00110382948, -0.5149656  , -0.05696373 , 0.325333685 , 0.00149813388, -0.000191708736, 3.03009057  , 2.57        , 3           , 14          , 0.000432504661, 0.0004764569
0.00645496  , -0.0114658717, -9.797659   , -0.000369642, 0.002502119 , 0.0005927121, -0.516246438, -0.0573682077, 0.326210052 , 0.00149443641, -0.000166696438, 3.03009629  , 2.58        , 3           , 15          , 0           , -4.061271E-05
0.008140925 , -0.0245327186, -9.808999   , -0.001495983, 0.00164977973, -0.0008265447, -0.516246438, -0.0573682077, 0.326210052 , 0.00147947785, -0.000150186344, 3.03008771  , 2.59        , 3           , 50          , 0           , 0
0.0021400163, -0.02321751 , -9.776949   , 0.000204002514, 0.0005349819, -0.00110291759, -0.5160442  , -0.05743562 , 0.32452473  , 0.0014815809, -0.0001448014, 3.03007722  , 2.6         , 3           , 11          , 0.0487420075, 0.0487420075
-0.00334676914, -0.00229264051, -9.807638   , 0.0018833928, 0.003643659 , -0.000807705335, -0.5148982  , -0.0573007949, 0.325131446 , 0.00150041573, -0.000108352811, 3.030069    , 2.61        , 3           , 12          , 0.04873425  , 0
-0.00534793176, -0.0198330171, -9.817671   , 0.00134395738, -0.00142833148, -0.000253074977, -0.516381264, -0.0568963178, 0.3260078   , 0.00151385565, -0.000122632307, 3.03006673  , 2.62        , 3           , 14          , 0.000432492961, 0.000476453279
0.006764763 , -0.0182823017, -9.784577   , -0.0003565948, -3.19611281E-05, 0.00143641781, -0.516381264, -0.0568963178, 0.3260078   , 0.00151028787, -0.000122973637, 3.030081    , 2.63        , 3           , 15          , 0           , -4.061134E-05
0.0110430121, -0.04085522 , -9.795938   , -0.000347163063, -0.00200291839, 0.000868305331, -0.5159768  , -0.057233382, 0.324592143 , 0.001506815 , -0.0001430159, 3.03008962  , 2.64        , 3           , 50          , 0           , 0
0.00481194723, -0.06606118 , -9.792925   , -7.03122641E-05, -0.000874748046, 0.000871358 , -0.515033   , -0.05716597 , 0.325198859 , 0.00150611054, -0.0001517765, 3.0300982   , 2.65        , 3           , 11          , 0.0487420075, 0.0487420075
0.00320284069, -0.0172981676, -9.796351   , 0.0004928211, -0.000589364558, 0.000309350755, -0.516313851, -0.0570311435, 0.326142639 , 0.00151103828, -0.0001576748, 3.030101    , 2.66        , 3           , 12          , 0.04873425  , 0
0.00555904768, -0.0110010616, -9.798568   , 0.0007727861, -2.43228278E-05, 0.000876610458, -0.516313851, -0.0570311435, 0.326142639 , 0.00151876488, -0.000157931325, 3.03011012  , 2.67        , 3           , 14          , 0.000432492961, 0.000476453279
-0.0157478526, -0.0156821422, -9.808241   , 0.00246358034, 0.000550262339, -0.000809844641, -0.5160442  , -0.05716597 , 0.324592143 , 0.00154340186, -0.000152416309, 3.030102    , 2.68        , 3           , 15          , 0           , -4.061134E-05
0.009759062 , -0.0385472327, -9.806786   , 0.00246553821, 0.000550271769, 0.002580605 , -0.5148982  , -0.0573007949, 0.325198859 , 0.0015680535, -0.000146953767, 3.03012776  , 2.69        , 3           , 50          , 0           , 0
0.00192975812, -0.01542772 , -9.81127    , -0.000352236617, -0.000876651669, 0.00171764859, -0.516381264, -0.05716597 , 0.326210052 , 0.0015645969, -0.0001557265, 3.030145    , 2.7         , 3           , 11          , 0.0496844649, 0.0496844724
0.00059811864, -0.042097   , -9.792859   , 0.001067446 , -0.002556496, 0.000308942166, -0.516381264, -0.05716597 , 0.326210052 , 0.0015752709, -0.000181296331, 3.03014779  , 2.71        , 3           , 12          , 0.0496761   , 0
0.018541893 , -0.0170776322, -9.781319   , 0.00133511692, 0.000261060515, -0.0010980888, -0.515774548, -0.05743562 , 0.32452473  , 0.0015886242, -0.0001786683, 3.0301373   , 2.72        , 3           , 14          , 0.000432479923, 0.00047644935
-0.002408362, -0.023180984, -9.772011   , -0.000367570639, 0.00222056452, 0.00172242185, -0.515033   , -0.057233382, 0.325266272 , 0.0015849456, -0.00015649 , 3.03015447  , 2.73        , 3           , 15          , 0           , -4.06064173E-05
-0.017003024, -0.0347015075, -9.783922   , -0.003167399, -0.00286670984, 0.0005712917, -0.5165835  , -0.0568963178, 0.326075226 , 0.00155327062, -0.00018516602, 3.03016019  , 2.74        , 3           , 50          , 0           , 0
-0.0133694177, -0.039644707, -9.802447   , 0.000497994944, -0.0014340512, 0.002003269 , -0.5165835  , -0.0568963178, 0.326075226 , 0.00155824679, -0.000199537666, 3.03018022  , 2.75        , 3           , 11          , 0.0496844649, 0.0496844724
0.0141766928, -0.0164463352, -9.819315   , -0.001481855, -0.00116586289, -0.0005483528, -0.516179   , -0.0573682077, 0.32452473  , 0.00154342933, -0.000211187784, 3.03017449  , 2.76        , 3           , 12          , 0.0496761   , 0
-0.0020299824, -0.00814483 , -9.816241   , 0.0004977576, -0.00171562424, -0.0008225397, -0.514763355, -0.057233382, 0.325198859 , 0.00154840888, -0.000228331279, 3.030166    , 2.77        , 3           , 14          , 0.000432479923, 0.00047644935
-0.0155525226, -0.023484027, -9.770306   , 0.0009158592, -0.000445712765, 0.0004528071, -0.516381264, -0.0573007949, 0.326142639 , 0.00155756646, -0.000232795428, 3.03017068  , 2.78        , 3           , 15          , 0           , -4.06064173E-05
0.000855837 , -0.0186779555, -9.780555   , 0.001058956 , -0.0007263205, 0.0013006439, -0.516381264, -0.0573007949, 0.326142639 , 0.001568153 , -0.000240078982, 3.030184    , 2.79        , 3           , 50          , 0           , 0
0.0005547069, -0.0127471909, -9.798614   , 0.0002139389, -0.00115439657, 0.00157857884, -0.5160442  , -0.0573682077, 0.324457318 , 0.00157033885, -0.0002516445, 3.03019929  , 2.8         , 3           , 11          , 0.05064166  , 0.05064166
-0.00274887122, -0.0226383414, -9.797775   , -0.0014826688, -0.000884294452, 0.0004409614, -0.515033   , -0.0570311435, 0.3254011   , 0.00155551091, -0.000260494417, 3.030204    , 2.81        , 3           , 12          , 0.05063264  , 0
-0.008715375, -0.0329003632, -9.811422   , -0.002468004, -0.00159489375, -0.000129807726, -0.5164487  , -0.057233382, 0.3260078   , 0.00153083121, -0.0002764413, 3.03020215  , 2.82        , 3           , 14          , 0.000432470464, 0.000476448738
0.0184558965, -0.0300914757, -9.802164   , -0.00204313267, -0.00187359459, -0.0004108037, -0.5164487  , -0.057233382, 0.3260078   , 0.001510401 , -0.000295171048, 3.03019834  , 2.83        , 3           , 15          , 0           , -4.06055333E-05
-0.0066242516, -0.00457468629, -9.788691   , -0.000209041173, -0.00143883016, 0.000304750982, -0.5161116  , -0.0573007949, 0.324457318 , 0.00150830974, -0.000309563882, 3.0302012   , 2.84        , 3           , 50          , 0           , 0
0.00134603679, -0.0159748457, -9.78099251 , 0.0003490871, -2.71837052E-05, 0.0007333607, -0.5148982  , -0.0570985563, 0.325333685 , 0.00151179847, -0.00030984683, 3.03020883  , 2.85        , 3           , 11          , 0.05064166  , 0.05064166
0.00111394469, -0.009988155, -9.815773   , -0.00275682984, -0.0001889755, 0.000859926164, -0.5161116  , -0.057233382, 0.326142639 , 0.0014842276, -0.000311749463, 3.03021741  , 2.86        , 3           , 12          , 0.05063264  , 0
0.00597386248, -0.0119298492, -9.79224    , -0.00233659288, 0.0005178026, 0.00100425514, -0.5161116  , -0.057233382, 0.326142639 , 0.0014608585, -0.0003065862, 3.03022742  , 2.87        , 3           , 14          , 0.000432470464, 0.000476448738
0.0119333295, -0.0413245633, -9.793673   , -8.233914E-05, 0.00137777289, -0.0006791324, -0.5159768  , -0.0573007949, 0.3243899   , 0.00146003719, -0.000292798621, 3.03022027  , 2.88        , 3           , 15          , 0           , -4.06055333E-05
-0.00153925922, 0.000361251645, -9.798122   , -0.0007763126, -0.00102030416, -0.000262307032, -0.514830768, -0.0570985563, 0.325198859 , 0.00145227462, -0.000302997767, 3.030218    , 2.89        , 3           , 50          , 0           , 0
-0.0051998375, -0.0009663091, -9.793184   , -0.003316347, -0.00131905079, 0.000431750872, -0.516313851, -0.0573007949, 0.325873    , 0.00141913537, -0.000316160935, 3.03022218  , 2.9         , 3           , 11          , 0.0516124964, 0.0516124964
0.0146734426, -0.004810918, -9.792596   , -0.00204866659, -0.0006065419, 0.000862568151, -0.516313851, -0.0573007949, 0.325873    , 0.00139864592, -0.0003222384, 3.03023076  , 2.91        , 3           , 12          , 0.05160279  , 0
-0.0104677239, -0.023904454, -9.796936   , -0.000217400724, 0.000250566663, 0.000307355047, -0.5161116  , -0.0573682077, 0.324457318 , 0.001396471 , -0.000319737068, 3.03023362  , 2.92        , 3           , 14          , 0.000432465662, 0.000476442423
-0.00382459629, -0.0410659462, -9.815487   , -0.00148786919, 0.000101188067, -0.000122594342, -0.5151004  , -0.0573007949, 0.3254685   , 0.00138159271, -0.000318723469, 3.03023267  , 2.93        , 3           , 15          , 0           , -4.06060572E-05
0.0235679653, -0.0162065923, -9.7894125  , -0.00105840818, -0.00102220615, 0.000301451568, -0.516313851, -0.0568289049, 0.326075226 , 0.00137100776, -0.000328949682, 3.03023553  , 2.94        , 3           , 50          , 0           , 0
-0.008009221, -0.0353043266, -9.770297   , 0.00203820225, 0.000969757268, -0.0002460995, -0.516313851, -0.0568289049, 0.326075226 , 0.00139139045, -0.000319248764, 3.03023362  , 2.95        , 3           , 11          , 0.0516124964, 0.0516124964
0.0216001235, -0.0239002574, -9.775898   , 0.00160587172, 0.00265628146, -0.000810546335, -0.516179   , -0.05716597 , 0.324659556 , 0.00140745169, -0.00029267458, 3.030225    , 2.96        , 3           , 12          , 0.05160279  , 0
-0.008186578, -0.0207926258, -9.791029   , -0.000503594463, 0.000811782142, -0.001388319, -0.5149656  , -0.0573007949, 0.3254685   , 0.00140241964, -0.0002845373, 3.03021169  , 2.97        , 3           , 14          , 0.000432465662, 0.000476442423
-0.00194972008, -0.0330012664, -9.805044   , -0.00177349173, 0.0006624064, -0.000829387049, -0.516313851, -0.05696373 , 0.326210052 , 0.001384687 , -0.00027790165, 3.030203    , 2.98        , 3           , 15          , 0           , -4.06060572E-05
-0.00169560034, -0.0144949853, -9.807676   , -0.00136170082, 0.0030585744, -0.0008237232, -0.516313851, -0.05696373 , 0.326210052 , 0.00137107237, -0.000247304677, 3.03019452  , 2.99        , 3           , 50          , 0           , 0
0.00123555958, -0.02677678 , -9.788723   , 0.00104394369, 0.00194855116, -0.00180313445, -0.5160442  , -0.057233382, 0.32452473  , 0.00138157629, -0.000227766155, 3.03017688  , 3           , 3           , 11          , 0.052595973 , 0.05259597
0.007544599 , -0.02955357 , -9.790042   , -0.0005003056, 0.000248659548, -0.0005415626, -0.514830768, -0.0568963178, 0.3254011   , 0.00137657451, -0.000225272, 3.03017163  , 3.01        , 3           , 12          , 0.0525855236, 0
0.01904001  , -0.0188316181, -9.798045   , -0.00134886138, 0.000665281143, 0.000867824769, -0.5165161  , -0.05696373 , 0.326075226 , 0.001363084 , -0.000218631089, 3.03018022  , 3.02        , 3           , 14          , 0.000432454341, 0.000476437126
-0.00448242947, -0.0185370632, -9.803647   , -0.000644433, 0.00095162  , 0.000447744853, -0.5165161  , -0.05696373 , 0.326075226 , 0.00135663862, -0.000209120975, 3.030185    , 3.03        , 3           , 15          , 0           , -4.06178042E-05
-0.005093092, -0.0329428874, -9.811395   , 0.0007593   , 0.00250977441, -0.0008147025, -0.5159768  , -0.0573007949, 0.324659556 , 0.00136423321, -0.000184012169, 3.0301764   , 3.04        , 3           , 50          , 0           , 0
-0.016316317, -0.0157705713, -9.780224   , 0.00174886163, 0.00223489269, -0.00137560209, -0.5151004  , -0.05696373 , 0.325535923 , 0.001381724 , -0.0001616444, 3.030163    , 3.05        , 3           , 11          , 0.052595973 , 0.05259597
-0.0187760331, -0.00347897527, -9.803694   , -7.76070447E-05, 0.000392305868, -0.000963176368, -0.516313851, -0.0570985563, 0.326210052 , 0.00138094928, -0.000157708011, 3.03015351  , 3.06        , 3           , 12          , 0.0525855236, 0
-0.003664095, -0.0230818838, -9.796881   , -7.502668E-05, -3.003933E-05, -0.000116214869, -0.516313851, -0.0570985563, 0.326210052 , 0.00138019922, -0.0001580068, 3.030152    , 3.07        , 3           , 14          , 0.000432454341, 0.000476437126
0.00847341  , -0.02329646 , -9.775545   , -0.000211568666, -0.0008756873, 0.0007294372, -0.515774548, -0.05716597 , 0.324659556 , 0.00137808255, -0.000166773738, 3.03015924  , 3.08        , 3           , 15          , 0           , -4.06178042E-05
0.0154150845, -0.0147740887, -9.784497   , -7.15416754E-05, -0.0007339521, -0.000117299736, -0.514763355, -0.05696373 , 0.325266272 , 0.00137736718, -0.000174111658, 3.03015828  , 3.09        , 3           , 50          , 0           , 0
0.0147851026, -0.0300882589, -9.79044    , 0.00147918949, -0.0001603126, 0.000173355511, -0.5164487  , -0.057233382, 0.326075226 , 0.00139220466, -0.000175697292, 3.03016019  , 3.1         , 3           , 11          , 0.0535911322, 0.0535911359
0.00621200772, -0.0223751422, -9.773298   , 0.00119840133, -0.000443786441, 0.0005954109, -0.5164487  , -0.057233382, 0.326075226 , 0.00140418764, -0.000180143485, 3.030166    , 3.11        , 3           , 12          , 0.0535799079, 0
0.00148708746, -0.03676488 , -9.771586   , 0.000771972933, 0.000116478695, 0.0005943033, -0.5159094  , -0.0575704463, 0.324592143 , 0.00141190621, -0.000178987015, 3.03017163  , 3.12        , 3           , 14          , 0.000432445871, 0.00047643343
0.0195744745, -0.03922872 , -9.772814   , 0.000483599521, 0.0013816132, 0.001160014 , -0.515167832, -0.05743562 , 0.325266272 , 0.00141674012, -0.0001651873, 3.030183    , 3.13        , 3           , 15          , 0           , -4.062458E-05
0.00508003775, -0.0136951  , -9.800841   , -0.00163353363, 0.00108572189, 0.0005846282, -0.516313851, -0.0568963178, 0.3259404   , 0.00140040379, -0.0001543384, 3.03018928  , 3.14        , 3           , 50          , 0           , 0
-0.007881755, -0.00179891766, -9.804507   , -0.00176732487, -0.0004638423, 0.000157776871, -0.516313851, -0.0568963178, 0.3259404   , 0.0013827302, -0.000158979, 3.03019071  , 3.15        , 3           , 11          , 0.0535911322, 0.0535911359
-0.0170844048, -0.006275176, -9.783354   , 0.0003449738, 0.000676741241, -0.0003956854, -0.5159094  , -0.05743562 , 0.324592143 , 0.00138618052, -0.000152206136, 3.030187    , 3.16        , 3           , 12          , 0.0535799079, 0
0.000101268291, -0.0136351157, -9.80133152 , 0.00189196679, 0.00195428869, -0.000527758151, -0.5149656  , -0.05716597 , 0.325333685 , 0.00140510092, -0.000132655987, 3.03018165  , 3.17        , 3           , 14          , 0.000432445871, 0.00047643343
0.0100645078, -0.0110723628, -9.793109   , 0.00189602294, 0.00125037867, 0.0004600381, -0.516313851, -0.0568963178, 0.3260078   , 0.00142406067, -0.000120158744, 3.030186    , 3.18        , 3           , 15          , 0           , -4.062458E-05
-0.009028613, -0.0180524085, -9.797803   , 0.0010604281, -0.00114865531, 0.0001698614, -0.516313851, -0.0568963178, 0.3260078   , 0.00143466482, -0.0001316477, 3.03018785  , 3.19        , 3           , 50          , 0           , 0
-0.0173763037, -0.00301503763, -9.812269   , 0.00134835334, -0.0022730038, 2.81880839E-05, -0.5160442  , -0.057233382, 0.3243899   , 0.00144816993, -0.000154367415, 3.03018832  , 3.2         , 3           , 11          , 0.0545971021, 0.0545971058
0.0221981145, -0.0242342614, -9.812507   , 0.003028648 , 0.000554105267, -0.000524646, -0.5146285  , -0.0568963178, 0.325333685 , 0.00147845724, -0.000148818624, 3.030183    , 3.21        , 3           , 12          , 0.0545850471, 0
-0.008283244, -0.028012557, -9.790608   , 0.00372299179, 0.00281139812, -0.00150676339, -0.5165835  , -0.05696373 , 0.3260078   , 0.00151568931, -0.000120682089, 3.03016782  , 3.22        , 3           , 14          , 0.0004324419, 0.000476431422
-0.0107484227, -0.0206352454, -9.828563   , 0.001751128 , 0.00181255152, -0.00109369436, -0.5165835  , -0.05696373 , 0.3260078   , 0.00153320166, -0.0001025399, 3.03015733  , 3.23        , 3           , 15          , 0           , -4.06388644E-05
0.0137100639, -0.0124350851, -9.803031   , 0.00133502879, 0.000401863741, -0.000108958367, -0.515774548, -0.0573007949, 0.324457318 , 0.001546552 , -9.851962E-05, 3.03015637  , 3.24        , 3           , 50          , 0           , 0
-0.0125582889, -0.0112395883, -9.798707   , 0.000917824858, -0.000868043338, 0.000169651074, -0.514695942, -0.05716597 , 0.325131446 , 0.00155573  , -0.000107202686, 3.0301578   , 3.25        , 3           , 11          , 0.0545971021, 0.0545971058
0.007448683 , -0.0158685781, -9.833376   , -7.255257E-05, -0.00059316546, -0.000682136568, -0.516246438, -0.0570985563, 0.326075226 , 0.00155500532, -0.000113123737, 3.03015065  , 3.26        , 3           , 12          , 0.0545850471, 0
0.008136635 , -0.0227507968, -9.802212   , -0.00191218243, 0.00023911662, -0.000124320009, -0.516246438, -0.0570985563, 0.326075226 , 0.00153588376, -0.00011073058, 3.0301497   , 3.27        , 3           , 14          , 0.0004324419, 0.000476431422
0.008617279 , -0.0178236887, -9.793149   , -0.00289481832, -0.00075304124, 0.001564777 , -0.5156397  , -0.0570985563, 0.32452473  , 0.00150693336, -0.000118284705, 3.030165    , 3.28        , 3           , 15          , 0           , -4.06388644E-05
-0.0101298708, -0.00309858075, -9.812666   , -0.0004951323, -0.0005960252, 0.00115238177, -0.514763355, -0.05716597 , 0.325131446 , 0.00150198082, -0.000124262267, 3.03017688  , 3.29        , 3           , 50          , 0           , 0
0.00071939826, 0.000776756031, -9.795391   , -0.000775259861, -0.00116106542, 0.0003025824, -0.516313851, -0.0570985563, 0.325873    , 0.00149423163, -0.000135864684, 3.03017974  , 3.3         , 3           , 11          , 0.0556130558, 0.0556130521
-0.008302783, -0.0266893432, -9.781564   , -0.00176227826, -0.001449315, 0.000438807823, -0.516313851, -0.0570985563, 0.325873    , 0.00147660822, -0.000150364343, 3.030184    , 3.31        , 3           , 12          , 0.05560011  , 0
-0.0202507265, -0.0472254679, -9.805243   , 0.00147415174, 0.0008251689, -0.000107650834, -0.515707135, -0.0573007949, 0.3243225   , 0.00149135  , -0.0001421111, 3.030183    , 3.32        , 3           , 14          , 0.000432441215, 0.0004764291
-0.03302361 , -0.0141977482, -9.787124   , 0.004009884 , 0.00210940256, 0.00018869176, -0.5148982  , -0.0570985563, 0.3254011   , 0.00153144856, -0.00012102 , 3.030185    , 3.33        , 3           , 15          , 0           , -4.063694E-05
-0.0122188609, -0.0158002656, -9.785617   , 0.000763124437, 0.00180587149, -0.00025069312, -0.5161116  , -0.05716597 , 0.325805575 , 0.00153907994, -0.00010295742, 3.0301826   , 3.34        , 3           , 50          , 0           , 0
0.00193479937, -0.0136382328, -9.806742   , -0.0010687944, 0.0009487597, -0.000825629861, -0.5161116  , -0.05716597 , 0.325805575 , 0.001528393 , -9.34572E-05, 3.03017449  , 3.35        , 3           , 11          , 0.0556130558, 0.0556130521
-0.00540125929, -0.0238933768, -9.817688   , -0.000213439, -0.000594116456, -0.000117721975, -0.515707135, -0.0573682077, 0.3243899   , 0.00152625854, -9.939655E-05, 3.030173    , 3.36        , 3           , 12          , 0.05560011  , 0
-0.003017297, -0.0153420307, -9.819442   , -0.00260996656, -0.00145504682, -0.000271486468, -0.514763355, -0.0573007949, 0.325266272 , 0.00150015915, -0.000113942879, 3.03017068  , 3.37        , 3           , 14          , 0.000432441215, 0.0004764291
-0.0156407747, -0.00443662144, -9.79825    , -0.00303368829, -0.00145791215, -0.000414730632, -0.516313851, -0.0570985563, 0.3259404   , 0.00146982272, -0.000128515821, 3.030166    , 3.38        , 3           , 15          , 0           , -4.063694E-05
0.00522129331, -0.0291287489, -9.774238   , -0.0009172518, -0.00102123816, 0.000160872136, -0.516313851, -0.0570985563, 0.3259404   , 0.00146065012, -0.000138730538, 3.03016782  , 3.39        , 3           , 50          , 0           , 0
0.007953814 , -0.03048689 , -9.782358   , -0.000638794, -0.000315424433, -0.000684331, -0.515707135, -0.0573007949, 0.324255079 , 0.00145429408, -0.00014191115, 3.03016114  , 3.4         , 3           , 11          , 0.05663821  , 0.0566382073
0.01707119  , -0.0278651286, -9.788606   , -0.0004994268, 0.000107879285, -0.000259215361, -0.514830768, -0.0570311435, 0.325266272 , 0.00144930021, -0.000140828575, 3.03015828  , 3.41        , 3           , 12          , 0.0566243269, 0
-0.005646076, -0.0348041579, -9.792876   , 0.00189681165, 0.00110959425, 0.0006011098, -0.516313851, -0.057233382, 0.325670749 , 0.00146826752, -0.000129741355, 3.03016448  , 3.42        , 3           , 14          , 0.000432435656, 0.000476435642
-0.00636051036, -0.0208017919, -9.794632   , 0.00147370517, 0.000965946063, 0.000316379941, -0.516313851, -0.057233382, 0.325670749 , 0.00148300419, -0.000120086617, 3.03016782  , 3.43        , 3           , 15          , 0           , -4.06445E-05
0.000470743515, -0.0128152361, -9.778275   , 0.000916518737, -0.0005864819, 0.0003113594, -0.515707135, -0.0575030334, 0.324255079 , 0.001492169 , -0.000125956023, 3.03017068  , 3.44        , 3           , 50          , 0           , 0
-0.0108862985, -0.0153907575, -9.77792    , 0.0009139382, -0.0001641367, -0.0005356021, -0.514695942, -0.05696373 , 0.325198859 , 0.0015013091, -0.00012758933, 3.03016543  , 3.45        , 3           , 11          , 0.05663821  , 0.0566382073
-0.005129559, -0.0267235283, -9.782443   , -7.943474E-05, 0.0008146561, -0.0005386925, -0.516381264, -0.0568963178, 0.325738162 , 0.0015005155, -0.000119434721, 3.03016019  , 3.46        , 3           , 12          , 0.0566243269, 0
0.0122379242, -0.02009929 , -9.799911   , 6.62054E-05 , -2.90829121E-05, -0.000115529627, -0.516381264, -0.0568963178, 0.325738162 , 0.00150117767, -0.000119723823, 3.03015876  , 3.47        , 3           , 14          , 0.000432435656, 0.000476435642
0.00679110968, -0.0204927027, -9.798145   , 7.210771E-05, -0.00115534174, 0.000447809551, -0.515707135, -0.0575030334, 0.324187666 , 0.00150189828, -0.000131283945, 3.030163    , 3.48        , 3           , 15          , 0           , -4.06445E-05
-0.00185953721, -0.0244475286, -9.799583   , 0.0009134859, -2.3352959E-05, -0.000111578862, -0.514695942, -0.0570985563, 0.3254011   , 0.00151103328, -0.000131515771, 3.030162    , 3.49        , 3           , 50          , 0           , 0
0.003536215 , -0.0174002387, -9.767423   , -0.0002290834, 0.00250309287, -0.000678015931, -0.516179   , -0.0568963178, 0.3260078   , 0.001508801 , -0.000106464206, 3.03015542  , 3.5         , 3           , 11          , 0.057671845 , 0.057671845
0.031107435 , -0.0307080932, -9.797098   , -0.00107099535, 0.00151188753, 0.000164126875, -0.516179   , -0.0568963178, 0.3260078   , 0.001498091 , -9.134781E-05, 3.03015733  , 3.51        , 3           , 12          , 0.05765697  , 0
0.02468313  , -0.00756673142, -9.812871   , -0.000633867458, -0.00116011431, 0.000585786 , -0.515707135, -0.0573682077, 0.324187666 , 0.00149175175, -0.000102957689, 3.030163    , 3.52        , 3           , 14          , 0.000432425382, 0.000476433779
0.0105520906, -0.0119421873, -9.804409   , -0.0004963838, -0.000455247849, 0.000163723176, -0.514830768, -0.0570311435, 0.325131446 , 0.00148678781, -0.000107512606, 3.03016448  , 3.53        , 3           , 15          , 0           , -4.06447034E-05
0.000559777953, -0.0185456425, -9.818523   , -0.0006462876, 0.00123318622, -0.0003994065, -0.5164487  , -0.0568289049, 0.325738162 , 0.00148032524, -9.517483E-05, 3.03016067  , 3.54        , 3           , 50          , 0           , 0
0.0004581418, -0.0172889456, -9.789593   , -0.00050228613, 0.000671011047, -0.000399615936, -0.5164487  , -0.0568289049, 0.325738162 , 0.00147530285, -8.84588444E-05, 3.03015637  , 3.55        , 3           , 11          , 0.057671845 , 0.057671845
0.013957765 , -0.02510438 , -9.793591   , -0.001201917, -0.00060080603, -0.000122323487, -0.5155049  , -0.0573007949, 0.324187666 , 0.00146328367, -9.446507E-05, 3.03015542  , 3.56        , 3           , 12          , 0.05765697  , 0
-0.005800522, -0.0144713325, -9.800476   , -0.0030397824, -0.000190873252, -0.000130232656, -0.5145611  , -0.0570985563, 0.325131446 , 0.00143288611, -9.6371914E-05, 3.030154    , 3.57        , 3           , 14          , 0.000432425382, 0.000476433779
0.009351781 , -0.02734629 , -9.781883   , -0.00148610852, -0.000180366857, 0.000442085322, -0.516381264, -0.0568963178, 0.325603336 , 0.00141802442, -9.818183E-05, 3.03015828  , 3.58        , 3           , 15          , 0           , -4.06447034E-05
0.02671255  , -0.0171566848, -9.786227   , 0.002318905 , 0.00139402552, 0.0003209818, -0.516381264, -0.0568963178, 0.325603336 , 0.00144121319, -8.42461159E-05, 3.03016162  , 3.59        , 3           , 50          , 0           , 0
-0.00324181654, -0.02400462 , -9.792361   , 0.00414821459, 0.00253271218, -0.00122266193, -0.515707135, -0.057233382, 0.324187666 , 0.00148274482, -5.881235E-05, 3.0301497   , 3.6         , 3           , 11          , 0.0587132946, 0.0587132946
-0.0147680715, -0.036090605, -9.7811985  , 0.00190351845, -0.000439000927, -0.001096485, -0.514830768, -0.057233382, 0.32499662  , 0.00150178059, -6.31859657E-05, 3.03013873  , 3.61        , 3           , 12          , 0.0586973652, 0
0.00178808626, -0.020452369, -9.792759   , -0.00190625514, -0.000887129, 0.000439041673, -0.5164487  , -0.05696373 , 0.325535923 , 0.00148271793, -7.20637763E-05, 3.030143    , 3.62        , 3           , 14          , 0.000432416826, 0.000476418121
0.0141787566, -0.011088457, -9.802569   , -0.00177201163, 0.0005216514, 0.000441869721, -0.5164487  , -0.05696373 , 0.325535923 , 0.00146499742, -6.685379E-05, 3.03014731  , 3.63        , 3           , 15          , 0           , -4.066124E-05
0.0114042349, -0.01869136 , -9.813018   , 0.00175676623, 0.0008270903, 0.000176227913, -0.515841961, -0.0570311435, 0.324120253 , 0.001482565 , -5.85855E-05, 3.03014922  , 3.64        , 3           , 50          , 0           , 0
0.008750772 , -0.04129794 , -9.790533   , 0.00190076756, 0.000264915259, 0.000176018511, -0.514695942, -0.0570985563, 0.325198859 , 0.00150157255, -5.59389664E-05, 3.03015065  , 3.65        , 3           , 11          , 0.0587132946, 0.0587132946
0.0104411533, -0.0182809755, -9.797657   , -8.507348E-05, 0.00194093375, -0.0006782088, -0.5164487  , -0.05696373 , 0.325535923 , 0.001500722 , -3.651945E-05, 3.030144    , 3.66        , 3           , 12          , 0.0586973652, 0
-0.008423971, -0.00677592354, -9.798656   , -0.0016379687, 0.00178964518, -0.00110947515, -0.5164487  , -0.05696373 , 0.325535923 , 0.00148434262, -1.86064281E-05, 3.03013349  , 3.67        , 3           , 14          , 0.000432416826, 0.000476418121
-0.009146687, -0.0239506364, -9.787886   , -0.001909325, -0.000464785815, -0.00125553249, -0.5155723  , -0.0570985563, 0.323918    , 0.00146524969, -2.32357925E-05, 3.03012061  , 3.68        , 3           , 15          , 0           , -4.066124E-05
-0.009404994, -0.0379968  , -9.769867   , -0.0007804408, -0.000175578185, -0.000260949542, -0.5145611  , -0.0573007949, 0.325064033 , 0.00145744532, -2.49877339E-05, 3.03011823  , 3.69        , 3           , 50          , 0           , 0
-0.0208791643, -0.02020927 , -9.786152   , -0.0009316423, 0.00179442274, -0.000682383834, -0.5164487  , -0.05696373 , 0.325535923 , 0.00144821324, -7.025541E-06, 3.030111    , 3.7         , 3           , 11          , 0.0597619228, 0.05976193
0.00338955875, -0.0393902361, -9.802318   , -8.89516741E-05, 0.00264484575, -0.00138347491, -0.5164487  , -0.05696373 , 0.325535923 , 0.00144732336, 1.94428721E-05, 3.03009725  , 3.71        , 3           , 12          , 0.05974488  , 0
0.006154655 , -0.0344730727, -9.798208   , 0.00132912188, 0.00166892319, 0.000458084658, -0.5156397  , -0.05743562 , 0.323985428 , 0.001460615 , 3.61254E-05 , 3.030102    , 3.72        , 3           , 14          , 0.000432402128, 0.0004764167
-0.0105657307, -0.0253229123, -9.777507   , 0.0004856527, 0.0009592821, 0.00101812382, -0.514830768, -0.0570311435, 0.3249292   , 0.00146547193, 4.57032947E-05, 3.0301125   , 3.73        , 3           , 15          , 0           , -4.065411E-05
0.00517169852, -0.0331861  , -9.77516    , -0.0007812491, 0.000105991014, 0.0007283584, -0.516246438, -0.0570311435, 0.3254011   , 0.00145765976, 4.675256E-05, 3.03011918  , 3.74        , 3           , 50          , 0           , 0
-0.00471582171, -0.03167034 , -9.788788   , -0.000927793735, 0.00123129762, 0.001153242 , -0.516246438, -0.0570311435, 0.3254011   , 0.00144838239, 5.90487834E-05, 3.03013062  , 3.75        , 3           , 11          , 0.0597619228, 0.05976193
0.00571254  , 0.00251381658, -9.792634   , 0.00020740804, 0.000112676753, 0.001015505 , -0.5155723  , -0.05743562 , 0.324187666 , 0.001450457 , 6.01608554E-05, 3.030141    , 3.76        , 3           , 12          , 0.05974488  , 0
0.00672701746, -0.0214373358, -9.785494   , 0.00162216718, -0.0004409045, 0.000738684437, -0.514830768, -0.05696373 , 0.325131446 , 0.00146667927, 5.57410458E-05, 3.03014874  , 3.77        , 3           , 14          , 0.000432402128, 0.0004764167
-0.0126998331, -0.02117399 , -9.796037   , 0.0007683689, 0.000820407469, 0.0003128803, -0.516381264, -0.0570311435, 0.3254685   , 0.001474363 , 6.39405043E-05, 3.03015161  , 3.78        , 3           , 15          , 0           , -4.065411E-05
-0.0188209079, -0.00619343948, -9.801446   , 0.00147566642, 0.0005436165, 3.32011732E-05, -0.516381264, -0.0570311435, 0.3254685   , 0.00148911984, 6.937616E-05, 3.030152    , 3.79        , 3           , 50          , 0           , 0
-0.0136990892, -0.03195168 , -9.807841   , 0.000344040425, 0.000958317134, 0.000311132753, -0.5155049  , -0.0570311435, 0.323985428 , 0.00149261346, 7.890937E-05, 3.03015542  , 3.8         , 3           , 11          , 0.0608171523, 0.060817156
0.00621691439, 0.00165759865, -9.80800152 , -0.002196733, 0.000659560843, -0.000266228424, -0.514830768, -0.05696373 , 0.32499662  , 0.00147064589, 8.55088656E-05, 3.03015256  , 3.81        , 3           , 12          , 0.06079892  , 0
-0.0032465  , 0.00984006748, -9.793125   , 5.65718437E-05, 0.0019418844, 2.87972853E-05, -0.516313851, -0.05696373 , 0.325266272 , 0.00147121167, 0.000104927269, 3.03015256  , 3.82        , 3           , 14          , 0.000432393 , 0.000476424466
-0.0008556619, -0.0150051508, -9.793209   , -0.00107289059, 0.00193424593, 0.00044733574, -0.516313851, -0.05696373 , 0.325266272 , 0.0014604833, 0.0001242631, 3.03015733  , 3.83        , 3           , 15          , 0           , -4.06651852E-05
-0.008684669, -0.0266265739, -9.79874    , -0.003322095, -0.00019277347, 9.73964E-06 , -0.5153701  , -0.0570311435, 0.324120253 , 0.00142726256, 0.00012233523, 3.03015733  , 3.84        , 3           , 50          , 0           , 0
-0.000396723859, -0.0167908818, -9.800445   , -0.0009139634, -0.00172514736, -0.000263990543, -0.514830768, -0.05696373 , 0.32499662  , 0.00141812244, 0.000105087507, 3.03015447  , 3.85        , 3           , 11          , 0.0608171523, 0.060817156
-0.00332994037, -0.0272004753, -9.781075   , 0.000210701735, -0.000732030545, -0.0005397415, -0.516179   , -0.0566940829, 0.3254011   , 0.001420229 , 9.777488E-05, 3.0301497   , 3.86        , 3           , 12          , 0.06079892  , 0
-0.00650853571, -0.029402392, -9.78608    , -0.0009301576, 0.00151285029, -0.0005415378, -0.516179   , -0.0566940829, 0.3254011   , 0.00141092669, 0.000112911046, 3.030144    , 3.87        , 3           , 14          , 0.000432393 , 0.000476424466
0.006778806 , -0.0169318728, -9.783667   , -0.00092905265, 0.0013720697, 0.0001645889, -0.5154375  , -0.0570985563, 0.323918    , 0.00140163652, 0.000126629428, 3.030146    , 3.88        , 3           , 15          , 0           , -4.06651852E-05
0.006976978 , -0.00605888665, -9.79718    , -0.000920035935, -0.000317317754, 0.0012921351, -0.5149656  , -0.0570985563, 0.3249292   , 0.00139243784, 0.000123438193, 3.03015828  , 3.89        , 3           , 50          , 0           , 0
-0.0226003826, -0.0272567514, -9.830941   , -0.000777667447, -0.0005979323, 0.0008685566, -0.516313851, -0.05696373 , 0.3254685   , 0.00138469669, 0.000117427233, 3.03016734  , 3.9         , 3           , 11          , 0.0618784167, 0.0618784241
-0.006926427, -0.0275833979, -9.788788   , 0.000343964843, 0.000958313467, 0.0001698673, -0.516313851, -0.05696373 , 0.3254685   , 0.00138813653, 0.00012700801, 3.03016877  , 3.91        , 3           , 12          , 0.06185894  , 0
0.0121302586, -0.0219719317, -9.779579   , 6.97389551E-05, -0.0007329877, -0.000116590723, -0.5155049  , -0.05716597 , 0.323918    , 0.00138883386, 0.00011967976, 3.03016782  , 3.92        , 3           , 14          , 0.0004323871, 0.0004764278
0.0102340085, -0.0363028422, -9.804964   , 0.0007792096, -0.00143212581, -0.00025565183, -0.514763355, -0.0570311435, 0.3249292   , 0.00139662565, 0.000105362073, 3.030165    , 3.93        , 3           , 15          , 0           , -4.066836E-05
-0.00174993847, -0.0123072648, -9.787329   , 7.416584E-05, -0.00157768175, 0.000305913738, -0.5164487  , -0.0568289049, 0.325535923 , 0.00139736768, 8.958098E-05, 3.03016829  , 3.94        , 3           , 50          , 0           , 0
0.020629216 , 0.0009789011, -9.790719   , -0.00162711681, -0.0003221009, -0.000477013236, -0.5164487  , -0.0568289049, 0.325535923 , 0.001381096 , 8.636657E-05, 3.03016353  , 3.95        , 3           , 11          , 0.0618784167, 0.0618784241
0.000967885368, -0.0159090627, -9.799075   , -0.003606155, 8.687709E-05, -0.0004149464, -0.5154375  , -0.057233382, 0.32405284  , 0.00134503411, 8.72410237E-05, 3.03015924  , 3.96        , 3           , 12          , 0.06185894  , 0
-0.0123175895, -0.0283780713, -9.80194    , -0.002830549, 0.000373696064, 0.000154183872, -0.5149656  , -0.0570311435, 0.32499662  , 0.00131672877, 9.097595E-05, 3.03016114  , 3.97        , 3           , 14          , 0.0004323871, 0.0004764278
0.0123602822, -0.0159829929, -9.816615   , -1.23683549E-05, 0.00158944656, -0.000113339935, -0.5164487  , -0.05696373 , 0.325333685 , 0.0013166049, 0.000106871914, 3.03015971  , 3.98        , 3           , 15          , 0           , -4.066836E-05
-0.0143251037, -0.00671891542, -9.795086   , 0.0007679536, 0.000890787051, 0.000171734166, -0.5164487  , -0.05696373 , 0.325333685 , 0.00132428447, 0.000115777482, 3.03016114  , 3.99        , 3           , 50          , 0           , 0
-0.0137944464, 0.005390331 , -9.775145   , -0.000288760377, 0.00032049  , -0.000540399, -0.5155723  , -0.05716597 , 0.323985428 , 0.00132143474, 0.000118973985, 3.03015637  , 4           , 3           , 11          , 0.0629452   , 0.06294522
-0.0216919314, -0.008071977, -9.769836   , -0.00042480565, -0.0008067271, -0.001249137, -0.514695942, -0.0570311435, 0.325064033 , 0.00131718512, 0.000110923189, 3.030144    , 4.01        , 3           , 12          , 0.0629244149, 0
-0.00415233243, -0.0231052935, -9.788296   , -0.002899918, 9.16502249E-05, -0.000129099935, -0.516381264, -0.056761492, 0.325333685 , 0.001288186 , 0.000111841422, 3.030142    , 4.02        , 3           , 14          , 0.000432380679, 0.0004764304
0.008101644 , -0.0272426549, -9.808107   , -0.000357832148, 0.00010884113, 0.000306558679, -0.516381264, -0.056761492, 0.325333685 , 0.00128460792, 0.0001129259, 3.03014541  , 4.03        , 3           , 15          , 0           , -4.06852232E-05
0.0115761589, -0.00292979227, -9.804363   , -0.000922111154, -3.57619429E-05, 9.180489E-05, -0.515707135, -0.057233382, 0.323918    , 0.00127538689, 0.000112567126, 3.03014636  , 4.04        , 3           , 50          , 0           , 0
-0.01869259 , -0.02654743 , -9.787518   , -0.00190763152, -0.000675969059, -0.000196318142, -0.514695942, -0.0570985563, 0.32499662  , 0.00125631026, 0.000105809908, 3.03014445  , 4.05        , 3           , 11          , 0.0629452   , 0.06294522
-0.007354628, -0.0271118116, -9.793309   , -0.0001408475, -0.0008752029, 0.0008004682, -0.5164487  , -0.0570311435, 0.325603336 , 0.00125490257, 9.704786E-05, 3.03015256  , 4.06        , 3           , 12          , 0.0629244149, 0
0.0233672038, 0.00453505153, -9.784355   , 0.00196999451, 0.000617338344, 0.000741989 , -0.5164487  , -0.0570311435, 0.325603336 , 0.00127460319, 0.000103211874, 3.03015971  , 4.07        , 3           , 14          , 0.000432380679, 0.0004764304
0.004503485 , -0.0222707279, -9.79817    , 0.00076876086, 0.00067960954, -0.0002523805, -0.5155723  , -0.057233382, 0.324255079 , 0.00128229056, 0.0001100112, 3.03015733  , 4.08        , 3           , 15          , 0           , -4.06852232E-05
-0.00503989868, -0.0239727721, -9.795538   , -3.80886445E-06, -0.0003111243, -0.00159957388, -0.514830768, -0.0568963178, 0.325198859 , 0.00128225074, 0.000106920474, 3.030141    , 4.09        , 3           , 50          , 0           , 0
-0.008487407, -0.0068273237, -9.783291   , -9.283789E-05, 0.00341913337, -0.00152350625, -0.5165161  , -0.05716597 , 0.325333685 , 0.0012813654, 0.000141119119, 3.03012586  , 4.1         , 3           , 11          , 0.06401704  , 0.06401705
-0.00301084388, -0.009087906, -9.800884   , -0.00178742083, 0.00347806653, -0.000966224354, -0.5165161  , -0.05716597 , 0.325333685 , 0.0012634896, 0.000175912064, 3.03011632  , 4.11        , 3           , 12          , 0.06399487  , 0
0.00356112141, 0.000846154056, -9.825652   , -0.0008595533, 0.00158371241, 2.40076715E-05, -0.515707135, -0.0570985563, 0.324187666 , 0.00125489431, 0.0001917489, 3.0301168   , 4.12        , 3           , 14          , 0.000432373228, 0.0004764324
-0.0009573661, -0.0240145661, -9.797315   , -0.000151250657, 0.00109574758, -0.000326631125, -0.514830768, -0.0566940829, 0.325131446 , 0.00125338114, 0.000202710507, 3.03011346  , 4.13        , 3           , 15          , 0           , -4.069815E-05
-0.0169248879, -0.0324064456, -9.795664   , 0.00309075182, 0.002384757 , 0.000326175563, -0.5164487  , -0.056761492, 0.3254685   , 0.00128428941, 0.00022655385, 3.0301168   , 4.14        , 3           , 50          , 0           , 0
0.0131989121, -0.0182796121, -9.807578   , 0.00373959937, -0.000356206117, -2.82639248E-05, -0.5164487  , -0.056761492, 0.3254685   , 0.001321685 , 0.0002229922, 3.03011632  , 4.15        , 3           , 11          , 0.06401704  , 0.06401705
0.0009816992, -0.0123270648, -9.790923   , -9.754331E-08, -0.0008038591, 0.000589345058, -0.5155049  , -0.0570311435, 0.324120253 , 0.00132168527, 0.000214945787, 3.03012252  , 4.16        , 3           , 12          , 0.06399487  , 0
-0.01550247 , -0.023889821, -9.783866   , 0.000280835084, -0.0005907775, -0.000185990517, -0.5148982  , -0.0568289049, 0.325131446 , 0.00132449321, 0.000209040474, 3.03012061  , 4.17        , 3           , 14          , 0.000432373228, 0.0004764324
-0.00217067823, -0.0118296342, -9.793658   , 0.00224495074, 0.00195667637, -0.000737941533, -0.5165161  , -0.0568289049, 0.325603336 , 0.00134694146, 0.000228617049, 3.03011346  , 4.18        , 3           , 15          , 0           , -4.069815E-05
-0.0158501472, -0.0153186861, -9.782026   , 0.00167888857, 0.00216402952, -0.00102278753, -0.5165161  , -0.0568289049, 0.325603336 , 0.00136372785, 0.0002502712, 3.030103    , 4.19        , 3           , 50          , 0           , 0
-0.0148392683, -0.00140711851, -9.762978   , 0.00175862445, 0.000263928581, -0.00151980354, -0.5154375  , -0.0570985563, 0.324120253 , 0.00138134242, 0.0002528532, 3.03008771  , 4.2         , 3           , 11          , 0.06509349  , 0.06509349
-0.006241126, -0.0131170992, -9.799118   , -0.00128392247, 0.00158083136, -0.001249362, -0.515033   , -0.0568289049, 0.325064033 , 0.00136850006, 0.000268678763, 3.03007531  , 4.21        , 3           , 12          , 0.06506983  , 0
-0.004644268, -0.0307196621, -9.8032465  , -0.0006528072, 0.00242982362, -0.00152763468, -0.5165835  , -0.0568289049, 0.325535923 , 0.00136196765, 0.000292997778, 3.03006     , 4.22        , 3           , 14          , 0.000432367931, 0.0004764452
0.003765747 , -0.0421357229, -9.792382   , 0.0005590001, 0.000396600546, 0.000876384845, -0.5165835  , -0.0568289049, 0.325535923 , 0.00136756024, 0.000296951825, 3.030069    , 4.23        , 3           , 15          , 0           , -4.072243E-05
0.00445785373, -0.0285566114, -9.807237   , -6.897136E-05, -0.00136748469, -0.00124832138, -0.5156397  , -0.05696373 , 0.324187666 , 0.001366867 , 0.000283294037, 3.03005624  , 4.24        , 3           , 50          , 0           , 0
-0.00131051149, -0.020357715, -9.8099575  , -0.0003557655, -0.000454307359, -0.0009656905, -0.5149656  , -0.0570985563, 0.325198859 , 0.00136330666, 0.000278764172, 3.0300467   , 4.25        , 3           , 11          , 0.06509349  , 0.06509349
-0.006838533, -0.0221559778, -9.792832   , 0.00153855933, 0.00209267321, -0.000105283281, -0.516381264, -0.056761492, 0.325535923 , 0.00137869187, 0.0002996923, 3.03004575  , 4.26        , 3           , 12          , 0.06506983  , 0
0.00354393688, -0.0272136889, -9.80091    , 0.00281400676, 0.00132696738, 0.00110023376, -0.516381264, -0.056761492, 0.325535923 , 0.00140683551, 0.00031294662, 3.03005719  , 4.27        , 3           , 14          , 0.000432367931, 0.0004764452
-0.013636698, -0.0180642586, -9.778404   , 0.0013425845, -0.00107636582, 0.0001713847, -0.5153701  , -0.0570985563, 0.324120253 , 0.00142026192, 0.0003021806, 3.03005862  , 4.28        , 3           , 15          , 0           , -4.072243E-05
-0.006349644, -0.02123934 , -9.7987     , -6.401078E-05, -0.00235296227, -0.0011085713, -0.5148982  , -0.05696373 , 0.325198859 , 0.00141961861, 0.000278666761, 3.03004766  , 4.29        , 3           , 50          , 0           , 0
0.004369863 , -0.03666221 , -9.81179    , -0.0007745979, -0.00130187755, 9.055841E-05, -0.5164487  , -0.0568963178, 0.325535923 , 0.00141196011, 0.0002655667, 3.03004861  , 4.3         , 3           , 11          , 0.06617409  , 0.0661741048
-0.00433217362, -0.03440978 , -9.780661   , -0.0017673556, -0.0004638676, -5.40176152E-05, -0.5164487  , -0.0568963178, 0.325535923 , 0.00139428617, 0.000260928733, 3.03004766  , 4.31        , 3           , 12          , 0.0661489   , 0
-0.02374871 , -0.0327990241, -9.78939    , -0.00183447707, -0.00116825779, -5.543162E-05, -0.515033   , -0.05716597 , 0.324187666 , 0.00137594133, 0.00024924695, 3.03004766  , 4.32        , 3           , 14          , 0.000432353874, 0.0004764581
-0.02582602 , -0.01476722 , -9.777128   , -0.0006926352, -0.00355391973, 0.000440588075, -0.514763355, -0.0570985563, 0.325198859 , 0.00136901613, 0.000213701773, 3.03005147  , 4.33        , 3           , 15          , 0           , -4.07331645E-05
-0.0003824821, -0.010084087, -9.782338   , -0.0003583578, 0.000179203838, -4.645661E-05, -0.5165835  , -0.0568963178, 0.3254011   , 0.0013654324, 0.000215494423, 3.03005147  , 4.34        , 3           , 50          , 0           , 0
-0.01275404 , -0.0238960162, -9.791529   , 0.000485296652, 0.00081845274, -0.000889141869, -0.5165835  , -0.0568963178, 0.3254011   , 0.00137028354, 0.00022369111, 3.03004241  , 4.35        , 3           , 11          , 0.06617409  , 0.0661741048
-0.002180107, -0.0145153739, -9.799996   , 0.00352720544, -0.000287274277, -0.000452914333, -0.5155723  , -0.0570985563, 0.323985428 , 0.00140555424, 0.000220824586, 3.030038    , 4.36        , 3           , 12          , 0.0661489   , 0
-0.00444579776, -0.0118121244, -9.790963   , 0.00275229313, -0.00057409 , 0.00017873937, -0.5149656  , -0.05696373 , 0.325198859 , 0.00143307773, 0.00021508112, 3.03003955  , 4.37        , 3           , 14          , 0.000432353874, 0.0004764581
-0.0114749027, -0.0302250553, -9.79245    , -0.0026864328, -0.000188508915, 0.000295307982, -0.5165161  , -0.0566940829, 0.325535923 , 0.00140621385, 0.0002131918, 3.030043    , 4.38        , 3           , 15          , 0           , -4.07331645E-05
-0.008637628, -0.0158760436, -9.775645   , -0.00516088959, 0.000569085765, 0.00134449382, -0.5165161  , -0.0566940829, 0.325535923 , 0.00135460775, 0.000218864152, 3.03005624  , 4.39        , 3           , 50          , 0           , 0
-3.69735062E-07, -0.0123784179, -9.772401   , -0.00310046459, -0.00216234871, 7.791255E-06, -0.5153701  , -0.05696373 , 0.324120253 , 0.00132368808, 0.000197123969, 3.03005624  , 4.4         , 3           , 11          , 0.0672584847, 0.06725849
0.00267555285, -0.0222630724, -9.794116   , -0.00105084188, -0.00250045629, 0.000511237071, -0.515033   , -0.05662667 , 0.325198859 , 0.00131318078, 0.00017211269, 3.030061    , 4.41        , 3           , 12          , 0.06723166  , 0
0.006168469 , -0.03089108 , -9.790057   , 0.00209357473, 0.004278595 , 0.00152534829, -0.5164487  , -0.0566940829, 0.3254685   , 0.00133411924, 0.000214878441, 3.03007674  , 4.42        , 3           , 14          , 0.0004323403, 0.000476476678
0.0105506172, -0.04400645 , -9.796406   , 0.00533892168, 0.004793299 , 0.00132934924, -0.5164487  , -0.0566940829, 0.3254685   , 0.00138751161, 0.000262793357, 3.03009     , 4.43        , 3           , 15          , 0           , -4.076665E-05
-0.0204861537, -0.0305290744, -9.804724   , 0.004004961 , 0.00316522457, 0.000543620437, -0.515302658, -0.0570985563, 0.324120253 , 0.00142756291, 0.000294437923, 3.03009534  , 4.44        , 3           , 50          , 0           , 0
0.0029154   , -0.00287566148, -9.790419   , 0.0007731871, -0.00016513087, 9.957095E-05, -0.5151004  , -0.0570311435, 0.325198859 , 0.001435295 , 0.000292785262, 3.03009629  , 4.45        , 3           , 11          , 0.0672584847, 0.06725849
0.009600101 , -0.0142009165, -9.800357   , -0.000287470553, 0.000109270979, -0.000187471029, -0.5164487  , -0.0568289049, 0.325805575 , 0.00143241964, 0.000293880643, 3.03009439  , 4.46        , 3           , 12          , 0.06723166  , 0
-0.0006624311, -0.003243466, -9.80265    , -0.00225392147, -0.00201583654, -5.867535E-05, -0.5164487  , -0.0568289049, 0.325805575 , 0.00140988023, 0.0002737231, 3.030094    , 4.47        , 3           , 14          , 0.0004323403, 0.000476476678
-0.0133066336, 0.002288945 , -9.793685   , -0.00226156646, -0.0005376214, -0.0006214722, -0.5153701  , -0.05716597 , 0.323985428 , 0.001387263 , 0.0002683556, 3.03008771  , 4.48        , 3           , 15          , 0           , -4.076665E-05
-0.00529077929, -0.0130914506, -9.809959   , -0.000774973654, -0.001231505, 2.00660561E-05, -0.514763355, -0.05716597 , 0.325266272 , 0.0013795133, 0.00025604025, 3.03008771  , 4.49        , 3           , 50          , 0           , 0
0.00021122396, -0.00863617 , -9.812158   , -0.00267819385, -0.00194832264, -0.00055498234, -0.5165161  , -0.0568963178, 0.325535923 , 0.00135274383, 0.000236495311, 3.03008246  , 4.5         , 3           , 11          , 0.0683462843, 0.06834629
-0.00179416221, -0.0141285043, -9.782365   , 0.000140909979, -0.0009437465, -0.00103473465, -0.5165161  , -0.0568963178, 0.325535923 , 0.00135415047, 0.000227071811, 3.030072    , 4.51        , 3           , 12          , 0.06831775  , 0
0.0148318466, -0.0273722783, -9.793141   , 0.00154756824, 0.0002624572, -0.000249327655, -0.515302658, -0.0570311435, 0.324120253 , 0.00136962568, 0.00022969977, 3.03006959  , 4.52        , 3           , 14          , 0.000432338129, 0.000476487621
0.0167859383, -0.0129945036, -9.781767   , -0.00155187119, -0.00116637652, 0.0002284568, -0.5151004  , -0.056761492, 0.325266272 , 0.00135410763, 0.000218032947, 3.0300715   , 4.53        , 3           , 15          , 0           , -4.07673251E-05
0.014080652 , -0.015185101, -9.79174    , -0.00177679 , 0.001436667 , -0.000121688747, -0.5164487  , -0.056761492, 0.325535923 , 0.0013363394, 0.000232401231, 3.03007054  , 4.54        , 3           , 50          , 0           , 0
-0.00452642329, -0.0225898661, -9.805924   , -0.00107197231, 0.0016526148, -0.000471242762, -0.5164487  , -0.056761492, 0.325535923 , 0.00132561836, 0.000248933618, 3.03006577  , 4.55        , 3           , 11          , 0.0683462843, 0.06834629
-0.0152936559, -0.011222817, -9.794209   , 0.00183077389, 0.000123585 , -0.000106958993, -0.515774548, -0.0573007949, 0.324120253 , 0.00134392583, 0.00025017088, 3.03006482  , 4.56        , 3           , 12          , 0.06831775  , 0
-0.00107851624, -0.0290225912, -9.783777   , 0.000412570545, 0.001381079 , 0.000241580739, -0.514830768, -0.057233382, 0.325064033 , 0.00134805229, 0.000263978378, 3.03006721  , 4.57        , 3           , 14          , 0.000432338129, 0.000476487621
0.009086957 , -0.0151372114, -9.788614   , 7.038121E-05, -0.0008034377, 0.0003072059, -0.5165835  , -0.0568963178, 0.3254011   , 0.00134875684, 0.000255939842, 3.03007054  , 4.58        , 3           , 15          , 0           , -4.07673251E-05
0.006797592 , -0.0218265019, -9.804026   , -0.001273934, -0.0002493799, 0.000301818334, -0.5165835  , -0.0568963178, 0.3254011   , 0.00133601821, 0.000253442035, 3.0300734   , 4.59        , 3           , 50          , 0           , 0
0.0116160642, -0.034514185, -9.804946   , -0.00155448669, -0.000603246, 0.000511886843, -0.515707135, -0.0573682077, 0.323985428 , 0.00132053555, 0.0002474003, 3.03007865  , 4.6         , 3           , 11          , 0.06943715  , 0.06943716
-0.002547646, -0.00506763067, -9.790469   , -0.00359627558, -0.00195453153, -0.0009124094, -0.5149656  , -0.05696373 , 0.325064033 , 0.001284571 , 0.000227866884, 3.03006959  , 4.61        , 3           , 12          , 0.0694068149, 0
0.022601733 , -0.0251721162, -9.803467   , -0.00304189883, 0.000231419515, -0.000341337465, -0.5165161  , -0.05716597 , 0.325535923 , 0.001254151 , 0.000230185455, 3.03006577  , 4.62        , 3           , 14          , 0.000432328641, 0.00047648797
-0.00225054938, -0.019035954, -9.797304   , -0.00113764964, 0.000666659267, -0.000402431644, -0.5165161  , -0.05716597 , 0.325535923 , 0.00124277384, 0.000236857071, 3.030062    , 4.63        , 3           , 15          , 0           , -4.079211E-05
0.0101224491, -0.008347311, -9.798522   , -0.00127136288, -0.0007421185, 0.000512986968, -0.5154375  , -0.0573007949, 0.324120253 , 0.0012300614, 0.00022942957, 3.03006673  , 4.64        , 3           , 50          , 0           , 0
-0.0123927472, -0.0342415236, -9.802417   , -0.00127712067, 0.000313747936, -0.000403632584, -0.5148982  , -0.05716597 , 0.325131446 , 0.00121728936, 0.000232572027, 3.030063    , 4.65        , 3           , 11          , 0.06943715  , 0.06943716
0.01167299  , -0.0255410541, -9.789993   , -0.001640157, 0.00228231517, -0.0008260475, -0.5165835  , -0.05696373 , 0.3254011   , 0.00120088563, 0.0002554051, 3.03005481  , 4.66        , 3           , 12          , 0.0694068149, 0
0.01593589  , -0.008475377, -9.78085    , -0.00135525339, 0.00193227234, 0.0004461457, -0.5165835  , -0.05696373 , 0.3254011   , 0.0011873343, 0.000274722523, 3.030059    , 4.67        , 3           , 14          , 0.000432328641, 0.00047648797
-0.00259449333, -0.0104617914, -9.796368   , -0.000374897441, 0.00355795561, 0.000241347065, -0.5155049  , -0.05716597 , 0.323918    , 0.001183586 , 0.000310299161, 3.030062    , 4.68        , 3           , 15          , 0           , -4.079211E-05
0.004597435 , -0.0213019  , -9.818053   , -0.0028306942, 0.000373635063, -0.000198864043, -0.515033   , -0.0570311435, 0.325064033 , 0.00115527853, 0.000314037869, 3.03006     , 4.69        , 3           , 50          , 0           , 0
0.0191317014, -0.0459105447, -9.796801   , -0.00225677 , -0.0013119292, 0.00100196339, -0.516381264, -0.0568963178, 0.3254011   , 0.001132801 , 0.0003009263, 3.03006959  , 4.7         , 3           , 11          , 0.0705307648, 0.07053076
0.0190116   , -0.0219790954, -9.801222   , -0.00155080657, -0.0012367618, 0.00142917049, -0.516381264, -0.0568963178, 0.3254011   , 0.001117297 , 0.000288542622, 3.030084    , 4.71        , 3           , 12          , 0.0704985261, 0
0.00411247276, -0.0168591514, -9.795891   , -0.0008580011, 0.00137248868, 0.0008007673, -0.5155723  , -0.05743562 , 0.32405284  , 0.00110871939, 0.0003022586, 3.03009248  , 4.72        , 3           , 14          , 0.000432315253, 0.000476485
-0.00121168233, -0.0478772037, -9.811879   , 0.0018866848, 0.00308049819, -0.000243304428, -0.515167832, -0.0570311435, 0.325198859 , 0.00112758542, 0.0003330663, 3.03008962  , 4.73        , 3           , 15          , 0           , -4.08051637E-05
-0.00679332763, -0.0189948976, -9.793722   , 0.00126399274, 0.000612509 , 0.0007388167, -0.516853154, -0.05696373 , 0.325333685 , 0.00114022812, 0.000339182967, 3.03009725  , 4.74        , 3           , 50          , 0           , 0
0.000838845968, -0.0240479261, -9.793686   , 0.00182814954, 0.0007571114, 0.0007416674, -0.516853154, -0.05696373 , 0.325333685 , 0.00115851208, 0.000346745626, 3.03010488  , 4.75        , 3           , 11          , 0.0705307648, 0.07053076
0.01397731  , -0.0264275968, -9.802634   , 0.00218329672, 0.0002667584, 0.000177479407, -0.515302658, -0.05716597 , 0.3238506   , 0.00118034531, 0.0003494111, 3.03010631  , 4.76        , 3           , 12          , 0.0704985261, 0
-0.00217735488, -0.0158521943, -9.804974   , -0.00119424716, -0.00193828694, 0.001500366 , -0.5151004  , -0.05716597 , 0.325266272 , 0.001168408 , 0.0003300106, 3.030121    , 4.77        , 3           , 14          , 0.000432315253, 0.000476485
-0.01387517 , -0.008065582, -9.798704   , -0.003597415, -0.001532176, 0.0007128449, -0.5165835  , -0.0568289049, 0.3254011   , 0.00113243621, 0.0003146805, 3.03012872  , 4.78        , 3           , 15          , 0           , -4.08051637E-05
0.000930272043, -0.0239738449, -9.815832   , 0.0012732615, -0.001358449, -0.000111833222, -0.5165835  , -0.0568289049, 0.3254011   , 0.00114516844, 0.0003010973, 3.03012729  , 4.79        , 3           , 50          , 0           , 0
-0.000771929568, -0.0127055515, -9.806307   , 0.000496752444, -0.00143409683, -0.000468704558, -0.5154375  , -0.0573007949, 0.323985428 , 0.00115026766, 0.000286740862, 3.030123    , 4.8         , 3           , 11          , 0.07162679  , 0.07162679
0.00412173755, -0.0444512144, -9.776118   , -0.0001432422, -0.00038252183, 0.0007307438, -0.5148982  , -0.0568289049, 0.325131446 , 0.00114883739, 0.000282907335, 3.03013015  , 4.81        , 3           , 12          , 0.07159258  , 0
-0.0235629473, -0.0210433863, -9.797024   , -0.00177256507, 0.0005919712, -0.000122922167, -0.516313851, -0.05716597 , 0.325333685 , 0.00113111117, 0.0002888284, 3.03012872  , 4.82        , 3           , 14          , 0.000432295084, 0.000476488116
-0.0202809721, -0.0151869077, -9.805562   , -0.000218171961, 0.0003913022, -0.000116004434, -0.516313851, -0.05716597 , 0.325333685 , 0.00112892909, 0.0002927427, 3.03012776  , 4.83        , 3           , 15          , 0           , -4.083573E-05
0.005665634 , -0.0304799657, -9.776501   , -0.00141524931, -0.00017994309, 0.0006545087, -0.5153701  , -0.05743562 , 0.323918    , 0.00111477845, 0.000290935917, 3.03013444  , 4.84        , 3           , 50          , 0           , 0
-0.006669461, -0.007735776, -9.787799   , -0.000141785233, -0.0007344796, 0.000235760934, -0.5149656  , -0.0570985563, 0.325198859 , 0.00111336121, 0.000283588539, 3.03013635  , 4.85        , 3           , 11          , 0.07162679  , 0.07162679
-0.0187586844, -0.005250318, -9.813645   , -0.00226432784, -4.48957362E-05, -0.00125635322, -0.5165835  , -0.0570311435, 0.3254011   , 0.00109071448, 0.000283153437, 3.030124    , 4.86        , 3           , 12          , 0.07159258  , 0
0.02958295  , -0.041092813, -9.789922   , -0.00106294977, -0.000177559137, -0.0006152637, -0.5165835  , -0.0570311435, 0.3254011   , 0.00108008343, 0.000281384535, 3.03011823  , 4.87        , 3           , 14          , 0.000432295084, 0.000476488116
0.0304982066, -0.005461718, -9.78841    , -0.002045749, -0.001169718, 0.0007912955, -0.5155723  , -0.0570311435, 0.3237832   , 0.001059628 , 0.000269678916, 3.03012586  , 4.88        , 3           , 15          , 0           , -4.083573E-05
-0.0106841661, -0.00674631773, -9.799578   , -0.0009213285, -0.000176602232, 9.173842E-05, -0.514830768, -0.056761492, 0.325198859 , 0.00105041487, 0.000267911964, 3.03012681  , 4.89        , 3           , 50          , 0           , 0
0.002156252 , -0.0214189477, -9.775133   , 0.0002718444, 0.00130973139, 0.000382177241, -0.5165161  , -0.057233382, 0.3254011   , 0.00105322979, 0.0002809953, 3.03013062  , 4.9         , 3           , 11          , 0.07272497  , 0.0727249756
-0.007932819, -0.0379205234, -9.797426   , 0.00111971807, 0.00124507106, 0.0008098257, -0.5165161  , -0.057233382, 0.3254011   , 0.00106442929, 0.00029343745, 3.03013873  , 4.91        , 3           , 12          , 0.07268868  , 0
0.009738175 , -0.03142255 , -9.778732   , -0.000139086682, -0.00122721889, 0.0006588338, -0.5156397  , -0.0573682077, 0.323985428 , 0.00106304034, 0.000281158253, 3.03014541  , 4.92        , 3           , 14          , 0.0004322808, 0.000476489542
-0.009818332, -0.005003744, -9.784196   , -0.0012695503, -0.0011644694, -5.26689546E-05, -0.515033   , -0.05696373 , 0.325266272 , 0.00105034467, 0.0002695141, 3.030145    , 4.93        , 3           , 15          , 0           , -4.086203E-05
