Acc X       , Acc Y       , Acc Z       , Gyro X      , Gyro Y      , Gyro Z      , Magn X      , Magn Y      , Magn Z      , Euler X     , Euler Y     , Euler Z     , Time        , Status      , LowRate X   , LowRate Y   , LowRate Z    
0.326119721 , 0.120620243 , -9.800994   , -0.000858704, -0.0017001814, -7.940748E-05, -0.182890654, -0.1640151  , 0.422677636 , -0.0119861308, 0.03639205  , 2.38185048  , 0           , 3           , 11          , 0.0346410163, 0.0346410163
0.3424026   , 0.08701266  , -9.793325   , 0.0005372361, 0.00154736626, -0.00035037 , -0.182823241, -0.163745448, 0.422745049 , -0.0119808922, 0.0364074819, 2.38184667  , 0.01        , 3           , 12          , 0.0346410163, 0
0.361552447 , 0.0976094753, -9.790875   , 0.000532357139, 0.002532844 , -0.0003488513, -0.182823241, -0.163745448, 0.422745049 , -0.0119757056, 0.03643276  , 2.38184285  , 0.02        , 3           , 50          , 0           , 0
0.349574655 , 0.119824626 , -9.78047848 , -0.00030664113, 0.0008377232, -0.000496674445, -0.182890654, -0.163543209, 0.4229473   , -0.0119789578, 0.03644108  , 2.38183761  , 0.03        , 3           , 11          , 0.0346410163, 0.0346410163
0.342903376 , 0.124019176 , -9.796783   , 0.0005416626, 0.0007026722, 7.21342949E-05, -0.182958066, -0.163812861, 0.422812462 , -0.0119735189, 0.0364481136, 2.381838    , 0.04        , 3           , 12          , 0.0346410163, 0
0.355756521 , 0.133831948 , -9.807493   , 0.000115152812, 0.00126293686, -7.02418547E-05, -0.182958066, -0.163812861, 0.422812462 , -0.0119723966, 0.03646073  , 2.38183713  , 0.05        , 3           , 50          , 0           , 0
0.364077121 , 0.145033181 , -9.812807   , -0.00158133591, 0.00167382532, 0.000205044955, -0.182755828, -0.1640151  , 0.422812462 , -0.0119881416, 0.036477495 , 2.381839    , 0.06        , 3           , 11          , 0.0346410163, 0.0346410163
0.344267    , 0.123561144 , -9.799487   , -0.00185925444, 0.00082722184, 0.000767501129, -0.182823241, -0.163678035, 0.422677636 , -0.0120064588, 0.03648586  , 2.38184667  , 0.07        , 3           , 12          , 0.0346410163, 0
0.338327348 , 0.124479622 , -9.78371048 , 0.00110991986, 2.579037E-06, -6.758532E-05, -0.182688415, -0.163812861, 0.422745049 , -0.0119953817, 0.03648587  , 2.38184571  , 0.08        , 3           , 50          , 0           , 0
0.351005316 , 0.1243308   , -9.783613   , 0.0022390564, 1.02161721E-05, -0.00105119869, -0.182688415, -0.163812861, 0.422745049 , -0.0119733755, 0.0364858434, 2.38183522  , 0.09        , 3           , 11          , 0.0346410163, 0.0346410163
0.35200265  , 0.124840863 , -9.804395   , -1.47825176E-05, -0.00113132386, -0.00106347 , -0.182486176, -0.163745448, 0.422677636 , -0.0119739063, 0.036474403 , 2.38182473  , 0.1         , 3           , 12          , 0.0346410163, 0
0.354618937 , 0.117585994 , -9.803048   , -0.0007210572, -0.0009953139, -0.000218932939, -0.182755828, -0.1640151  , 0.422745049 , -0.01198119 , 0.0364644229, 2.38182282  , 0.11        , 3           , 50          , 0           , 0
0.343925655 , 0.100520685 , -9.790094   , 0.000539037865, 0.00126580289, 0.00035553964, -0.182958066, -0.163678035, 0.422677636 , -0.0119756777, 0.0364771262, 2.38182664  , 0.12        , 3           , 11          , 0.0346410163, 0.0346410163
0.338251    , 0.111919984 , -9.805457   , 0.00110487756, 0.0009880558, -0.000348604051, -0.182823241, -0.163947687, 0.422677636 , -0.0119647617, 0.03648696  , 2.38182282  , 0.13        , 3           , 12          , 0.0346410163, 0
0.3777153   , 0.115532979 , -9.809661   , 0.000112817033, 0.0016852835, -0.0004933971, -0.182823241, -0.163947687, 0.422677636 , -0.0119638229, 0.03650376  , 2.38181758  , 0.14        , 3           , 50          , 0           , 0
0.354698449 , 0.0967461   , -9.778728   , -0.000174488727, 0.00266885152, -0.0004931953, -0.183025479, -0.163812861, 0.422812462 , -0.01196576 , 0.0365303867, 2.38181233  , 0.15        , 3           , 11          , 0.0346410163, 0.0346410163
0.340052128 , 0.110997915 , -9.805901   , -0.00214434369, 0.00124765665, -0.000222046176, -0.182890654, -0.163812861, 0.422812462 , -0.0119872913, 0.0365428478, 2.38181     , 0.16        , 3           , 12          , 0.0346410163, 0
0.320627362 , 0.116619118 , -9.799697   , -0.00241992623, -2.12933173E-05, 0.0007635653, -0.182755828, -0.1640151  , 0.422610223 , -0.0120112114, 0.03654272  , 2.38181758  , 0.17        , 3           , 50          , 0           , 0
0.329523653 , 0.102546781 , -9.805563   , -0.00015690054, -0.0008507116, -0.000216082117, -0.182755828, -0.1640151  , 0.422610223 , -0.0120128533, 0.03653419  , 2.38181567  , 0.18        , 3           , 11          , 0.0346410163, 0.0346410163
0.348895729 , 0.101346359 , -9.784629   , -0.00143536215, 0.0005485162, -0.0012087198, -0.183227718, -0.1640151  , 0.422812462 , -0.0120276511, 0.03653953  , 2.38180375  , 0.19        , 3           , 12          , 0.0346410163, 0
0.3621052   , 0.10929025  , -9.777715   , -0.00171258 , -0.000438877032, -0.000646478555, -0.182958066, -0.163880274, 0.422812462 , -0.0120448954, 0.0365348421, 2.381797    , 0.2         , 3           , 50          , 0           , 0
0.364114821 , 0.138442636 , -9.73238    , 0.0004177965, -0.00281785382, -7.521505E-05, -0.182621   , -0.163812861, 0.422812462 , -0.0120407306, 0.0365066528, 2.3817966   , 0.21        , 3           , 11          , 0.0346699134, 0.0346699134
0.3381804   , 0.119897053 , -9.7624855  , -0.0002892567, -0.00254106172, 0.000628270151, -0.182621   , -0.163812861, 0.422812462 , -0.0120433839, 0.03648132  , 2.38180327  , 0.22        , 3           , 12          , 0.03466883  , 0
0.358463317 , 0.100389883 , -9.801734   , -0.00269328826, -0.00185338326, 0.0007594298, -0.182958066, -0.164149925, 0.422745049 , -0.0120700318, 0.03646288  , 2.38181138  , 0.23        , 3           , 50          , 0           , 0
0.3528234   , 0.118512593 , -9.803962   , -0.000860917, -0.00113705534, 0.0009103435, -0.182890654, -0.163812861, 0.422745049 , -0.0120783038, 0.0364516228, 2.38182044  , 0.24        , 3           , 11          , 0.0346699134, 0.0346699134
0.353549    , 0.112107232 , -9.78048    , -0.0004433425, -7.93259E-06, 6.64422259E-05, -0.182621   , -0.1640151  , 0.422879875 , -0.0120827137, 0.0364515521, 2.381821    , 0.25        , 3           , 12          , 0.03466883  , 0
0.353775322 , 0.128359273 , -9.783576   , -0.00185223634, -0.0007213962, -0.000365033542, -0.182621   , -0.1640151  , 0.422879875 , -0.0121013671, 0.03644429  , 2.38181758  , 0.26        , 3           , 50          , 0           , 0
0.353093475 , 0.113449365 , -9.775507   , 0.000699852768, -0.00267515983, 0.00049139373, -0.182823241, -0.163947687, 0.4225428   , -0.0120941773, 0.0364176035, 2.38182282  , 0.27        , 3           , 11          , 0.0346699134, 0.0346699134
0.370993137 , 0.124149822 , -9.79928    , 0.00210743421, -0.00168013049, 0.00106457225, -0.182688415, -0.163880274, 0.422610223 , -0.0120727047, 0.0364009328, 2.38183331  , 0.28        , 3           , 12          , 0.03466883  , 0
0.3811749   , 0.139833763 , -9.802302   , -0.000300490326, -0.0002885415, 0.000490473059, -0.182621   , -0.163880274, 0.422812462 , -0.0120755294, 0.0363981   , 2.38183856  , 0.29        , 3           , 50          , 0           , 0
0.35707587  , 0.131552681 , -9.805232   , -0.00186496729, -9.068958E-06, -0.00121178 , -0.182621   , -0.163880274, 0.422812462 , -0.0122752162, 0.03657116  , 2.38182     , 0.3         , 3           , 11          , 0.0347533971, 0.0347533971
0.336451381 , 0.119984843 , -9.782387   , -0.001163453, 0.0009811852, -0.0006418941, -0.182755828, -0.163947687, 0.4225428   , -0.01228709 , 0.0365808979, 2.38181329  , 0.31        , 3           , 12          , 0.03475391  , 0
0.333570629 , 0.142573565 , -9.780508   , 0.000252121827, 0.000427608029, 0.000493972562, -0.183025479, -0.163880274, 0.422879875 , -0.01228439 , 0.03658523  , 2.381818    , 0.32        , 3           , 50          , 0           , 0
0.346626818 , 0.134771019 , -9.786768   , 0.0008115255, 0.00141690322, -0.0004907559, -0.182621   , -0.164082512, 0.4230147   , -0.0122764613, 0.0365993381, 2.38181329  , 0.33        , 3           , 11          , 0.0347533971, 0.0347533971
0.3731991   , 0.12898612  , -9.769413   , 0.00038850063, 0.00127325533, -0.000634217053, -0.182621   , -0.164149925, 0.422677636 , -0.0122728143, 0.03661199  , 2.38180661  , 0.34        , 3           , 12          , 0.03475391  , 0
0.371916026 , 0.129955769 , -9.784786   , 0.000820052635, -0.000272486563, -0.000210822, -0.182621   , -0.164149925, 0.422677636 , -0.0122646913, 0.0366092436, 2.3818047   , 0.35        , 3           , 50          , 0           , 0
0.361710846 , 0.1178236   , -9.764575   , -0.000172296961, 0.0005655254, 0.0003509455, -0.182621   , -0.163947687, 0.422745049 , -0.0122662866, 0.03661494  , 2.381808    , 0.36        , 3           , 11          , 0.0347533971, 0.0347533971
0.353119165 , 0.110345729 , -9.791791   , -0.00158078293, -0.000147936429, 0.0006258134, -0.182688415, -0.164082512, 0.4229473   , -0.0122818658, 0.03661354  , 2.38181424  , 0.37        , 3           , 12          , 0.03475391  , 0
0.328007638 , 0.128695518 , -9.79371548 , -0.000731656153, -0.0005645553, 0.00020530702, -0.183092892, -0.163880274, 0.4225428   , -0.012289105, 0.03660793  , 2.38181615  , 0.38        , 3           , 50          , 0           , 0
0.337885082 , 0.123600781 , -9.789141   , 0.000395915617, 6.21791969E-06, 0.00134159252, -0.183092892, -0.163880274, 0.4225428   , -0.0122846514, 0.0366081446, 2.38183     , 0.39        , 3           , 11          , 0.0347533971, 0.0347533971
0.351789117 , 0.110830978 , -9.797223   , 0.0007997776, 0.000110384717, 0.00162514322, -0.182755828, -0.163745448, 0.422677636 , -0.0124532012, 0.0362464152, 2.38184     , 0.4         , 3           , 12          , 0.0348954126, 0
0.3483796   , 0.1288999   , -9.791298   , -0.0007509006, -0.00060403673, 0.000204127951, -0.182688415, -0.163880274, 0.422879875 , -0.0124606332, 0.0362404   , 2.381842    , 0.41        , 3           , 50          , 0           , 0
0.341536    , 0.124474153 , -9.793177   , 9.543819E-05, -0.000457525457, -0.000215510532, -0.182621   , -0.164217338, 0.422879875 , -0.0124597568, 0.0362358019, 2.38184     , 0.42        , 3           , 11          , 0.0176942665, 0.0176942069
0.332585365 , 0.105546683 , -9.769368   , 0.002493115 , 0.000121838617, -0.000485986238, -0.182621   , -0.164217338, 0.422879875 , -0.0124350041, 0.03623696  , 2.38183475  , 0.43        , 3           , 12          , 0.0348954126, 0
0.3232908   , 0.08760543  , -9.769062   , 0.00164817029, -0.00030623778, -6.678169E-05, -0.182688415, -0.163880274, 0.422745049 , -0.0124185421, 0.0362338871, 2.38183427  , 0.44        , 3           , 50          , 0           , 0
0.3148236   , 0.09227993  , -9.78764    , 0.00136287382, 0.000254982 , -0.000208499478, -0.182755828, -0.164082512, 0.422812462 , -0.0124049913, 0.036236424 , 2.38183236  , 0.45        , 3           , 11          , 0.0176942665, 0.0176942069
0.322655469 , 0.112830654 , -9.754047   , -0.000611896743, -0.0003215206, -0.001207467, -0.182823241, -0.1640151  , 0.422812462 , -0.012411546, 0.0362330563, 2.38182     , 0.46        , 3           , 12          , 0.0348954126, 0
0.34162572  , 0.145078957 , -9.748796   , -0.000185142111, -0.0008817843, -0.000641284452, -0.182823241, -0.1640151  , 0.422812462 , -0.0124136265, 0.0362241566, 2.38181376  , 0.47        , 3           , 50          , 0           , 0
0.346282572 , 0.13531062  , -9.811626   , 0.000942926446, -0.000592580531, -0.00105938909, -0.182688415, -0.163880274, 0.422677636 , -0.01240458 , 0.0362181   , 2.38180327  , 0.48        , 3           , 11          , 0.0176942665, 0.0176942069
0.349805951 , 0.135187984 , -9.787646   , 0.00121956959, 0.00067637465, -0.00020850703, -0.182688415, -0.163543209, 0.422812462 , -0.0123924632, 0.0362248532, 2.381801    , 0.49        , 3           , 12          , 0.0348954126, 0
0.363408834 , 0.135936856 , -9.789346   , 0.00276032183, 0.0017181799, 0.00107045053, -0.182621   , -0.164284751, 0.422745049 , -0.0124017987, 0.03578562  , 2.38181043  , 0.5         , 3           , 50          , 0           , 0
0.397797137 , 0.134174883 , -9.787735   , 0.00177367427, 0.00128914625, 0.0006413841, -0.182621   , -0.164284751, 0.422745049 , -0.0123838354, 0.0357985832, 2.38181663  , 0.51        , 3           , 11          , 0.0134350043, 0.01343495
0.363183439 , 0.121024683 , -9.782178   , 0.000364045962, 0.0005756791, -0.00106151018, -0.182688415, -0.1640151  , 0.4224754   , -0.0123805786, 0.0358042121, 2.38180566  , 0.52        , 3           , 12          , 0.0350922123, 0
0.359388143 , 0.108875535 , -9.779094   , 0.001351083 , 0.0009343217, -0.000561917841, -0.182890654, -0.163812861, 0.422745049 , -0.0123672755, 0.0358134843, 2.3818      , 0.53        , 3           , 50          , 0           , 0
0.36148417  , 0.126046389 , -9.793469   , 7.759669E-05, 0.00155925087, 0.000422013371, -0.182823241, -0.163880274, 0.422812462 , -0.0123663535, 0.0358291268, 2.38180423  , 0.54        , 3           , 11          , 0.0134350043, 0.01343495
0.366953343 , 0.126457945 , -9.800658   , -0.000273553422, 0.00127530075, 0.00126754574, -0.182823241, -0.163880274, 0.422812462 , -0.0123686409, 0.03584203  , 2.38181663  , 0.55        , 3           , 12          , 0.0350922123, 0
0.35085392  , 0.116173774 , -9.772801   , 0.0012806803, 0.0009338452, -0.000209075239, -0.182688415, -0.164082512, 0.422610223 , -0.0123559153, 0.03585135  , 2.38181424  , 0.56        , 3           , 50          , 0           , 0
0.347002268 , 0.103532679 , -9.757515   , 0.0005121478, -0.000831191661, -0.00120429019, -0.182890654, -0.163745448, 0.422745049 , -0.0123512214, 0.0358428843, 2.3818028   , 0.57        , 3           , 11          , 0.0134350043, 0.01343495
0.353892982 , 0.103533074 , -9.781418   , 0.0007239607, -0.000548187469, 0.0011987   , -0.182823241, -0.164149925, 0.422879875 , -0.012343551, 0.0358375572, 2.38181472  , 0.58        , 3           , 12          , 0.0350922123, 0
0.343384534 , 0.09197377  , -9.796009   , 0.00264173886, -0.00278781471, 0.001627924 , -0.182823241, -0.163880274, 0.422610223 , -0.0123165352, 0.035809882 , 2.38183141  , 0.59        , 3           , 50          , 0           , 0
0.352148741 , 0.105840333 , -9.790462   , 0.0043076463, 0.001256887 , 0.000443428871, -0.182823241, -0.163880274, 0.422610223 , -0.0120863784, 0.0358865634, 2.38184237  , 0.6         , 3           , 11          , 0.0113508254, 0.0113507919
0.364416748 , 0.103053391 , -9.809362   , 0.00191214588, 0.000114389746, -0.000346478744, -0.182755828, -0.1640151  , 0.422879875 , -0.0120673822, 0.035887666 , 2.381839    , 0.61        , 3           , 12          , 0.0353429653, 0
0.367118716 , 0.108365767 , -9.788528   , -0.0007009583, 0.000237505315, -0.000287809, -0.182823241, -0.163812861, 0.422812462 , -0.0120744966, 0.03589     , 2.38183618  , 0.62        , 3           , 50          , 0           , 0
0.359835684 , 0.1093123   , -9.776377   , -0.00274453755, -0.0004802523, 0.0006198051, -0.182621   , -0.164284751, 0.422879875 , -0.0121017173, 0.0358852744, 2.38184237  , 0.63        , 3           , 11          , 0.0113508254, 0.0113507919
0.3445791   , 0.119871035 , -9.776902   , -0.00176262436, 0.000863867 , 0.000697109848, -0.182621   , -0.164284751, 0.422879875 , -0.0121190958, 0.0358940065, 2.38184953  , 0.64        , 3           , 12          , 0.0353429653, 0
0.335126668 , 0.12270619  , -9.781935   , -0.001901495, 0.000158993847, -0.00128239579, -0.182890654, -0.163947687, 0.422812462 , -0.0121385725, 0.035895437 , 2.38183618  , 0.65        , 3           , 50          , 0           , 0
0.3559377   , 0.122001447 , -9.779065   , -0.00274656177, -0.000269083015, -0.0010750941, -0.182890654, -0.163678035, 0.4230821   , -0.0121664209, 0.0358926132, 2.38182569  , 0.66        , 3           , 11          , 0.0113508254, 0.0113507919
0.350076616 , 0.12075185  , -9.789511   , -0.004436288, -0.00112523464, 4.585212E-05, -0.182823241, -0.164082512, 0.422879875 , -0.0122107621, 0.03588137  , 2.38182664  , 0.67        , 3           , 12          , 0.0353429653, 0
0.350509077 , 0.12608628  , -9.767338   , -0.00259618764, -0.00202790764, -0.000300169864, -0.182823241, -0.164082512, 0.422879875 , -0.0122368233, 0.0358610563, 2.38182378  , 0.68        , 3           , 50          , 0           , 0
0.3397433   , 0.134330064 , -9.766029   , -0.00224284246, -0.00223669736, -0.00157026772, -0.183227718, -0.164284751, 0.422745049 , -0.0122598056, 0.0358384959, 2.381808    , 0.69        , 3           , 11          , 0.0113508254, 0.0113507919
0.3565272   , 0.127909467 , -9.793499   , -0.00154412945, -0.000759985531, 0.000201055853, -0.182688415, -0.164149925, 0.4229473   , -0.0122774076, 0.0358176269, 2.38181043  , 0.7         , 3           , 12          , 0.0356461   , 0
0.357966423 , 0.128851756 , -9.810208   , -0.000423894759, 0.00121861137, 0.0007038017, -0.182755828, -0.163812861, 0.4229473   , -0.0122814  , 0.035829898 , 2.381817    , 0.71        , 3           , 50          , 0           , 0
0.362724841 , 0.123257026 , -9.773583   , 0.00197517616, 0.00151641015, 0.000432892062, -0.182755828, -0.163812861, 0.4229473   , -0.0122615  , 0.03584511  , 2.381821    , 0.72        , 3           , 11          , 0.0101351766, 0.010135171
0.336688519 , 0.1081997   , -9.767518   , 0.00119462807, 0.00228546164, 0.000359829457, -0.182958066, -0.1640151  , 0.4230147   , -0.0122494353, 0.035868004 , 2.38182473  , 0.73        , 3           , 12          , 0.0356461   , 0
0.343083978 , 0.09611958  , -9.81995    , 0.0004940517, 0.00129521184, 0.00141453382, -0.182958066, -0.163880274, 0.423149526 , -0.0122439917, 0.03588113  , 2.381838    , 0.74        , 3           , 50          , 0           , 0
0.345783353 , 0.097859025 , -9.809978   , -0.0008448693, 0.000652615563, 0.0004890553, -0.182755828, -0.1640151  , 0.4229473   , -0.01225227 , 0.0358877145, 2.38184285  , 0.75        , 3           , 11          , 0.0101351766, 0.010135171
0.341136    , 0.1303248   , -9.78728    , 0.002973035 , -0.000236683467, 0.00156493916, -0.182755828, -0.1640151  , 0.4229473   , -0.0122219753, 0.03588554  , 2.381859    , 0.76        , 3           , 12          , 0.0356461   , 0
0.359022051 , 0.115199983 , -9.779974   , 0.00163454388, -0.000949670735, 0.0007806208, -0.183025479, -0.1640151  , 0.422812462 , -0.0122053446, 0.0358761437, 2.38186669  , 0.77        , 3           , 50          , 0           , 0
0.340587676 , 0.119540274 , -9.798628   , -0.000774852233, 0.000582697336, -0.00113531423, -0.182823241, -0.1640151  , 0.423149526 , -0.0122135039, 0.03588183  , 2.38185525  , 0.78        , 3           , 11          , 0.0101351766, 0.010135171
0.352859616 , 0.122112729 , -9.801234   , 0.00232187356, 0.00285623339, 0.000931040267, -0.182755828, -0.164486989, 0.423149526 , -0.0121899657, 0.0359105058, 2.38186479  , 0.79        , 3           , 12          , 0.0356461   , 0
0.3293536   , 0.129562214 , -9.787826   , 0.00227753725, 0.00190736994, -0.000129826454, -0.1831603  , -0.163947687, 0.4229473   , -0.01213018 , 0.0358744338, 2.38186383  , 0.8         , 3           , 50          , 0           , 0
0.3337427   , 0.153425381 , -9.787692   , 0.0007958235, 0.00161577575, -0.0007728836, -0.1831603  , -0.163947687, 0.4229473   , -0.0121225072, 0.0358904935, 2.3818562   , 0.81        , 3           , 11          , 0.009382498 , 0.009382496
0.358741552 , 0.123825543 , -9.794404   , -0.0001725425, -0.002332817, 0.0002759475, -0.183092892, -0.163880274, 0.423149526 , -0.012124124, 0.0358672   , 2.381859    , 0.82        , 3           , 12          , 0.03599988  , 0
0.375513852 , 0.132125169 , -9.771642   , -0.000597409962, -0.002194902, -0.0006440577, -0.182823241, -0.163880274, 0.423284352 , -0.0121303163, 0.0358451754, 2.38185334  , 0.83        , 3           , 50          , 0           , 0
0.348092139 , 0.1433224   , -9.785364   , -0.00215331931, -0.00171266845, -0.0008624446, -0.182823241, -0.164082512, 0.4229473   , -0.0121521521, 0.0358279422, 2.38184476  , 0.84        , 3           , 11          , 0.009382498 , 0.009382496
0.33807227  , 0.139821067 , -9.782744   , -0.00244001 , -0.000869883865, -0.00100372836, -0.182823241, -0.164082512, 0.4229473   , -0.0121769086, 0.03581913  , 2.38183522  , 0.85        , 3           , 12          , 0.03599988  , 0
0.3558412   , 0.137471378 , -9.816517   , -0.004480431, -0.00229155552, -0.0006622741, -0.182958066, -0.163880274, 0.4230821   , -0.01222194 , 0.03579614  , 2.38182855  , 0.86        , 3           , 50          , 0           , 0
0.376487643 , 0.1611084   , -9.805864   , -0.00222872384, -0.0007276679, -0.0007199863, -0.182890654, -0.163880274, 0.423149526 , -0.0122444807, 0.03578877  , 2.38182187  , 0.87        , 3           , 11          , 0.009382498 , 0.009382496
0.387864441 , 0.1677171   , -9.798067   , -0.00167410239, 0.001458284 , 0.000274891674, -0.183025479, -0.163947687, 0.4229473   , -0.0122611308, 0.03580338  , 2.38182378  , 0.88        , 3           , 12          , 0.03599988  , 0
0.373177916 , 0.1529977   , -9.797789   , 0.0007249128, 0.001544904 , -0.00190347154, -0.183025479, -0.163947687, 0.4229473   , -0.0122545715, 0.0358186   , 2.3818047   , 0.89        , 3           , 50          , 0           , 0
0.376068234 , 0.138451084 , -9.776133   , -0.00125401083, -0.00121658959, -0.00107727863, -0.182958066, -0.163947687, 0.423216939 , -0.0126867983, 0.0359965153, 2.38177943  , 0.9         , 3           , 11          , 0.008917471 , 0.008917472
0.364951551 , 0.118290447 , -9.780368   , 0.000239670975, -0.003177512, 0.000974994444, -0.182823241, -0.164149925, 0.423284352 , -0.0126840388, 0.0359648652, 2.38178945  , 0.91        , 3           , 12          , 0.0364024341, 0
0.363469422 , 0.09945934  , -9.81073952 , -0.000473221473, -0.00184485351, 0.000620591338, -0.183025479, -0.164217338, 0.423149526 , -0.0126885371, 0.0359465033, 2.38179612  , 0.92        , 3           , 50          , 0           , 0
0.359048069 , 0.10495504  , -9.819339   , 0.0007088925, 0.00168282341, -0.00071044045, -0.183025479, -0.164217338, 0.423149526 , -0.0126817124, 0.0359632336, 2.38178849  , 0.93        , 3           , 11          , 0.008917471 , 0.008917472
0.3500927   , 0.127460167 , -9.771855   , 9.053997E-06, 0.0005517913, 0.0004146813, -0.182958066, -0.164217338, 0.4229473   , -0.012681474, 0.0359688029, 2.38179278  , 0.94        , 3           , 12          , 0.0364024341, 0
0.33045122  , 0.117283553 , -9.76346    , 0.000220773931, 0.000482830335, -0.0003614174, -0.182958066, -0.164217338, 0.423216939 , -0.0126793981, 0.0359735861, 2.38178945  , 0.95        , 3           , 50          , 0           , 0
0.3134989   , 0.1025892   , -9.762746   , -0.000414931128, 0.000478531729, -0.0007881867, -0.182890654, -0.164217338, 0.4230821   , -0.0126838358, 0.0359782726, 2.38178086  , 0.96        , 3           , 11          , 0.008917471 , 0.008917472
0.340734661 , 0.0992013961, -9.78922    , 0.0005797505, -0.000641040737, 0.000274202233, -0.182890654, -0.164217338, 0.4230821   , -0.012677934, 0.0359719   , 2.38178372  , 0.97        , 3           , 12          , 0.0364024341, 0
0.365652531 , 0.101152696 , -9.785405   , -0.00173725747, -0.00312048872, 0.00167222787, -0.182890654, -0.163947687, 0.4230821   , -0.01269469 , 0.0359409079, 2.381801    , 0.98        , 3           , 50          , 0           , 0
0.3526305   , 0.107197523 , -9.793164   , 0.0005137894, -0.00127503253, 0.00288636843, -0.182958066, -0.164082512, 0.423216939 , -0.0126885083, 0.03592853  , 2.38183045  , 0.99        , 3           , 11          , 0.008917471 , 0.008917472
0.3597342   , 0.133258864 , -9.785316   , -0.0006272486, -0.0006592368, 0.00168534287, -0.182890654, -0.164149925, 0.4230147   , -0.0125261545, 0.0359107628, 2.38185334  , 1           , 3           , 12          , 0.03685174  , 0
0.380516976 , 0.134763    , -9.768429   , 0.000290089723, -0.00072342495, 0.00013555825, -0.182890654, -0.164149925, 0.4230147   , -0.0125232  , 0.0359035432, 2.38185477  , 1.01        , 3           , 50          , 0           , 0
0.392947078 , 0.141927108 , -9.794971   , -0.00148450234, 0.0009540232, -0.00170656282, -0.182823241, -0.164217338, 0.423149526 , -0.012538664, 0.03591287  , 2.38183761  , 1.02        , 3           , 11          , 0.008639668 , 0.008639647
0.389490217 , 0.123877451 , -9.782869   , 0.00154253992, 0.00301590748, 0.000147233877, -0.182890654, -0.164082512, 0.423284352 , -0.0125231985, 0.03594305  , 2.38183856  , 1.03        , 3           , 12          , 0.03685174  , 0
0.377771348 , 0.125844449 , -9.790182   , 0.002397428 , 0.00140263606, -0.000557653955, -0.183092892, -0.164284751, 0.423351765 , -0.0124994311, 0.0359570049, 2.38183284  , 1.04        , 3           , 50          , 0           , 0
0.387209177 , 0.158631355 , -9.77777    , -6.919452E-05, 0.0004708377, -0.0004293186, -0.182823241, -0.164149925, 0.423351765 , -0.0125002824, 0.0359616652, 2.38182855  , 1.05        , 3           , 11          , 0.008639668 , 0.008639647
0.378302872 , 0.1442033   , -9.750327   , 0.000430995366, -0.0006520784, 0.000206959434, -0.182823241, -0.164149925, 0.423351765 , -0.0124958968, 0.03595517  , 2.38183045  , 1.06        , 3           , 12          , 0.03685174  , 0
0.351543158 , 0.128411531 , -9.791276   , -0.000844129536, 0.000254414772, 0.0007675184, -0.182890654, -0.1640151  , 0.423284352 , -0.01250406 , 0.03595781  , 2.381838    , 1.07        , 3           , 50          , 0           , 0
0.361230165 , 0.137817934 , -9.80427    , -0.0005523339, -0.00164423988, 0.000695272 , -0.182890654, -0.164217338, 0.423554    , -0.0125093255, 0.03594145  , 2.38184571  , 1.08        , 3           , 11          , 0.008639668 , 0.008639647
0.350274771 , 0.131624848 , -9.803024   , 0.002048291 , 0.0005555519, -0.00105504261, -0.182958066, -0.164149925, 0.423216939 , -0.0124892257, 0.0359468721, 2.38183475  , 1.09        , 3           , 12          , 0.03685174  , 0
0.338126361 , 0.104677357 , -9.798257   , 0.0009857989, 0.000461323245, -0.000356261415, -0.182958066, -0.164149925, 0.423216939 , -0.0126518672, 0.0361789465, 2.38182473  , 1.1         , 3           , 50          , 0           , 0
0.355940521 , 0.08815525  , -9.777849   , -0.00127466116, 0.0006572173, -0.000366471271, -0.182958066, -0.1640151  , 0.423351765 , -0.0126647493, 0.0361854769, 2.38182139  , 1.11        , 3           , 11          , 0.008484913 , 0.008484904
0.3376356   , 0.103759207 , -9.791936   , -0.001200566, -0.0001870039, -0.00156822812, -0.182890654, -0.164082512, 0.423284352 , -0.0126773193, 0.0361834019, 2.38180566  , 1.12        , 3           , 12          , 0.0373457372, 0
0.3357752   , 0.100169726 , -9.791513   , 0.001334506 , 0.00137879828, -3.3037395E-08, -0.182688415, -0.164352164, 0.423216939 , -0.01266398 , 0.0361971855, 2.38180566  , 1.13        , 3           , 50          , 0           , 0
0.326721132 , 0.102509126 , -9.784793   , 0.000206945289, 0.00115998986, 0.00190150191, -0.182688415, -0.164352164, 0.423216939 , -0.012661227, 0.0362090245, 2.38182473  , 1.14        , 3           , 11          , 0.008484913 , 0.008484904
0.312458515 , 0.106433585 , -9.828277   , -0.00359691516, -0.000836754451, 0.000397364027, -0.183025479, -0.164149925, 0.423216939 , -0.0126970457, 0.0362007059, 2.38182855  , 1.15        , 3           , 12          , 0.0373457372, 0
0.3243679   , 0.09264363  , -9.794796   , -0.00339841261, 0.00155797414, -0.00214079721, -0.183025479, -0.163880274, 0.423216939 , -0.0127318148, 0.0362160131, 2.38180661  , 1.16        , 3           , 50          , 0           , 0
0.325909138 , 0.110629894 , -9.781602   , -0.00169778615, 0.0004431759, -0.00128701888, -0.182823241, -0.164082512, 0.423284352 , -0.0127492612, 0.0362202823, 2.38179374  , 1.17        , 3           , 11          , 0.008484913 , 0.008484904
0.365176976 , 0.1256147   , -9.811974   , 0.000207015415, 0.0008080253, -0.0009950497, -0.182823241, -0.164082512, 0.423284352 , -0.012747556, 0.0362282321, 2.38178372  , 1.18        , 3           , 12          , 0.0373457372, 0
0.360981    , 0.118422963 , -9.805708   , 0.000484767137, 0.001795414 , -0.0006390422, -0.183092892, -0.164082512, 0.4230147   , -0.01274295 , 0.0362461   , 2.381777    , 1.19        , 3           , 50          , 0           , 0
0.323882669 , 0.124239385 , -9.796024   , 0.000806066266, 0.00101229374, 0.0009897073, -0.183227718, -0.164082512, 0.423419178 , -0.01253397 , 0.0360851   , 2.38179421  , 1.2         , 3           , 11          , 0.00840501953, 0.008405003
0.335332751 , 0.136710018 , -9.787297   , 0.00172416482, 0.0007369304, -0.00105484342, -0.182823241, -0.164217338, 0.423284352 , -0.0125171132, 0.0360923372, 2.38178372  , 1.21        , 3           , 12          , 0.0378822759, 0
0.364611149 , 0.12909919  , -9.773093   , -0.0007340345, -0.0018138648, -0.000222659728, -0.182823241, -0.164217338, 0.423284352 , -0.0125245275, 0.0360741727, 2.38178182  , 1.22        , 3           , 50          , 0           , 0
0.383547127 , 0.125239521 , -9.76483    , 0.000457073853, 9.481751E-05, 0.000139038137, -0.183092892, -0.164284751, 0.423419178 , -0.0125199063, 0.0360751376, 2.38178277  , 1.23        , 3           , 11          , 0.00840501953, 0.008405003
0.3671494   , 0.139561    , -9.806478   , 0.00349252787, 0.000185739467, -0.000341136736, -0.183227718, -0.1640151  , 0.423216939 , -0.0124851037, 0.03607695  , 2.38177943  , 1.24        , 3           , 12          , 0.0378822759, 0
0.360827029 , 0.134292662 , -9.827791   , -0.0003772938, -0.002444996, 0.0007668913, -0.183025479, -0.164217338, 0.423216939 , -0.01248859 , 0.0360526   , 2.38178754  , 1.25        , 3           , 50          , 0           , 0
0.379056215 , 0.149797752 , -9.805893   , -0.002360469, -0.00133210886, -0.0003001069, -0.182823241, -0.163947687, 0.423149526 , -0.0125122983, 0.0360392444, 2.38178468  , 1.26        , 3           , 11          , 0.00840501953, 0.008405003
0.345393538 , 0.145154357 , -9.784022   , -0.001864294, -0.00175111473, -0.000580990571, -0.182823241, -0.163947687, 0.423149526 , -0.0125311408, 0.03602166  , 2.381779    , 1.27        , 3           , 12          , 0.0378822759, 0
0.353045    , 0.141009688 , -9.785788   , 0.00193315628, 0.00130149291, -0.00112362218, -0.182823241, -0.163880274, 0.423351765 , -0.012512221, 0.03603454  , 2.38176751  , 1.28        , 3           , 50          , 0           , 0
0.362524778 , 0.137303948 , -9.790252   , 0.00186269032, 0.001371409 , -0.000276230654, -0.182958066, -0.164217338, 0.423621416 , -0.0124937017, 0.03604822  , 2.38176465  , 1.29        , 3           , 11          , 0.00840501953, 0.008405003
0.382109523 , 0.143863827 , -9.796402   , -0.00190032774, -0.00106129947, -0.000373027753, -0.182823241, -0.163947687, 0.423554    , -0.0127095208, 0.0360998549, 2.38175416  , 1.3         , 3           , 12          , 0.038459193 , 0
0.374930918 , 0.144895017 , -9.80956    , -0.000847044343, -6.866385E-05, -0.001991161, -0.182823241, -0.163947687, 0.423554    , -0.0127187092, 0.0360989235, 2.38173413  , 1.31        , 3           , 50          , 0           , 0
0.361246467 , 0.107107125 , -9.796262   , -0.001416206, 0.0009129967, -0.00100339483, -0.183564782, -0.1640151  , 0.423284352 , -0.0127332369, 0.03610792  , 2.381724    , 1.32        , 3           , 11          , 0.008366803 , 0.0083668
0.364500433 , 0.120528847 , -9.773582   , -0.0005531651, -0.00210809428, 0.000337944046, -0.182958066, -0.163812861, 0.423621416 , -0.0127386339, 0.03608688  , 2.38172746  , 1.33        , 3           , 12          , 0.038459193 , 0
0.356045544 , 0.12923044  , -9.782199   , -0.000549743068, -0.00274161412, 0.000831408252, -0.183092892, -0.164149925, 0.423216939 , -0.0127438186, 0.03605957  , 2.38173652  , 1.34        , 3           , 50          , 0           , 0
0.346909165 , 0.118559018 , -9.797228   , -6.93768161E-05, 0.0001477722, 0.00154450431, -0.183092892, -0.164149925, 0.423216939 , -0.0127439545, 0.0360612422, 2.38175225  , 1.35        , 3           , 11          , 0.008366803 , 0.0083668
0.3330226   , 0.09704812  , -9.792904   , 0.000141605371, 0.000219593538, 0.000697988144, -0.183025479, -0.164082512, 0.423351765 , -0.0127422865, 0.0360635333, 2.381759    , 1.36        , 3           , 12          , 0.038459193 , 0
0.34011367  , 0.118635736 , -9.796376   , 0.00162006437, 0.00100392266, -7.08825755E-05, -0.183025479, -0.164149925, 0.423554    , -0.0127261151, 0.0360735543, 2.381758    , 1.37        , 3           , 50          , 0           , 0
0.356423318 , 0.118451931 , -9.798512   , 0.00147960731, 0.0009325784, 0.0006346941, -0.183025479, -0.164352164, 0.423688829 , -0.0127110956, 0.0360829644, 2.38176465  , 1.38        , 3           , 11          , 0.008366803 , 0.0083668
0.377454251 , 0.138011187 , -9.784259   , -0.0008545927, 0.0016207305, -0.000575870043, -0.183025479, -0.164352164, 0.423688829 , -0.0127198556, 0.0360991   , 2.38175845  , 1.39        , 3           , 12          , 0.038459193 , 0
0.3614838   , 0.125599772 , -9.794827   , -0.0002756788, -0.0009961763, -1.15745652E-05, -0.183025479, -0.164284751, 0.423419178 , -0.0127220582, 0.0361506157, 2.38175845  , 1.4         , 3           , 50          , 0           , 0
0.3716172   , 0.139012843 , -9.793339   , -5.391532E-05, -0.00303609134, -0.000296270271, -0.183295131, -0.164082512, 0.423621416 , -0.0127226887, 0.0361202173, 2.381756    , 1.41        , 3           , 11          , 0.008347303 , 0.008347291
0.351463318 , 0.156392783 , -9.792517   , 0.00028948253, -0.001062748, -7.96835448E-05, -0.183227718, -0.164149925, 0.4234866   , -0.0127198165, 0.0361095779, 2.381755    , 1.42        , 3           , 12          , 0.0390743241, 0
0.361890078 , 0.120646931 , -9.799365   , -0.00168965571, -0.0007241634, -0.0007947033, -0.183227718, -0.164149925, 0.4234866   , -0.0127369976, 0.0361022428, 2.38174748  , 1.43        , 3           , 50          , 0           , 0
0.363114476 , 0.113380805 , -9.789894   , -0.000500553, 0.00146608148, -0.001492087, -0.182958066, -0.1640151  , 0.423351765 , -0.0127425482, 0.0361167081, 2.38173223  , 1.44        , 3           , 11          , 0.008347303 , 0.008347291
0.364354432 , 0.107020028 , -9.781323   , 0.00331554585, 0.0009991315, 7.88882753E-05, -0.183362544, -0.1640151  , 0.4234866   , -0.012709368, 0.03612671  , 2.38173318  , 1.45        , 3           , 12          , 0.0390743241, 0
0.3524407   , 0.122591875 , -9.808016   , 0.000572609948, -0.001342406, -0.00127958483, -0.183092892, -0.164082512, 0.423554    , -0.0127040995, 0.0361131243, 2.38172078  , 1.46        , 3           , 50          , 0           , 0
0.388505    , 0.1144502   , -9.793763   , -0.00198374619, 0.00159683789, -0.00107497768, -0.183092892, -0.164082512, 0.423554    , -0.0127243325, 0.0361289531, 2.38170934  , 1.47        , 3           , 11          , 0.008347303 , 0.008347291
0.375329971 , 0.112783112 , -9.788898   , -0.001352568, 0.00237543718, -0.00184779952, -0.182823241, -0.164284751, 0.423284352 , -0.0127385361, 0.03615247  , 2.38169026  , 1.48        , 3           , 12          , 0.0390743241, 0
0.346216917 , 0.1348111   , -9.797166   , -0.000567904441, 0.000972869049, -8.04883239E-05, -0.183092892, -0.164082512, 0.423688829 , -0.0127442488, 0.03616219  , 2.38168931  , 1.49        , 3           , 50          , 0           , 0
0.355117828 , 0.119403437 , -9.808461   , 3.070741E-05, -0.0005919362, -0.00085494935, -0.183025479, -0.164284751, 0.423419178 , -0.0127143264, 0.036295902 , 2.38168263  , 1.5         , 3           , 11          , 0.008330888 , 0.008330877
0.3449002   , 0.108153909 , -9.782371   , -0.00067054003, -0.00165258208, -0.00156621262, -0.182958066, -0.164082512, 0.423284352 , -0.0127215916, 0.0362791829, 2.381667    , 1.51        , 3           , 12          , 0.0397255346, 0
0.348739654 , 0.119446114 , -9.799019   , -0.0009581794, -0.0003874441, 0.000270916556, -0.182958066, -0.164082512, 0.423284352 , -0.0127310725, 0.0362753347, 2.38166976  , 1.52        , 3           , 50          , 0           , 0
0.343673438 , 0.109615542 , -9.809946   , 0.00136079383, 0.00181044126, -0.000138661868, -0.1831603  , -0.164217338, 0.4234866   , -0.0127175236, 0.0362934247, 2.38166833  , 1.53        , 3           , 11          , 0.008330888 , 0.008330877
0.374916434 , 0.112820178 , -9.798393   , 0.0008668137, 0.00173670729, -0.000282343652, -0.183025479, -0.164149925, 0.423621416 , -0.0127089666, 0.0363107547, 2.381665    , 1.54        , 3           , 12          , 0.0397255346, 0
0.380995363 , 0.128975883 , -9.793308   , -0.00102790364, -0.000599096064, -1.22756164E-05, -0.182958066, -0.164284751, 0.4234866   , -0.0127192456, 0.03630476  , 2.381665    , 1.55        , 3           , 50          , 0           , 0
0.370750785 , 0.111455575 , -9.780804   , -0.00363449054, -0.00174302247, 0.000468247628, -0.182958066, -0.164284751, 0.4234866   , -0.0127554126, 0.03628739  , 2.38167024  , 1.56        , 3           , 11          , 0.008330888 , 0.008330877
0.363585442 , 0.117853738 , -9.779928   , -0.00180273131, -0.00102669746, -0.0004403542, -0.183025479, -0.164352164, 0.4234866   , -0.0127735958, 0.0362770669, 2.38166547  , 1.57        , 3           , 12          , 0.0397255346, 0
0.361969858 , 0.125175059 , -9.804317   , -0.0009548353, -0.00116175041, -0.0005778891, -0.183227718, -0.1640151  , 0.423554    , -0.0127833467, 0.0362653732, 2.38165975  , 1.58        , 3           , 50          , 0           , 0
0.3691893   , 0.1264087   , -9.793861   , -0.00180845184, 0.0001699551, -8.533823E-05, -0.1831603  , -0.164217338, 0.423419178 , -0.0128014637, 0.03626706  , 2.38165927  , 1.59        , 3           , 11          , 0.008330888 , 0.008330877
0.372414082 , 0.133111537 , -9.785673   , 0.000734393368, 0.000167945516, -0.00056432205, -0.1831603  , -0.164217338, 0.423419178 , -0.0127096428, 0.0364137366, 2.381657    , 1.6         , 3           , 12          , 0.0404107124, 0
0.3460589   , 0.132897645 , -9.764632   , -0.000469301769, 0.0007933484, -0.000992749, -0.183295131, -0.164352164, 0.423419178 , -0.0127147  , 0.03642154  , 2.38164639  , 1.61        , 3           , 50          , 0           , 0
0.360747933 , 0.140923843 , -9.78708649 , -0.00285888533, -0.00126422849, 0.0006175016, -0.183092892, -0.1640151  , 0.423554    , -0.0127430605, 0.03640898  , 2.381653    , 1.62        , 3           , 11          , 0.00830854848, 0.00830854
0.3352608   , 0.160234153 , -9.804828   , -0.000662224949, -0.002868426, 0.000342675165, -0.182823241, -0.164217338, 0.423351765 , -0.0127495425, 0.0363803469, 2.381657    , 1.63        , 3           , 12          , 0.0404107124, 0
0.3408039   , 0.139801264 , -9.78634    , -0.000811494654, -0.0012503824, 0.000273877464, -0.182823241, -0.164217338, 0.423351765 , -0.01275755 , 0.0363678746, 2.38165975  , 1.64        , 3           , 50          , 0           , 0
0.3611369   , 0.1301544   , -9.80611    , 0.000722829951, 0.00256125024, -6.619295E-05, -0.1831603  , -0.164419577, 0.423351765 , -0.0127503574, 0.0363934748, 2.38165879  , 1.65        , 3           , 11          , 0.00830854848, 0.00830854
0.3445044   , 0.109544434 , -9.79186    , 0.00199391413, 0.00256984564, 0.0002222706, -0.183227718, -0.164082512, 0.423621416 , -0.01273035 , 0.0364192054, 2.3816607   , 1.66        , 3           , 12          , 0.0404107124, 0
0.346541852 , 0.125775188 , -9.794941   , 8.76329E-05 , 0.00262734666, 0.000990468 , -0.182958066, -0.164149925, 0.423688829 , -0.0127291232, 0.0364456   , 2.38167024  , 1.67        , 3           , 50          , 0           , 0
0.362953961 , 0.138172239 , -9.781656   , 0.00150995876, 0.0004547643, -6.582587E-05, -0.182958066, -0.164149925, 0.423688829 , -0.01271405 , 0.0364501365, 2.38166928  , 1.68        , 3           , 11          , 0.00830854848, 0.00830854
0.35458678  , 0.122023448 , -9.780883   , 0.000742713164, -0.00138065941, 0.0005634412, -0.183025479, -0.164217338, 0.4234866   , -0.012706412, 0.036436405 , 2.38167548  , 1.69        , 3           , 12          , 0.0404107124, 0
0.3443932   , 0.130358636 , -9.808498   , 0.00145710609, -0.000702221063, 0.0017663975, -0.1831603  , -0.164082512, 0.423351765 , -0.0127642453, 0.0363918841, 2.38169074  , 1.7         , 3           , 50          , 0           , 0
0.334967077 , 0.110971719 , -9.780627   , 0.00251063425, 0.000290415977, 0.0005720705, -0.182958066, -0.164082512, 0.423621416 , -0.0127389338, 0.0363948643, 2.381696    , 1.71        , 3           , 11          , 0.008276275 , 0.008276273
0.333262682 , 0.121791869 , -9.772008   , 0.00166472548, 7.35138E-05 , 0.00113286939, -0.183025479, -0.164284751, 0.423351765 , -0.012721872, 0.036395736 , 2.38170743  , 1.72        , 3           , 12          , 0.0411278047, 0
0.3336674   , 0.10969618  , -9.799173   , 0.00194731914, -6.536127E-05, 0.0002157226, -0.183025479, -0.164284751, 0.423351765 , -0.0127023179, 0.0363951139, 2.38170981  , 1.73        , 3           , 50          , 0           , 0
0.352320969 , 0.08686095  , -9.782854   , 0.00386002916, -0.00110833277, 0.00213011238, -0.182890654, -0.163947687, 0.423554    , -0.0126629369, 0.0363843   , 2.38173127  , 1.74        , 3           , 11          , 0.008276275 , 0.008276273
0.34771204  , 0.115787052 , -9.780962   , -3.054752E-05, -8.342272E-06, -0.000711634348, -0.182890654, -0.164352164, 0.423823655 , -0.0126635013, 0.0363841243, 2.3817246   , 1.75        , 3           , 12          , 0.0411278047, 0
0.361397445 , 0.119727239 , -9.792593   , -0.00108368276, -0.00121215614, -0.0006477826, -0.182958066, -0.164217338, 0.423351765 , -0.0126745682, 0.036371924 , 2.381718    , 1.76        , 3           , 50          , 0           , 0
0.353555351 , 0.115683176 , -9.770522   , 0.000111611284, -0.000288954558, -0.00148838793, -0.182958066, -0.164217338, 0.423351765 , -0.0126739917, 0.0363688469, 2.38170314  , 1.77        , 3           , 11          , 0.008276275 , 0.008276273
0.345441669 , 0.117147438 , -9.775098   , 0.00159731833, -0.0006308777, 0.000637014629, -0.183295131, -0.164217338, 0.423554    , -0.0126577839, 0.0363626145, 2.38170934  , 1.78        , 3           , 12          , 0.0411278047, 0
0.3344991   , 0.105608575 , -9.794212   , -0.00180574378, 0.00216185348, 0.000625550747, -0.183092892, -0.164217338, 0.423688829 , -0.0126756253, 0.0363843143, 2.38171554  , 1.79        , 3           , 50          , 0           , 0
0.369118452 , 0.11876332  , -9.801126   , -0.00140923786, 0.00147848355, 6.34356547E-05, -0.1831603  , -0.164217338, 0.423621416 , -0.01254772 , 0.036244    , 2.38172078  , 1.8         , 3           , 11          , 0.008232059 , 0.00823205151
0.3563277   , 0.115250029 , -9.785418   , 0.00141749217, 0.000934451644, -0.0004893376, -0.1831603  , -0.164217338, 0.423621416 , -0.012533729, 0.0362532847, 2.381716    , 1.81        , 3           , 12          , 0.04187484  , 0
0.3351969   , 0.1218704   , -9.801823   , 0.00367714348, 0.00123130425, 0.0023470067, -0.183092892, -0.164082512, 0.423621416 , -0.012496111, 0.0362658873, 2.38173938  , 1.82        , 3           , 50          , 0           , 0
0.335633576 , 0.122744694 , -9.795036   , -0.000272560574, 7.829809E-05, 6.653373E-05, -0.183025479, -0.164082512, 0.4234866   , -0.0124988109, 0.0362666771, 2.38173985  , 1.83        , 3           , 11          , 0.008232059 , 0.00823205151
0.3529877   , 0.139177874 , -9.777661   , -0.00225266255, 0.0006280568, -0.0005068917, -0.183025479, -0.164149925, 0.423621416 , -0.0125215249, 0.03627289  , 2.381735    , 1.84        , 3           , 12          , 0.04187484  , 0
0.3389635   , 0.130425453 , -9.809443   , -0.00196818914, 0.000348404923, 0.0006241411, -0.183025479, -0.164149925, 0.423621416 , -0.01254098 , 0.0362764522, 2.38174081  , 1.85        , 3           , 50          , 0           , 0
0.3272585   , 0.111053027 , -9.777974   , 0.000554714352, 0.004025937 , -0.0007710526, -0.183092892, -0.1640151  , 0.4234866   , -0.01253573 , 0.03631661  , 2.38173318  , 1.86        , 3           , 11          , 0.008232059 , 0.00823205151
0.343823552 , 0.123574018 , -9.801751   , 0.000274912454, 0.003460896 , -0.001055775, -0.1831603  , -0.164217338, 0.4234866   , -0.0125333806, 0.0363510847, 2.38172174  , 1.87        , 3           , 12          , 0.04187484  , 0
0.375832081 , 0.1163885   , -9.789332   , 0.00254736282, 0.0009420922, -0.000201532384, -0.1831603  , -0.164149925, 0.4234866   , -0.0125079835, 0.03636048  , 2.38171983  , 1.88        , 3           , 50          , 0           , 0
0.356312    , 0.119254448 , -9.768679   , -0.00224134745, -0.00162446289, -0.000227825672, -0.1831603  , -0.164149925, 0.4234866   , -0.01253047 , 0.0363442041, 2.381718    , 1.89        , 3           , 11          , 0.008232059 , 0.00823205151
0.360464    , 0.11480546  , -9.80166    , -0.00335778622, 0.00138966367, -0.00135834457, -0.183295131, -0.164082512, 0.423419178 , -0.0125259142, 0.0362584479, 2.38170552  , 1.9         , 3           , 12          , 0.042649895 , 0
0.35872826  , 0.118458621 , -9.808437   , -0.00109911337, 0.00168651156, -0.000217225243, -0.183092892, -0.163947687, 0.423688829 , -0.0125369923, 0.03627529  , 2.38170314  , 1.91        , 3           , 50          , 0           , 0
0.3432697   , 0.115463138 , -9.803144   , -0.00195926614, 0.004214866 , -0.000782345654, -0.1831603  , -0.163947687, 0.423823655 , -0.0125568872, 0.0363173373, 2.381695    , 1.92        , 3           , 11          , 0.008176893 , 0.008176894
0.3352441   , 0.1352991   , -9.770129   , 5.0599454E-05, -0.00224775728, 0.000629579648, -0.1831603  , -0.163947687, 0.423823655 , -0.0125561431, 0.0362949371, 2.38170171  , 1.93        , 3           , 12          , 0.042649895 , 0
0.345708668 , 0.130307928 , -9.798093   , 0.000324499153, -0.0005564577, 0.000350962655, -0.183025479, -0.164217338, 0.423554    , -0.0125527671, 0.0362894163, 2.381705    , 1.94        , 3           , 50          , 0           , 0
0.375127167 , 0.128166869 , -9.800588   , 0.00172729034, 0.00114247808, -0.00133507373, -0.1831603  , -0.164149925, 0.423554    , -0.0125359846, 0.0363006741, 2.38169122  , 1.95        , 3           , 11          , 0.008176893 , 0.008176894
0.3741524   , 0.1227652   , -9.801069   , -0.00109730428, 0.00112337677, -0.00191331806, -0.183227718, -0.164352164, 0.423621416 , -0.0125476569, 0.0363116674, 2.38167214  , 1.96        , 3           , 12          , 0.042649895 , 0
0.37457183  , 0.130767211 , -9.767135   , -0.0008072548, -0.000282535562, -0.0007840208, -0.183092892, -0.164082512, 0.4234866   , -0.0125560118, 0.0363087431, 2.38166451  , 1.97        , 3           , 50          , 0           , 0
0.399062455 , 0.1594514   , -9.794399   , -0.0005290988, 0.000845641 , 0.00147933164, -0.183092892, -0.164082512, 0.4234866   , -0.0125607708, 0.03631739  , 2.3816793   , 1.98        , 3           , 11          , 0.008176893 , 0.008176894
0.3770222   , 0.160723031 , -9.827106   , -0.0002526486, 0.00169223757, -0.001625962, -0.183295131, -0.164082512, 0.423621416 , -0.0125638936, 0.0363341048, 2.38166261  , 1.99        , 3           , 12          , 0.042649895 , 0
0.3392512   , 0.156546876 , -9.79577351 , -9.697079E-05, 0.0001302542, 0.0006297196, -0.183295131, -0.163947687, 0.423891068 , -0.0127518279, 0.0365073644, 2.38166261  , 2           , 3           , 50          , 0           , 0
0.366768718 , 0.121398531 , -9.771753   , 0.000189148588, -0.000712533365, -0.000217877619, -0.1831603  , -0.164217338, 0.423688829 , -0.0127500119, 0.0365002   , 2.38166022  , 2.01        , 3           , 11          , 0.008110907 , 0.008110911
0.345199823 , 0.102668248 , -9.762505   , -0.00121429516, -0.002411472, 0.000338008831, -0.1831603  , -0.164217338, 0.423688829 , -0.0127620175, 0.03647613  , 2.381664    , 2.02        , 3           , 12          , 0.0434511378, 0
0.331344664 , 0.108336046 , -9.789253   , 0.00130860845, 0.0012660597, -0.00105718488, -0.183227718, -0.1645544  , 0.423621416 , -0.0127493227, 0.036488656 , 2.381653    , 2.03        , 3           , 50          , 0           , 0
0.3342451   , 0.114701927 , -9.813612   , 0.00187083741, 0.00183301035, -0.000771145569, -0.183025479, -0.164082512, 0.423756242 , -0.0127309039, 0.03650689  , 2.38164544  , 2.04        , 3           , 11          , 0.008110907 , 0.008110911
0.3404628   , 0.106941305 , -9.808625   , 0.00020194659, -0.00352818938, -0.00219997927, -0.183025479, -0.164284751, 0.423756242 , -0.0127296746, 0.0364713259, 2.38162351  , 2.05        , 3           , 12          , 0.0434511378, 0
0.357147276 , 0.102225557 , -9.806257   , 0.00413680635, 0.0007220347, 0.0009328788, -0.183025479, -0.164284751, 0.423756242 , -0.0126879681, 0.03647867  , 2.381633    , 2.06        , 3           , 50          , 0           , 0
0.355693877 , 0.104842573 , -9.774619   , 0.005556727 , -0.00067623693, 0.00234998157, -0.183227718, -0.164149925, 0.423688829 , -0.0126315383, 0.0364721939, 2.381657    , 2.07        , 3           , 11          , 0.008110907 , 0.008110911
0.343520135 , 0.109044954 , -9.774242   , 0.00271909661, 0.00183874508, 0.0009280299, -0.183497369, -0.163947687, 0.423756242 , -0.0126040159, 0.0364907   , 2.38166547  , 2.08        , 3           , 12          , 0.0434511378, 0
0.333188385 , 0.107002176 , -9.801449   , 0.000459770759, 0.00154189428, -0.00134323922, -0.183497369, -0.164284751, 0.423823655 , -0.0125999134, 0.03650594  , 2.381652    , 2.09        , 3           , 50          , 0           , 0
0.339692771 , 0.113757007 , -9.819902   , 0.0002713178, 0.00256226421, -0.00134047261, -0.183497369, -0.164284751, 0.423823655 , -0.012455659, 0.0363833159, 2.38164353  , 2.1         , 3           , 11          , 0.008035704 , 0.0080357
0.354223937 , 0.150147557 , -9.82325649 , -0.001978917, 0.000857598 , 5.907549E-05, -0.183092892, -0.164149925, 0.423621416 , -0.0124754291, 0.0363918953, 2.38164449  , 2.11        , 3           , 12          , 0.04427682  , 0
0.352029741 , 0.16897735  , -9.779805   , -0.001977108, 0.000294463127, -0.00163701724, -0.183362544, -0.164217338, 0.423756242 , -0.012495799, 0.0363946371, 2.3816278   , 2.12        , 3           , 50          , 0           , 0
0.3581174   , 0.124138385 , -9.751469   , 0.00308450847, 0.00511545641, 0.00121943932, -0.183092892, -0.1640151  , 0.423554    , -0.0124645336, 0.0364459343, 2.38163924  , 2.13        , 3           , 11          , 0.008035704 , 0.0080357
0.3725645   , 0.1399287   , -9.800559   , -0.00113786524, 0.00198958488, -0.00106538774, -0.183092892, -0.1640151  , 0.423554    , -0.0124763092, 0.036465697 , 2.38162827  , 2.14        , 3           , 12          , 0.04427682  , 0
0.3693981   , 0.1390757   , -9.804202   , -0.00139970833, -0.00223580282, -0.00163828873, -0.183362544, -0.164149925, 0.4234866   , -0.0124908909, 0.0364431329, 2.381612    , 2.15        , 3           , 50          , 0           , 0
0.353413671 , 0.127992034 , -9.807083   , -0.00225946051, 0.0005741252, 0.000904937042, -0.183295131, -0.1640151  , 0.423688829 , -0.0125131607, 0.03644899  , 2.3816216   , 2.16        , 3           , 11          , 0.008035704 , 0.0080357
0.344538569 , 0.125640735 , -9.748403   , 0.0008507638, -0.000249563484, -0.000212028142, -0.182823241, -0.164352164, 0.423621416 , -0.0125047285, 0.036446467 , 2.38161874  , 2.17        , 3           , 12          , 0.04427682  , 0
0.3541385   , 0.125603184 , -9.770476   , -7.50532536E-06, 0.00199722778, 7.002977E-05, -0.183092892, -0.164082512, 0.4234866   , -0.0125047872, 0.036466442 , 2.38161969  , 2.18        , 3           , 50          , 0           , 0
0.357036352 , 0.131074309 , -9.797098   , -0.0002763184, -0.0008203343, -0.000500701251, -0.183092892, -0.164082512, 0.4234866   , -0.0125077283, 0.03645818  , 2.381615    , 2.19        , 3           , 11          , 0.008035704 , 0.0080357
0.3655212   , 0.114808969 , -9.820152   , -0.00515461247, 0.000528855133, -0.00137138751, -0.183227718, -0.1640151  , 0.423621416 , -0.0126629891, 0.0364244655, 2.38159728  , 2.2         , 3           , 12          , 0.04512528  , 0
0.3343004   , 0.113854051 , -9.829887   , -0.00120686542, 0.00168185181, -0.00248136465, -0.183092892, -0.164149925, 0.423688829 , -0.0126759717, 0.03644097  , 2.381572    , 2.21        , 3           , 50          , 0           , 0
0.34557575  , 0.119487852 , -9.800398   , 0.00218282035, 0.001986346 , 0.0009253222, -0.182890654, -0.164284751, 0.423621416 , -0.0126538165, 0.0364609472, 2.381581    , 2.22        , 3           , 11          , 0.007953144 , 0.007953146
0.3631491   , 0.125013977 , -9.760919   , 0.0004903947, 0.00141175289, -0.000213597057, -0.182890654, -0.164284751, 0.423621416 , -0.012649   , 0.03647504  , 2.38157868  , 2.23        , 3           , 12          , 0.04512528  , 0
0.371658653 , 0.114571281 , -9.771293   , -0.00233001774, 0.0005479563, -0.0007931432, -0.1831603  , -0.164149925, 0.42395848  , -0.012672591, 0.0364804231, 2.381571    , 2.24        , 3           , 50          , 0           , 0
0.361980259 , 0.121612735 , -9.818344   , -0.0009133753, -0.00028718746, -0.000222785326, -0.183227718, -0.164352164, 0.423891068 , -0.0126818046, 0.03647752  , 2.38156867  , 2.25        , 3           , 11          , 0.007953144 , 0.007953146
0.377998948 , 0.141204745 , -9.796444   , -0.00232230639, -0.0011414371, -0.00192589685, -0.1831603  , -0.164217338, 0.423621416 , -0.0127057247, 0.0364658646, 2.38154912  , 2.26        , 3           , 12          , 0.04512528  , 0
0.3538277   , 0.131079763 , -9.787632   , -0.00119489757, -0.000570665055, -0.00107214868, -0.1831603  , -0.164217338, 0.423621416 , -0.0127180619, 0.0364600234, 2.38153863  , 2.27        , 3           , 50          , 0           , 0
0.343638539 , 0.1153898   , -9.782804   , 0.000216495129, -0.0002795469, 6.501966E-05, -0.183092892, -0.164082512, 0.4234866   , -0.0127158724, 0.03645724  , 2.38153958  , 2.28        , 3           , 11          , 0.007953144 , 0.007953146
0.36940217  , 0.1146039   , -9.773117   , -0.000363114348, 0.00253228  , -0.001345962, -0.1831603  , -0.164284751, 0.423823655 , -0.0127200056, 0.03648238  , 2.38152575  , 2.29        , 3           , 12          , 0.04512528  , 0
0.3693315   , 0.112314887 , -9.763184   , 0.0007907506, 0.0005843758, -0.00106045092, -0.183092892, -0.1640151  , 0.423621416 , -0.0126905348, 0.03651184  , 2.38151574  , 2.3         , 3           , 50          , 0           , 0
0.369140744 , 0.126369387 , -9.78211    , -0.00175338925, 0.0011303185, -0.00022382295, -0.183092892, -0.1640151  , 0.423621416 , -0.0127081564, 0.0365231149, 2.38151383  , 2.31        , 3           , 11          , 0.00786479749, 0.007864795
0.3469438   , 0.119926088 , -9.80129    , 0.0005102073, 0.0003009031, -0.0002145893, -0.1831603  , -0.164149925, 0.423756242 , -0.0127031347, 0.0365260951, 2.38151145  , 2.32        , 3           , 12          , 0.045994956 , 0
0.350166231 , 0.131090537 , -9.778168   , 0.000231146885, -0.000545706134, -0.00162989553, -0.183295131, -0.164149925, 0.423756242 , -0.0127014173, 0.0365204327, 2.38149476  , 2.33        , 3           , 50          , 0           , 0
0.366576433 , 0.10829851  , -9.766838   , 0.000222041388, 0.00142525265, -0.000496708, -0.1831603  , -0.164082512, 0.423688829 , -0.0126993842, 0.03653462  , 2.38149     , 2.34        , 3           , 11          , 0.00786479749, 0.007864795
0.3758877   , 0.115987241 , -9.804249   , -0.0008979078, -0.000553342863, -0.0005050133, -0.1831603  , -0.164082512, 0.423688829 , -0.0127085447, 0.03652903  , 2.38148522  , 2.35        , 3           , 12          , 0.045994956 , 0
0.335961819 , 0.118174963 , -9.779234   , 0.00333521725, 3.843452E-05, -0.00133200386, -0.183092892, -0.1640151  , 0.423621416 , -0.0126756793, 0.036529243 , 2.38147187  , 2.36        , 3           , 50          , 0           , 0
0.351264    , 0.113902129 , -9.769643   , 0.00249351282, -0.00109355547, -0.00133769028, -0.183227718, -0.1640151  , 0.423688829 , -0.0126512265, 0.0365181379, 2.38145852  , 2.37        , 3           , 11          , 0.00786479749, 0.007864795
0.360391855 , 0.112961553 , -9.789916   , -0.00258919131, -0.00112793013, 0.0003338295, -0.183362544, -0.163880274, 0.423891068 , -0.0126769934, 0.0365069024, 2.38146186  , 2.38        , 3           , 12          , 0.045994956 , 0
0.342329323 , 0.116338283 , -9.791848   , -0.0003346114, -0.000267958618, -0.0007844829, -0.183362544, -0.163880274, 0.423891068 , -0.0126806227, 0.03650412  , 2.38145375  , 2.39        , 3           , 50          , 0           , 0
0.345955372 , 0.116298772 , -9.792726   , -0.003388025, 0.000534512568, -0.001078287, -0.183227718, -0.164217338, 0.423621416 , -0.0126225427, 0.03647544  , 2.381447    , 2.4         , 3           , 11          , 0.007773314 , 0.00777331274
0.3648077   , 0.112817675 , -9.762764   , 0.00226281025, 9.579468E-06, -0.00190042891, -0.183362544, -0.164149925, 0.42395848  , -0.0126006082, 0.0364752971, 2.381428    , 2.41        , 3           , 12          , 0.04688435  , 0
0.363741368 , 0.121997245 , -9.804769   , -0.00140366668, -0.0005783695, 0.002037108 , -0.183092892, -0.164149925, 0.423823655 , -0.0126138991, 0.03646977  , 2.38144851  , 2.42        , 3           , 50          , 0           , 0
0.3477048   , 0.113549449 , -9.786396   , 0.00085829827, -0.00140779256, -0.000779033056, -0.183025479, -0.164217338, 0.4234866   , -0.0126055935, 0.03645559  , 2.38144088  , 2.43        , 3           , 11          , 0.007773314 , 0.00777331274
0.355982482 , 0.09711628  , -9.759281   , 0.00394998537, 0.00171043433, -0.000194698514, -0.183025479, -0.164217338, 0.4234866   , -0.0125661725, 0.03647267  , 2.38143849  , 2.44        , 3           , 12          , 0.04688435  , 0
0.353574574 , 0.11391335  , -9.780925   , -0.00140948023, 0.0002663181, -0.00078696484, -0.1831603  , -0.164149925, 0.423621416 , -0.012580554, 0.0364752375, 2.38143086  , 2.45        , 3           , 50          , 0           , 0
0.372961164 , 0.109600224 , -9.773563   , 0.00169614714, 0.0005688943, -0.000206969708, -0.183227718, -0.164149925, 0.423688829 , -0.0125636719, 0.0364809036, 2.381429    , 2.46        , 3           , 11          , 0.007773314 , 0.00777331274
0.3668741   , 0.127732784 , -9.77715    , -0.00393828657, -0.002284955, 4.48895E-05 , -0.182958066, -0.164352164, 0.423621416 , -0.0126030268, 0.0364580564, 2.38142943  , 2.47        , 3           , 12          , 0.04688435  , 0
0.3647964   , 0.135051861 , -9.799283   , -0.00280439667, -0.0031220098, 4.88554178E-05, -0.182958066, -0.164352164, 0.423621416 , -0.0126310391, 0.03642685  , 2.38143039  , 2.48        , 3           , 50          , 0           , 0
0.359900117 , 0.138303176 , -9.809702   , -0.00282054627, -2.47984426E-05, -0.00135905854, -0.183227718, -0.164284751, 0.423756242 , -0.0126597406, 0.03642643  , 2.38141656  , 2.49        , 3           , 11          , 0.007773314 , 0.00777331274
0.3559868   , 0.130521908 , -9.763662   , 0.0005881338, 2.72763427E-05, -0.00021200077, -0.183429956, -0.164217338, 0.423891068 , -0.0126224868, 0.0364751555, 2.381416    , 2.5         , 3           , 12          , 0.0477920622, 0
0.346728146 , 0.11573419  , -9.761987   , -0.00366360252, 0.003095843 , -0.0002269815, -0.183092892, -0.164352164, 0.423621416 , -0.012659221, 0.03650608  , 2.3814137   , 2.51        , 3           , 50          , 0           , 0
0.357354462 , 0.120247416 , -9.798949   , -0.00168054923, 0.00198295433, 0.0006281135, -0.183092892, -0.164352164, 0.423621416 , -0.0126758059, 0.0365259871, 2.38141942  , 2.52        , 3           , 11          , 0.007678467 , 0.00767846871
0.3595306   , 0.109883666 , -9.810727   , 0.000303245353, 0.0005884981, 0.0003526249, -0.183295131, -0.164352164, 0.423554    , -0.0126726488, 0.036531914 , 2.38142276  , 2.53        , 3           , 12          , 0.0477920622, 0
0.355538    , 0.120710745 , -9.796248   , 0.00199624919, 0.0008815222, 7.842295E-05, -0.183227718, -0.164284751, 0.423621416 , -0.0126526617, 0.036540743 , 2.38142323  , 2.54        , 3           , 50          , 0           , 0
0.3638432   , 0.126096919 , -9.816503   , 0.00198551244, 0.002852473 , -0.00161376409, -0.1831603  , -0.164284751, 0.423823655 , -0.01263341 , 0.0365690626, 2.381407    , 2.55        , 3           , 11          , 0.007678467 , 0.00767846871
0.347547    , 0.134325862 , -9.791734   , 0.0008619592, 0.001437004 , -0.00303388922, -0.1831603  , -0.164284751, 0.423823655 , -0.0126259075, 0.0365830436, 2.3813765   , 2.56        , 3           , 12          , 0.0477920622, 0
0.331211656 , 0.102425739 , -9.77572    , 0.00116118847, -0.001658295, -0.000494507956, -0.183227718, -0.164217338, 0.423621416 , -0.012614469, 0.0365664   , 2.38137174  , 2.57        , 3           , 50          , 0           , 0
0.3242399   , 0.113444254 , -9.807366   , 0.00170792  , 0.002005871 , -0.000486232981, -0.183295131, -0.164082512, 0.423554    , -0.0125975776, 0.0365864038, 2.38136649  , 2.58        , 3           , 11          , 0.007678467 , 0.00767846871
0.354267    , 0.12793906  , -9.79442    , 0.00086752075, 0.000873887 , 0.00176838029, -0.183227718, -0.163947687, 0.423756242 , -0.01258826 , 0.0365953557, 2.38138413  , 2.59        , 3           , 12          , 0.0477920622, 0
0.3581849   , 0.117051512 , -9.79082    , -0.00138421857, 0.00388100487, -0.000497686851, -0.183227718, -0.163947687, 0.423756242 , -0.012560281, 0.03650511  , 2.38138032  , 2.6         , 3           , 50          , 0           , 0
0.377786845 , 0.116483681 , -9.82412    , 0.0006028535, 0.00192342058, 7.356888E-05, -0.183295131, -0.164217338, 0.423419178 , -0.0125542358, 0.0365243554, 2.3813808   , 2.61        , 3           , 11          , 0.007582972 , 0.007582973
0.359801054 , 0.132866681 , -9.802946   , 0.0028566923, 0.003064961 , 8.58401E-05 , -0.183362544, -0.1640151  , 0.423823655 , -0.0125256516, 0.03655502  , 2.38138127  , 2.62        , 3           , 12          , 0.04871678  , 0
0.343598843 , 0.144742608 , -9.789461   , 0.002867518 , 0.000812438549, -0.000482706149, -0.183295131, -0.164149925, 0.423823655 , -0.012497155, 0.0365630724, 2.3813765   , 2.63        , 3           , 50          , 0           , 0
0.360938847 , 0.121959589 , -9.783999   , -0.00164647668, -6.281311E-05, 0.0006250709, -0.183227718, -0.164284751, 0.423554    , -0.0125133907, 0.03656252  , 2.38138223  , 2.64        , 3           , 11          , 0.007582972 , 0.007582973
0.35306114  , 0.09735457  , -9.819416   , -0.00193399016, 0.00106153963, 0.00147310214, -0.183227718, -0.164284751, 0.423554    , -0.012532196, 0.0365733169, 2.38139749  , 2.65        , 3           , 12          , 0.04871678  , 0
0.340824246 , 0.09927396  , -9.810914   , -0.00135666481, -0.00175029808, -0.00107144052, -0.183227718, -0.1640151  , 0.423688829 , -0.0125461463, 0.03655568  , 2.38138652  , 2.66        , 3           , 50          , 0           , 0
0.35295853  , 0.09727141  , -9.794558   , -0.00277339574, -0.00063358323, 0.0006189353, -0.183092892, -0.1640151  , 0.423891068 , -0.01257365 , 0.03654942  , 2.38139272  , 2.67        , 3           , 11          , 0.007582972 , 0.007582973
0.373445123 , 0.111405551 , -9.775359   , 0.000885206042, 0.0016437585, -0.00246838527, -0.183227718, -0.164486989, 0.4234866   , -0.0125657106, 0.0365655459, 2.381368    , 2.68        , 3           , 12          , 0.04871678  , 0
0.346827924 , 0.114475988 , -9.790466   , 0.0006085183, 0.000515589 , -0.00218890049, -0.183227718, -0.164486989, 0.4234866   , -0.01256043 , 0.03657043  , 2.381346    , 2.69        , 3           , 50          , 0           , 0
0.343503177 , 0.13886252  , -9.784967   , -0.00073573296, 0.0013208508, 0.0009159688, -0.183227718, -0.164284751, 0.423554    , -0.0124416249, 0.03653039  , 2.38135982  , 2.7         , 3           , 11          , 0.00748628657, 0.007486289
0.350052178 , 0.150563389 , -9.798428   , 0.002949593 , -0.001469971, 0.000646212255, -0.183227718, -0.164217338, 0.423891068 , -0.0124118859, 0.0365157649, 2.381366    , 2.71        , 3           , 12          , 0.04965726  , 0
0.352950215 , 0.133791268 , -9.785819   , -0.000444615871, -0.0003666283, 0.00147975725, -0.1831603  , -0.164284751, 0.423621416 , -0.0124157891, 0.03651229  , 2.38138127  , 2.72        , 3           , 50          , 0           , 0
0.3562546   , 0.114744447 , -9.769149   , -0.000433627, -0.00261914916, 0.0011937482, -0.1831603  , -0.164284751, 0.423621416 , -0.0124196783, 0.03648625  , 2.38139367  , 2.73        , 3           , 11          , 0.00748628657, 0.007486289
0.3303178   , 0.108248428 , -9.759882   , 0.00152270275, 0.00133612589, -0.0007687203, -0.1831603  , -0.164149925, 0.423621416 , -0.0124047389, 0.03649951  , 2.38138556  , 2.74        , 3           , 12          , 0.04965726  , 0
0.351115584 , 0.129776359 , -9.793082   , -0.0030041642, 0.00299495831, -0.000222112692, -0.183497369, -0.164149925, 0.4234866   , -0.0124348756, 0.0365294367, 2.38138318  , 2.75        , 3           , 50          , 0           , 0
0.35744375  , 0.122551538 , -9.813402   , 0.000388072018, 0.00245474931, 0.0003578974, -0.183092892, -0.164352164, 0.423756242 , -0.0124308746, 0.0365540273, 2.381386    , 2.76        , 3           , 11          , 0.00748628657, 0.007486289
0.357700229 , 0.119262695 , -9.7759     , -0.000197854868, 0.00667440472, 7.923503E-05, -0.183092892, -0.164352164, 0.423756242 , -0.0124328546, 0.0366207734, 2.381386    , 2.77        , 3           , 12          , 0.04965726  , 0
0.3341947   , 0.114661105 , -9.801409   , 0.000664433348, 0.00358291762, -0.000486662175, -0.1831603  , -0.164284751, 0.423621416 , -0.0124264052, 0.0366565436, 2.38138127  , 2.78        , 3           , 50          , 0           , 0
0.344534934 , 0.102873914 , -9.820814   , 0.000392832269, 0.0013284852, -0.00105652562, -0.1831603  , -0.164149925, 0.423823655 , -0.0124228708, 0.0366696939, 2.38137031  , 2.79        , 3           , 11          , 0.00748628657, 0.007486289
0.361691028 , 0.111112267 , -9.781326   , 0.00324566825, 0.00127083843, 0.00121701229, -0.1831603  , -0.164082512, 0.423554    , -0.0123393666, 0.0365403928, 2.38138413  , 2.8         , 3           , 12          , 0.0506123342, 0
0.355875939 , 0.116595171 , -9.781348   , 0.000145453814, -0.000157998991, 0.00035274378, -0.1831603  , -0.164082512, 0.423554    , -0.0123377824, 0.0365388542, 2.381388    , 2.81        , 3           , 50          , 0           , 0
0.3315641   , 0.122797094 , -9.796425   , 0.0009993779, -0.00156009593, -0.000210549828, -0.183025479, -0.164149925, 0.423621416 , -0.0123278582, 0.03652323  , 2.381386    , 2.82        , 3           , 11          , 0.00738978945, 0.007389795
0.352363557 , 0.1292246   , -9.767763   , -0.00013934591, 0.000121651443, -0.0013433639, -0.183362544, -0.164082512, 0.423756242 , -0.0123297451, 0.03652428  , 2.38137269  , 2.83        , 3           , 12          , 0.0506123342, 0
0.3496412   , 0.118985847 , -9.799465   , 0.00154160138, 0.00294876378, -0.0007660479, -0.183227718, -0.163880274, 0.423688829 , -0.0123146214, 0.0365536734, 2.38136458  , 2.84        , 3           , 50          , 0           , 0
0.3542332   , 0.1225555   , -9.803483   , 0.000424440048, 0.000407038053, -0.0007752212, -0.183227718, -0.163880274, 0.423688829 , -0.0123106623, 0.03655765  , 2.381357    , 2.85        , 3           , 11          , 0.00738978945, 0.007389795
0.357325673 , 0.124241248 , -9.779045   , -0.000408737251, -0.002414342, -0.0005009738, -0.1831603  , -0.164352164, 0.423554    , -0.0123149222, 0.03653345  , 2.38135219  , 2.86        , 3           , 12          , 0.0506123342, 0
0.3573409   , 0.124699965 , -9.781303   , -0.00183407 , 0.000110190893, -0.001633803, -0.183429956, -0.164082512, 0.423554    , -0.0123338616, 0.0365343578, 2.3813355   , 2.87        , 3           , 50          , 0           , 0
0.3545363   , 0.119304441 , -9.777279   , -0.0012797158, 0.00236653443, -0.000497547735, -0.183227718, -0.163947687, 0.423419178 , -0.01234685 , 0.0365579464, 2.38133073  , 2.88        , 3           , 11          , 0.00738978945, 0.007389795
0.345513165 , 0.125686049 , -9.765119   , -0.00126421859, -0.0007306806, -0.0002197835, -0.183092892, -0.163947687, 0.423621416 , -0.0123595716, 0.036550615 , 2.38132834  , 2.89        , 3           , 12          , 0.0506123342, 0
0.357576668 , 0.108450189 , -9.780464   , -0.000414881564, -0.002175382, 6.38524652E-05, -0.183092892, -0.163947687, 0.423621416 , -0.0123734111, 0.0364471525, 2.38132882  , 2.9         , 3           , 50          , 0           , 0
0.365016341 , 0.120128319 , -9.790303   , 0.00125016784, 0.003467372 , -0.00274494221, -0.1831603  , -0.164284751, 0.423554    , -0.0123619251, 0.03648148  , 2.38130116  , 2.91        , 3           , 11          , 0.00729376869, 0.00729377568
0.3643937   , 0.144917488 , -9.77981    , 0.00127345079, -0.00103766529, -0.00105666 , -0.183295131, -0.164217338, 0.423621416 , -0.0123495711, 0.0364709757, 2.38129067  , 2.92        , 3           , 12          , 0.051580932 , 0
0.3793726   , 0.109138146 , -9.792499   , 0.000409768516, 0.00233538728, -0.00049032853, -0.1831603  , -0.164284751, 0.423621416 , -0.0123456623, 0.03649426  , 2.381286    , 2.93        , 3           , 50          , 0           , 0
0.386092722 , 0.105429545 , -9.786588   , 0.00465625525, 0.00039308297, 9.146269E-05, -0.1831603  , -0.164284751, 0.423621416 , -0.0122990683, 0.0364982039, 2.38128638  , 2.94        , 3           , 11          , 0.00729376869, 0.00729377568
0.375488132 , 0.12496268  , -9.788395   , 0.0009798718, 0.00121294556, -0.00105450547, -0.183227718, -0.164082512, 0.423688829 , -0.0122896591, 0.036510203 , 2.38127542  , 2.95        , 3           , 12          , 0.051580932 , 0
0.3457294   , 0.09558362  , -9.80411148 , -0.002969432, 0.00034151302, -0.00022663179, -0.183295131, -0.163947687, 0.423621416 , -0.0123194363, 0.03651359  , 2.38127351  , 2.96        , 3           , 50          , 0           , 0
0.3715992   , 0.1047034   , -9.788508   , -0.00465423474, -0.00164090225, -0.00023757093, -0.183025479, -0.1640151  , 0.423419178 , -0.0123660592, 0.0364971533, 2.3812716   , 2.97        , 3           , 11          , 0.00729376869, 0.00729377568
0.371031851 , 0.136232629 , -9.769851   , -0.00211764337, -0.0004974508, 0.000341091974, -0.183025479, -0.1640151  , 0.423419178 , -0.0123871062, 0.03649222  , 2.381275    , 2.98        , 3           , 12          , 0.051580932 , 0
0.344450653 , 0.145134777 , -9.77499    , -0.000146068487, 0.000642180152, 0.000634583761, -0.1831603  , -0.164217338, 0.423621416 , -0.0123883365, 0.0364987142, 2.38128114  , 2.99        , 3           , 50          , 0           , 0
0.342976451 , 0.132112682 , -9.788613   , 0.00240327721, -0.00184660079, 0.000642723637, -0.1831603  , -0.164149925, 0.423756242 , -0.0123740863, 0.0365360938, 2.38128781  , 3           , 3           , 11          , 0.00719889859, 0.00719890324
0.354166031 , 0.12250106  , -9.787212   , 0.00126873516, -0.00100954878, -0.000491392042, -0.182958066, -0.164082512, 0.423688829 , -0.012361574, 0.0365259349, 2.381283    , 3.01        , 3           , 12          , 0.05256202  , 0
0.3469372   , 0.118581712 , -9.804008   , -0.0001503691, 0.000388726854, -0.000495807035, -0.182958066, -0.164082512, 0.423688829 , -0.0123632625, 0.03652976  , 2.3812778   , 3.02        , 3           , 50          , 0           , 0
0.33473742  , 0.0902535245, -9.791111   , -0.0007065324, -0.00130448188, 6.403023E-05, -0.183025479, -0.164486989, 0.4234866   , -0.0123702977, 0.036516726 , 2.38127875  , 3.03        , 3           , 11          , 0.00719889859, 0.00719890324
0.331967145 , 0.08845663  , -9.783908   , 0.00182087941, 0.001528356 , -0.000767390244, -0.183092892, -0.163812861, 0.423891068 , -0.0123523762, 0.03653191  , 2.38127065  , 3.04        , 3           , 12          , 0.05256202  , 0
0.345340937 , 0.10947787  , -9.775131   , 0.00183547207, -0.00128729106, 0.0003584201, -0.183227718, -0.1640151  , 0.423756242 , -0.0123338858, 0.0365190879, 2.38127446  , 3.05        , 3           , 50          , 0           , 0
0.3624268   , 0.128297582 , -9.79526    , -0.00126064918, -0.00327925244, 0.0017535839, -0.183227718, -0.1640151  , 0.423756242 , -0.0123458384, 0.0364865139, 2.38129258  , 3.06        , 3           , 11          , 0.00719889859, 0.00719890324
0.3392379   , 0.11599239  , -9.812213   , 0.00240803743, -0.002972865, -0.000771699357, -0.1831603  , -0.164217338, 0.423554    , -0.0123220263, 0.036456693 , 2.381285    , 3.07        , 3           , 12          , 0.05256202  , 0
0.333655953 , 0.136840135 , -9.819853   , 0.00295960368, -0.000153391273, 0.0003654236, -0.183227718, -0.164082512, 0.423823655 , -0.0122922985, 0.0364552028, 2.38128877  , 3.08        , 3           , 50          , 0           , 0
0.357170045 , 0.112956412 , -9.777286   , 0.000700678269, -0.000168668688, 0.00120250066, -0.183025479, -0.164352164, 0.423891068 , -0.0122848507, 0.036453668 , 2.38130069  , 3.09        , 3           , 11          , 0.00719889859, 0.00719890324
0.374028116 , 0.1262353   , -9.759474   , -0.0001443345, 0.00230815518, -0.000210274389, -0.183227718, -0.164217338, 0.423419178 , -0.0122542726, 0.0363711   , 2.38129926  , 3.1         , 3           , 12          , 0.0535546429, 0
0.363652766 , 0.130852461 , -9.754562   , -0.000410359615, -0.00107253739, -0.000781873532, -0.183227718, -0.164217338, 0.423419178 , -0.0122586573, 0.0363602825, 2.38129163  , 3.11        , 3           , 50          , 0           , 0
0.3713046   , 0.119566463 , -9.779409   , -0.00238472247, -0.00164903782, -0.00107449747, -0.1831603  , -0.164217338, 0.423688829 , -0.0122828865, 0.03634366  , 2.38128114  , 3.12        , 3           , 11          , 0.007105374 , 0.00710537657
0.343601346 , 0.1104498   , -9.789603   , 0.00269371085, -0.000488396734, -0.000483981828, -0.183295131, -0.164082512, 0.4240259   , -0.0122561241, 0.0363387242, 2.38127637  , 3.13        , 3           , 12          , 0.0535546429, 0
0.352336347 , 0.08240991  , -9.800952   , 0.0026928063, -0.000206829282, 0.000364064268, -0.183092892, -0.164149925, 0.423554    , -0.0122290626, 0.0363367   , 2.38128018  , 3.14        , 3           , 50          , 0           , 0
0.342461646 , 0.1289433   , -9.783659   , -0.00125468883, -0.00164139655, -0.0005041547, -0.183092892, -0.164149925, 0.423554    , -0.0122417854, 0.0363202244, 2.38127542  , 3.15        , 3           , 11          , 0.007105374 , 0.00710537657
0.340307474 , 0.136200383 , -9.787261   , 0.00014982259, -0.000224024465, -0.00162555033, -0.183092892, -0.1640151  , 0.423554    , -0.0122408755, 0.0363177881, 2.3812592   , 3.16        , 3           , 12          , 0.0535546429, 0
0.353521019 , 0.11208456  , -9.773701   , 0.000425190636, 0.00146728219, 0.000638669939, -0.183295131, -0.1640151  , 0.42395848  , -0.0122364005, 0.03633254  , 2.3812654   , 3.17        , 3           , 50          , 0           , 0
0.3517969   , 0.11128363  , -9.797672   , 0.0046538813, 0.003185325 , 0.00179117743, -0.1831603  , -0.164284751, 0.423688829 , -0.0121892234, 0.0363646038, 2.381283    , 3.18        , 3           , 11          , 0.007105374 , 0.00710537657
0.354056746 , 0.118395366 , -9.773671   , 0.000422817742, 0.00174884254, -0.00105612085, -0.1831603  , -0.164284751, 0.423688829 , -0.0121853892, 0.0363819636, 2.381272    , 3.19        , 3           , 12          , 0.0535546429, 0
0.348658681 , 0.115809672 , -9.790897   , 0.00072111137, 0.0008810462, -0.00133847748, -0.1831603  , -0.1640151  , 0.423554    , -0.0121535333, 0.03633768  , 2.38125968  , 3.2         , 3           , 50          , 0           , 0
0.3618428   , 0.112127967 , -9.81522    , 0.002712277 , -0.00163966161, 0.00149221031, -0.183429956, -0.164082512, 0.423891068 , -0.0121258628, 0.0363214649, 2.38127446  , 3.21        , 3           , 11          , 0.007013606 , 0.007013607
0.346406817 , 0.114507012 , -9.798153   , 0.003268114 , 5.35453437E-05, 0.0003672978, -0.183092892, -0.1640151  , 0.423756242 , -0.0120930467, 0.0363220423, 2.38127828  , 3.22        , 3           , 12          , 0.0545579158, 0
0.353716582 , 0.119384617 , -9.798077   , 0.0007156985, 0.002007307 , -0.00105420442, -0.183092892, -0.1640151  , 0.423756242 , -0.01208628 , 0.0363419838, 2.38126779  , 3.23        , 3           , 50          , 0           , 0
0.364826739 , 0.105691493 , -9.790364   , -0.000967057829, -0.000256670057, 6.45723339E-05, -0.183025479, -0.164082512, 0.423554    , -0.0120959273, 0.03633943  , 2.38126874  , 3.24        , 3           , 11          , 0.007013606 , 0.007013607
0.3555026   , 0.113094114 , -9.8121     , 0.002696127 , 0.00145754986, 8.429609E-05, -0.183025479, -0.164082512, 0.423756242 , -0.012068945, 0.0363540165, 2.38126874  , 3.25        , 3           , 12          , 0.0545579158, 0
0.369793832 , 0.110085554 , -9.772681   , 0.0004349032, 0.00200540526, 0.00176985341, -0.1831603  , -0.164419577, 0.423688829 , -0.0120639587, 0.03637428  , 2.38128686  , 3.26        , 3           , 50          , 0           , 0
0.341106653 , 0.136103585 , -9.761493   , 0.005247399 , -0.0004962174, -0.00047196378, -0.1831603  , -0.164419577, 0.423688829 , -0.0120116537, 0.03636926  , 2.381282    , 3.27        , 3           , 11          , 0.007013606 , 0.007013607
0.34637323  , 0.12206772  , -9.765578   , 0.0001542111, 0.0011587881, -0.00247082743, -0.183092892, -0.163947687, 0.423621416 , -0.0120110158, 0.036380548 , 2.3812573   , 3.28        , 3           , 12          , 0.0545579158, 0
0.354539961 , 0.116629288 , -9.786782   , 0.00155863387, 0.00285773166, -0.00133148918, -0.1831603  , -0.164217338, 0.423688829 , -0.0119959246, 0.0364089571, 2.381243    , 3.29        , 3           , 50          , 0           , 0
0.371649444 , 0.10965398  , -9.784872   , -0.004074027, -0.00085708854, -0.0010811903, -0.183092892, -0.164217338, 0.423823655 , -0.0120423092, 0.0363646969, 2.3812325   , 3.3         , 3           , 11          , 0.006923996 , 0.00692399731
0.358642131 , 0.117942452 , -9.789005   , -0.0023774188, -0.00112719066, 5.64271177E-05, -0.183092892, -0.164217338, 0.423823655 , -0.0120660579, 0.0363534354, 2.38123345  , 3.31        , 3           , 12          , 0.05557099  , 0
0.346111119 , 0.0977524146, -9.779694   , 0.000441851647, -0.000263399561, -0.00134178891, -0.182823241, -0.164352164, 0.423419178 , -0.0120621268, 0.03635064  , 2.38122     , 3.32        , 3           , 50          , 0           , 0
0.3564906   , 0.0962630957, -9.775553   , -0.000984712, 0.002542699 , -0.00219164672, -0.183227718, -0.164352164, 0.423756242 , -0.0120727811, 0.036375802 , 2.38119769  , 3.33        , 3           , 11          , 0.006923996 , 0.00692399731
0.3520626   , 0.09773623  , -9.795467   , -0.0009786466, 0.001416441 , -0.00134577 , -0.1831603  , -0.164149925, 0.423823655 , -0.0120830629, 0.0363898   , 2.38118386  , 3.34        , 3           , 12          , 0.05557099  , 0
0.352704227 , 0.116184272 , -9.782279   , 0.002711425 , -0.00193750148, 0.001774055 , -0.183227718, -0.164284751, 0.423756242 , -0.0120552955, 0.03637064  , 2.381202    , 3.35        , 3           , 50          , 0           , 0
0.342299044 , 0.12077722  , -9.770135   , 0.00184701593, 0.00115397573, -0.0013330346, -0.183227718, -0.164284751, 0.423756242 , -0.0120373163, 0.03638202  , 2.38118863  , 3.36        , 3           , 11          , 0.006923996 , 0.00692399731
0.3411972   , 0.102328449 , -9.78152    , -0.00179436884, -0.004502144, 0.002596691 , -0.183295131, -0.164149925, 0.423756242 , -0.0120542962, 0.0363373123, 2.38121533  , 3.37        , 3           , 12          , 0.05557099  , 0
0.335742682 , 0.104160547 , -9.770705   , 0.000726325 , -0.0005430516, -0.000210755985, -0.183227718, -0.164217338, 0.423621416 , -0.0120471083, 0.03633186  , 2.381213    , 3.38        , 3           , 50          , 0           , 0
0.3492512   , 0.128415436 , -9.784513   , 0.003828096 , 0.0006042216, 0.0009356158, -0.183295131, -0.164082512, 0.423688829 , -0.0120084891, 0.0363380164, 2.381222    , 3.39        , 3           , 11          , 0.006923996 , 0.00692399731
0.341702819 , 0.135768056 , -9.797647   , 0.000471249747, -0.001143312, -0.00162502273, -0.183295131, -0.164082512, 0.423688829 , -0.0119470926, 0.03624711  , 2.38120866  , 3.4         , 3           , 12          , 0.0565930866, 0
0.336741269 , 0.138966456 , -9.792249   , 0.00383871957, 0.00338465231, -0.000472126529, -0.183227718, -0.164284751, 0.423554    , -0.0119088888, 0.0362808965, 2.381204    , 3.41        , 3           , 50          , 0           , 0
0.3357115   , 0.127271354 , -9.799538   , 0.00187771919, 0.000274069549, 0.000644031446, -0.183429956, -0.163947687, 0.423688829 , -0.01188988 , 0.0362837166, 2.38121     , 3.42        , 3           , 11          , 0.00683694426, 0.00683694426
0.348491162 , 0.136131927 , -9.795336   , -0.000377098448, -0.0008674754, -0.00106346456, -0.1831603  , -0.164082512, 0.423621416 , -0.0118940342, 0.03627491  , 2.3811996   , 3.43        , 3           , 12          , 0.0565930866, 0
0.359419525 , 0.108454622 , -9.788134   , 0.0018857565, -0.0014153223, 7.635279E-05, -0.1831603  , -0.164082512, 0.423621416 , -0.0118751433, 0.03626077  , 2.38120055  , 3.44        , 3           , 50          , 0           , 0
0.345681965 , 0.1320717   , -9.785881   , 0.00272704638, -1.76246965E-06, 0.00177769817, -0.183227718, -0.164284751, 0.423621416 , -0.0118472278, 0.0362609625, 2.38121819  , 3.45        , 3           , 11          , 0.00683694426, 0.00683694426
0.349890023 , 0.1379342   , -9.799385   , -0.000929494854, -0.00312380958, 0.00119072979, -0.183092892, -0.164149925, 0.423554    , -0.0118560772, 0.0362298638, 2.38123059  , 3.46        , 3           , 12          , 0.0565930866, 0
0.350189865 , 0.122629054 , -9.811197   , 0.0013145858, -1.13138813E-05, 0.00120603852, -0.183025479, -0.164149925, 0.423688829 , -0.0118424948, 0.0362299   , 2.38124251  , 3.47        , 3           , 50          , 0           , 0
0.3661105   , 0.1332147   , -9.794309   , 0.00243346766, 0.00224884832, 0.00177985267, -0.183025479, -0.164149925, 0.423688829 , -0.0118175251, 0.036252588 , 2.38126016  , 3.48        , 3           , 11          , 0.00683694426, 0.00683694426
0.365840673 , 0.118712842 , -9.774936   , 0.00441439962, 0.00113594986, -0.00103803922, -0.1831603  , -0.164217338, 0.423621416 , -0.0117737614, 0.0362638347, 2.38124967  , 3.49        , 3           , 12          , 0.0565930866, 0
0.360082448 , 0.122902781 , -9.793041   , -0.0009854729, -0.0011627567, -0.00106829894, -0.1831603  , -0.164284751, 0.423688829 , -0.0118883578, 0.0362290367, 2.38123536  , 3.5         , 3           , 50          , 0           , 0
0.362113    , 0.102154985 , -9.802604   , 0.00154373364, 0.00167009025, 0.00120819255, -0.183429956, -0.164284751, 0.423621416 , -0.01187249 , 0.0362458751, 2.38124681  , 3.51        , 3           , 11          , 0.0067521655, 0.006752168
0.378116369 , 0.113700382 , -9.802885   , -0.00240376126, 0.000235522908, 0.000339973369, -0.183429956, -0.164284751, 0.423621416 , -0.0118964054, 0.03624827  , 2.38125062  , 3.52        , 3           , 12          , 0.0576234944, 0
0.345906436 , 0.105546743 , -9.815369   , 0.0009749498, 0.00222939486, -0.0007713357, -0.183092892, -0.164082512, 0.423554    , -0.011886945, 0.03627047  , 2.38124251  , 3.53        , 3           , 50          , 0           , 0
0.353852957 , 0.132439286 , -9.789434   , 0.000416161725, 0.0010993171, 7.190701E-05, -0.183227718, -0.1640151  , 0.423621416 , -0.0118827634, 0.0362814739, 2.381243    , 3.54        , 3           , 11          , 0.0067521655, 0.006752168
0.357404172 , 0.137249038 , -9.756392   , 0.000122997953, 0.0030683584, -0.0016215971, -0.183295131, -0.164082512, 0.423756242 , -0.0118821329, 0.03631196  , 2.38122678  , 3.55        , 3           , 12          , 0.0576234944, 0
0.350705922 , 0.142760739 , -9.761845   , 0.000415672228, 0.00109931477, -0.0007757052, -0.183362544, -0.164486989, 0.423419178 , -0.0118782641, 0.0363228619, 2.38121867  , 3.56        , 3           , 50          , 0           , 0
0.365936458 , 0.1272711   , -9.770831   , 0.00212277938, -0.001423311, -0.000771709, -0.183362544, -0.164486989, 0.423419178 , -0.0118573112, 0.03630854  , 2.381211    , 3.57        , 3           , 11          , 0.0067521655, 0.006752168
0.367189348 , 0.143164143 , -9.804655   , 0.000710481952, -0.00143286143, -0.00106083124, -0.183362544, -0.163880274, 0.423756242 , -0.0118505862, 0.0362941   , 2.38120055  , 3.58        , 3           , 12          , 0.0576234944, 0
0.3576646   , 0.149065167 , -9.782104   , -0.00125602074, -0.00313561177, 0.00260033365, -0.183295131, -0.164217338, 0.423891068 , -0.0118621895, 0.0362630449, 2.38122678  , 3.59        , 3           , 50          , 0           , 0
0.373876929 , 0.108258814 , -9.780341   , -0.000791108352, 0.00251559028, -0.000216149361, -0.1831603  , -0.164284751, 0.423419178 , -0.0120387  , 0.0363265052, 2.38121819  , 3.6         , 3           , 11          , 0.00666964427, 0.006669641
0.376813322 , 0.1280443   , -9.770293   , -0.00416907854, 0.000240150039, -0.000235424057, -0.1831603  , -0.164284751, 0.423419178 , -0.0120804794, 0.03632888  , 2.38121629  , 3.61        , 3           , 12          , 0.0586615056, 0
0.359673858 , 0.13231726  , -9.77357    , 0.00119456963, 0.000839571236, 0.00035554028, -0.183295131, -0.164149925, 0.423621416 , -0.0120684076, 0.0363373123, 2.38121915  , 3.62        , 3           , 50          , 0           , 0
0.349964082 , 0.10459207  , -9.813987   , 0.00204816787, -0.0005625275, -0.000772828236, -0.183227718, -0.1640151  , 0.423891068 , -0.0120482035, 0.036331594 , 2.38121152  , 3.63        , 3           , 11          , 0.00666964427, 0.006669641
0.3605506   , 0.11844641  , -9.811135   , 0.001195059 , 0.0008395735, 0.00120315282, -0.183362544, -0.164284751, 0.423756242 , -0.0120358178, 0.0363401324, 2.381224    , 3.64        , 3           , 12          , 0.0586615056, 0
0.375512481 , 0.127660513 , -9.785672   , 7.18323863E-05, -0.0005758942, 0.0003481029, -0.183362544, -0.164284751, 0.423756242 , -0.0120349694, 0.036334414 , 2.38122725  , 3.65        , 3           , 50          , 0           , 0
0.3480727   , 0.10454832  , -9.794565   , 0.0003517232, -0.00029242452, -0.00162790844, -0.1831603  , -0.163745448, 0.423688829 , -0.0120320432, 0.0363312922, 2.38121057  , 3.66        , 3           , 11          , 0.00666964427, 0.006669641
0.316035867 , 0.118852459 , -9.777124   , 0.000908287 , 0.00168235786, 0.0009206001, -0.183362544, -0.1640151  , 0.423688829 , -0.012022634, 0.0363482274, 2.38122     , 3.67        , 3           , 12          , 0.0586615056, 0
0.3399125   , 0.136252567 , -9.801277   , 0.00456868345, 0.00395970838, 0.0009411917, -0.183227718, -0.164284751, 0.423688829 , -0.011976623, 0.03638793  , 2.38122869  , 3.68        , 3           , 50          , 0           , 0
0.346803367 , 0.141609341 , -9.807981   , 0.001754915 , 0.0016880848, -0.000205598757, -0.183227718, -0.164284751, 0.423688829 , -0.011959156, 0.03640479  , 2.38122678  , 3.69        , 3           , 11          , 0.00666964427, 0.006669641
0.353798419 , 0.129270628 , -9.78628349 , 0.000595623 , -3.3866032E-05, 0.000915014 , -0.183227718, -0.164217338, 0.423621416 , -0.0120478626, 0.0363432243, 2.3812325   , 3.7         , 3           , 12          , 0.0597064979, 0
0.3621592   , 0.11424385  , -9.7749815  , -0.001661493, -0.000612278469, 5.59982436E-05, -0.183429956, -0.163947687, 0.423621416 , -0.0120644541, 0.0363371074, 2.38123345  , 3.71        , 3           , 50          , 0           , 0
0.356679171 , 0.14186947  , -9.785757   , 0.00427225837, -0.00113529922, 8.278599E-05, -0.1831603  , -0.164284751, 0.423756242 , -0.0120216953, 0.0363257639, 2.38123441  , 3.72        , 3           , 11          , 0.0065889135, 0.00658890558
0.345431119 , 0.118031591 , -9.76967049 , 0.00456632627, -0.003385907, 0.000928243855, -0.1831603  , -0.164284751, 0.423756242 , -0.01197568 , 0.0362920165, 2.381244    , 3.73        , 3           , 12          , 0.0597064979, 0
0.36822623  , 0.119231142 , -9.802938   , -0.000807820761, -0.00173280481, 0.00147090084, -0.183092892, -0.164082512, 0.423419178 , -0.0119832139, 0.03627486  , 2.38125873  , 3.74        , 3           , 50          , 0           , 0
0.3461622   , 0.126286089 , -9.811213   , -0.00109573477, -0.000890026, -0.000789414044, -0.183699608, -0.164082512, 0.423621416 , -0.0119944541, 0.0362658724, 2.38125062  , 3.75        , 3           , 11          , 0.0065889135, 0.00658890558
0.357787341 , 0.1211187   , -9.791258   , -0.00137521047, -0.0014550651, -0.0005090614, -0.183362544, -0.164217338, 0.423891068 , -0.012008382, 0.0362512581, 2.38124585  , 3.76        , 3           , 12          , 0.0597064979, 0
0.364526629 , 0.123228192 , -9.771311   , 0.003137791 , -1.66747486E-05, 0.00149194151, -0.183362544, -0.164217338, 0.423891068 , -0.0119764647, 0.03625127  , 2.381261    , 3.77        , 3           , 50          , 0           , 0
0.3638523   , 0.135923967 , -9.787083   , 3.216334E-05, -0.0003192511, 0.0009119462, -0.1831603  , -0.164149925, 0.423688829 , -0.01197581 , 0.0362481847, 2.38127017  , 3.78        , 3           , 11          , 0.0065889135, 0.00658890558
0.340282738 , 0.09786838  , -9.793749   , 0.00200751983, -0.000305889116, -0.00190421 , -0.1831603  , -0.1640151  , 0.423891068 , -0.0119564226, 0.0362449   , 2.381251    , 3.79        , 3           , 12          , 0.0597064979, 0
0.3576783   , 0.11478141  , -9.784958   , 0.00481412467, -0.000289167569, -0.000479011738, -0.183227718, -0.1640151  , 0.423756242 , -0.0119552119, 0.036235895 , 2.381245    , 3.8         , 3           , 50          , 0           , 0
0.369369268 , 0.107881986 , -9.786705   , 0.00113855733, 0.000530698861, -0.00021229258, -0.183025479, -0.164217338, 0.4234866   , -0.0119439075, 0.0362411775, 2.381243    , 3.81        , 3           , 11          , 0.006509459 , 0.00650945026
0.37747696  , 0.103288405 , -9.79072952 , 0.00337304268, 0.00561415171, 8.859094E-05, -0.183025479, -0.164217338, 0.4234866   , -0.0119101685, 0.0362973325, 2.381243    , 3.82        , 3           , 12          , 0.06075788  , 0
0.349244    , 0.126177818 , -9.789947   , 0.00170127559, 0.00109765213, 0.0009213589, -0.183497369, -0.164217338, 0.423688829 , -0.0118928263, 0.0363084152, 2.381252    , 3.83        , 3           , 50          , 0           , 0
0.3673917   , 0.132243529 , -9.778483   , -0.00252339663, -0.001465087, -0.00051498774, -0.183362544, -0.164082512, 0.423823655 , -0.0119182374, 0.0362937041, 2.38124681  , 3.84        , 3           , 11          , 0.006509459 , 0.00650945026
0.3506151   , 0.118137918 , -9.818896   , -0.00139656616, -0.0006127457, 0.00175188144, -0.182958066, -0.164149925, 0.423688829 , -0.0119315647, 0.03628778  , 2.381265    , 3.85        , 3           , 12          , 0.06075788  , 0
0.35228312  , 0.141136736 , -9.820597   , -0.00139935408, -4.961551E-05, 0.00175274932, -0.182958066, -0.164149925, 0.423688829 , -0.0119449208, 0.03628749  , 2.381282    , 3.86        , 3           , 50          , 0           , 0
0.3498686   , 0.1392559   , -9.789887   , 0.0008719538, -0.00256842468, 0.0006292295, -0.183092892, -0.163947687, 0.423554    , -0.0119359614, 0.03626188  , 2.38128877  , 3.87        , 3           , 11          , 0.006509459 , 0.00650945026
0.350424349 , 0.147368267 , -9.788946   , -0.00195043068, -0.002869087, 0.00146323862, -0.183025479, -0.1640151  , 0.423621416 , -0.0119549222, 0.0362333655, 2.381304    , 3.88        , 3           , 12          , 0.06075788  , 0
0.3609921   , 0.123341776 , -9.792581   , 1.75402965E-05, -0.00116633 , 0.000344910834, -0.183092892, -0.164217338, 0.423554    , -0.0119546177, 0.0362217464, 2.38130784  , 3.89        , 3           , 50          , 0           , 0
0.333184123 , 0.108784087 , -9.79466152 , -0.00286837341, 0.00248000887, -0.00192441058, -0.183092892, -0.164217338, 0.423554    , -0.0120937992, 0.03625949  , 2.381284    , 3.9         , 3           , 11          , 0.006432241 , 0.006432229
0.332921267 , 0.123672865 , -9.793246   , 0.000831618847, -0.00284488848, 0.00147491449, -0.183227718, -0.164149925, 0.423554    , -0.0120849367, 0.0362312235, 2.38129926  , 3.91        , 3           , 12          , 0.061815083 , 0
0.3593788   , 0.108867966 , -9.776834   , 0.00223917048, -0.0022722173, -0.00162554521, -0.183227718, -0.163947687, 0.423688829 , -0.0120631233, 0.0362083055, 2.381283    , 3.92        , 3           , 50          , 0           , 0
0.345542073 , 0.116782449 , -9.800861   , 0.00194517651, 0.0002599632, 7.226798E-05, -0.183227718, -0.164149925, 0.423756242 , -0.0120436465, 0.0362109169, 2.381284    , 3.93        , 3           , 11          , 0.006432241 , 0.006432229
0.345213652 , 0.123583764 , -9.809423   , -3.23008E-05, 0.0002465911, -0.0007845628, -0.183227718, -0.164149925, 0.423756242 , -0.0120442538, 0.0362132862, 2.38127542  , 3.94        , 3           , 12          , 0.061815083 , 0
0.365038335 , 0.09210022  , -9.775052   , 0.00193788018, 0.00166778709, -0.00049063703, -0.1831603  , -0.164217338, 0.423756242 , -0.0120250611, 0.0362299   , 2.38127065  , 3.95        , 3           , 50          , 0           , 0
0.357282668 , 0.113940373 , -9.801687   , -0.000599616149, 0.000805902935, -0.00022125378, -0.183497369, -0.163947687, 0.423351765 , -0.0120311417, 0.0362379365, 2.38126874  , 3.96        , 3           , 11          , 0.006432241 , 0.006432229
0.346991479 , 0.123981915 , -9.799917   , -0.00172103383, -0.00117269973, -0.00277239643, -0.183227718, -0.164082512, 0.423688829 , -0.0120493481, 0.0362258777, 2.381241    , 3.97        , 3           , 12          , 0.061815083 , 0
0.341132462 , 0.0929026455, -9.796022   , 0.00136942265, 0.00222709333, -0.00190509052, -0.183227718, -0.164082512, 0.423688829 , -0.0120363571, 0.03624792  , 2.38122153  , 3.98        , 3           , 50          , 0           , 0
0.336506784 , 0.121815152 , -9.790062   , -0.00425845571, -0.00175301183, 4.02579026E-05, -0.183295131, -0.164149925, 0.423554    , -0.01207892 , 0.0362303965, 2.381222    , 3.99        , 3           , 11          , 0.006432241 , 0.006432229
0.3512521   , 0.120587751 , -9.745209   , -3.31383781E-05, 0.00275525  , -0.0004978601, -0.183429956, -0.164217338, 0.423756242 , -0.0120485863, 0.0361901   , 2.38121867  , 4           , 3           , 12          , 0.06287759  , 0
0.350079954 , 0.12789619  , -9.767335   , 0.00308856484, -0.000320957624, -0.00105322211, -0.182958066, -0.164149925, 0.423756242 , -0.0120180808, 0.0361867659, 2.38120818  , 4.01        , 3           , 50          , 0           , 0
0.363376021 , 0.131893113 , -9.794334   , -0.000585282862, 0.000217345267, -0.000221861876, -0.183227718, -0.164149925, 0.4234866   , -0.0120240161, 0.03618892  , 2.3812058   , 4.02        , 3           , 11          , 0.006356776 , 0.00635676226
0.357959747 , 0.12482921  , -9.821526   , -0.0008630382, -0.0006292576, 0.000623131637, -0.183227718, -0.164149925, 0.4234866   , -0.0120324185, 0.0361827   , 2.38121247  , 4.03        , 3           , 12          , 0.06287759  , 0
0.3530506   , 0.105826661 , -9.789551   , -1.29697446E-05, -0.00118665793, 0.0006262146, -0.183295131, -0.1640151  , 0.423621416 , -0.0120323161, 0.0361709036, 2.38121867  , 4.04        , 3           , 50          , 0           , 0
0.3511814   , 0.108032629 , -9.768312   , -2.444809E-05, 0.0010658612, 6.461103E-05, -0.183429956, -0.163947687, 0.423756242 , -0.01203254 , 0.03618158  , 2.38121915  , 4.05        , 3           , 11          , 0.006356776 , 0.00635676226
0.3498238   , 0.104032062 , -9.781446   , -0.00113652286, -0.00260212715, -0.000793910061, -0.183092892, -0.1645544  , 0.423419178 , -0.012044182, 0.03615546  , 2.38121152  , 4.06        , 3           , 12          , 0.06287759  , 0
0.318898737 , 0.119831696 , -9.80964    , -1.17388845E-05, -0.00146822352, 0.000343243126, -0.183092892, -0.1645544  , 0.423419178 , -0.012044169, 0.0361408219, 2.38121533  , 4.07        , 3           , 50          , 0           , 0
0.3441763   , 0.109204434 , -9.82350349 , -0.00311629847, -0.00205236673, -0.000802260765, -0.1831603  , -0.163947687, 0.423554    , -0.0120756123, 0.0361201949, 2.3812077   , 4.08        , 3           , 11          , 0.006356776 , 0.00635676226
0.3498414   , 0.100029156 , -9.798638   , -0.0005820054, -0.000345782551, 0.0006248825, -0.183295131, -0.164149925, 0.423688829 , -0.0120812049, 0.0361168124, 2.38121343  , 4.09        , 3           , 12          , 0.06287759  , 0
0.337741375 , 0.11321827  , -9.787376   , 0.00170375791, -0.00148164015, 0.000351763738, -0.183295131, -0.164352164, 0.423419178 , -0.012006633, 0.0360340029, 2.38122     , 4.1         , 3           , 50          , 0           , 0
0.365113    , 0.127348244 , -9.790725   , 0.000860006956, -0.00233206875, -0.000783638563, -0.183295131, -0.164352164, 0.423419178 , -0.011998306, 0.03601059  , 2.38121247  , 4.11        , 3           , 11          , 0.006284473 , 0.00628446043
0.354204059 , 0.1158366   , -9.817974   , -0.0011326411, 0.0007517757, -0.00135315873, -0.183295131, -0.164082512, 0.423554    , -0.0120101236, 0.0360179432, 2.38119912  , 4.12        , 3           , 12          , 0.06394489  , 0
0.359964848 , 0.104953483 , -9.822044   , 0.00225876528, 0.000774706248, 0.002618169 , -0.183295131, -0.164082512, 0.423823655 , -0.0119865956, 0.0360260159, 2.38122535  , 4.13        , 3           , 50          , 0           , 0
0.3698312   , 0.137715414 , -9.803754   , 0.0008486918, -7.954892E-05, -0.0010627046, -0.183092892, -0.164284751, 0.423419178 , -0.01197849 , 0.03602509  , 2.38121438  , 4.14        , 3           , 11          , 0.006284473 , 0.00628446043
0.350387484 , 0.117953472 , -9.763757   , 1.09174E-05 , -0.0017746638, 0.0009085032, -0.183092892, -0.164284751, 0.423419178 , -0.011978046, 0.03600745  , 2.381224    , 4.15        , 3           , 12          , 0.06394489  , 0
0.354944766 , 0.114799686 , -9.78091049 , 0.00253414758, 0.00190286944, 7.838431E-05, -0.183362544, -0.164284751, 0.4234866   , -0.0119526861, 0.03602649  , 2.38122487  , 4.16        , 3           , 50          , 0           , 0
0.357364982 , 0.119363263 , -9.804377   , 0.000566013041, 0.000200111623, 0.0009141746, -0.183295131, -0.164149925, 0.423419178 , -0.0119466977, 0.0360285938, 2.38123345  , 4.17        , 3           , 11          , 0.006284473 , 0.00628446043
0.3578434   , 0.123842224 , -9.796218   , -0.000561722, -0.0003706623, -0.0005046482, -0.183227718, -0.163947687, 0.423621416 , -0.0119524952, 0.03602483  , 2.38122869  , 4.18        , 3           , 12          , 0.06394489  , 0
0.354273915 , 0.122142129 , -9.814783   , 0.00170277909, -0.001481645, -0.00134346087, -0.183227718, -0.163947687, 0.423621416 , -0.0119359447, 0.03600985  , 2.38121533  , 4.19        , 3           , 50          , 0           , 0
0.359752357 , 0.127471    , -9.808393   , -0.0008522416, -8.535298E-05, -0.0007881742, -0.1831603  , -0.163880274, 0.423823655 , -0.011963116, 0.03602477  , 2.38120723  , 4.2         , 3           , 11          , 0.00621301029, 0.00621299958
0.365596831 , 0.134063333 , -9.776682   , 0.00114056969, -0.00316919666, 6.38832862E-05, -0.183295131, -0.163947687, 0.423756242 , -0.0119516728, 0.0359930843, 2.38120818  , 4.21        , 3           , 12          , 0.0650165454, 0
0.3404551   , 0.116754755 , -9.775138   , -0.00113417907, -8.726056E-05, 5.81211061E-05, -0.183295131, -0.164419577, 0.423621416 , -0.0119629949, 0.03599222  , 2.38120866  , 4.22        , 3           , 50          , 0           , 0
0.336889267 , 0.1123795   , -9.803206   , -0.003388507, -0.00122880307, -0.000801762333, -0.183295131, -0.164419577, 0.423621416 , -0.0119971624, 0.0359798446, 2.381201    , 4.23        , 3           , 11          , 0.00621301029, 0.00621299958
0.320930064 , 0.102655344 , -9.807888   , 0.00253516017, 0.000219130132, -0.00133701193, -0.1831603  , -0.164217338, 0.423554    , -0.0119722914, 0.0359818675, 2.38118768  , 4.24        , 3           , 12          , 0.0650165454, 0
0.3554676   , 0.11619018  , -9.793556   , -0.0008689697, 0.003293428 , -0.000782967, -0.183227718, -0.164217338, 0.423688829 , -0.0119812749, 0.0360147022, 2.381179    , 4.25        , 3           , 50          , 0           , 0
0.334010661 , 0.115404673 , -9.753949   , -0.00254803337, 0.000184753007, -0.0005131044, -0.183497369, -0.164217338, 0.423621416 , -0.0120069413, 0.0360164866, 2.38117433  , 4.26        , 3           , 11          , 0.00621301029, 0.00621299958
0.3542673   , 0.1283857   , -9.793063   , 0.0008335401, 0.00189706706, 0.0009179897, -0.182958066, -0.164082512, 0.423554    , -0.0119982846, 0.0360355638, 2.381183    , 4.27        , 3           , 12          , 0.0650165454, 0
0.339849561 , 0.124150112 , -9.824829   , -0.002266511, 0.000468230428, 0.0003362587, -0.182958066, -0.164082512, 0.423554    , -0.012020831, 0.0360402875, 2.38118672  , 4.28        , 3           , 50          , 0           , 0
0.3269506   , 0.14547056  , -9.81354    , -0.00198387681, 0.0003293555, -0.000510253652, -0.183295131, -0.164217338, 0.423554    , -0.0120408544, 0.03604352  , 2.381181    , 4.29        , 3           , 11          , 0.00621301029, 0.00621299958
0.345393538 , 0.137566447 , -9.808461   , 0.0005385123, 0.000595890044, -0.000922608247, -0.183362544, -0.164149925, 0.423688829 , -0.0120870871, 0.0359566323, 2.38117146  , 4.3         , 3           , 12          , 0.06609212  , 0
0.339388937 , 0.138878629 , -9.775506   , 0.00223704777, -9.656056E-05, -6.81791353E-05, -0.183025479, -0.163880274, 0.423621416 , -0.0120647391, 0.03595566  , 2.38117051  , 4.31        , 3           , 50          , 0           , 0
0.359188676 , 0.13140364  , -9.768605   , 0.00350480969, 0.000615948462, 0.000503906747, -0.183025479, -0.163880274, 0.423621416 , -0.0120295156, 0.0359618776, 2.38117528  , 4.32        , 3           , 11          , 0.006143893 , 0.006143881
0.3573081   , 0.120656244 , -9.786293   , 0.00250877463, 0.00201708614, -0.000487414, -0.183092892, -0.1640151  , 0.423688829 , -0.0120046111, 0.0359819941, 2.38117051  , 4.33        , 3           , 12          , 0.06609212  , 0
0.33338207  , 0.121888623 , -9.800933   , 0.00109373394, 0.0024298802, -0.00190603524, -0.183227718, -0.164149925, 0.423688829 , -0.01199437 , 0.0360060558, 2.381151    , 4.34        , 3           , 50          , 0           , 0
0.340063453 , 0.113685176 , -9.800012   , 0.00237473845, 0.0004675214, -0.00133807142, -0.182958066, -0.1640151  , 0.4234866   , -0.0119711068, 0.03601057  , 2.38113713  , 4.35        , 3           , 11          , 0.006143893 , 0.006143881
0.335663    , 0.119644105 , -9.812225   , 0.0046469816, -0.00191049755, 0.000364000531, -0.182958066, -0.1640151  , 0.4234866   , -0.0119244969, 0.0359915122, 2.38114142  , 4.36        , 3           , 12          , 0.06609212  , 0
0.36164704  , 0.107059464 , -9.783603   , 0.00237952941, -0.000236385255, 0.000921143452, -0.183227718, -0.164149925, 0.423621416 , -0.0119003691, 0.0359892547, 2.38115048  , 4.37        , 3           , 50          , 0           , 0
0.34758535  , 0.10318657  , -9.790506   , -0.00101807551, 0.001289299 , -0.000504960364, -0.183227718, -0.163880274, 0.4234866   , -0.0119107384, 0.03600209  , 2.38114524  , 4.38        , 3           , 11          , 0.006143893 , 0.006143881
0.347130954 , 0.100958794 , -9.797298   , -3.08124545E-05, 0.00157754985, -0.00021737974, -0.183092892, -0.164082512, 0.423823655 , -0.0119111333, 0.03601784  , 2.38114285  , 4.39        , 3           , 12          , 0.06609212  , 0
0.3354524   , 0.109653771 , -9.792832   , 0.0002609252, 0.000433274632, 6.476958E-05, -0.183092892, -0.164082512, 0.423823655 , -0.01189793 , 0.03596345  , 2.38114476  , 4.4         , 3           , 50          , 0           , 0
0.355124    , 0.125210941 , -9.791262   , -2.03524E-05, 0.000149798419, -0.000360787468, -0.183497369, -0.164149925, 0.4234866   , -0.0118982634, 0.0359649025, 2.381141    , 4.41        , 3           , 11          , 0.006076541 , 0.00607653
0.349622965 , 0.122095533 , -9.784989   , 0.0005375312, 0.00156144379, -0.0003559839, -0.1831603  , -0.163947687, 0.423621416 , -0.0118930237, 0.0359804742, 2.38113713  , 4.42        , 3           , 12          , 0.0671712   , 0
0.3377001   , 0.107828632 , -9.794632   , 0.00195253489, 0.001007864 , -0.00020899839, -0.183227718, -0.163947687, 0.4234866   , -0.01187358 , 0.0359905325, 2.38113523  , 4.43        , 3           , 50          , 0           , 0
0.3719916   , 0.1286779   , -9.80739    , 0.004074629 , 0.000318278 , 0.0005061374, -0.183227718, -0.163947687, 0.4234866   , -0.01183265 , 0.035993766 , 2.38114     , 4.44        , 3           , 11          , 0.006076541 , 0.00607653
0.3559481   , 0.118439108 , -9.793092   , 0.00223340443, 0.00129133824, -0.0004897849, -0.183362544, -0.164217338, 0.423419178 , -0.0118104992, 0.03600662  , 2.38113523  , 4.45        , 3           , 12          , 0.0671712   , 0
0.3546647   , 0.126550078 , -9.785384   , -0.000303268636, 0.0001478863, -0.00120971678, -0.183429956, -0.164082512, 0.423621416 , -0.0118139684, 0.03600796  , 2.38112283  , 4.46        , 3           , 50          , 0           , 0
0.358979    , 0.13740848  , -9.808809   , -0.00171052385, -0.0008471412, -0.0012178201, -0.1831603  , -0.164217338, 0.4234866   , -0.0118315089, 0.0359993465, 2.381111    , 4.47        , 3           , 11          , 0.006076541 , 0.00607653
0.330426127 , 0.111014284 , -9.777498   , 0.000548475538, -0.00055029185, 0.000488374033, -0.1831603  , -0.164419577, 0.423351765 , -0.0118258474, 0.0359939   , 2.38111567  , 4.48        , 3           , 12          , 0.0671712   , 0
0.373185754 , 0.120940983 , -9.792047   , 0.000127949723, -0.00111628545, 0.00105060567, -0.1831603  , -0.164419577, 0.423351765 , -0.011824185, 0.0359828658, 2.38112664  , 4.49        , 3           , 50          , 0           , 0
0.355417222 , 0.108561426 , -9.805792   , -0.00270827347, -0.001557031, -0.000235074185, -0.1831603  , -0.163947687, 0.4234866   , -0.0118915793, 0.0359693766, 2.38112283  , 4.5         , 3           , 11          , 0.00601095939, 0.006010948
0.340246439 , 0.09159007  , -9.805074   , -0.000166802536, -0.0013990571, 0.0003420701, -0.1831603  , -0.163947687, 0.423621416 , -0.0118931178, 0.03595542  , 2.38112664  , 4.51        , 3           , 12          , 0.0682534352, 0
0.3427555   , 0.08558737  , -9.77344    , 0.00166626531, -0.000823511742, 0.0004927668, -0.183025479, -0.164082512, 0.423351765 , -0.0118762739, 0.03594725  , 2.38113141  , 4.52        , 3           , 50          , 0           , 0
0.348843873 , 0.12935026  , -9.792649   , 0.00138498785, -0.00110698794, 6.720977E-05, -0.183025479, -0.164082512, 0.423351765 , -0.0118623972, 0.035936188 , 2.38113236  , 4.53        , 3           , 11          , 0.00601095939, 0.006010948
0.357720017 , 0.115707904 , -9.792185   , -2.00947634E-05, -0.00252436264, 0.000199724178, -0.183092892, -0.163880274, 0.423419178 , -0.0118625145, 0.0359109752, 2.38113475  , 4.54        , 3           , 12          , 0.0682534352, 0
0.3477666   , 0.1189557   , -9.784113   , -0.0005901537, -0.00154270662, -0.000366465916, -0.183092892, -0.163880274, 0.423419178 , -0.01186854 , 0.0358955078, 2.38113141  , 4.55        , 3           , 50          , 0           , 0
0.339527428 , 0.1421153   , -9.798995   , 0.000244172872, 0.0009971071, -0.00106495339, -0.1831603  , -0.163947687, 0.4234866   , -0.0118664838, 0.0359053463, 2.38112044  , 4.56        , 3           , 11          , 0.00601095939, 0.006010948
0.360717177 , 0.131971881 , -9.808366   , 0.000811117468, 0.000578579435, -0.00106297038, -0.1831603  , -0.163947687, 0.4234866   , -0.0118587576, 0.035911005 , 2.38111     , 4.57        , 3           , 12          , 0.0682534352, 0
0.352697849 , 0.112608336 , -9.792237   , 0.00236151367, 0.00115221366, -0.0013373968, -0.183295131, -0.163947687, 0.423419178 , -0.0118356282, 0.0359223671, 2.38109612  , 4.58        , 3           , 50          , 0           , 0
0.367098749 , 0.1141521   , -9.765      , 0.00292567024, 0.00129681616, -0.001334546, -0.1831603  , -0.163812861, 0.423554    , -0.0118068568, 0.03593517  , 2.38108277  , 4.59        , 3           , 11          , 0.00601095939, 0.006010948
0.347701967 , 0.112208061 , -9.790017   , 0.0005243369, -0.000123084188, -0.000359185127, -0.183295131, -0.163880274, 0.423419178 , -0.0118272444, 0.0359467231, 2.381079    , 4.6         , 3           , 12          , 0.06933842  , 0
0.353273    , 0.124307238 , -9.784499   , 0.000103729348, -0.0006890782, 6.17778642E-05, -0.183295131, -0.163880274, 0.423419178 , -0.0118261827, 0.0359398462, 2.38108     , 4.61        , 3           , 50          , 0           , 0
0.377875924 , 0.1286073   , -9.806893   , -0.000463378325, -0.0002705513, -0.0002227426, -0.183227718, -0.163812861, 0.423419178 , -0.0118308943, 0.0359371156, 2.38107753  , 4.62        , 3           , 11          , 0.0059471596, 0.00594714656
0.358698428 , 0.118434422 , -9.801206   , -0.0021641308, 0.0009850322, -8.74227553E-05, -0.1831603  , -0.163880274, 0.423419178 , -0.0118525708, 0.035946954 , 2.38107657  , 4.63        , 3           , 12          , 0.06933842  , 0
0.34261     , 0.102802947 , -9.793259   , -0.000470140774, 0.0009964893, -0.00106840231, -0.183092892, -0.163880274, 0.423554    , -0.0118576623, 0.0359567925, 2.38106561  , 4.64        , 3           , 50          , 0           , 0
0.359469473 , 0.105370656 , -9.810294   , 0.00164519064, 0.00157394388, -0.00119892613, -0.183092892, -0.163880274, 0.423554    , -0.01184165 , 0.0359723866, 2.38105321  , 4.65        , 3           , 11          , 0.0059471596, 0.00594714656
0.365148544 , 0.130055159 , -9.790713   , 0.002079116 , -0.0002533583, 0.0009192598, -0.183227718, -0.163880274, 0.423284352 , -0.0118205277, 0.0359699652, 2.38106275  , 4.66        , 3           , 12          , 0.06933842  , 0
0.3360605   , 0.120486662 , -9.795946   , 0.0019471267, -0.00208448549, 0.00119831809, -0.1831603  , -0.163812861, 0.423688829 , -0.0118006151, 0.03594926  , 2.38107514  , 4.67        , 3           , 50          , 0           , 0
0.320547163 , 0.116554126 , -9.780263   , 0.00151205226, 2.438278E-05, -0.0004956276, -0.183092892, -0.163947687, 0.423554    , -0.0117856748, 0.03594945  , 2.38107     , 4.68        , 3           , 11          , 0.0059471596, 0.00594714656
0.349231839 , 0.124828905 , -9.791309   , 0.000664564141, 0.000159437841, 0.000348251 , -0.183092892, -0.163947687, 0.423554    , -0.0117789041, 0.03595108  , 2.38107324  , 4.69        , 3           , 12          , 0.06933842  , 0
0.370038569 , 0.11831817  , -9.806092   , 0.00249035982, 0.000303031557, 0.0007805269, -0.183025479, -0.163947687, 0.423419178 , -0.0117838383, 0.0359238274, 2.38108087  , 4.7         , 3           , 50          , 0           , 0
0.363575161 , 0.151693881 , -9.779337   , 0.00107827026, 0.00015269604, -0.000356424571, -0.183227718, -0.163812861, 0.423419178 , -0.011773183, 0.0359253138, 2.38107753  , 4.71        , 3           , 11          , 0.00588553259, 0.005885518
0.355534732 , 0.1162446   , -9.809827   , -0.00314689823, -0.00212847348, -0.000238381428, -0.183227718, -0.163947687, 0.423688829 , -0.01180473 , 0.0359040052, 2.38107514  , 4.72        , 3           , 12          , 0.07042587  , 0
0.350652874 , 0.121292949 , -9.81798    , -0.00469340244, -0.00340601848, 0.00074130384, -0.183092892, -0.164149925, 0.423351765 , -0.0118513843, 0.0358700342, 2.38108325  , 4.73        , 3           , 50          , 0           , 0
0.3408996   , 0.145681351 , -9.790833   , -0.004559077, -0.00199723779, 0.000885400746, -0.183092892, -0.164149925, 0.423351765 , -0.0118966466, 0.0358501635, 2.38109231  , 4.74        , 3           , 11          , 0.00588553259, 0.005885518
0.337413967 , 0.131625533 , -9.758828   , -0.00160462153, 0.000134552189, -8.639807E-05, -0.182890654, -0.1640151  , 0.423419178 , -0.011912724, 0.0358514935, 2.38109136  , 4.75        , 3           , 12          , 0.07042587  , 0
0.353739    , 0.119402736 , -9.8035     , 0.000517680135, -0.0006958185, -0.000219091613, -0.183362544, -0.163880274, 0.423351765 , -0.0119076231, 0.03584452  , 2.38108945  , 4.76        , 3           , 50          , 0           , 0
0.36148113  , 0.129614785 , -9.781252   , 0.00164956017, -0.00111052592, -7.320603E-05, -0.183295131, -0.164082512, 0.423419178 , -0.0118911462, 0.035833396 , 2.3810885   , 4.77        , 3           , 11          , 0.00588553259, 0.005885518
0.374881148 , 0.110559881 , -9.797047   , 0.00107183412, 0.0014197384, -0.0006370094, -0.183295131, -0.164082512, 0.423419178 , -0.0118806632, 0.0358475223, 2.3810823   , 4.78        , 3           , 12          , 0.07042587  , 0
0.3732087   , 0.126762122 , -9.778914   , -0.0004886468, 0.00281705824, -0.00092462037, -0.1831603  , -0.164419577, 0.423216939 , -0.0118858926, 0.03587558  , 2.38107276  , 4.79        , 3           , 50          , 0           , 0
0.3644717   , 0.116934761 , -9.778116   , -0.00119876384, -0.000408455177, -0.000792184263, -0.183362544, -0.163745448, 0.423688829 , -0.0119634233, 0.0359271429, 2.38106275  , 4.8         , 3           , 11          , 0.00582504971, 0.005825035
0.362157941 , 0.115135573 , -9.771814   , -0.00161100726, -0.00266383984, -0.000373824965, -0.1831603  , -0.1640151  , 0.423351765 , -0.0119796544, 0.03590045  , 2.381059    , 4.81        , 3           , 12          , 0.07151545  , 0
0.334711164 , 0.1552511   , -9.797169   , -0.00218119216, -0.00154139858, 4.908297E-05, -0.1831603  , -0.1640151  , 0.423351765 , -0.01200144 , 0.03588504  , 2.38106     , 4.82        , 3           , 50          , 0           , 0
0.319283217 , 0.113075763 , -9.814637   , -0.00133809366, -0.0006909733, 5.43355745E-05, -0.183092892, -0.163947687, 0.423419178 , -0.0120148007, 0.03587814  , 2.38106036  , 4.83        , 3           , 11          , 0.00582504971, 0.005825035
0.341038972 , 0.0874706954, -9.790623   , 0.00119599933, 0.000874824065, -7.269399E-05, -0.1831603  , -0.163812861, 0.423419178 , -0.0120028686, 0.03588688  , 2.38106     , 4.84        , 3           , 12          , 0.07151545  , 0
0.360494137 , 0.09526458  , -9.761063   , 0.00176474568, 0.000174733315, 0.000635198841, -0.183025479, -0.163947687, 0.423419178 , -0.0119849946, 0.035888698 , 2.38106561  , 4.85        , 3           , 50          , 0           , 0
0.365152121 , 0.134967938 , -9.775777   , -6.397713E-05, -0.00124550657, 0.0007657377, -0.183025479, -0.163947687, 0.423419178 , -0.011985356, 0.0358763374, 2.38107371  , 4.86        , 3           , 11          , 0.00582504971, 0.005825035
0.369191468 , 0.126856819 , -9.792955   , 0.00134270673, -0.0002504818, -0.000215040025, -0.183092892, -0.164082512, 0.423216939 , -0.0119720045, 0.035873808 , 2.38107133  , 4.87        , 3           , 12          , 0.07151545  , 0
0.344522655 , 0.1416223   , -9.80393    , 0.00331825623, 0.000185238852, 0.0009249795, -0.183295131, -0.163880274, 0.423554    , -0.0119384909, 0.03587577  , 2.38108087  , 4.88        , 3           , 50          , 0           , 0
0.3447111   , 0.124441512 , -9.794509   , 0.00218530884, 0.0008815128, 0.00134460267, -0.1831603  , -0.163880274, 0.4234866   , -0.0119161606, 0.0358847454, 2.38109422  , 4.89        , 3           , 11          , 0.00582504971, 0.005825035
0.366193265 , 0.116840914 , -9.756408   , 0.000610611343, 0.00185832416, 0.000914650562, -0.1831603  , -0.163880274, 0.4234866   , -0.0119633805, 0.03590949  , 2.38110185  , 4.9         , 3           , 12          , 0.07260681  , 0
0.347743243 , 0.1175977   , -9.782763   , -8.454846E-05, -0.000398972683, 0.0004840806, -0.183227718, -0.164082512, 0.423351765 , -0.011964052, 0.0359055474, 2.38110662  , 4.91        , 3           , 50          , 0           , 0
0.375062376 , 0.09114145  , -9.793058   , -0.001492167, -0.00153478794, -0.00136073329, -0.1831603  , -0.163678035, 0.423419178 , -0.0119794561, 0.0358900353, 2.38109326  , 4.92        , 3           , 11          , 0.005766549 , 0.00576653332
0.358002067 , 0.0990493   , -9.804004   , -0.0007854845, -0.00167079561, -0.00149892678, -0.183092892, -0.163880274, 0.423688829 , -0.0119878408, 0.03587315  , 2.381079    , 4.93        , 3           , 12          , 0.07260681  , 0
0.368492126 , 0.111040093 , -9.783535   , -0.00021919969, -0.00180775486, -0.000225091251, -0.183227718, -0.163880274, 0.423351765 , -0.0119901057, 0.0358550474, 2.381077    , 4.94        , 3           , 50          , 0           , 0
0.351740927 , 0.111238286 , -9.784114   , -0.00107156672, -0.000687222229, 0.000620306 , -0.183227718, -0.163880274, 0.423351765 , -0.0120005952, 0.0358482562, 2.38108277  , 4.95        , 3           , 11          , 0.005766549 , 0.00576653332
0.356936157 , 0.09402016  , -9.780981   , 0.00020439607, -0.00166410429, 0.0009072509, -0.183429956, -0.1640151  , 0.423621416 , -0.0119982176, 0.03583172  , 2.38109231  , 4.96        , 3           , 12          , 0.07260681  , 0
0.343522966 , 0.110386305 , -9.77062    , 0.002039555 , -0.00151090662, 0.00105729676, -0.183227718, -0.163880274, 0.423554    , -0.0119774351, 0.0358167365, 2.3811028   , 4.97        , 3           , 50          , 0           , 0
0.366130829 , 0.110541441 , -9.761408   , 0.00202582264, 0.00116395939, 0.0002138068, -0.183227718, -0.164082512, 0.4234866   , -0.0119571043, 0.0358284041, 2.38110471  , 4.98        , 3           , 11          , 0.005766549 , 0.00576653332
0.352426231 , 0.125704572 , -9.794444   , -0.0003807077, 0.00227398355, -0.000360726437, -0.183227718, -0.164082512, 0.4234866   , -0.01196105 , 0.03585109  , 2.381101    , 4.99        , 3           , 12          , 0.07260681  , 0
0.3677086   , 0.1147204   , -9.801604   , -0.00134907314, 0.000308939023, 0.000197186484, -0.183227718, -0.163880274, 0.423419178 , -0.0119405473, 0.03589672  , 2.38110423  , 5           , 3           , 50          , 0           , 0
0.359007746 , 0.116081133 , -9.773643   , -0.00120011123, -0.00123871351, 0.000336727069, -0.183227718, -0.164082512, 0.423419178 , -0.0119524207, 0.0358843729, 2.38110757  , 5.01        , 3           , 11          , 0.005709531 , 0.00570951356
0.360005945 , 0.122840784 , -9.774511   , -0.00106795877, 0.0005924145, 0.0003402061, -0.1831603  , -0.164486989, 0.423621416 , -0.011962981, 0.0358903334, 2.38111138  , 5.02        , 3           , 12          , 0.07369976  , 0
0.369721055 , 0.134948045 , -9.78568649 , -0.00191843521, 0.00114981283, -0.000369220419, -0.1831603  , -0.164486989, 0.423621416 , -0.0119823013, 0.03590179  , 2.381107    , 5.03        , 3           , 50          , 0           , 0
0.36064744  , 0.1310227   , -9.794359   , -0.00261908933, 1.87768019E-05, -0.000656785851, -0.183025479, -0.1640151  , 0.423216939 , -0.0120087294, 0.0359018929, 2.381101    , 5.04        , 3           , 11          , 0.005709531 , 0.00570951356
0.3430783   , 0.111290909 , -9.769716   , -7.11009343E-05, -0.00109029119, 0.000342211861, -0.183092892, -0.1640151  , 0.423554    , -0.0120093143, 0.0358910337, 2.38110423  , 5.05        , 3           , 12          , 0.07369976  , 0
0.331246644 , 0.10691759  , -9.769825   , 0.0017679953, -0.00178178982, 6.714959E-05, -0.1831603  , -0.163947687, 0.423351765 , -0.0119916024, 0.0358732268, 2.38110471  , 5.06        , 3           , 50          , 0           , 0
0.360259831 , 0.108391061 , -9.772308   , 0.00133824523, -0.0005176111, 0.00034966442, -0.1831603  , -0.163947687, 0.423351765 , -0.0119780917, 0.0358680934, 2.38110852  , 5.07        , 3           , 11          , 0.005709531 , 0.00570951356
0.3595303   , 0.1272911   , -9.754609   , 0.00161472533, 0.0007513433, 0.000918008969, -0.1831603  , -0.163812861, 0.423351765 , -0.0119616175, 0.0358757153, 2.38111758  , 5.08        , 3           , 12          , 0.07369976  , 0
0.347600073 , 0.140617773 , -9.784475   , -0.000356026634, -0.0006698554, -0.0003647979, -0.1831603  , -0.163812861, 0.4234866   , -0.0119653055, 0.0358689763, 2.38111424  , 5.09        , 3           , 50          , 0           , 0
