Acc X       , Acc Y       , Acc Z       , Gyro X      , Gyro Y      , Gyro Z      , Magn X      , Magn Y      , Magn Z      , Euler X     , Euler Y     , Euler Z     , Time        , Status      , LowRate X   , LowRate Y   , LowRate Z    
-0.0853439  , 0.09884101  , -9.807846   , -0.00156160316, -0.000573006342, 0.000436127651, -0.223944992, -0.130713224, 0.453552663 , -0.009516146, -0.00895145 , 2.63540626  , 0           , 3           , 11          , 0.0346410163, 0.0346410163
-0.08951335 , 0.09479523  , -9.797952   , -0.00185656885, 0.00167759776, -0.00196328643, -0.2240124  , -0.1305784  , 0.453350425 , -0.009534534, -0.008934862, 2.63538671  , 0.01        , 3           , 12          , 0.0346410163, 0
-0.08928272 , 0.116853267 , -9.783395   , -0.000156965674, 0.0007035806, -0.001674366, -0.223810166, -0.130645812, 0.453417838 , -0.009535955, -0.008927986, 2.63536954  , 0.02        , 3           , 50          , 0           , 0
-0.0933617055, 0.08662027  , -9.769088   , -0.0005699877, -0.00141102169, -0.00139705837, -0.223810166, -0.130645812, 0.453417838 , -0.00954153 , -0.00894223 , 2.63535571  , 0.03        , 3           , 11          , 0.0346410163, 0.0346410163
-0.07320081 , 0.0986309648, -9.787868   , -4.726189E-06, -0.00140719989, -0.0006880809, -0.223742753, -0.130713224, 0.453417838 , -0.009541518, -0.008956367, 2.635349    , 0.04        , 3           , 12          , 0.0346410163, 0
-0.0813493058, 0.100959726 , -9.781141   , 0.00069769274, -0.00069851306, -0.0009662413, -0.223810166, -0.130510986, 0.45348525  , -0.009534453, -0.008963443, 2.635339    , 0.05        , 3           , 50          , 0           , 0
-0.07616823 , 0.07971299  , -9.787517   , -0.001564636, -9.877317E-06, 1.318931E-05, -0.223944992, -0.1305784  , 0.453417838 , -0.009550101, -0.008963541, 2.6353395   , 0.06        , 3           , 11          , 0.0346410163, 0.0346410163
-0.07910171 , 0.09645641  , -9.791537   , -0.001989633, 0.000409608852, 0.00128328346, -0.223944992, -0.1305784  , 0.453417838 , -0.00957011152, -0.008959322, 2.63535237  , 0.07        , 3           , 12          , 0.0346410163, 0
-0.0758522153, 0.09871578  , -9.803707   , 0.00125770422, 0.0004315708, 0.000309546973, -0.223742753, -0.130780637, 0.45348525  , -0.009557563, -0.008954978, 2.63535523  , 0.08        , 3           , 50          , 0           , 0
-0.0992865562, 0.109794125 , -9.796156   , 0.00309417536, 0.000303203036, 0.000317890022, -0.223742753, -0.1305784  , 0.453552663 , -0.009526649, -0.008951914, 2.63535857  , 0.09        , 3           , 11          , 0.0346410163, 0.0346410163
-0.113313019, 0.1081815   , -9.804405   , 0.00168573414, -0.000551044533, -0.0005376087, -0.22367534 , -0.130780637, 0.453350425 , -0.009509745, -0.00895747449, 2.63535333  , 0.1         , 3           , 12          , 0.0346410163, 0
-0.09413817 , 0.1223694   , -9.796517   , -0.000713989255, -0.0008488467, -0.00139684894, -0.22367534 , -0.130780637, 0.453350425 , -0.00951676 , -0.008966095, 2.6353395   , 0.11        , 3           , 50          , 0           , 0
-0.1044821  , 0.12656562  , -9.800647   , 0.00210412522, 0.000578082458, 3.117757E-05, -0.223742753, -0.1305784  , 0.453417838 , -0.009495722, -0.008960313, 2.6353395   , 0.12        , 3           , 11          , 0.0346410163, 0.0346410163
-0.06862211 , 0.09415549  , -9.814518   , 0.003091062 , 0.0008663316, -0.000246316718, -0.223877579, -0.1305784  , 0.453552663 , -0.009464788, -0.008951672, 2.635337    , 0.13        , 3           , 12          , 0.0346410163, 0
-0.0921886861, 0.09530701  , -9.806558   , -0.000723584031, 0.00112210971, -0.00111127377, -0.22367534 , -0.130780637, 0.45348525  , -0.009471925, -0.008940557, 2.63532567  , 0.14        , 3           , 50          , 0           , 0
-0.0992263258, 0.115645468 , -9.792065   , -0.0007264981, 0.00182602531, -0.000121307858, -0.22367534 , -0.130780637, 0.45348525  , -0.009479175, -0.008922308, 2.63532472  , 0.15        , 3           , 11          , 0.0346410163, 0.0346410163
-0.07276063 , 0.0941519439, -9.799183   , -0.00100318564, 0.0006978558, 0.00015817683, -0.223810166, -0.130915463, 0.4532156   , -0.0094892215, -0.008915315, 2.63532615  , 0.16        , 3           , 12          , 0.0346410163, 0
-0.0745686144, 0.1035491   , -9.769778   , -0.0002912978, -0.000423628546, 0.0005835397, -0.223944992, -0.1305784  , 0.453417838 , -0.009492187, -0.008919495, 2.63533187  , 0.17        , 3           , 50          , 0           , 0
-0.07359545 , 0.1067177   , -9.776085   , 0.000136606017, -0.0012654583, 0.000725482 , -0.22367534 , -0.130645812, 0.453417838 , -0.009490887, -0.008932081, 2.635339    , 0.18        , 3           , 11          , 0.0346410163, 0.0346410163
-0.07579682 , 0.108134016 , -9.786944   , -0.0014164896, -0.00155753375, -0.00125995744, -0.22367534 , -0.130645812, 0.453417838 , -0.009504939, -0.008947775, 2.63532662  , 0.19        , 3           , 12          , 0.0346410163, 0
-0.07093944 , 0.10529758  , -9.765676   , -0.000721662131, 0.0006997639, -0.00139446266, -0.223944992, -0.130780637, 0.453283    , -0.009512209, -0.008940833, 2.6353128   , 0.2         , 3           , 50          , 0           , 0
-0.0575621352, 0.08577791  , -9.777405   , -1.400069E-05, 0.0005637607, 0.000162568744, -0.223944992, -0.130510986, 0.453350425 , -0.009512364, -0.00893518049, 2.63531423  , 0.21        , 3           , 11          , 0.0346699134, 0.0346699134
-0.06558146 , 0.09133578  , -9.791906   , -0.0005691779, -0.00141101528, 1.56287115E-05, -0.223810166, -0.130780637, 0.453350425 , -0.009518058, -0.008949288, 2.6353147   , 0.22        , 3           , 12          , 0.03466877  , 0
-0.061909616, 0.102938525 , -9.7665205  , -0.000432309636, -0.0005653659, -0.0002649485, -0.223810166, -0.130780637, 0.453350425 , -0.009522357, -0.008954967, 2.63531232  , 0.23        , 3           , 50          , 0           , 0
-0.07211058 , 0.113945879 , -9.783729   , 0.000123112288, 0.0014094112, 0.00030579773, -0.223877579, -0.130780637, 0.453283    , -0.009521154, -0.008940844, 2.63531518  , 0.24        , 3           , 11          , 0.0346699134, 0.0346699134
-0.07139702 , 0.101281829 , -9.777447   , -0.00341201667, 0.00223022886, -0.0007688776, -0.223810166, -0.130645812, 0.453417838 , -0.009555202, -0.008918616, 2.635307    , 0.25        , 3           , 12          , 0.03466877  , 0
-0.07130291 , 0.07241947  , -9.782538   , -0.00220163725, 0.000196999332, -0.0008370609, -0.223877579, -0.1305784  , 0.45348525  , -0.009577145, -0.008916726, 2.635299    , 0.26        , 3           , 50          , 0           , 0
-0.0861735344, 0.08336507  , -9.76543    , -0.000144184451, -0.00168971531, -5.34642932E-05, -0.223877579, -0.1305784  , 0.45348525  , -0.009578583, -0.008933628, 2.63529849  , 0.27        , 3           , 11          , 0.0346699134, 0.0346699134
-0.08544521 , 0.100544319 , -9.777558   , 0.000480387185, 0.0006374967, 0.00101259432, -0.223810166, -0.130713224, 0.4531482   , -0.00957386848, -0.008927156, 2.6353085   , 0.28        , 3           , 12          , 0.03466877  , 0
-0.09131444 , 0.1233169   , -9.819542   , 0.000971501344, 0.00113357452, -0.0001851258, -0.2240124  , -0.130982876, 0.453283    , -0.009564135, -0.008915839, 2.6353066   , 0.29        , 3           , 50          , 0           , 0
-0.0694995  , 0.09954517  , -9.804107   , 0.000251442456, -0.00109221856, 0.0005856154, -0.223742753, -0.130443573, 0.453283    , -0.0100888489, -0.008277833, 2.635317    , 0.3         , 3           , 11          , 0.0347534679, 0.0347534642
-0.07161865 , 0.07878475  , -9.795622   , 0.0008092703, 0.000108247768, -0.00131703448, -0.223742753, -0.130443573, 0.453283    , -0.0100806467, -0.008276884, 2.63530374  , 0.31        , 3           , 12          , 0.0347538   , 0
-0.06783672 , 0.09047668  , -9.7969     , 0.001081283 , 0.002221896 , -0.00124182866, -0.223877579, -0.130713224, 0.453080773 , -0.0100697307, -0.008254793, 2.63529086  , 0.32        , 3           , 50          , 0           , 0
-0.0914583653, 0.0902445   , -9.779906   , 3.15288635E-05, 0.000384562067, -0.000755147135, -0.2240124  , -0.130510986, 0.453350425 , -0.0100693516, -0.00825102348, 2.63528323  , 0.33        , 3           , 11          , 0.0347534679, 0.0347534642
-0.0860104561, 0.08706801  , -9.793437   , 0.000540783571, -0.002709313, -0.00132269075, -0.223877579, -0.1305784  , 0.453350425 , -0.0100638382, -0.008278249, 2.63527036  , 0.34        , 3           , 12          , 0.0347538   , 0
-0.06948667 , 0.101787329 , -9.80003    , 0.00272591715, -0.00177942018, 0.000172247383, -0.223877579, -0.1305784  , 0.453080773 , -0.0100365924, -0.008296024, 2.63527226  , 0.35        , 3           , 50          , 0           , 0
-0.07581051 , 0.09964226  , -9.810934   , -0.0015139922, -0.00103376422, 0.0007187616, -0.223877579, -0.1305784  , 0.453080773 , -0.0100517944, -0.00830629 , 2.63528     , 0.36        , 3           , 11          , 0.0347534679, 0.0347534642
-0.0793719  , 0.106429383 , -9.804153   , -0.00273045967, 0.00219611661, 0.0005062519, -0.223877579, -0.130645812, 0.4531482   , -0.0100791408, -0.008284278, 2.63528466  , 0.37        , 3           , 12          , 0.0347538   , 0
-0.095794186, 0.102951065 , -9.786214   , -0.002788561, -0.00033844696, 0.000431382883, -0.223810166, -0.130713224, 0.453350425 , -0.0101070609, -0.008287618, 2.63528848  , 0.38        , 3           , 50          , 0           , 0
-0.0932901353, 0.08757096  , -9.783547   , -0.0007405143, -0.0004653835, 1.69074E-05 , -0.223810166, -0.130915463, 0.453080773 , -0.0101144686, -0.00829227 , 2.635289    , 0.39        , 3           , 11          , 0.0347534679, 0.0347534642
-0.1151037  , 0.0806197748, -9.787359   , -0.0004432794, -0.00117335119, -0.000548095966, -0.223810166, -0.130915463, 0.453080773 , -0.0100115761, -0.00835898053, 2.63528275  , 0.4         , 3           , 12          , 0.03489524  , 0
-0.08659751 , 0.1145641   , -9.782932   , -0.00100715063, -0.00131795229, -5.650636E-05, -0.223742753, -0.13037616 , 0.4532156   , -0.0100216437, -0.008372165, 2.63528228  , 0.41        , 3           , 50          , 0           , 0
-0.0993954  , 0.101225264 , -9.797097   , 0.00138544361, 0.000246888638, -0.00067863497, -0.223877579, -0.130443573, 0.453350425 , -0.0100077325, -0.008369765, 2.6352756   , 0.42        , 3           , 11          , 0.0177223124, 0.01772243
-0.1140459  , 0.08474964  , -9.811289   , -0.000103403661, 0.00136311911, -0.00160206 , -0.223877579, -0.130982876, 0.4531482   , -0.0100086313, -0.008356294, 2.63525939  , 0.43        , 3           , 12          , 0.03489524  , 0
-0.08251095 , 0.0797843859, -9.786661   , 0.000180802745, 0.00115385873, -0.000329649949, -0.223877579, -0.130982876, 0.4531482   , -0.0100067947, -0.00834479 , 2.635256    , 0.44        , 3           , 50          , 0           , 0
-0.0871494  , 0.109132916 , -9.776179   , 0.003919636 , 0.0018830793, -2.85783135E-05, -0.223742753, -0.130645812, 0.4532156   , -0.009967595, -0.008325962, 2.63525558  , 0.45        , 3           , 11          , 0.0177223124, 0.01772243
-0.08806648 , 0.10868787  , -9.774832   , 0.00209521782, -0.000381855178, 0.000312562 , -0.223810166, -0.130510986, 0.453350425 , -0.009946668, -0.00832975 , 2.635259    , 0.46        , 3           , 12          , 0.03489524  , 0
-0.08190763 , 0.0892744139, -9.792945   , 0.00259151519, -0.000800860464, 0.0002435814, -0.22367534 , -0.130510986, 0.4532156   , -0.009920774, -0.008337734, 2.6352613   , 0.47        , 3           , 50          , 0           , 0
-0.0610930733, 0.08321634  , -9.808178   , 0.00224297144, -0.00171833462, 0.000169890554, -0.22367534 , -0.130510986, 0.4532156   , -0.009898361, -0.00835489947, 2.6352632   , 0.48        , 3           , 11          , 0.0177223124, 0.01772243
-0.0756083354, 0.08336526  , -9.801961   , 0.004069599 , 0.000265038572, 0.00124100375, -0.223810166, -0.1305784  , 0.4531482   , -0.009857769, -0.008352127, 2.6352756   , 0.49        , 3           , 12          , 0.03489524  , 0
-0.086713   , 0.0943847448, -9.819628   , 0.00289394776, 0.000177253227, -0.0007427687, -0.223810166, -0.13084805 , 0.453283    , -0.009706189, -0.008395078, 2.635267    , 0.5         , 3           , 50          , 0           , 0
-0.08007796 , 0.09417802  , -9.781611   , 0.00120432512, -0.0007492912, -4.573701E-05, -0.2240124  , -0.130645812, 0.4531482   , -0.009694143, -0.008402575, 2.63526654  , 0.51        , 3           , 11          , 0.0134460609, 0.013446101
-0.07695379 , 0.09588947  , -9.764856   , -0.000843473244, -0.000763139455, -0.000408456544, -0.2240124  , -0.130645812, 0.4531482   , -0.009702545, -0.008410244, 2.63526273  , 0.52        , 3           , 12          , 0.03509198  , 0
-0.06434776 , 0.08407723  , -9.784697   , -0.000563771348, -0.0002684919, -0.000900820771, -0.223742753, -0.130713224, 0.4531482   , -0.009708108, -0.008413018, 2.63525414  , 0.53        , 3           , 50          , 0           , 0
-0.0750400349, 0.09595136  , -9.78970051 , -0.00112795027, -0.000342701474, -0.000338488375, -0.223944992, -0.130645812, 0.453350425 , -0.009719358, -0.008416478, 2.63525033  , 0.54        , 3           , 11          , 0.0134460609, 0.013446101
-0.0994892  , 0.0877587646, -9.81749249 , -0.00141685759, 0.00106321613, 0.0005099767, -0.223810166, -0.131050289, 0.453080773 , -0.009733568, -0.008405795, 2.635255    , 0.55        , 3           , 12          , 0.03509198  , 0
-0.09275932 , 0.0871825144, -9.80388451 , 0.00154428277, 0.00178717927, -0.000958432269, -0.223810166, -0.131050289, 0.453080773 , -0.009718044, -0.008388018, 2.63524556  , 0.56        , 3           , 50          , 0           , 0
-0.0780653656, 0.109495915 , -9.781532   , 0.0016870345, 0.00143617706, -0.001311488, -0.223877579, -0.130645812, 0.453080773 , -0.009701062, -0.008373785, 2.63523221  , 0.57        , 3           , 11          , 0.0134460609, 0.013446101
-0.0913967043, 0.0929725841, -9.7862215  , 0.000149551139, -0.0016715409, -0.000405257742, -0.223877579, -0.1305784  , 0.453417838 , -0.009699534, -0.008390538, 2.6352284   , 0.58        , 3           , 12          , 0.03509198  , 0
-0.09612322 , 0.111537322 , -9.788893   , -0.0006962573, -0.00181804993, 0.000932627532, -0.223810166, -0.130645812, 0.4532156   , -0.009706576, -0.00840862747, 2.635238    , 0.59        , 3           , 50          , 0           , 0
-0.08365345 , 0.0893486   , -9.808777   , 0.000612339238, 0.00182020711, -0.00103342813, -0.223810166, -0.130645812, 0.4532156   , -0.009741246, -0.008483727, 2.635228    , 0.6         , 3           , 11          , 0.0113614965, 0.0113615068
-0.10026589 , 0.108405948 , -9.782611   , 4.717785E-05, 0.00188677828, -0.000965319166, -0.22367534 , -0.13084805 , 0.4531482   , -0.009740692, -0.008464956, 2.635218    , 0.61        , 3           , 12          , 0.03534267  , 0
-0.09471111 , 0.118706539 , -9.77891    , -0.0009300009, -0.000372426555, -0.0006908623, -0.223810166, -0.130510986, 0.4532156   , -0.009749932, -0.008468747, 2.63521123  , 0.62        , 3           , 50          , 0           , 0
-0.09046149 , 0.0952177048, -9.786206   , -0.00346138747, -0.00250135432, -0.0007059693, -0.223810166, -0.130780637, 0.453283    , -0.009784488, -0.008493828, 2.63520455  , 0.63        , 3           , 11          , 0.0113614965, 0.0113615068
-0.09503829 , 0.0921067446, -9.784446   , -0.00339879631, -0.000881877553, -0.000703144935, -0.223810166, -0.130780637, 0.453283    , -0.009818417, -0.008502714, 2.6351974   , 0.64        , 3           , 12          , 0.03534267  , 0
-0.09622515 , 0.10475947  , -9.785758   , -0.001858955, 0.00173310144, -0.00175140344, -0.223810166, -0.130780637, 0.4532156   , -0.009836855, -0.008485557, 2.63517976  , 0.65        , 3           , 50          , 0           , 0
-0.0670446  , 0.08323252  , -9.792404   , -0.00184981583, 4.37146373E-05, -0.000411954185, -0.223810166, -0.130645812, 0.453350425 , -0.009855319, -0.00848516 , 2.63517547  , 0.66        , 3           , 11          , 0.0113614965, 0.0113615068
-0.06588419 , 0.07011203  , -9.786122   , -0.00198945 , -0.0003091976, -0.0006956925, -0.223810166, -0.130510986, 0.453283    , -0.009875154, -0.008488322, 2.63516831  , 0.67        , 3           , 12          , 0.03534267  , 0
-0.08107829 , 0.0793823   , -9.806087   , -0.0013435384, -0.00227585225, 0.0005050173, -0.223810166, -0.130510986, 0.453283    , -0.009888635, -0.00851103 , 2.635174    , 0.68        , 3           , 50          , 0           , 0
-0.07091734 , 0.09728117  , -9.796895   , -0.000706765451, -0.00255312026, 0.0003662777, -0.223944992, -0.13084805 , 0.4532156   , -0.009895736, -0.008536522, 2.63517785  , 0.69        , 3           , 11          , 0.0113614965, 0.0113615068
-0.08363987 , 0.09516216  , -9.79338551 , -0.00200801529, -0.000288368727, -0.00133196532, -0.22367534 , -0.130645812, 0.453417838 , -0.00980468653, -0.008494403, 2.63516355  , 0.7         , 3           , 12          , 0.0356457457, 0
-0.08359578 , 0.101893142 , -9.78251    , 0.00152371067, -0.0004052735, -0.00011493628, -0.22367534 , -0.130713224, 0.453350425 , -0.009789439, -0.0084984675, 2.63516259  , 0.71        , 3           , 50          , 0           , 0
-0.073303394, 0.09095989  , -9.787448   , 0.001582079 , 0.0020588988, -0.0001814444, -0.22367534 , -0.130713224, 0.453350425 , -0.009773603, -0.008477896, 2.63516068  , 0.72        , 3           , 11          , 0.0101389559, 0.0101389578
-0.09338352 , 0.1021507   , -9.824617   , 0.00222401973, 0.0006553681, -0.00102826348, -0.223607928, -0.13084805 , 0.4531482   , -0.009751274, -0.008471444, 2.63515019  , 0.73        , 3           , 12          , 0.0356457457, 0
-0.0707151  , 0.108603813 , -9.809954   , 0.00215761364, -0.000119411736, -0.000394076778, -0.223944992, -0.130645812, 0.453283    , -0.009729664, -0.008472677, 2.63514638  , 0.74        , 3           , 50          , 0           , 0
-0.0800389946, 0.096441336 , -9.783861   , -0.0009430123, -0.001407465, -0.000763687538, -0.223742753, -0.130915463, 0.453350425 , -0.009739031, -0.008486825, 2.63513875  , 0.75        , 3           , 11          , 0.0101389559, 0.0101389578
-0.103051171, 0.103918754 , -9.78039    , 0.0018786086, -0.0007548417, 9.807055E-05, -0.223742753, -0.13084805 , 0.453080773 , -0.009720253, -0.008494364, 2.6351397   , 0.76        , 3           , 12          , 0.0356457457, 0
-0.09385516 , 0.07945101  , -9.782229   , 0.001241732 , -0.000407181244, 0.0006607248, -0.223742753, -0.13084805 , 0.453080773 , -0.009707893, -0.008498372, 2.63514638  , 0.77        , 3           , 50          , 0           , 0
-0.08871927 , 0.09023075  , -9.785309   , 0.000394191971, -0.000624091248, -0.001603851, -0.223607928, -0.130713224, 0.453283    , -0.009703816, -0.008504767, 2.63513017  , 0.78        , 3           , 11          , 0.0101389559, 0.0101389578
-0.09675572 , 0.0953284055, -9.797101   , 0.0011605554, 0.001422507 , -0.00195025513, -0.2240124  , -0.130645812, 0.453283    , -0.009692043, -0.008490732, 2.63511062  , 0.79        , 3           , 12          , 0.0356457457, 0
-0.0814788  , 0.1146175   , -9.81633949 , 0.0008085086, 0.0022795964, -0.00159790413, -0.223540515, -0.130713224, 0.4532156   , -0.00967500452, -0.008560266, 2.6350944   , 0.8         , 3           , 50          , 0           , 0
-0.102478825, 0.0991004556, -9.825152   , -0.000249731762, 0.00213165255, -0.00132052228, -0.223540515, -0.130713224, 0.4532156   , -0.009677387, -0.008539077, 2.635081    , 0.81        , 3           , 11          , 0.009383487 , 0.009383488
-0.0949350148, 0.09308314  , -9.806588   , -0.00433069561, -0.0007116917, -0.000849516655, -0.22414723 , -0.130510986, 0.4531482   , -0.009720622, -0.008546276, 2.635073    , 0.82        , 3           , 12          , 0.0359994657, 0
-0.08153405 , 0.08295601  , -9.793872   , -0.00305491779, -0.0016181817, -0.0002799259, -0.223944992, -0.130510986, 0.453283    , -0.00975114852, -0.008562483, 2.63507     , 0.83        , 3           , 50          , 0           , 0
-0.1072378  , 0.0891466439, -9.800823   , -0.00241796323, -0.00182505592, 0.0004996897, -0.223742753, -0.130510986, 0.4532156   , -0.009775372, -0.008580686, 2.63507533  , 0.84        , 3           , 11          , 0.009383487 , 0.009383488
-0.08595945 , 0.0955899954, -9.778486   , -0.001852761, -0.00189162709, 0.0005022152, -0.223742753, -0.130510986, 0.4532156   , -0.009793946, -0.008599551, 2.63508058  , 0.85        , 3           , 12          , 0.0359994657, 0
-0.09940179 , 0.105237238 , -9.782617   , -0.000590801064, 1.753399E-05, 0.00128804857, -0.223877579, -0.130780637, 0.453283    , -0.009799962, -0.00859925 , 2.63509345  , 0.86        , 3           , 50          , 0           , 0
-0.0830288455, 0.102426663 , -9.808718   , -0.00214588735, 0.00021819961, 8.03467E-05 , -0.223944992, -0.1305784  , 0.453350425 , -0.009821429, -0.00859706 , 2.635094    , 0.87        , 3           , 11          , 0.009383487 , 0.009383488
-0.0694685355, 0.07866594  , -9.768034   , -0.00213815761, -0.00140080065, -0.000416589, -0.22367534 , -0.1305784  , 0.453283    , -0.009842777, -0.008611108, 2.63509     , 0.88        , 3           , 12          , 0.0359994657, 0
-0.10205283 , 0.0808472261, -9.766466   , -0.00257811043, 0.00169354561, -0.002109016, -0.22367534 , -0.1305784  , 0.453283    , -0.009868373, -0.008594382, 2.63506913  , 0.89        , 3           , 50          , 0           , 0
-0.0949738845, 0.093498    , -9.795739   , -0.002087528, 0.000286494615, -0.00119207 , -0.223742753, -0.1305784  , 0.453350425 , -0.009805389, -0.008693154, 2.63505626  , 0.9         , 3           , 11          , 0.00891685  , 0.008916841
-0.0708553642, 0.108043805 , -9.777414   , -0.000384384068, -0.00118025637, 0.00100321893, -0.2240124  , -0.130713224, 0.45348525  , -0.009809321, -0.008704856, 2.63506627  , 0.91        , 3           , 12          , 0.03640195  , 0
-0.05549687 , 0.104262926 , -9.78002548 , 0.000107919994, -0.000965744432, -0.0005481072, -0.223810166, -0.130982876, 0.4532156   , -0.009808194, -0.008714567, 2.635061    , 0.92        , 3           , 50          , 0           , 0
-0.07275241 , 0.0977293849, -9.789676   , 0.000103856713, 1.97372865E-05, 0.0008660989, -0.223810166, -0.130982876, 0.4532156   , -0.009807233, -0.008714285, 2.63506961  , 0.93        , 3           , 11          , 0.00891685  , 0.008916841
-0.08306067 , 0.09972279  , -9.809633   , -0.000954506162, -0.000128207466, 0.0009315777, -0.223607928, -0.1305784  , 0.4532156   , -0.009816859, -0.008715475, 2.63507915  , 0.94        , 3           , 12          , 0.03640195  , 0
-0.0839094147, 0.106028363 , -9.803287   , 0.0001683348, 0.00121686538, 0.0005151005, -0.223944992, -0.13037616 , 0.453417838 , -0.00981522 , -0.008703259, 2.63508439  , 0.95        , 3           , 50          , 0           , 0
-0.09300178 , 0.106997676 , -9.7916     , 0.0008786284, 0.0002361594, -0.000613275857, -0.223810166, -0.130645812, 0.4532156   , -0.00980638 , -0.008700957, 2.63507771  , 0.96        , 3           , 11          , 0.00891685  , 0.008916841
-0.110220164, 0.112992071 , -9.770011   , 0.000316255057, -0.000260399218, -0.000546034658, -0.223810166, -0.130645812, 0.4532156   , -0.009803169, -0.008703613, 2.63507247  , 0.97        , 3           , 12          , 0.03640195  , 0
-0.083011   , 0.114046223 , -9.775675   , 0.000746617035, -0.00152457494, 0.000230966049, -0.223877579, -0.130780637, 0.4532156   , -0.00979572348, -0.008718836, 2.63507485  , 0.98        , 3           , 50          , 0           , 0
-0.0876134858, 0.07126343  , -9.784476   , 0.00180873182, -0.00215093442, 2.3024988E-05, -0.223877579, -0.130645812, 0.453283    , -0.009777641, -0.00874034 , 2.63507533  , 0.99        , 3           , 11          , 0.00891685  , 0.008916841
-0.0756405145, 0.08780269  , -9.779795   , 0.000142573161, -0.00204205769, -0.000125442108, -0.223877579, -0.1305784  , 0.4532156   , -0.009828212, -0.008787039, 2.63507485  , 1           , 3           , 12          , 0.03685119  , 0
-0.070580855, 0.088700965 , -9.796025   , -0.00197468628, -0.00219716365, 0.000288270181, -0.223877579, -0.1305784  , 0.4532156   , -0.009847985, -0.008808981, 2.63507771  , 1.01        , 3           , 50          , 0           , 0
-0.09868327 , 0.08409659  , -9.804846   , -0.00269243587, 5.057921E-05, -0.000629797345, -0.22414723 , -0.130645812, 0.4531482   , -0.009874852, -0.008808536, 2.635072    , 1.02        , 3           , 11          , 0.008640058 , 0.008640055
-0.08499056 , 0.100540511 , -9.778007   , -0.00128304888, 0.0006232595, -0.0005517104, -0.223877579, -0.130780637, 0.453283    , -0.009887636, -0.00880236 , 2.63506627  , 1.03        , 3           , 12          , 0.03685119  , 0
-0.09110379 , 0.0834643543, -9.777672   , 0.00196412229, 0.000786006451, -0.000606983, -0.2240124  , -0.130510986, 0.453350425 , -0.00986794 , -0.008794561, 2.6350596   , 1.04        , 3           , 50          , 0           , 0
-0.0736822262, 0.0977203846, -9.783808   , 0.0005619313, -0.001264891, -0.000899251259, -0.2240124  , -0.130510986, 0.453350425 , -0.009862242, -0.008807298, 2.635051    , 1.05        , 3           , 11          , 0.008640058 , 0.008640055
-0.09050232 , 0.09295288  , -9.783504   , -0.00127599365, -0.0009253513, -0.00161361264, -0.223810166, -0.130780637, 0.453283    , -0.009874859, -0.008816711, 2.6350348   , 1.06        , 3           , 12          , 0.03685119  , 0
-0.116201364, 0.100486375 , -9.787285   , -0.000359604164, -0.0005671864, -0.001184984, -0.223944992, -0.130443573, 0.453283    , -0.009878352, -0.008822498, 2.63502336  , 1.07        , 3           , 50          , 0           , 0
-0.08820328 , 0.0925084054, -9.793431   , -0.0005669418, -0.00120213407, 0.00114398613, -0.223742753, -0.130780637, 0.453417838 , -0.009884124, -0.008834405, 2.6350348   , 1.08        , 3           , 11          , 0.008640058 , 0.008640055
-0.0821378753, 0.102850549 , -9.803738   , -0.00121090363, 0.000271779543, -0.0009050955, -0.223742753, -0.130780637, 0.453417838 , -0.009896154, -0.00883177947, 2.63502574  , 1.09        , 3           , 12          , 0.03685119  , 0
-0.100257866, 0.106627032 , -9.790301   , -0.000693941955, -0.0008827676, -0.000551809, -0.223944992, -0.131050289, 0.4531482   , -0.009883123, -0.008877858, 2.63502     , 1.1         , 3           , 50          , 0           , 0
-0.123582937, 0.121811084 , -9.796292   , -0.00154495216, -0.000184585835, -0.000978481, -0.223944992, -0.130443573, 0.453417838 , -0.00989848748, -0.008879801, 2.63501048  , 1.11        , 3           , 11          , 0.00848497  , 0.00848496053
-0.0997469649, 0.0795155838, -9.780918   , -0.0004169428, 3.422475E-05, -0.00210303767, -0.223540515, -0.130713224, 0.4531482   , -0.009902469, -0.008879666, 2.634989    , 1.12        , 3           , 12          , 0.0373451151, 0
-0.0824842  , 0.08828673  , -9.765835   , 0.00345541048, 0.00252418686, -3.27364E-05, -0.223540515, -0.130713224, 0.4531482   , -0.009867909, -0.008854429, 2.634989    , 1.13        , 3           , 50          , 0           , 0
-0.09249343 , 0.0865794048, -9.760042   , 0.00119281933, 0.00314242858, -0.000112929745, -0.22367534 , -0.130915463, 0.4531482   , -0.009855969, -0.008823018, 2.634987    , 1.14        , 3           , 11          , 0.00848497  , 0.00848496053
-0.100919016, 0.0895022154, -9.794445   , -0.0033148136, 0.000718562747, -0.00126783911, -0.223877579, -0.1305784  , 0.453283    , -0.009889005, -0.008815958, 2.63497472  , 1.15        , 3           , 12          , 0.0373451151, 0
-0.094756186, 0.1106357   , -9.793859   , -0.003393495, 0.00226669153, -0.00197212514, -0.224282056, -0.1305784  , 0.453283    , -0.009922763, -0.008793488, 2.63495469  , 1.16        , 3           , 50          , 0           , 0
-0.0797101855, 0.0824987143, -9.79838    , -0.000914185541, 0.0007347975, -0.00125664508, -0.223810166, -0.13084805 , 0.453013361 , -0.009931795, -0.008786264, 2.63494229  , 1.17        , 3           , 11          , 0.00848497  , 0.00848496053
-0.09841474 , 0.07947847  , -9.77458    , 0.00276442966, -0.000437019131, 0.0007363931, -0.223810166, -0.13084805 , 0.453013361 , -0.009904215, -0.008790562, 2.63494945  , 1.18        , 3           , 12          , 0.0373451151, 0
-0.100975856, 0.09079519  , -9.77636051 , 0.002054837 , 0.000262118469, 0.000663551153, -0.223810166, -0.13037616 , 0.4531482   , -0.009883724, -0.008787874, 2.63495612  , 1.19        , 3           , 50          , 0           , 0
-0.0926592648, 0.101546794 , -9.782128   , -0.00140314316, 0.000178238319, -0.000414215378, -0.223877579, -0.130780637, 0.4532156   , -0.009814259, -0.0089345295, 2.63495135  , 1.2         , 3           , 11          , 0.008404615 , 0.008404604
-0.0905313045, 0.09159036  , -9.780798   , -0.00111948547, -0.000101417594, -0.0006958698, -0.223810166, -0.130780637, 0.453080773 , -0.00982539 , -0.008935612, 2.6349442   , 1.21        , 3           , 12          , 0.0378815755, 0
-0.09656723 , 0.113335148 , -9.785274   , -5.75782251E-05, -0.0005869923, -5.598148E-05, -0.223810166, -0.130780637, 0.453080773 , -0.009825962, -0.00894148648, 2.6349442   , 1.22        , 3           , 50          , 0           , 0
-0.08522414 , 0.117238425 , -9.777939   , -0.00090760953, 0.000111193964, 0.00121257128, -0.2240124  , -0.1305784  , 0.4532156   , -0.009835146, -0.008940255, 2.63495564  , 1.23        , 3           , 11          , 0.008404615 , 0.008404604
-0.07831683 , 0.08697462  , -9.792475   , 0.000224844916, -0.0004442965, 0.00114633678, -0.2240124  , -0.130645812, 0.453417838 , -0.00983300153, -0.008944585, 2.63496757  , 1.24        , 3           , 12          , 0.0378815755, 0
-0.08005906 , 0.09196158  , -9.79337    , -0.004145242, -0.00223368872, -0.0009251844, -0.223877579, -0.130713224, 0.4531482   , -0.009874373, -0.008967012, 2.63495851  , 1.25        , 3           , 50          , 0           , 0
-0.100656532, 0.106676191 , -9.80341148 , -0.00238821167, -0.000602752552, -0.00112636166, -0.223877579, -0.130713224, 0.4531482   , -0.009898155, -0.00897315051, 2.634947    , 1.26        , 3           , 11          , 0.008404615 , 0.008404604
-0.112771757, 0.08689723  , -9.783699   , -0.000837344152, -9.950899E-05, -0.00118899345, -0.223810166, -0.130645812, 0.4531482   , -0.009906421, -0.008974263, 2.63493562  , 1.27        , 3           , 12          , 0.0378815755, 0
-0.0945424  , 0.09749257  , -9.77764    , -0.00113071909, 0.00215110276, -0.000833667058, -0.223944992, -0.130713224, 0.453283    , -0.009917652, -0.008952836, 2.634927    , 1.28        , 3           , 50          , 0           , 0
-0.102996208, 0.0674367249, -9.800428   , -0.00147133251, -0.0002445852, 0.00014987943, -0.223540515, -0.130645812, 0.452945948 , -0.009932379, -0.008955268, 2.634928    , 1.29        , 3           , 11          , 0.008404615 , 0.008404604
-0.07968582 , 0.0851965547, -9.795656   , -0.00145632075, -0.00184367818, -0.0002077678, -0.223540515, -0.130645812, 0.452945948 , -0.009858399, -0.009109461, 2.6349256   , 1.3         , 3           , 12          , 0.03845841  , 0
-0.08124406 , 0.104615793 , -9.7951355  , 0.001920585 , 0.000572542835, -0.0008239854, -0.223810166, -0.130645812, 0.452945948 , -0.009839117, -0.009103817, 2.6349175   , 1.31        , 3           , 50          , 0           , 0
-0.105142593, 0.110334024 , -9.802074   , -0.00160829665, 0.0003374964, -0.000134429021, -0.223810166, -0.130443573, 0.453283    , -0.009855186, -0.009100455, 2.63491559  , 1.32        , 3           , 11          , 0.008366912 , 0.008366903
-0.09934132 , 0.108857051 , -9.785766   , -0.00209276355, -0.00170719437, -0.000704954553, -0.223877579, -0.13084805 , 0.4531482   , -0.009876052, -0.009117596, 2.634909    , 1.33        , 3           , 12          , 0.03845841  , 0
-0.0791193843, 0.09778113  , -9.782945   , -0.00174184318, -0.00121206639, -0.000137474126, -0.223877579, -0.13084805 , 0.4531482   , -0.00989345647, -0.009129728, 2.634908    , 1.34        , 3           , 50          , 0           , 0
-0.09945027 , 0.09761001  , -9.795304   , -0.00195825682, -0.00022801981, 0.0003574975, -0.223877579, -0.13084805 , 0.4532156   , -0.009913074, -0.009131973, 2.6349113   , 1.35        , 3           , 11          , 0.008366912 , 0.008366903
-0.06408847 , 0.09946324  , -9.798642   , -0.00181398855, -0.000860586646, 0.00021591087, -0.223944992, -0.1305784  , 0.4532156   , -0.009931234, -0.009140558, 2.63491368  , 1.36        , 3           , 12          , 0.03845841  , 0
-0.08021599 , 0.08647821  , -9.772604   , -5.08488738E-05, -0.000496694352, -0.0002697563, -0.224282056, -0.130780637, 0.453283    , -0.009931719, -0.00914555 , 2.63491082  , 1.37        , 3           , 50          , 0           , 0
-0.07797541 , 0.07750571  , -9.795676   , -0.000120802986, -0.000497168745, 0.000860064349, -0.224282056, -0.130780637, 0.453283    , -0.009933006, -0.009150437, 2.6349194   , 1.38        , 3           , 11          , 0.008366912 , 0.008366903
-0.06279387 , 0.09894929  , -9.784623   , -0.0003347327, -0.00014664662, 0.000223909621, -0.2240124  , -0.1305784  , 0.4532156   , -0.009936374, -0.009151881, 2.63492179  , 1.39        , 3           , 12          , 0.03845841  , 0
-0.08827841 , 0.121832527 , -9.791502   , -7.87021345E-05, 0.000318195438, -0.000127011692, -0.223877579, -0.130645812, 0.453283    , -0.00988475 , -0.009022153, 2.63492036  , 1.4         , 3           , 50          , 0           , 0
-0.1071126  , 0.0946043   , -9.813907   , -0.00042464328, -0.00109201681, 8.10755737E-05, -0.223810166, -0.13084805 , 0.4531482   , -0.009889007, -0.009033065, 2.63492131  , 1.41        , 3           , 11          , 0.008347166 , 0.008347162
-0.0744191855, 0.07383886  , -9.791143   , 0.00155224442, -0.00114904041, -0.0006867923, -0.223810166, -0.13084805 , 0.4531482   , -0.009873421, -0.009044622, 2.63491464  , 1.42        , 3           , 12          , 0.03907346  , 0
-0.0680971742, 0.111169964 , -9.777381   , 0.00119896245, -0.00101064332, 8.875657E-05, -0.223877579, -0.130645812, 0.453013361 , -0.009861442, -0.009054722, 2.63491559  , 1.43        , 3           , 50          , 0           , 0
-0.0768339559, 0.0991110355, -9.783825   , 0.00231160061, 0.00216459716, -0.00230266247, -0.223810166, -0.130645812, 0.453283    , -0.00983811449, -0.009033303, 2.63489223  , 1.44        , 3           , 11          , 0.008347166 , 0.008347162
-0.07313612 , 0.07286921  , -9.77577    , 0.00175002066, 0.00173843536, -0.000257550564, -0.224079818, -0.13084805 , 0.453283    , -0.009820591, -0.009015945, 2.63488936  , 1.45        , 3           , 12          , 0.03907346  , 0
-0.07785131 , 0.08653328  , -9.796993   , -0.00198419741, -4.665735E-05, -0.001619765, -0.224079818, -0.13084805 , 0.453283    , -0.009840285, -0.009016571, 2.63487315  , 1.46        , 3           , 50          , 0           , 0
-0.0948845446, 0.0958021358, -9.810192   , -0.00029152332, 0.0003871511, -0.00125804066, -0.223877579, -0.130780637, 0.4532156   , -0.009843088, -0.009012824, 2.63486075  , 1.47        , 3           , 11          , 0.008347166 , 0.008347162
-0.0949025154, 0.08909233  , -9.827395   , -0.002838125, 0.00149622548, 0.000144529884, -0.22414723 , -0.130645812, 0.453350425 , -0.009871481, -0.008997847, 2.63486218  , 1.48        , 3           , 12          , 0.03907346  , 0
-0.0864193439, 0.08844795  , -9.799762   , -0.00339124817, -0.00104168407, -0.00127469667, -0.223810166, -0.13084805 , 0.453283    , -0.009905279, -0.00900839 , 2.63484931  , 1.49        , 3           , 50          , 0           , 0
-0.07413514 , 0.102635443 , -9.76797    , 0.000642193248, -0.0009602154, -0.0004088033, -0.223810166, -0.13084805 , 0.453283    , -0.009807466, -0.008954714, 2.63484454  , 1.5         , 3           , 11          , 0.008330537 , 0.008330534
-0.091806896, 0.09256604  , -9.797978   , -0.0004899757, -0.0004047235, 0.000151871616, -0.2240124  , -0.130780637, 0.4532156   , -0.009812379, -0.008958748, 2.634846    , 1.51        , 3           , 12          , 0.0397245772, 0
-0.102510139, 0.102199554 , -9.807512   , -0.0038758202, -0.000990771, 0.0009828131, -0.223877579, -0.13037616 , 0.453350425 , -0.009851226, -0.008968557, 2.634856    , 1.52        , 3           , 50          , 0           , 0
-0.08646084 , 0.09287781  , -9.775337   , -0.00105392479, -0.000690110843, -0.0006988084, -0.223742753, -0.130713224, 0.453417838 , -0.009861703, -0.008975525, 2.63484931  , 1.53        , 3           , 11          , 0.008330537 , 0.008330534
-0.05051326 , 0.10063605  , -9.792206   , -0.0004937426, 0.000158401934, -0.0015424852, -0.223742753, -0.130713224, 0.453417838 , -0.009866501, -0.008974093, 2.63483357  , 1.54        , 3           , 12          , 0.0397245772, 0
-0.06778758 , 0.09899716  , -9.781496   , 0.00234823278, -0.003201275, 0.0001607016, -0.223877579, -0.130780637, 0.4532156   , -0.00984303653, -0.00900608953, 2.63483548  , 1.55        , 3           , 50          , 0           , 0
-0.09536205 , 0.10025093  , -9.789838   , 7.348394E-05, -0.000119338511, 0.0001549394, -0.2240124  , -0.130713224, 0.453417838 , -0.009842315, -0.009007268, 2.63483739  , 1.56        , 3           , 11          , 0.008330537 , 0.008330534
-0.08434199 , 0.105603695 , -9.80962    , 0.00289373356, 0.000744457066, 0.000451948115, -0.223742753, -0.130915463, 0.4532156   , -0.009813418, -0.008999779, 2.63484168  , 1.57        , 3           , 12          , 0.0397245772, 0
-0.0890777856, 0.0916515142, -9.803837   , -0.0007671528, -0.00153289537, -0.00041625576, -0.223742753, -0.130915463, 0.4532156   , -0.00982105453, -0.009015151, 2.63483739  , 1.58        , 3           , 50          , 0           , 0
-0.0999030545, 0.09761533  , -9.795307   , -0.000203366857, -0.0012475088, 0.00015188675, -0.223877579, -0.13084805 , 0.453080773 , -0.009823103, -0.00902761 , 2.6348393   , 1.59        , 3           , 11          , 0.008330537 , 0.008330534
-0.07898341 , 0.100123055 , -9.808698   , 0.00146751839, 0.00105281128, 0.000446279679, -0.2240124  , -0.130645812, 0.4532156   , -0.009823545, -0.008973869, 2.634844    , 1.6         , 3           , 12          , 0.04040966  , 0
-0.08800248 , 0.106954321 , -9.796082   , 0.002324231 , -0.0009124159, -0.000117882104, -0.224079818, -0.130780637, 0.4532156   , -0.009800292, -0.008983005, 2.634843    , 1.61        , 3           , 50          , 0           , 0
-0.09563502 , 0.119148649 , -9.773038   , 0.000369220652, -0.005430829, -0.0006991183, -0.223742753, -0.130645812, 0.453283    , -0.009796541, -0.009037379, 2.63483644  , 1.62        , 3           , 11          , 0.008309913 , 0.008309911
-0.1006163  , 0.118313909 , -9.775792   , -0.00104751054, -0.00431411341, 0.0009912575, -0.223742753, -0.130645812, 0.453283    , -0.00980711 , -0.009080421, 2.634847    , 1.63        , 3           , 12          , 0.04040966  , 0
-0.08909261 , 0.0943176   , -9.791623   , -0.001355267, 0.0004705752, -0.00182805734, -0.223944992, -0.130915463, 0.453283    , -0.009820495, -0.009075895, 2.63482833  , 1.64        , 3           , 50          , 0           , 0
-0.101499736, 0.08538669  , -9.776387   , -0.000212034764, -0.00205586571, -0.000131470239, -0.223877579, -0.130713224, 0.453283    , -0.009822607, -0.009096465, 2.634827    , 1.65        , 3           , 11          , 0.008309913 , 0.008309911
-0.09260261 , 0.07756394  , -9.762341   , 0.00146858627, 0.000771244639, -0.000119229277, -0.224079818, -0.130645812, 0.453350425 , -0.009807909, -0.009088764, 2.634826    , 1.66        , 3           , 12          , 0.04040966  , 0
-0.106793374, 0.0904736146, -9.794486   , 0.00117730582, 0.002458723 , -0.0009655549, -0.224079818, -0.130645812, 0.453350425 , -0.009796048, -0.009064272, 2.634816    , 1.67        , 3           , 50          , 0           , 0
-0.1103915  , 0.08785762  , -9.808988   , 0.00147571939, -0.000636579935, 0.000161138509, -0.223877579, -0.130645812, 0.453283    , -0.009781305, -0.009070623, 2.63481784  , 1.68        , 3           , 11          , 0.008309913 , 0.008309911
-0.0764979  , 0.0874060243, -9.792912   , -0.0005003639, -0.000931517163, -0.000696126139, -0.224079818, -0.130443573, 0.453417838 , -0.009786246, -0.009080005, 2.63481069  , 1.69        , 3           , 12          , 0.04040966  , 0
-0.08069454 , 0.07932105  , -9.789362   , 0.0003840124, -0.0018290357, -0.000694312854, -0.223810166, -0.131050289, 0.4532156   , -0.00974197 , -0.009170163, 2.634804    , 1.7         , 3           , 50          , 0           , 0
-0.0874199  , 0.0758838   , -9.816998   , -0.000471468869, -0.000145374317, -0.000413122529, -0.223810166, -0.131050289, 0.4532156   , -0.009746647, -0.009171657, 2.6348002   , 1.71        , 3           , 11          , 0.00827726349, 0.008277257
-0.0855583251, 0.08616947  , -9.796149   , 0.002081925 , -0.00209913123, 0.00270360429, -0.223944992, -0.13084805 , 0.453350425 , -0.009726078, -0.009192385, 2.634827    , 1.72        , 3           , 12          , 0.0411266573, 0
-0.105880015, 0.0909156352, -9.7949295  , -0.00187572849, -0.00184431707, -0.00126992329, -0.223944992, -0.130510986, 0.453350425 , -0.00974472053, -0.009210952, 2.6348145   , 1.73        , 3           , 50          , 0           , 0
-0.0834033638, 0.08248378  , -9.781232   , 0.000113063928, -0.00408346439, -0.000134026486, -0.223877579, -0.130645812, 0.4532156   , -0.00974358153, -0.009251798, 2.63481355  , 1.74        , 3           , 11          , 0.00827726349, 0.008277257
-0.08077243 , 0.109981984 , -9.782455   , -0.0004609695, -0.002397898, -0.001546744, -0.223877579, -0.130645812, 0.4532156   , -0.00974805 , -0.009275926, 2.63479829  , 1.75        , 3           , 12          , 0.0411266573, 0
-0.09829372 , 0.106729753 , -9.827349   , -0.00216775015, 0.0001247294, -0.0009856652, -0.223944992, -0.130308747, 0.4531482   , -0.009769636, -0.009274774, 2.63478875  , 1.76        , 3           , 50          , 0           , 0
-0.08609003 , 0.105229735 , -9.826357   , 0.000657912053, -0.000137736, -0.0009729298, -0.223810166, -0.130510986, 0.453283    , -0.009762967, -0.009276248, 2.63477921  , 1.77        , 3           , 11          , 0.00827726349, 0.008277257
-0.0743982047, 0.11216785  , -9.783752   , -0.0004612958, -0.00239789928, -0.002111819, -0.223944992, -0.130510986, 0.4532156   , -0.009767386, -0.009300431, 2.63475823  , 1.78        , 3           , 12          , 0.0411266573, 0
-0.08698238 , 0.118195243 , -9.787892   , -0.0024402556, -0.00184813526, -0.000707482162, -0.223944992, -0.130510986, 0.4532156   , -0.009791724, -0.00931898 , 2.634751    , 1.79        , 3           , 50          , 0           , 0
-0.07678536 , 0.06664097  , -9.789384   , -0.001969257, 0.00299167377, -0.00210899627, -0.223877579, -0.130443573, 0.4531482   , -0.009899316, -0.009226551, 2.63473058  , 1.8         , 3           , 11          , 0.008232917 , 0.008232901
-0.09231238 , 0.0969921649, -9.770844   , 0.00283683417, 0.002179451 , -0.000957760145, -0.224079818, -0.130713224, 0.4532156   , -0.009870858, -0.009204852, 2.634721    , 1.81        , 3           , 12          , 0.04187358  , 0
-0.0766418651, 0.07925506  , -9.783906   , 0.00313294912, -0.00035271942, 0.00101741357, -0.223810166, -0.130780637, 0.4531482   , -0.009839623, -0.009208279, 2.634731    , 1.82        , 3           , 50          , 0           , 0
-0.0839860141, 0.103288196 , -9.793354   , -0.00195335876, 0.000176032074, 0.00127711415, -0.223810166, -0.130780637, 0.4531482   , -0.009859273, -0.009206393, 2.634744    , 1.83        , 3           , 11          , 0.008232917 , 0.008232901
-0.09078299 , 0.13140963  , -9.812725   , -0.00363233336, -0.00321421446, -0.0007137569, -0.224079818, -0.130780637, 0.453013361 , -0.009895534, -0.00923860352, 2.63473725  , 1.84        , 3           , 12          , 0.04187358  , 0
-0.103287451, 0.114365563 , -9.799784   , 0.0008782945, -0.00149426342, -0.000407544867, -0.223810166, -0.130645812, 0.4532156   , -0.009886714, -0.009253586, 2.634733    , 1.85        , 3           , 50          , 0           , 0
-0.0970152  , 0.0745860338, -9.800353   , 0.00340635888, 0.001338578 , -0.000108815868, -0.223810166, -0.130780637, 0.453350425 , -0.00985264 , -0.009240211, 2.63473153  , 1.86        , 3           , 11          , 0.008232917 , 0.008232901
-0.0785996541, 0.1000618   , -9.791971   , -0.00196040329, 0.00130228535, -0.00126398739, -0.223810166, -0.130780637, 0.453350425 , -0.009872127, -0.009227315, 2.63471913  , 1.87        , 3           , 12          , 0.04187358  , 0
-0.0868369341, 0.0983014852, -9.776673   , -0.00251640333, -0.000390922738, -0.00042161232, -0.22367534 , -0.130713224, 0.453080773 , -0.009897253, -0.009231266, 2.63471532  , 1.88        , 3           , 50          , 0           , 0
-0.09498916 , 0.05785174  , -9.795887   , -0.00362856663, -0.00377733936, 0.0009806   , -0.223742753, -0.130510986, 0.453283    , -0.009933631, -0.00926894 , 2.63472533  , 1.89        , 3           , 11          , 0.008232917 , 0.008232901
-0.08997798 , 0.09389824  , -9.797958   , -0.00273995637, 0.000472469372, 0.0009907219, -0.223607928, -0.130443573, 0.4532156   , -0.009879061, -0.009236945, 2.63473439  , 1.9         , 3           , 12          , 0.04264852  , 0
-0.0897988155, 0.111897424 , -9.783872   , 0.00121246208, 0.0007807731, 0.000727055361, -0.223607928, -0.130443573, 0.4532156   , -0.009867001, -0.009229066, 2.634742    , 1.91        , 3           , 50          , 0           , 0
-0.09665166 , 0.07495476  , -9.777298   , -0.00302566076, 0.00103368715, 0.000142660254, -0.223877579, -0.130645812, 0.453080773 , -0.00989727 , -0.009218715, 2.634743    , 1.92        , 3           , 11          , 0.00817772653, 0.008177708
-0.103251711, 0.07965335  , -9.80942    , 0.000100135308, -0.00260564429, 0.00184673036, -0.223944992, -0.1305784  , 0.4532156   , -0.009896441, -0.009244586, 2.634762    , 1.93        , 3           , 12          , 0.04264852  , 0
-0.09935291 , 0.09813523  , -9.817449   , -0.004138803, -0.00235273433, -0.000150352193, -0.223877579, -0.130510986, 0.453417838 , -0.009937818, -0.009268127, 2.63476014  , 1.94        , 3           , 50          , 0           , 0
-0.08398692 , 0.06943898  , -9.791234   , -0.0001983525, 0.000208086189, -0.00182323437, -0.223877579, -0.130510986, 0.453417838 , -0.009939632, -0.00926622748, 2.634742    , 1.95        , 3           , 11          , 0.00817772653, 0.008177708
-0.08085877 , 0.104109459 , -9.78022    , 0.00205007335, 0.00247588754, -0.00152669 , -0.223877579, -0.130645812, 0.453283    , -0.009918988, -0.009241622, 2.63472676  , 1.96        , 3           , 12          , 0.04264852  , 0
-0.08806406 , 0.10690444  , -9.781167   , -0.00190046185, 0.00188602088, -0.000415844959, -0.223944992, -0.130780637, 0.45348525  , -0.009937953, -0.009222803, 2.63472247  , 1.97        , 3           , 50          , 0           , 0
-0.08898357 , 0.1082428   , -9.773485   , 0.00120483944, 0.00218859571, -0.000400924735, -0.22367534 , -0.130780637, 0.45348525  , -0.0099258665, -0.009200958, 2.63471818  , 1.98        , 3           , 11          , 0.00817772653, 0.008177708
-0.07326788 , 0.101254731 , -9.762998   , 0.002341843 , 0.0007884114, 0.000167248043, -0.22367534 , -0.130780637, 0.45348525  , -0.0099024605, -0.009193058, 2.63472     , 1.99        , 3           , 12          , 0.04264852  , 0
-0.0887869  , 0.111972965 , -9.809627   , -0.00131139252, -0.00173847494, 0.0009941183, -0.223540515, -0.131050289, 0.453013361 , -0.009908446, -0.009166459, 2.63472962  , 2           , 3           , 50          , 0           , 0
-0.1048615  , 0.0923355743, -9.817966   , 0.0009510619, -0.002567896, -0.0009744103, -0.223944992, -0.1305784  , 0.45348525  , -0.00989885 , -0.009192232, 2.63472056  , 2.01        , 3           , 11          , 0.008114066 , 0.008114054
-0.09414683 , 0.08047958  , -9.818386   , -0.00357506331, -0.00119063165, -0.00155838649, -0.223810166, -0.130780637, 0.453417838 , -0.009934458, -0.009204293, 2.63470483  , 2.02        , 3           , 12          , 0.043449644 , 0
-0.109791033, 0.103594214 , -9.794455   , -0.00161898579, 0.00304621458, -0.00154265889, -0.223810166, -0.13084805 , 0.453080773 , -0.009950503, -0.009173986, 2.63468957  , 2.03        , 3           , 50          , 0           , 0
-0.0969504  , 0.08669001  , -9.77725    , -0.0004678789, -0.00116961973, -0.0006962878, -0.223810166, -0.13084805 , 0.453080773 , -0.009955118, -0.00918575 , 2.63468242  , 2.04        , 3           , 11          , 0.008114066 , 0.008114054
-0.07923569 , 0.08920625  , -9.782077   , -0.00498285238, -0.00204487564, -0.0012837355, -0.223607928, -0.130780637, 0.453417838 , -0.0100048315, -0.009206327, 2.63466954  , 2.05        , 3           , 12          , 0.043449644 , 0
-0.07619226 , 0.07746178  , -9.788881   , 0.00207182718, -0.0005892966, 0.000446582271, -0.22367534 , -0.130780637, 0.453552663 , -0.009984154, -0.00921217352, 2.63467431  , 2.06        , 3           , 50          , 0           , 0
-0.09146887 , 0.0835407451, -9.798918   , 0.0009394949, -3.38055324E-05, 0.000724719837, -0.223742753, -0.131185114, 0.453283    , -0.009974828, -0.009212439, 2.634682    , 2.07        , 3           , 11          , 0.008114066 , 0.008114054
-0.0771428645, 0.10458912  , -9.801433   , -0.00131655345, -0.0008937844, -0.00069980463, -0.223742753, -0.131185114, 0.453283    , -0.009987927, -0.009221445, 2.63467431  , 2.08        , 3           , 12          , 0.043449644 , 0
-0.0787614658, 0.08029129  , -9.816009   , -0.000468457234, -0.0008880506, 0.0007168333, -0.223742753, -0.130780637, 0.453552663 , -0.00999268 , -0.009230254, 2.634682    , 2.09        , 3           , 50          , 0           , 0
-0.07084755 , 0.100908533 , -9.802303   , -0.000677273143, 0.000280794338, -0.00126080378, -0.223810166, -0.130645812, 0.453552663 , -0.009884895, -0.009164158, 2.63466859  , 2.1         , 3           , 11          , 0.008038744 , 0.008038739
-0.0972010642, 0.1029277   , -9.774473   , 0.00158509263, -0.000267055264, -0.0009685986, -0.223944992, -0.130645812, 0.453350425 , -0.009868956, -0.009166926, 2.63465858  , 2.11        , 3           , 12          , 0.0442751981, 0
-0.08935109 , 0.110102624 , -9.788395   , 0.00101392146, 0.00113695324, 0.00016108682, -0.223944992, -0.130645812, 0.453350425 , -0.00985883 , -0.009155539, 2.63466     , 2.12        , 3           , 50          , 0           , 0
-0.08288258 , 0.113703944 , -9.808218   , 0.00044267613, 0.00225939  , -0.00125249848, -0.22367534 , -0.1305784  , 0.453417838 , -0.009854288, -0.009133069, 2.63464761  , 2.13        , 3           , 11          , 0.008038744 , 0.008038739
-0.105675444, 0.09777665  , -9.822922   , -0.000950431451, -0.00169207365, -0.002112771, -0.223810166, -0.130443573, 0.4537549   , -0.009863602, -0.009150198, 2.63462663  , 2.14        , 3           , 12          , 0.0442751981, 0
-0.09092415 , 0.08941248  , -9.802505   , 0.003287024 , -0.00138184731, 0.00214547943, -0.223742753, -0.1311177  , 0.453417838 , -0.009830929, -0.009163807, 2.634648    , 2.15        , 3           , 50          , 0           , 0
-0.08868633 , 0.0893647447, -9.79616    , -0.00152824621, 0.001119762 , -0.0004158403, -0.223742753, -0.1311177  , 0.453417838 , -0.009846172, -0.009152649, 2.63464379  , 2.16        , 3           , 11          , 0.008038744 , 0.008038739
-0.101186126, 0.08125146  , -9.755611   , -0.000678014534, 0.000562362547, -0.000130220113, -0.223742753, -0.130713224, 0.453552663 , -0.009852939, -0.009147039, 2.63464236  , 2.17        , 3           , 12          , 0.0442751981, 0
-0.118916206, 0.100519776 , -9.787758   , 0.00102400582, -0.000834000763, 0.000723124249, -0.223607928, -0.130780637, 0.45348525  , -0.009842767, -0.009155309, 2.63464952  , 2.18        , 3           , 50          , 0           , 0
-0.104465023, 0.0918382853, -9.805762   , 0.00440722471, 0.0003151777, 0.000175588269, -0.2234731  , -0.13084805 , 0.453552663 , -0.00979871 , -0.009152139, 2.63465142  , 2.19        , 3           , 11          , 0.008038744 , 0.008038739
-0.0772580653, 0.09244433  , -9.812331   , -0.00123047049, 0.00104730867, -0.00182810018, -0.2234731  , -0.13084805 , 0.453552663 , -0.009786872, -0.009252006, 2.63463283  , 2.2         , 3           , 12          , 0.045123525 , 0
-0.06735266 , 0.09496021  , -9.790098   , -0.0015145432, 0.00160853413, 0.0001492128, -0.223877579, -0.13084805 , 0.453620076 , -0.00980203 , -0.009235906, 2.63463426  , 2.21        , 3           , 50          , 0           , 0
-0.06324961 , 0.0949350446, -9.796846   , 0.00216364954, 0.00022553702, -0.0004009114, -0.223944992, -0.130645812, 0.453552663 , -0.009780357, -0.009233692, 2.63463     , 2.22        , 3           , 11          , 0.007955391 , 0.007955385
-0.0727217048, 0.104003184 , -9.776995   , 0.0001796914, 0.00161999254, -0.000407960324, -0.223742753, -0.130915463, 0.453350425 , -0.009778521, -0.009217532, 2.63462567  , 2.23        , 3           , 12          , 0.045123525 , 0
-0.09878364 , 0.11206118  , -9.801115   , 0.000194535984, -0.0014772258, -0.001260346, -0.223742753, -0.130915463, 0.453350425 , -0.00977646 , -0.009232428, 2.63461328  , 2.24        , 3           , 50          , 0           , 0
-0.07959224 , 0.09330669  , -9.792459   , -0.000934029231, -0.0014848602, 0.0007121484, -0.2234731  , -0.130713224, 0.453417838 , -0.009785867, -0.009247206, 2.63462043  , 2.25        , 3           , 11          , 0.007955391 , 0.007955385
-0.0584956333, 0.113365486 , -9.79266548 , -0.004044165, -0.000942742568, -0.000431619672, -0.223877579, -0.1305784  , 0.453417838 , -0.009826268, -0.009256675, 2.63461614  , 2.26        , 3           , 12          , 0.045123525 , 0
-0.0970374644, 0.11243362  , -9.783924   , -0.00263031037, -0.0012147564, 0.000139605749, -0.22367534 , -0.130780637, 0.453283    , -0.009852586, -0.009268808, 2.634618    , 2.27        , 3           , 50          , 0           , 0
-0.08548634 , 0.09024494  , -9.8006525  , -0.00122005981, -0.0009236437, -0.0007009879, -0.22367534 , -0.130780637, 0.453283    , -0.009864721, -0.009278113, 2.634611    , 2.28        , 3           , 11          , 0.007955391 , 0.007955385
-0.07643096 , 0.08969202  , -9.801941   , 0.000747496146, 0.001060683 , -0.000123657053, -0.223810166, -0.130443573, 0.453417838 , -0.00985723548, -0.009267519, 2.63460946  , 2.29        , 3           , 12          , 0.045123525 , 0
-0.106793262, 0.09315179  , -9.785887   , 0.00327484123, 3.11275071E-05, -0.00209028018, -0.223944992, -0.130510986, 0.453552663 , -0.00985348 , -0.009144943, 2.63458943  , 2.3         , 3           , 50          , 0           , 0
-0.07536784 , 0.1036459   , -9.795547   , 0.004111785 , 0.002289382 , -0.0006701704, -0.223810166, -0.130713224, 0.453417838 , -0.009812298, -0.009122117, 2.63458276  , 2.31        , 3           , 11          , 0.007868687 , 0.007868676
-0.07311563 , 0.09780728  , -9.811374   , 0.000172076339, -0.0005530068, -0.000127872132, -0.223810166, -0.130713224, 0.453417838 , -0.009810567, -0.00912766 , 2.63458085  , 2.32        , 3           , 12          , 0.0459930561, 0
-0.08208714 , 0.07841655  , -9.783952   , -0.00151920714, -0.00112759462, 0.0007109709, -0.223810166, -0.130713224, 0.453283    , -0.009825824, -0.009138865, 2.63458848  , 2.33        , 3           , 50          , 0           , 0
-0.0965483561, 0.111118704 , -9.797034   , 0.000449668616, 0.000293595251, -0.00125540316, -0.224079818, -0.130645812, 0.453552663 , -0.009821212, -0.009136053, 2.634576    , 2.34        , 3           , 11          , 0.007868687 , 0.007868676
-0.08166283 , 0.107773125 , -9.793318   , 0.001851303 , 0.002555669 , -0.000115197276, -0.2240124  , -0.130780637, 0.453283    , -0.009802686, -0.00911050849, 2.63457417  , 2.35        , 3           , 12          , 0.0459930561, 0
-0.0938606262, 0.0745367259, -9.796713   , 0.000181419251, -0.00224239263, 0.001564749 , -0.2240124  , -0.130780637, 0.453283    , -0.009801017, -0.009132778, 2.63459039  , 2.36        , 3           , 50          , 0           , 0
-0.08429761 , 0.07759374  , -9.799791   , 0.0007299599, 0.000858638436, -0.0001230686, -0.223944992, -0.1305784  , 0.45348525  , -0.009793705, -0.009124205, 2.63458848  , 2.37        , 3           , 11          , 0.007868687 , 0.007868676
-0.108015217, 0.09863448  , -9.801693   , -0.0015074024, -0.00338011165, 0.00183764915, -0.223944992, -0.13084805 , 0.45348525  , -0.009808949, -0.009157824, 2.63460755  , 2.38        , 3           , 12          , 0.0459930561, 0
-0.09649028 , 0.108934    , -9.818286   , -0.0006744627, -0.0008403049, -0.00126240659, -0.223944992, -0.13084805 , 0.453552663 , -0.00981558 , -0.00916635152, 2.63459516  , 2.39        , 3           , 50          , 0           , 0
-0.08615449 , 0.111426428 , -9.790626   , -0.00434975233, 0.000256827421, -0.0009952876, -0.223944992, -0.13084805 , 0.453552663 , -0.009856308, -0.00917075947, 2.63458514  , 2.4         , 3           , 11          , 0.007775948 , 0.007775945
-0.0840468258, 0.10680972  , -9.767124   , 0.0004420721, 0.002260254 , -0.000404787133, -0.223877579, -0.130915463, 0.453350425 , -0.00985185 , -0.009148198, 2.63458085  , 2.41        , 3           , 12          , 0.0468822978, 0
-0.10400565 , 0.0931773558, -9.803041   , -0.00264231861, -0.00226579676, -0.000426216342, -0.223944992, -0.130780637, 0.453552663 , -0.009878235, -0.009170896, 2.634577    , 2.42        , 3           , 50          , 0           , 0
-0.100636564, 0.108477764 , -9.8025     , -0.00350927841, 0.0016703835, -0.0007066296, -0.223877579, -0.130915463, 0.453552663 , -0.00991326 , -0.009154263, 2.63456941  , 2.43        , 3           , 11          , 0.007775948 , 0.007775945
-0.08283404 , 0.0888218   , -9.789338   , -0.000117620664, 0.00141174358, 0.001286502 , -0.223810166, -0.13084805 , 0.453552663 , -0.009914555, -0.009140019, 2.63458228  , 2.44        , 3           , 12          , 0.0468822978, 0
-0.09743146 , 0.07863811  , -9.796272   , 0.00158827007, -0.00139246008, -0.00323053543, -0.223810166, -0.13084805 , 0.453552663 , -0.009898378, -0.009154263, 2.63455033  , 2.45        , 3           , 50          , 0           , 0
-0.0865138  , 0.08167614  , -9.798435   , 0.001877578 , -0.002516804, -0.0009706543, -0.224282056, -0.130982876, 0.453417838 , -0.00987951551, -0.009179525, 2.6345408   , 2.46        , 3           , 11          , 0.007775948 , 0.007775945
-0.09762406 , 0.0926911   , -9.814746   , -0.00291958475, -0.00311239762, 0.00126638962, -0.224079818, -0.131185114, 0.453552663 , -0.009908831, -0.009210523, 2.63455367  , 2.47        , 3           , 12          , 0.0468822978, 0
-0.0916011259, 0.09853533  , -9.82914    , -0.00293359929, -0.000578318664, -0.00127254217, -0.22414723 , -0.131387353, 0.453350425 , -0.00993805 , -0.009216433, 2.6345408   , 2.48        , 3           , 50          , 0           , 0
-0.09837842 , 0.1030903   , -9.818324   , -0.00208722334, -0.000291021424, -0.000420544937, -0.22414723 , -0.131387353, 0.453350425 , -0.009958882, -0.009219385, 2.634537    , 2.49        , 3           , 11          , 0.007775948 , 0.007775945
-0.0934198946, 0.111048229 , -9.787066   , -0.00122958841, 0.00166270055, 0.00128125155, -0.22414723 , -0.131050289, 0.45348525  , -0.009939486, -0.009240797, 2.634549    , 2.5         , 3           , 12          , 0.0477898456, 0
-0.06741686 , 0.0913374   , -9.786046   , -0.00292561762, 0.00165123364, -0.00126948743, -0.224282056, -0.130982876, 0.453552663 , -0.009968624, -0.009224411, 2.634536    , 2.51        , 3           , 50          , 0           , 0
-0.0775227547, 0.08241014  , -9.779832   , -0.00489916466, 0.00107473682, -0.000149424071, -0.224282056, -0.131050289, 0.453283    , -0.0100176008, -0.00921368 , 2.63453412  , 2.52        , 3           , 11          , 0.007680836 , 0.00768082635
-0.09884238 , 0.07816511  , -9.784985   , -0.004611162, -4.9613478E-05, -0.000149842876, -0.224282056, -0.131050289, 0.453283    , -0.0100636976, -0.009214191, 2.63453317  , 2.53        , 3           , 12          , 0.0477898456, 0
-0.0819707  , 0.0820817   , -9.800659   , 0.000476539659, -0.000859930064, -0.000409977132, -0.224416882, -0.1311177  , 0.453350425 , -0.0100588966, -0.009222831, 2.63452888  , 2.54        , 3           , 50          , 0           , 0
-0.11024379 , 0.0960115939, -9.818896   , 0.00019042028, -1.714241E-05, 0.000437620038, -0.224349469, -0.130982876, 0.453417838 , -0.0100570321, -0.009222957, 2.63453317  , 2.55        , 3           , 11          , 0.007680836 , 0.00768082635
-0.117737323, 0.124833524 , -9.776348   , 0.001586983 , 0.00280805072, -0.00237683067, -0.223944992, -0.131185114, 0.45348525  , -0.01004094 , -0.009195118, 2.63450933  , 2.56        , 3           , 12          , 0.0477898456, 0
-0.09025951 , 0.10877189  , -9.792024   , 0.00160427461, -0.000289156073, 0.00100884575, -0.223944992, -0.131185114, 0.45348525  , -0.010024989, -0.009197908, 2.63451934  , 2.57        , 3           , 50          , 0           , 0
-0.06096222 , 0.09894464  , -9.789581   , 0.00132356829, -0.0005726295, 0.00157216983, -0.2240124  , -0.1311177  , 0.45348525  , -0.0100118993, -0.009203477, 2.634535    , 2.58        , 3           , 11          , 0.007680836 , 0.00768082635
-0.0721136853, 0.0796485245, -9.782515   , 0.0016039483, -0.000289157644, 0.000443770754, -0.2240124  , -0.13084805 , 0.453620076 , -0.009995901, -0.009206323, 2.63453984  , 2.59        , 3           , 12          , 0.0477898456, 0
-0.07850446 , 0.07521748  , -9.7843895  , -0.00177944859, 0.00224947277, 0.0004320081, -0.223877579, -0.131050289, 0.45348525  , -0.009982233, -0.00913642 , 2.63454366  , 2.6         , 3           , 50          , 0           , 0
-0.0886464044, 0.09296789  , -9.794336   , 0.00189316785, 0.00199273555, -0.000116380681, -0.223877579, -0.131050289, 0.45348525  , -0.009963291, -0.009116506, 2.63454223  , 2.61        , 3           , 11          , 0.007584564 , 0.007584561
-0.088055715, 0.105572142 , -9.7875     , 0.003301936 , 0.002846985 , 0.00130419328, -0.224214643, -0.130915463, 0.453417838 , -0.009930386, -0.009087907, 2.634555    , 2.62        , 3           , 12          , 0.048714377 , 0
-0.07643043 , 0.09549499  , -9.783386   , 0.00329865888, 0.00341011258, 0.0004574487, -0.224282056, -0.13084805 , 0.453283    , -0.009897439, -0.009053762, 2.634559    , 2.63        , 3           , 50          , 0           , 0
-0.09257512 , 0.106971189 , -9.785269   , -0.003186333, 0.00111366075, -0.000141387311, -0.224079818, -0.1311177  , 0.45348525  , -0.009929288, -0.009042639, 2.634558    , 2.64        , 3           , 11          , 0.007584564 , 0.007584561
-0.08228086 , 0.0960394442, -9.79066    , -0.00205646269, 0.00112130144, 0.000146417908, -0.224079818, -0.1311177  , 0.45348525  , -0.009949865, -0.009031413, 2.634559    , 2.65        , 3           , 12          , 0.048714377 , 0
-0.07924293 , 0.08696863  , -9.787511   , -0.00402476033, -0.000581457163, 0.000699670753, -0.22414723 , -0.130915463, 0.4532156   , -0.009990175, -0.009037157, 2.63456655  , 2.66        , 3           , 50          , 0           , 0
-0.08781929 , 0.09021559  , -9.783946   , -0.00176788145, -0.000284617825, -0.0012671221, -0.224349469, -0.13084805 , 0.453350425 , -0.0100077391, -0.00904013 , 2.63455319  , 2.67        , 3           , 11          , 0.007584564 , 0.007584561
-0.09907859 , 0.09887801  , -9.771341   , 0.00274397782, 0.001153767 , -0.00124388142, -0.2240124  , -0.130915463, 0.453283    , -0.009980186, -0.009028718, 2.6345408   , 2.68        , 3           , 12          , 0.048714377 , 0
-0.09993267 , 0.0953595638, -9.795318   , -0.0026233627, 0.00139904348, -0.0009859317, -0.2240124  , -0.130915463, 0.453283    , -0.01000633 , -0.009014825, 2.63453126  , 2.69        , 3           , 50          , 0           , 0
-0.08546005 , 0.103210405 , -9.765343   , -0.001747744, -1.01845144E-05, -0.00126693933, -0.22414723 , -0.130780637, 0.4532156   , -0.009985189, -0.009027802, 2.634518    , 2.7         , 3           , 11          , 0.00748752  , 0.0074875243
-0.09908253 , 0.09351863  , -9.787635   , 0.00108152186, -0.000835776154, 0.000157615432, -0.22414723 , -0.130443573, 0.453417838 , -0.009974389, -0.009036144, 2.63451982  , 2.71        , 3           , 12          , 0.0496546663, 0
-0.07945146 , 0.09966968  , -9.806442   , -0.001450235, -0.00282391976, 0.0007078005, -0.224349469, -0.130645812, 0.453283    , -0.009988959, -0.00906431 , 2.63452744  , 2.72        , 3           , 50          , 0           , 0
-0.08704555 , 0.108324356 , -9.804205   , -0.00174044771, -0.00141800835, -0.000704034, -0.224349469, -0.130645812, 0.453283    , -0.0100063  , -0.00907856 , 2.63452029  , 2.73        , 3           , 11          , 0.00748752  , 0.0074875243
-0.09681189 , 0.08992669  , -9.80074    , 0.001648763 , -0.00167666 , -0.00294896471, -0.22414723 , -0.130713224, 0.453283    , -0.009989547, -0.009095621, 2.63449121  , 2.74        , 3           , 12          , 0.0496546663, 0
-0.07757713 , 0.06674383  , -9.816959   , 0.000790894264, 0.0008517051, 0.000441439624, -0.224349469, -0.130713224, 0.453417838 , -0.009981678, -0.00908706151, 2.634495    , 2.75        , 3           , 50          , 0           , 0
-0.0421276  , 0.08652216  , -9.784064   , 0.000789010664, 0.00113326788, -0.000405738683, -0.2240124  , -0.130713224, 0.453417838 , -0.00997375 , -0.009075769, 2.63449121  , 2.76        , 3           , 11          , 0.00748752  , 0.0074875243
-0.08351141 , 0.112673908 , -9.768453   , 0.0016258806, 0.00310995034, -0.00152890023, -0.2240124  , -0.130713224, 0.453417838 , -0.009957352, -0.009044825, 2.63447547  , 2.77        , 3           , 12          , 0.0496546663, 0
-0.0867968649, 0.0969949   , -9.79069    , -5.44139766E-05, 0.000282841153, -0.0009760664, -0.22414723 , -0.130713224, 0.4531482   , -0.009957807, -0.00904209353, 2.63446546  , 2.78        , 3           , 50          , 0           , 0
-0.0833541  , 0.08609451  , -9.781669   , 0.00360942283, 0.00199706433, 0.000173807173, -0.224079818, -0.130915463, 0.453350425 , -0.009921726, -0.009022105, 2.63446736  , 2.79        , 3           , 11          , 0.00748752  , 0.0074875243
-0.08831608 , 0.0861680955, -9.786226   , 0.00222131959, 0.00203078776, -0.000397619762, -0.224079818, -0.130645812, 0.453350425 , -0.009854372, -0.00892166 , 2.63446259  , 2.8         , 3           , 12          , 0.05060954  , 0
-0.0523812547, 0.101950288 , -9.774136   , 0.00108824542, 0.00286784722, 0.00101110141, -0.224079818, -0.130645812, 0.453350425 , -0.009843578, -0.008892883, 2.63447261  , 2.81        , 3           , 50          , 0           , 0
-0.08999982 , 0.0920951441, -9.798419   , 0.00223665358, -0.00106642826, -0.000402393081, -0.223877579, -0.130915463, 0.4532156   , -0.00982117653, -0.008903586, 2.63446879  , 2.82        , 3           , 11          , 0.007391408 , 0.00739142
-0.10450279 , 0.09627119  , -9.782242   , -0.000316177175, 0.00116890331, -0.000128236774, -0.224349469, -0.130510986, 0.4532156   , -0.009824325, -0.00889191 , 2.63446736  , 2.83        , 3           , 12          , 0.05060954  , 0
-0.08551189 , 0.08843883  , -9.800207   , -0.00314527983, 0.00199449575, -0.001270254, -0.224214643, -0.130780637, 0.453417838 , -0.009855663, -0.008872091, 2.63445449  , 2.84        , 3           , 50          , 0           , 0
-0.102369174, 0.07873135  , -9.80670452 , 0.000527336437, 0.00173775887, -0.00181864272, -0.224214643, -0.130780637, 0.453417838 , -0.009850228, -0.008854895, 2.634436    , 2.85        , 3           , 11          , 0.007391408 , 0.00739142
-0.08101018 , 0.08836451  , -9.793846   , 0.0005431599, -0.00135945482, -0.0009758036, -0.224282056, -0.130645812, 0.4531482   , -0.009844712, -0.008868585, 2.63442636  , 2.86        , 3           , 12          , 0.05060954  , 0
-0.06439915 , 0.107618004 , -9.807199   , -0.00030502514, -0.00108361733, -0.00013170825, -0.224079818, -0.130510986, 0.453350425 , -0.00984775 , -0.008879432, 2.6344254   , 2.87        , 3           , 50          , 0           , 0
-0.09188963 , 0.0840183645, -9.805246   , 0.000527989 , 0.00173776189, -0.000688492844, -0.223944992, -0.130645812, 0.453417838 , -0.009842408, -0.008862124, 2.63441825  , 2.88        , 3           , 11          , 0.007391408 , 0.00739142
-0.10191489 , 0.08586886  , -9.784072   , -0.000303467968, -0.00136518164, 0.0001503953, -0.224282056, -0.130780637, 0.4531482   , -0.009845456, -0.00887576 , 2.63441968  , 2.89        , 3           , 12          , 0.05060954  , 0
-0.103692681, 0.08814889  , -9.78498    , -0.00112931046, 0.00172620174, -0.000414161856, -0.224282056, -0.130780637, 0.4531482   , -0.009785565, -0.00885872 , 2.634415    , 2.9         , 3           , 50          , 0           , 0
-0.106884681, 0.05030223  , -9.79058552 , 0.00167913444, 0.004842515 , -0.00124383182, -0.224416882, -0.1305784  , 0.453417838 , -0.009768658, -0.008810419, 2.634402    , 2.91        , 3           , 11          , 0.00729646627, 0.00729647
-0.134823889, 0.08726655  , -9.816408   , 0.000580095162, -0.0013595568, -0.00125864614, -0.224349469, -0.130713224, 0.453417838 , -0.009762749, -0.008824137, 2.63438964  , 2.92        , 3           , 12          , 0.05157792  , 0
-0.111946888, 0.108618207 , -9.804846   , -0.00197166763, 0.000594208366, -0.00154999841, -0.22414723 , -0.130713224, 0.453080773 , -0.009782327, -0.008818348, 2.634374    , 2.93        , 3           , 50          , 0           , 0
-0.08312139 , 0.105922483 , -9.774805   , -0.00113874208, 0.00369715854, 0.000153950416, -0.22414723 , -0.130713224, 0.453080773 , -0.009793725, -0.008781361, 2.63437533  , 2.94        , 3           , 11          , 0.00729646627, 0.00729647
-0.0722984746, 0.06923274  , -9.770807   , 0.001129941 , 0.00174148066, -0.0006861639, -0.224349469, -0.130510986, 0.453350425 , -0.009782364, -0.008764015, 2.63436818  , 2.95        , 3           , 12          , 0.05157792  , 0
-0.120286107, 0.06489249  , -9.788819   , 0.00030013  , -0.00192459812, -0.00182590575, -0.224349469, -0.130645812, 0.453417838 , -0.009779205, -0.008783438, 2.63435     , 2.96        , 3           , 50          , 0           , 0
-0.106909558, 0.0845769048, -9.78502    , 0.000295458536, -0.00107990555, -0.00267221639, -0.224079818, -0.130915463, 0.453417838 , -0.009776016, -0.008794499, 2.63432336  , 2.97        , 3           , 11          , 0.00729646627, 0.00729647
-0.0819179639, 0.09551494  , -9.77032    , -0.0008349902, -0.00080597715, -0.00154690025, -0.224079818, -0.130915463, 0.453417838 , -0.009784231, -0.008802709, 2.634308    , 2.98        , 3           , 12          , 0.05157792  , 0
-0.03974871 , 0.100871943 , -9.765907   , -0.00140985369, 0.001442729 , 0.0004316995, -0.224416882, -0.130645812, 0.453350425 , -0.009798365, -0.00878824 , 2.63431239  , 2.99        , 3           , 50          , 0           , 0
-0.07359139 , 0.107167341 , -9.775631   , 0.00231567142, 4.82810719E-05, 0.000446165825, -0.224079818, -0.130915463, 0.453552663 , -0.009681993, -0.008810403, 2.63431668  , 3           , 3           , 11          , 0.00720114168, 0.00720114447
-0.08251707 , 0.116752349 , -9.777016   , -0.00362430885, 0.001697559 , -0.000709035958, -0.224079818, -0.130982876, 0.453350425 , -0.009718172, -0.008793497, 2.634309    , 3.01        , 3           , 12          , 0.05255877  , 0
-0.103172287, 0.09132281  , -9.79129    , -0.00276046339, -0.00167549285, -0.0009928299, -0.224079818, -0.130982876, 0.453350425 , -0.009745692, -0.008810347, 2.63429952  , 3.02        , 3           , 50          , 0           , 0
-0.1157614  , 0.09823891  , -9.791358   , -0.003621684, 0.00113442808, -0.0009924413, -0.224214643, -0.130645812, 0.453350425 , -0.009781821, -0.0087991  , 2.634289    , 3.03        , 3           , 11          , 0.00720114168, 0.00720114447
-0.090959236, 0.125017926 , -9.790154   , -0.00135833921, 0.0005865832, 0.0009949885, -0.224282056, -0.130645812, 0.453417838 , -0.009795491, -0.00879314 , 2.63429952  , 3.04        , 3           , 12          , 0.05255877  , 0
-0.09665813 , 0.07628856  , -9.771416   , -0.00162870949, -0.00194941461, 0.000142153673, -0.224282056, -0.130713224, 0.4532156   , -0.009811791, -0.00881261751, 2.634301    , 3.05        , 3           , 50          , 0           , 0
-0.07717404 , 0.102778465 , -9.799632   , -0.0010565595, -0.00335341878, 0.0007076928, -0.224282056, -0.130713224, 0.4532156   , -0.009822422, -0.00884608 , 2.634308    , 3.06        , 3           , 11          , 0.00720114168, 0.00720114447
-0.08530067 , 0.09932241  , -9.816885   , -0.00135153229, -0.000821243, 0.0007102813, -0.22414723 , -0.130510986, 0.453350425 , -0.009835999, -0.008854222, 2.63431573  , 3.07        , 3           , 12          , 0.05255877  , 0
-0.08178156 , 0.100981668 , -9.786116   , 0.00118391716, 0.000322203152, -0.00068881776, -0.224349469, -0.130645812, 0.45348525  , -0.0098241  , -0.008851068, 2.63430858  , 3.08        , 3           , 50          , 0           , 0
-0.08303498 , 0.07928564  , -9.770846   , 6.02754662E-05, -0.0008116948, 0.000151791 , -0.224416882, -0.130713224, 0.4531482   , -0.009823512, -0.008859169, 2.63431     , 3.09        , 3           , 11          , 0.00720114168, 0.00720114447
-0.07759693 , 0.07788654  , -9.776236   , 0.000625618268, 0.0003137567, 0.000438669638, -0.224416882, -0.130713224, 0.4531482   , -0.009805194, -0.008865477, 2.63431478  , 3.1         , 3           , 12          , 0.0535511374, 0
-0.09267757 , 0.09439035  , -9.80069    , -0.00105713808, -0.00195022067, 0.00155744643, -0.224079818, -0.1305784  , 0.4532156   , -0.009815903, -0.008884826, 2.63433051  , 3.11        , 3           , 50          , 0           , 0
-0.09797635 , 0.10259755  , -9.807476   , 8.15114763E-05, -0.00391354039, 0.000146989245, -0.224282056, -0.1305784  , 0.453417838 , -0.009815106, -0.008923944, 2.63433242  , 3.12        , 3           , 11          , 0.007107827 , 0.0071078334
-0.107709378, 0.0940465853, -9.780466   , 6.30631257E-05, -0.000253195758, -0.000412444351, -0.224214643, -0.130645812, 0.4532156   , -0.009814439, -0.008926516, 2.63432813  , 3.13        , 3           , 12          , 0.0535511374, 0
-0.0824842  , 0.08828673  , -9.765835   , 0.00147208292, 0.0003194827, -0.0009700668, -0.224214643, -0.130645812, 0.4532156   , -0.009799631, -0.008923417, 2.63431859  , 3.14        , 3           , 50          , 0           , 0
-0.07587945 , 0.102264509 , -9.785613   , -0.000216412562, -0.0008182351, -0.000132091925, -0.22414723 , -0.13037616 , 0.453350425 , -0.00980178453, -0.008931613, 2.63431764  , 3.15        , 3           , 11          , 0.007107827 , 0.0071078334
-0.111522309, 0.1108218   , -9.790821   , -0.00163551676, 0.000580040447, -0.000136506918, -0.224349469, -0.130173922, 0.453417838 , -0.009818127, -0.008925825, 2.63431573  , 3.16        , 3           , 12          , 0.0535511374, 0
-0.104095094, 0.08819503  , -9.797187   , -0.000226748831, 0.00143428938, 0.001284067 , -0.22414723 , -0.13037616 , 0.453350425 , -0.009820509, -0.008911357, 2.6343286   , 3.17        , 3           , 50          , 0           , 0
-0.07851432 , 0.0694069341, -9.800685   , 0.00483832229, 0.00512901274, 0.000465800549, -0.22414723 , -0.13037616 , 0.453350425 , -0.009772162, -0.008860023, 2.634333    , 3.18        , 3           , 11          , 0.007107827 , 0.0071078334
-0.0860369  , 0.08660024  , -9.788467   , 0.001185059 , 0.00144383765, 0.000725576654, -0.22414723 , -0.13037616 , 0.4532156   , -0.009760376, -0.00884551648, 2.63434     , 3.19        , 3           , 12          , 0.0535511374, 0
-0.08369045 , 0.08976497  , -9.79838    , -0.002444879, -0.001981098, -0.0012748728, -0.224282056, -0.130173922, 0.45348525  , -0.009729601, -0.008910571, 2.63432717  , 3.2         , 3           , 50          , 0           , 0
-0.0930922  , 0.100675493 , -9.789819   , -0.00046084667, -0.00309398165, 0.00127544731, -0.224079818, -0.13037616 , 0.453283    , -0.009734326, -0.008941388, 2.63434052  , 3.21        , 3           , 11          , 0.00701579265, 0.0070158
-0.102617793, 0.100326911 , -9.787182   , 0.000934648153, 1.2777622E-05, -0.000973494432, -0.224079818, -0.13037616 , 0.453283    , -0.009724894, -0.008941353, 2.634331    , 3.22        , 3           , 12          , 0.0545541346, 0
-0.06683644 , 0.0950063   , -9.805461   , 0.002336283 , 0.00227485155, 0.0001667114, -0.22414723 , -0.13037616 , 0.4532156   , -0.009701544, -0.00891859 , 2.634332    , 3.23        , 3           , 50          , 0           , 0
-0.0740992352, 0.0982010439, -9.791039   , 8.60480359E-05, 0.0005701849, 0.00156626  , -0.224079818, -0.130308747, 0.453350425 , -0.009700823, -0.008912737, 2.63434768  , 3.24        , 3           , 11          , 0.00701579265, 0.0070158
-0.06741637 , 0.122061819 , -9.798121   , -0.0001884154, -0.00140268938, -0.00154600677, -0.2240124  , -0.130780637, 0.453350425 , -0.009702569, -0.008926912, 2.63433242  , 3.25        , 3           , 12          , 0.0545541346, 0
-0.098372   , 0.109344423 , -9.799767   , 0.000651969458, 0.0002924382, 0.00100338471, -0.2240124  , -0.130780637, 0.453350425 , -0.009696141, -0.008923891, 2.63434243  , 3.26        , 3           , 50          , 0           , 0
-0.104554765, 0.0864093453, -9.801265   , 0.0023563772, -0.00194862869, -0.00125248486, -0.22414723 , -0.130915463, 0.4532156   , -0.009672467, -0.008943498, 2.63433     , 3.27        , 3           , 11          , 0.00701579265, 0.0070158
-0.07901722 , 0.102327414 , -9.79332    , 0.000657056 , -0.0008338245, 0.0001540365, -0.224214643, -0.13037616 , 0.4531482   , -0.00966591 , -0.00895182 , 2.634332    , 3.28        , 3           , 12          , 0.0545541346, 0
-0.0923130438, 0.09609893  , -9.773561   , 0.002618873 , 0.00227676216, 0.000450565858, -0.2244843  , -0.130308747, 0.453283    , -0.00963976048, -0.00892901048, 2.63433576  , 3.29        , 3           , 50          , 0           , 0
-0.09238853 , 0.08978887  , -9.775395   , 0.000634048833, -0.0005539108, -0.0004103083, -0.22414723 , -0.130510986, 0.453417838 , -0.009679887, -0.008938201, 2.634333    , 3.3         , 3           , 11          , 0.00692589674, 0.00692589767
-0.0917699039, 0.0921496749, -9.808375   , -0.00135228189, 0.001122105 , -0.00211214833, -0.22414723 , -0.130510986, 0.453417838 , -0.009693221, -0.008927184, 2.634312    , 3.31        , 3           , 12          , 0.0555669367, 0
-0.06413345 , 0.09407059  , -9.804993   , 0.000916312449, -0.0005520016, -0.0006915289, -0.22414723 , -0.130443573, 0.453552663 , -0.00968399551, -0.008932772, 2.63430524  , 3.32        , 3           , 50          , 0           , 0
-0.0695352852, 0.0990698338, -9.796877   , -0.00332287746, -1.75210444E-05, -0.000710415, -0.2244843  , -0.130308747, 0.453350425 , -0.009717163, -0.008933016, 2.63429761  , 3.33        , 3           , 11          , 0.00692589674, 0.00692589767
-0.102800295, 0.09303743  , -9.76597    , 0.000910247036, 0.000574256352, -0.00153740565, -0.2240124  , -0.13037616 , 0.4532156   , -0.009707921, -0.008927423, 2.63428235  , 3.34        , 3           , 12          , 0.0555669367, 0
-0.08808558 , 0.105547957 , -9.78027    , 0.00177105248, -0.00195409451, 0.0001578645, -0.2240124  , -0.13037616 , 0.4532156   , -0.009690226, -0.008946947, 2.63428426  , 3.35        , 3           , 50          , 0           , 0
-0.08452302 , 0.087603    , -9.823255   , 0.00204060716, 0.0005818993, -0.0004019879, -0.22414723 , -0.130510986, 0.45348525  , -0.00966978353, -0.008941168, 2.63428     , 3.36        , 3           , 11          , 0.00692589674, 0.00692589767
-0.09119407 , 0.07223244  , -9.791731   , -0.00329745933, -0.00508569041, -0.0001531511, -0.224214643, -0.13037616 , 0.45348525  , -0.009702749, -0.008992037, 2.634279    , 3.37        , 3           , 12          , 0.0555669367, 0
-0.09693151 , 0.0844735652, -9.789012   , 0.0006326548, -0.0002723458, -0.000409874337, -0.2240124  , -0.13037616 , 0.453417838 , -0.009696385, -0.008994799, 2.63427472  , 3.38        , 3           , 50          , 0           , 0
-0.0824927241, 0.0766747147, -9.801137   , 0.00118430972, 0.00226555672, -0.001533485, -0.2240124  , -0.13037616 , 0.453417838 , -0.009684402, -0.008972294, 2.63425946  , 3.39        , 3           , 11          , 0.00692589674, 0.00692589767
-0.08180261 , 0.09516206  , -9.7997     , 0.002631674 , 0.00143265969, -0.000680758152, -0.224282056, -0.13037616 , 0.453417838 , -0.009589193, -0.008952955, 2.63425231  , 3.4         , 3           , 12          , 0.0565887429, 0
-0.09420036 , 0.113838352 , -9.808756   , 0.00151483889, -0.00110906456, -0.000124856539, -0.224282056, -0.130173922, 0.453552663 , -0.009574035, -0.008964057, 2.63425088  , 3.41        , 3           , 50          , 0           , 0
-0.107047223, 0.10492333  , -9.796688   , 0.00178955414, 0.0005822392, 0.001009214 , -0.223944992, -0.130443573, 0.453552663 , -0.009556229, -0.00895813853, 2.63426137  , 3.42        , 3           , 11          , 0.00683856755, 0.00683855871
-0.09227452 , 0.0952374563, -9.785768   , 0.00178767077, 0.0008638018, 0.000162035431, -0.223944992, -0.130443573, 0.453552663 , -0.009538367, -0.008949485, 2.63426232  , 3.43        , 3           , 12          , 0.0565887429, 0
-0.0804218  , 0.105430365 , -9.772075   , 0.0009391594, 0.00113963778, 0.000441056152, -0.22414723 , -0.130308747, 0.45348525  , -0.009529013, -0.008938048, 2.634267    , 3.44        , 3           , 50          , 0           , 0
-0.07467579 , 0.0896253958, -9.788368   , 0.002347112 , 0.001993883 , 0.000448942563, -0.2240124  , -0.130510986, 0.453620076 , -0.009505581, -0.008918067, 2.634271    , 3.45        , 3           , 11          , 0.00683856755, 0.00683855871
-0.12030495 , 0.09470858  , -9.799091   , -0.00158644351, -0.00225633522, -0.0004236158, -0.22414723 , -0.13037616 , 0.45348525  , -0.00952141 , -0.008940671, 2.634267    , 3.46        , 3           , 12          , 0.0565887429, 0
-0.104597785, 0.0836963952, -9.79947    , -0.000468955754, 0.000285392 , 0.000150632084, -0.22414723 , -0.13037616 , 0.45348525  , -0.009526111, -0.008937802, 2.634269    , 3.47        , 3           , 50          , 0           , 0
-0.08222028 , 0.09474948  , -9.809648   , 9.852273E-05, -0.000273919024, -0.000130139408, -0.224079818, -0.130308747, 0.453417838 , -0.009525116, -0.008940554, 2.634267    , 3.48        , 3           , 11          , 0.00683856755, 0.00683855871
-0.09171783 , 0.10468968  , -9.780753   , 0.00235261349, 0.0005860505, -0.00209606439, -0.224214643, -0.130510986, 0.45348525  , -0.009501401, -0.008934894, 2.634246    , 3.49        , 3           , 12          , 0.0565887429, 0
-0.100858092, 0.08865886  , -9.812076   , 8.544695E-05, -1.449805E-05, 0.000152811786, -0.223944992, -0.130510986, 0.453552663 , -0.009528034, -0.008986418, 2.634249    , 3.5         , 3           , 50          , 0           , 0
-0.101902016, 0.08052307  , -9.804434   , 0.00206104061, 0.000280436827, 0.000162464246, -0.223944992, -0.130510986, 0.453552663 , -0.00950744 , -0.008983601, 2.63425     , 3.51        , 3           , 11          , 0.006752996 , 0.006752983
-0.0786949247, 0.09730652  , -9.777519   , -0.000201651346, 0.0008282848, -0.0006948156, -0.2240124  , -0.13037616 , 0.453552663 , -0.009509393, -0.008975384, 2.63424325  , 3.52        , 3           , 12          , 0.05761884  , 0
-0.09174467 , 0.09350917  , -9.810177   , -0.00133537746, 0.00166534109, -0.000416244031, -0.224282056, -0.130308747, 0.453620076 , -0.009522706, -0.00895877 , 2.63423848  , 3.53        , 3           , 50          , 0           , 0
-0.106803775, 0.08644802  , -9.804899   , 0.0003680369, -1.25872975E-05, 0.0004366662, -0.224214643, -0.130780637, 0.453620076 , -0.009519066, -0.008958855, 2.63424325  , 3.54        , 3           , 11          , 0.006752996 , 0.006752983
-0.0817164853, 0.103266157 , -9.794693   , 7.422058E-05, 0.00195645052, -0.002386988, -0.224214643, -0.130780637, 0.453620076 , -0.009518108, -0.008939518, 2.63421941  , 3.55        , 3           , 12          , 0.05761884  , 0
-0.07519614 , 0.07886356  , -9.806496   , 7.65934747E-05, 0.00167489  , -0.0006921969, -0.2240124  , -0.130443573, 0.453552663 , -0.009517279, -0.008922838, 2.63421178  , 3.56        , 3           , 50          , 0           , 0
-0.08895813 , 0.07218319  , -9.784934   , 0.0009319117, -8.772055E-06, -0.0012559247, -0.224079818, -0.130308747, 0.45348525  , -0.009507849, -0.0089230435, 2.63419938  , 3.57        , 3           , 11          , 0.006752996 , 0.006752983
-0.09579165 , 0.09625787  , -9.808389   , 0.002902419 , 0.00141242554, -0.000396923948, -0.224079818, -0.130510986, 0.4536875   , -0.009478788, -0.008908958, 2.63419557  , 3.58        , 3           , 12          , 0.05761884  , 0
-0.109782681, 0.102261931 , -9.800787   , 0.00121515419, -6.858172E-06, 0.000158079521, -0.224079818, -0.130510986, 0.4536875   , -0.00946665 , -0.008909012, 2.634197    , 3.59        , 3           , 50          , 0           , 0
-0.115830407, 0.09059505  , -9.799074   , 9.265452E-05, -0.0006058485, -0.000695894938, -0.224214643, -0.130241334, 0.453552663 , -0.009453911, -0.008982552, 2.6341908   , 3.6         , 3           , 11          , 0.00666964659, 0.00666962843
-0.0776129961, 0.106365785 , -9.791486   , -0.0007572508, -4.844751E-05, -0.000416440365, -0.224349469, -0.13037616 , 0.4536875   , -0.009461444, -0.008983075, 2.634186    , 3.61        , 3           , 12          , 0.0586565323, 0
-0.0753817856, 0.104973666 , -9.787858   , -0.0007537214, -0.0008931459, -0.00154789211, -0.224282056, -0.130443573, 0.453620076 , -0.009468844, -0.008992152, 2.63417077  , 3.62        , 3           , 50          , 0           , 0
-0.097320646, 0.08988665  , -9.787185   , 0.00262703677, 0.0008191641, -0.00152948522, -0.224282056, -0.130443573, 0.453620076 , -0.00944243651, -0.008984106, 2.63415551  , 3.63        , 3           , 11          , 0.00666964659, 0.00666962843
-0.10179393 , 0.08552051  , -9.814808   , 0.00150355778, -0.000314732839, -0.000406338833, -0.224282056, -0.130510986, 0.453350425 , -0.009427365, -0.008987291, 2.6341517   , 3.64        , 3           , 12          , 0.0586565323, 0
-0.08361824 , 0.09160888  , -9.810123   , -0.00019534833, 0.0005185018, -0.000695476134, -0.224214643, -0.13037616 , 0.453620076 , -0.009429255, -0.008982171, 2.63414454  , 3.65        , 3           , 50          , 0           , 0
-0.06038883 , 0.1057323   , -9.797231   , 0.00261498033, 0.00335325254, -0.000677967444, -0.224214643, -0.130780637, 0.4536875   , -0.0094030425, -0.008948704, 2.63413739  , 3.66        , 3           , 11          , 0.00666964659, 0.00666962843
-0.08183633 , 0.100044593 , -9.775724   , 0.0026344962, -0.0005886588, -0.0006840425, -0.224214643, -0.130780637, 0.4536875   , -0.009376637, -0.008954654, 2.63413072  , 3.67        , 3           , 12          , 0.0586565323, 0
-0.09348647 , 0.101620913 , -9.801118   , 0.003757233 , 0.000826806354, -0.000676605152, -0.224282056, -0.130713224, 0.453350425 , -0.009339002, -0.00894645 , 2.634124    , 3.68        , 3           , 50          , 0           , 0
-0.0893444  , 0.114125192 , -9.777079   , 0.00177097681, 0.00278439512, 0.00016482608, -0.224282056, -0.1305784  , 0.453552663 , -0.009321306, -0.008918593, 2.634125    , 3.69        , 3           , 11          , 0.00666964659, 0.00666962843
-0.101415038, 0.08902613  , -9.785411   , 0.000901315652, 0.000243193834, -0.000690273358, -0.22414723 , -0.130713224, 0.453620076 , -0.009396888, -0.008919648, 2.63411927  , 3.7         , 3           , 12          , 0.0597011819, 0
-0.09175512 , 0.0970715061, -9.79615    , -0.00135735748, -5.365413E-05, -0.00183139276, -0.224282056, -0.13037616 , 0.453552663 , -0.009410298, -0.008920357, 2.63410115  , 3.71        , 3           , 50          , 0           , 0
-0.115760759, 0.09913215  , -9.788643   , 0.004013008 , -0.0005804878, 0.0007355984, -0.224282056, -0.13037616 , 0.453552663 , -0.009370236, -0.008926092, 2.63410878  , 3.72        , 3           , 11          , 0.006587839 , 0.006587824
-0.09833686 , 0.108926535 , -9.809712   , 0.00119710411, -0.00228897785, 0.0007198254, -0.224214643, -0.130308747, 0.453552663 , -0.009358331, -0.008948913, 2.63411641  , 3.73        , 3           , 12          , 0.0597011819, 0
-0.08839483 , 0.07539187  , -9.80164    , -0.00136457954, 0.00163574168, 0.000148973078, -0.224079818, -0.13037616 , 0.453620076 , -0.009371987, -0.008932544, 2.63411736  , 3.74        , 3           , 50          , 0           , 0
-0.09543511 , 0.09215742  , -9.798008   , 6.28142661E-05, -0.00173349644, -0.00239248667, -0.224214643, -0.1305784  , 0.453417838 , -0.009371147, -0.008950101, 2.63409352  , 3.75        , 3           , 11          , 0.006587839 , 0.006587824
-0.101292565, 0.09582062  , -9.793518   , 0.000624628 , -0.000884975656, -0.0004107885, -0.224214643, -0.1305784  , 0.453417838 , -0.009364866, -0.008958991, 2.63408971  , 3.76        , 3           , 12          , 0.0597011819, 0
-0.129605725, 0.1110571   , -9.797738   , 0.00146124582, 0.00137327716, 0.000444246049, -0.22414723 , -0.130308747, 0.453552663 , -0.00935029052, -0.008945218, 2.634094    , 3.77        , 3           , 50          , 0           , 0
-0.109028228, 0.0945409   , -9.788611   , 0.00146870536, -3.4545832E-05, 0.00128968887, -0.224282056, -0.13037616 , 0.4538223   , -0.009335719, -0.008945443, 2.63410687  , 3.78        , 3           , 11          , 0.006587839 , 0.006587824
-0.0852877349, 0.104242727 , -9.804208   , 0.00174999  , -3.26413356E-05, -0.000686756452, -0.224349469, -0.1305784  , 0.453350425 , -0.009318158, -0.008945833, 2.6341002   , 3.79        , 3           , 12          , 0.0597011819, 0
-0.09658621 , 0.11287342  , -9.782112   , 0.000294347177, 0.0030081938, -0.0001235421, -0.224349469, -0.1305784  , 0.453350425 , -0.009387194, -0.009034149, 2.6341002   , 3.8         , 3           , 50          , 0           , 0
-0.1011709  , 0.106631614 , -9.788501   , -0.0002661613, 0.00215967954, 0.000155059708, -0.224349469, -0.13084805 , 0.453417838 , -0.009389869, -0.009012538, 2.63410115  , 3.81        , 3           , 11          , 0.00650882954, 0.006508811
-0.0797214359, 0.114999019 , -9.801861   , 0.00423421944, 0.005850584 , -0.000383302919, -0.22414723 , -0.130443573, 0.4538223   , -0.009347486, -0.00895407051, 2.63409686  , 3.82        , 3           , 12          , 0.0607521944, 0
-0.08937358 , 0.107406288 , -9.791571   , -0.0002605853, 0.00103341881, 0.000153324014, -0.224079818, -0.130308747, 0.453552663 , -0.009350104, -0.00894372351, 2.63409829  , 3.83        , 3           , 50          , 0           , 0
-0.117878191, 0.108204424 , -9.795402   , -0.00137635251, -0.00178987184, 0.0001437169, -0.224079818, -0.130308747, 0.453552663 , -0.009363883, -0.008961608, 2.63409972  , 3.84        , 3           , 11          , 0.00650882954, 0.006508811
-0.105354741, 0.108376727 , -9.75643349 , 0.00201572059, -0.0023300813, 0.000441189739, -0.224079818, -0.130510986, 0.453552663 , -0.00934376847, -0.008984867, 2.63410449  , 3.85        , 3           , 12          , 0.0607521944, 0
-0.102371268, 0.0809614   , -9.799011   , 0.0005956375, -0.000931810646, -0.00125845 , -0.224214643, -0.130510986, 0.4537549   , -0.009337698, -0.0089943  , 2.634092    , 3.86        , 3           , 50          , 0           , 0
-0.0777464956, 0.08706456  , -9.820945   , 0.00172337249, -0.000361036684, 0.000160372845, -0.2244843  , -0.1305784  , 0.453620076 , -0.00932048 , -0.008997896, 2.63409352  , 3.87        , 3           , 11          , 0.00650882954, 0.006508811
-0.0870482549, 0.08473974  , -9.768596   , 0.00172353559, -0.0003610359, 0.0004429104, -0.2244843  , -0.1305784  , 0.453620076 , -0.009303285, -0.009001465, 2.63409829  , 3.88        , 3           , 12          , 0.0607521944, 0
-0.08879368 , 0.08793871  , -9.774471   , 0.0006020292, -0.002058067, 0.00015250154, -0.224079818, -0.130645812, 0.4536875   , -0.009297278, -0.00902203 , 2.63409972  , 3.89        , 3           , 50          , 0           , 0
-0.09462634 , 0.08983661  , -9.781741   , -0.0005527274, -0.000539150729, 0.00014966217, -0.223944992, -0.130241334, 0.453552663 , -0.00934794452, -0.009084685, 2.634102    , 3.9         , 3           , 11          , 0.006431455 , 0.006431429
-0.08741326 , 0.08749429  , -9.781242   , -0.0005504289, -0.00110228325, -0.000698818, -0.22414723 , -0.1305784  , 0.45348525  , -0.009353386, -0.009095774, 2.63409543  , 3.91        , 3           , 12          , 0.0618090071, 0
-0.07183938 , 0.09772481  , -9.791477   , 0.001422251 , -0.000103433107, 0.000300800632, -0.22414723 , -0.1305784  , 0.45348525  , -0.00933919 , -0.00909678 , 2.63409829  , 3.92        , 3           , 50          , 0           , 0
-0.09643528 , 0.09030601  , -9.780848   , 0.00141536258, 0.00130439282, 0.000444238976, -0.224349469, -0.130241334, 0.453417838 , -0.009325078, -0.009083694, 2.634103    , 3.93        , 3           , 11          , 0.006431455 , 0.006431429
-0.07962396 , 0.09328097  , -9.784775   , 0.0001409196, 0.00185892463, -0.00083223806, -0.224349469, -0.130173922, 0.4537549   , -0.009323591, -0.009065183, 2.63409448  , 3.94        , 3           , 12          , 0.0618090071, 0
-0.0785739943, 0.104546122 , -9.783816   , -0.000131956767, 2.68438271E-05, 1.12368525E-05, -0.224282056, -0.130443573, 0.453620076 , -0.009324911, -0.009064916, 2.63409448  , 3.95        , 3           , 50          , 0           , 0
-0.09941974 , 0.09852743  , -9.79982    , -0.001257519, -0.0009662774, -0.00126696832, -0.224282056, -0.130443573, 0.453620076 , -0.009337371, -0.009074695, 2.634082    , 3.96        , 3           , 11          , 0.006431455 , 0.006431429
-0.098812826, 0.07015474  , -9.818011   , -0.000837979256, -0.000118716845, -0.0011224224, -0.22414723 , -0.130173922, 0.453620076 , -0.009345649, -0.009075987, 2.63407063  , 3.97        , 3           , 12          , 0.0618090071, 0
-0.118481055, 0.09425127  , -9.803599   , -0.0004102015, -0.000819761364, 8.61805347E-06, -0.224214643, -0.130173922, 0.4536875   , -0.009349751, -0.009084183, 2.63407063  , 3.98        , 3           , 50          , 0           , 0
-0.0888749957, 0.101189189 , -9.822781   , 0.0005691127, 0.000876310165, -0.0013968565, -0.22414723 , -0.130443573, 0.453620076 , -0.009343932, -0.009075551, 2.63405681  , 3.99        , 3           , 11          , 0.006431455 , 0.006431429
-0.08124789 , 0.101934612 , -9.802832   , 0.00140154466, 0.00241166819, -0.00124922954, -0.22414723 , -0.130443573, 0.453620076 , -0.009349152, -0.00910216849, 2.634045    , 4           , 3           , 12          , 0.062871106 , 0
-0.09214145 , 0.0686384   , -9.793108   , 0.001840022 , -0.00040111327, 0.000302362576, -0.224214643, -0.130645812, 0.453620076 , -0.009330779, -0.009106151, 2.63404775  , 4.01        , 3           , 50          , 0           , 0
-0.08227867 , 0.09648757  , -9.789754   , 0.00269574812, -0.00208477327, 0.0004449784, -0.224214643, -0.130510986, 0.4538223   , -0.009303864, -0.009126957, 2.63405252  , 4.02        , 3           , 11          , 0.00635635247, 0.006356327
-0.07775772 , 0.094643414 , -9.793795   , 0.00128255342, -0.00209432817, -0.00139809982, -0.224349469, -0.130241334, 0.453620076 , -0.009290913, -0.009148029, 2.63403916  , 4.03        , 3           , 12          , 0.062871106 , 0
-0.07051899 , 0.0967854   , -9.785143   , 0.0009978726, -0.00167389156, -0.00168130326, -0.224349469, -0.130241334, 0.453620076 , -0.009280782, -0.009164922, 2.634022    , 4.04        , 3           , 50          , 0           , 0
-0.0608029962, 0.107554317 , -9.800843   , 0.0016955313, 0.000161059783, -0.000545040355, -0.224214643, -0.130443573, 0.453552663 , -0.009263776, -0.009163362, 2.63401723  , 4.05        , 3           , 11          , 0.00635635247, 0.006356327
-0.0803057849, 0.105970725 , -9.798739   , 0.0014088779, 0.00114463072, 0.000585311267, -0.224349469, -0.130241334, 0.4537549   , -0.009249741, -0.009151864, 2.634023    , 4.06        , 3           , 12          , 0.062871106 , 0
-0.09397583 , 0.105167419 , -9.780768   , -0.0009859292, 2.136727E-06, 0.0009961878, -0.224349469, -0.130308747, 0.453620076 , -0.009259691, -0.00915175 , 2.63403249  , 4.07        , 3           , 50          , 0           , 0
-0.08852044 , 0.101996958 , -9.796105   , -0.001548855, -0.000424031634, 0.0007103656, -0.224349469, -0.130308747, 0.453620076 , -0.00927524548, -0.009155923, 2.63403964  , 4.08        , 3           , 11          , 0.00635635247, 0.006356327
-0.0851067156, 0.07946794  , -9.817417   , -0.000276703533, -0.0006970026, 0.0004333203, -0.224214643, -0.130645812, 0.453350425 , -0.009278052, -0.009162853, 2.634044    , 4.09        , 3           , 12          , 0.062871106 , 0
-0.0677970052, 0.09631142  , -9.787836   , -1.20594113E-05, -0.000535809435, -0.000271134079, -0.224214643, -0.130510986, 0.4536875   , -0.009323813, -0.009117615, 2.634042    , 4.1         , 3           , 50          , 0           , 0
-0.0684710443, 0.10945382  , -9.80225    , -0.0004349211, -0.000679456571, -0.000132057685, -0.224551708, -0.130645812, 0.4536875   , -0.009328149, -0.009124421, 2.634041    , 4.11        , 3           , 11          , 0.00628311466, 0.00628309371
-0.0975260958, 0.101697482 , -9.809736   , -0.00114787661, 0.0007235944, 8.088278E-06, -0.224551708, -0.130645812, 0.4536875   , -0.009339628, -0.009117185, 2.634041    , 4.12        , 3           , 12          , 0.06393798  , 0
-0.08506544 , 0.120045133 , -9.807756   , -0.00185718387, 0.00142273342, 0.000429687061, -0.224079818, -0.1305784  , 0.453417838 , -0.009358238, -0.009102917, 2.634045    , 4.13        , 3           , 50          , 0           , 0
-0.08564562 , 0.114144646 , -9.795582   , -0.0019901963, -0.000267612922, 0.0001438876, -0.224349469, -0.13037616 , 0.4537549   , -0.009378153, -0.00910558 , 2.63404679  , 4.14        , 3           , 11          , 0.00628311466, 0.00628309371
-0.09032916 , 0.100234792 , -9.802455   , -0.000156839364, 0.000167147853, -0.000411976449, -0.22414723 , -0.130443573, 0.453620076 , -0.009379685, -0.009103947, 2.6340425   , 4.15        , 3           , 12          , 0.06393798  , 0
-0.0935556144, 0.0988867953, -9.792994   , -0.000157988688, 0.00044871404, 1.22635984E-05, -0.224214643, -0.130308747, 0.45348525  , -0.009381265, -0.009099458, 2.6340425   , 4.16        , 3           , 50          , 0           , 0
-0.09396495 , 0.104729868 , -9.784838   , -0.0005782255, -0.000258063927, -0.000132065266, -0.224214643, -0.130308747, 0.45348525  , -0.009387037, -0.009102051, 2.634041    , 4.17        , 3           , 11          , 0.00628311466, 0.00628309371
-0.092038   , 0.08255908  , -9.773615   , 0.0002721321, -0.0009562487, -0.0008355429, -0.224416882, -0.130443573, 0.453620076 , -0.009384239, -0.009111691, 2.634033    , 4.18        , 3           , 12          , 0.06393798  , 0
-0.0857584551, 0.0726167858, -9.790783   , -0.00029050454, -0.0015232017, -0.00182792579, -0.224282056, -0.13037616 , 0.453620076 , -0.00938698 , -0.009127095, 2.63401484  , 4.19        , 3           , 50          , 0           , 0
-0.09236327 , 0.08356044  , -9.801636   , 0.000121500445, -0.00151442876, -0.00196694932, -0.224416882, -0.130645812, 0.453552663 , -0.009418025, -0.009125847, 2.63399625  , 4.2         , 3           , 11          , 0.0062118   , 0.00621177163
-0.0944899  , 0.0877154   , -9.821975   , 0.00139245845, -0.00136504776, -0.0006893876, -0.224416882, -0.130645812, 0.453552663 , -0.009404038, -0.009139561, 2.63398957  , 4.21        , 3           , 12          , 0.06500917  , 0
-0.106454745, 0.114850886 , -9.798902   , 0.00011907614, -0.0008105109, -0.000129371008, -0.224282056, -0.130308747, 0.453552663 , -0.009402836, -0.009147678, 2.63398862  , 4.22        , 3           , 50          , 0           , 0
-0.104537912, 0.09668907  , -9.772295   , -0.000306818343, -0.000391029025, -0.000413232832, -0.22414723 , -0.13037616 , 0.453620076 , -0.009405866, -0.009151627, 2.63398433  , 4.23        , 3           , 11          , 0.0062118   , 0.00621177163
-0.10693837 , 0.113492168 , -9.795748   , 0.00124259177, 0.0004641722, 1.91182389E-05, -0.224282056, -0.130443573, 0.453417838 , -0.00939344149, -0.00914698653, 2.63398433  , 4.24        , 3           , 12          , 0.06500917  , 0
-0.09066993 , 0.110596947 , -9.796539   , 0.000391826325, 0.001162355 , 1.6252261E-05, -0.224282056, -0.130443573, 0.453417838 , -0.009389524, -0.00913536 , 2.6339848   , 4.25        , 3           , 50          , 0           , 0
-0.06926234 , 0.08776003  , -9.789238   , -0.0001723303, 0.00101775257, 1.34014044E-05, -0.224282056, -0.130443573, 0.45348525  , -0.009391249, -0.009125182, 2.6339848   , 4.26        , 3           , 11          , 0.0062118   , 0.00621177163
-0.099733524, 0.107572407 , -9.804757   , 0.000115672548, -0.000106597872, 1.29826049E-05, -0.224416882, -0.13037616 , 0.453620076 , -0.009390092, -0.009126247, 2.6339848   , 4.27        , 3           , 12          , 0.06500917  , 0
-0.08724625 , 0.09655662  , -9.792955   , -0.00101140991, -0.000677368662, -0.000275690516, -0.224214643, -0.130510986, 0.453350425 , -0.009400183, -0.00913304649, 2.633982    , 4.28        , 3           , 50          , 0           , 0
-0.0975092  , 0.104389288 , -9.805204   , -2.23821189E-05, -0.0008114671, -0.0005538357, -0.224214643, -0.130510986, 0.453350425 , -0.00940035749, -0.009141213, 2.63397622  , 4.29        , 3           , 11          , 0.0062118   , 0.00621177163
-0.08197115 , 0.0865448341, -9.786177   , 0.000230126432, -0.000115072093, -0.00154002418, -0.224416882, -0.130713224, 0.45348525  , -0.009472322, -0.00916964747, 2.63396287  , 4.3         , 3           , 12          , 0.0660842657, 0
-0.07335983 , 0.0953776538, -9.759407   , 0.000228688034, 0.000307278737, -0.000409223343, -0.224079818, -0.130308747, 0.45348525  , -0.009469999, -0.009166613, 2.63395858  , 4.31        , 3           , 50          , 0           , 0
-0.0811138749, 0.0842633247, -9.78166    , 0.00235209451, -0.0006638727, 0.000164209836, -0.2240124  , -0.130645812, 0.45348525  , -0.009446492, -0.009173235, 2.63396     , 4.32        , 3           , 11          , 0.00614273362, 0.006142714
-0.09430071 , 0.08169394  , -9.776799   , 0.00248970417, -9.9791534E-05, -0.00124695129, -0.2240124  , -0.130645812, 0.45348525  , -0.009421481, -0.009174351, 2.63394761  , 4.33        , 3           , 12          , 0.0660842657, 0
-0.08665696 , 0.104696214 , -9.800148   , 0.00163266563, 0.00186543423, -0.00124786445, -0.224282056, -0.130443573, 0.453552663 , -0.009405036, -0.009155815, 2.63393521  , 4.34        , 3           , 50          , 0           , 0
-0.0567753538, 0.111485191 , -9.776389   , 0.0005071404, 0.00101309922, -0.001254434, -0.224079818, -0.1305784  , 0.45348525  , -0.00939985 , -0.009145803, 2.63392282  , 4.35        , 3           , 11          , 0.00614273362, 0.006142714
-0.0691237748, 0.101262823 , -9.77969    , 0.000382692146, -0.00222585071, 1.133576E-05, -0.224214643, -0.130713224, 0.453620076 , -0.009396025, -0.009168059, 2.63392282  , 4.36        , 3           , 12          , 0.0660842657, 0
-0.105561227, 0.091248095 , -9.761026   , -0.0015952  , -0.001957653, 0.0008501636, -0.224214643, -0.130713224, 0.453620076 , -0.009412058, -0.009187555, 2.6339314   , 4.37        , 3           , 50          , 0           , 0
-0.111550115, 0.08096793  , -9.76925    , -0.003445975, 0.0008455779, -0.0009905507, -0.224282056, -0.130510986, 0.45348525  , -0.0094464235, -0.009179192, 2.63392186  , 4.38        , 3           , 11          , 0.00614273362, 0.006142714
-0.08453052 , 0.09518488  , -9.79700851 , -0.0007684963, 0.00198998279, -0.0009763041, -0.224214643, -0.1305784  , 0.453417838 , -0.00945401751, -0.009159385, 2.63391137  , 4.39        , 3           , 12          , 0.0660842657, 0
-0.0849102139, 0.09569578  , -9.813279   , 0.00163237529, 0.000743214157, 0.000163280318, -0.224214643, -0.130443573, 0.453620076 , -0.009457414, -0.009140045, 2.63391423  , 4.4         , 3           , 50          , 0           , 0
-0.122544862, 0.0617988147, -9.800149   , 0.00107371318, -0.00052764907, 1.74250017E-05, -0.224214643, -0.130443573, 0.453620076 , -0.00944668 , -0.009145319, 2.63391423  , 4.41        , 3           , 11          , 0.00607531751, 0.006075296
-0.106859744, 0.0864026845, -9.79134    , 0.000792354171, -0.0008111256, -0.000549400749, -0.224214643, -0.130780637, 0.453350425 , -0.009438706, -0.009153481, 2.63390851  , 4.42        , 3           , 12          , 0.06716285  , 0
-0.07808444 , 0.106355995 , -9.786969   , 0.004182418 , -0.0009289874, -0.000110008295, -0.22414723 , -0.130510986, 0.453552663 , -0.00939687248, -0.009162781, 2.63390756  , 4.43        , 3           , 50          , 0           , 0
-0.07979182 , 0.07796906  , -9.792975   , 0.00403493131, 0.0003371004, -0.000108714041, -0.22414723 , -0.130443573, 0.453552663 , -0.009356514, -0.00915942 , 2.6339066   , 4.44        , 3           , 11          , 0.00607531751, 0.006075296
-0.07993628 , 0.09920267  , -9.80012    , 0.00163807732, -0.000523831462, -0.000827553333, -0.22414723 , -0.130443573, 0.453552663 , -0.009340057, -0.009164735, 2.6338985   , 4.45        , 3           , 12          , 0.06716285  , 0
-0.07308132 , 0.108993836 , -9.783756   , 0.0009425026, -0.00249955826, 0.000437535346, -0.224282056, -0.130645812, 0.453417838 , -0.009330675, -0.009189689, 2.63390279  , 4.46        , 3           , 50          , 0           , 0
-0.08772342 , 0.10145203  , -9.771244   , -0.00159966515, -0.00251674931, -0.000139392068, -0.224349469, -0.130308747, 0.453620076 , -0.009346659, -0.009214869, 2.63390183  , 4.47        , 3           , 11          , 0.00607531751, 0.006075296
-0.103768677, 0.118811339 , -9.778525   , -5.107063E-05, -0.00166155223, -0.0011197282, -0.224214643, -0.130510986, 0.45348525  , -0.009347069, -0.009231589, 2.63389087  , 4.48        , 3           , 12          , 0.06716285  , 0
-0.10043449 , 0.0895226   , -9.802126   , 0.00163655751, -0.000101481091, 0.00016197862, -0.224214643, -0.130510986, 0.45348525  , -0.009330719, -0.009232588, 2.6338923   , 4.49        , 3           , 50          , 0           , 0
-0.102781147, 0.08100149  , -9.80941    , -0.000356926059, -0.000257671229, 0.0005766224, -0.224282056, -0.13037616 , 0.4532156   , -0.009386979, -0.009241279, 2.6339      , 4.5         , 3           , 11          , 0.00601018453, 0.006010166
-0.0937831849, 0.08352649  , -9.786732   , -0.0006335321, -0.00138584035, 0.000997376 , -0.224349469, -0.130443573, 0.45348525  , -0.009393407, -0.009255043, 2.63390946  , 4.51        , 3           , 12          , 0.06824454  , 0
-0.0924334452, 0.111995824 , -9.803779   , -0.000497442437, -0.0003994088, 0.000575747166, -0.224214643, -0.13084805 , 0.453417838 , -0.009398435, -0.009258984, 2.63391519  , 4.52        , 3           , 50          , 0           , 0
-0.109325856, 0.102706246 , -9.80033    , -0.000356229022, -0.000398453762, 0.0005764055, -0.224214643, -0.13084805 , 0.453417838 , -0.009402052, -0.009262913, 2.63392138  , 4.53        , 3           , 11          , 0.00601018453, 0.006010166
-0.0845715255, 0.08756369  , -9.811503   , -0.0009123924, -0.00209166249, 0.00113624288, -0.224214643, -0.130443573, 0.4532156   , -0.009411283, -0.009283722, 2.63393283  , 4.54        , 3           , 12          , 0.06824454  , 0
-0.07965839 , 0.08700418  , -9.796552   , -0.00162841775, -0.000266268849, -0.000418184936, -0.224416882, -0.130443573, 0.453350425 , -0.009427528, -0.009286423, 2.63392854  , 4.55        , 3           , 50          , 0           , 0
-0.08023776 , 0.112274744 , -9.795096   , -0.0012168712, 0.00212989817, -0.0008363273, -0.224079818, -0.130510986, 0.453552663 , -0.00943961553, -0.009265205, 2.63392     , 4.56        , 3           , 11          , 0.00601018453, 0.006010166
-0.07964514 , 0.09237112  , -9.782519   , -0.000367870525, 0.00185406464, -0.0002677355, -0.224214643, -0.130645812, 0.453417838 , -0.009443269, -0.009246689, 2.633917    , 4.57        , 3           , 12          , 0.06824454  , 0
-0.08768872 , 0.09790935  , -9.791144   , 0.00033996132, 0.00143649022, -0.000830168952, -0.224214643, -0.130645812, 0.453417838 , -0.009439792, -0.009232405, 2.63390851  , 4.58        , 3           , 50          , 0           , 0
-0.0920884162, 0.107439712 , -9.792043   , -0.000368975336, 0.001994845 , -0.00097386213, -0.224349469, -0.1305784  , 0.453283    , -0.00944339 , -0.009212549, 2.633899    , 4.59        , 3           , 11          , 0.00601018453, 0.006010166
-0.0867499  , 0.0974793062, -9.80063152 , 4.602607E-05, 0.000593985431, -0.0004086776, -0.2240124  , -0.13037616 , 0.453552663 , -0.009492132, -0.009193997, 2.633896    , 4.6         , 3           , 12          , 0.06932898  , 0
-0.09118481 , 0.104749367 , -9.800183   , 0.00216685212, 4.517915E-05, -0.000682206, -0.224214643, -0.130510986, 0.4532156   , -0.0094704  , -0.00919360947, 2.63388944  , 4.61        , 3           , 50          , 0           , 0
-0.08250974 , 0.07889268  , -9.789829   , 0.00131555274, 0.0008841454, -0.000402317441, -0.224214643, -0.130510986, 0.4532156   , -0.009457207, -0.00918480847, 2.63388515  , 4.62        , 3           , 11          , 0.00594656961, 0.005946533
-0.09026857 , 0.09894484  , -9.821444   , -0.00136200758, -0.00026026 , -0.000557832769, -0.2240124  , -0.130443573, 0.45348525  , -0.009470776, -0.009187463, 2.63387942  , 4.63        , 3           , 12          , 0.06932898  , 0
-0.112527445, 0.09200502  , -9.827066   , 0.000192081468, -0.000531323371, -0.00168117334, -0.224282056, -0.13037616 , 0.45348525  , -0.009468701, -0.009192933, 2.63386273  , 4.64        , 3           , 50          , 0           , 0
-0.09069388 , 0.0758363456, -9.791712   , 0.00202027056, 0.00102969969, -0.001528958, -0.2240124  , -0.130645812, 0.453283    , -0.009448356, -0.009182782, 2.63384748  , 4.65        , 3           , 11          , 0.00594656961, 0.005946533
-0.0804831162, 0.0527854972, -9.815684   , 4.922199E-05, 3.08574272E-05, 0.000296798185, -0.2240124  , -0.130645812, 0.453283    , -0.009447891, -0.009182447, 2.63385034  , 4.66        , 3           , 12          , 0.06932898  , 0
-0.09509686 , 0.08090054  , -9.806189   , -0.000504850352, -0.002084699, 0.0008559847, -0.224282056, -0.13037616 , 0.453350425 , -0.00945302 , -0.00920321047, 2.633859    , 4.67        , 3           , 50          , 0           , 0
-0.102647096, 0.0985177755, -9.785833   , -0.000221600611, -0.002364357, -0.000132013462, -0.224282056, -0.13037616 , 0.453417838 , -0.009455226, -0.009226868, 2.633858    , 4.68        , 3           , 11          , 0.00594656961, 0.005946533
-0.0889943  , 0.103770606 , -9.785255   , -0.0014944491, -0.00195060356, 0.000145248749, -0.224079818, -0.130713224, 0.453350425 , -0.009470186, -0.009246357, 2.63385987  , 4.69        , 3           , 12          , 0.06932898  , 0
-0.07821466 , 0.0915209055, -9.802851   , -0.00107190665, -0.000262345857, 0.000432357978, -0.224079818, -0.130713224, 0.453350425 , -0.00945849251, -0.009261564, 2.63386464  , 4.7         , 3           , 50          , 0           , 0
-0.106418684, 0.08058531  , -9.807179   , -0.00191688875, -0.00083120825, -0.000420073047, -0.224079818, -0.130173922, 0.453350425 , -0.009477623, -0.009269916, 2.63386035  , 4.71        , 3           , 11          , 0.00588470837, 0.005884685
-0.094036594, 0.09351307  , -9.803415   , -0.00234052888, -0.0008340732, -0.000422048441, -0.22414723 , -0.130510986, 0.453620076 , -0.009500989, -0.00927829649, 2.633856    , 4.72        , 3           , 12          , 0.0704158247, 0
-0.0818529949, 0.09512124  , -9.787497   , -0.000370103255, 0.0005871239, 0.000295683363, -0.223944992, -0.130713224, 0.453350425 , -0.009504717, -0.0092723975, 2.633859    , 4.73        , 3           , 50          , 0           , 0
-0.08317314 , 0.0938290954, -9.801071   , -0.00107625185, 0.000582348555, 0.000151122251, -0.223944992, -0.130713224, 0.453350425 , -0.009515493, -0.009266559, 2.63386083  , 4.74        , 3           , 11          , 0.00588470837, 0.005884685
-0.0935203  , 0.06104979  , -9.812585   , -0.00191803777, -0.000549642, 4.166981E-06, -0.224349469, -0.13037616 , 0.4531482   , -0.009534674, -0.009272055, 2.63386083  , 4.75        , 3           , 12          , 0.0704158247, 0
-0.08550201 , 0.08666144  , -9.808351   , 6.60014E-05 , -0.00194409722, 0.000152484616, -0.22414723 , -0.130443573, 0.453350425 , -0.009534029, -0.009291479, 2.63386273  , 4.76        , 3           , 50          , 0           , 0
-0.06964556 , 0.093624264 , -9.787409   , 0.000205331351, -0.00166157936, -0.0006940353, -0.224282056, -0.130443573, 0.4532156   , -0.009531912, -0.009308159, 2.633856    , 4.77        , 3           , 11          , 0.00588470837, 0.005884685
-0.074239336, 0.08514335  , -9.79877949 , 5.65325536E-05, -0.000113926173, -0.0005510385, -0.224282056, -0.130443573, 0.4532156   , -0.009531297, -0.00930935051, 2.63385034  , 4.78        , 3           , 12          , 0.0704158247, 0
-0.07924276 , 0.117246412 , -9.800944   , 0.00019962946, -0.0003945339, 0.000296798447, -0.224349469, -0.130510986, 0.4532156   , -0.009529328, -0.009313271, 2.6338532   , 4.79        , 3           , 50          , 0           , 0
-0.07710303 , 0.105514109 , -9.80820751 , -0.00261333655, -0.00194314925, -0.000142362478, -0.224551708, -0.130173922, 0.453417838 , -0.009542939, -0.009271009, 2.63385224  , 4.8         , 3           , 11          , 0.00582454773, 0.00582451932
-0.0654501244, 0.102600954 , -9.787792   , -0.0014878111, -0.00109081424, -0.000135792943, -0.22414723 , -0.130173922, 0.453417838 , -0.009557805, -0.009281931, 2.63385129  , 4.81        , 3           , 12          , 0.07150478  , 0
-0.06018372 , 0.0934748352, -9.776038   , 0.000206749974, -0.00107935432, -0.000127891341, -0.22414723 , -0.130173922, 0.453417838 , -0.009555725, -0.009292735, 2.63384986  , 4.82        , 3           , 50          , 0           , 0
-0.08819417 , 0.09474753  , -9.78845    , -0.000214102285, -0.00164534966, -0.00013073461, -0.22414723 , -0.13037616 , 0.4532156   , -0.009557855, -0.0093092  , 2.633849    , 4.83        , 3           , 11          , 0.00582454773, 0.00582451932
-0.0571874231, 0.111077145 , -9.787693   , 0.00162142713, -0.00163293572, -0.0005459806, -0.224349469, -0.130241334, 0.4531482   , -0.009541594, -0.009325581, 2.63384366  , 4.84        , 3           , 12          , 0.07150478  , 0
-0.09464729 , 0.08669518  , -9.786725   , 0.00232773926, -0.00162815966, -0.000118882024, -0.224282056, -0.13037616 , 0.453283    , -0.009518306, -0.009341873, 2.63384271  , 4.85        , 3           , 50          , 0           , 0
-0.08188943 , 0.09375267  , -9.782983   , 0.0009117494, -0.0007930129, 0.000440909935, -0.224282056, -0.13037616 , 0.453283    , -0.009509232, -0.009349759, 2.63384748  , 4.86        , 3           , 11          , 0.00582454773, 0.00582451932
-0.07848892 , 0.101044238 , -9.815922   , 0.001752512 , 0.000479758746, 2.30071728E-05, -0.223944992, -0.130443573, 0.453283    , -0.009491708, -0.00934496149, 2.63384748  , 4.87        , 3           , 12          , 0.07150478  , 0
-0.08783999 , 0.07725467  , -9.820611   , 0.002166928 , 0.002312796 , -0.0002547342, -0.224282056, -0.130713224, 0.453350425 , -0.009470012, -0.009321857, 2.63384461  , 4.88        , 3           , 50          , 0           , 0
-0.07333731 , 0.09048606  , -9.78067    , 5.159641E-05, 0.00173534162, -0.000124210361, -0.22414723 , -0.130645812, 0.453350425 , -0.009469483, -0.009304516, 2.63384318  , 4.89        , 3           , 11          , 0.00582454773, 0.00582451932
-0.07672301 , 0.10544984  , -9.790578   , 0.0003445187, -0.0004862674, -0.000691188558, -0.22414723 , -0.130645812, 0.453350425 , -0.009467105, -0.009213656, 2.633836    , 4.9         , 3           , 12          , 0.07259554  , 0
-0.104462616, 0.09764278  , -9.787659   , 0.0006327291, -0.00175140251, -0.00153943663, -0.22414723 , -0.13037616 , 0.4532156   , -0.009460636, -0.009231315, 2.63382077  , 4.91        , 3           , 50          , 0           , 0
-0.102472566, 0.07507678  , -9.79316    , -0.0010628996, -0.00148129568, -0.0009818294, -0.224416882, -0.130443573, 0.453350425 , -0.009471177, -0.009246223, 2.63381124  , 4.92        , 3           , 11          , 0.005765738 , 0.005765715
-0.0774433762, 0.119001046 , -9.79233551 , -0.000922509236, -0.00119877292, 8.144093E-06, -0.224079818, -0.130510986, 0.45348525  , -0.009480405, -0.009258208, 2.63381124  , 4.93        , 3           , 12          , 0.07259554  , 0
-0.0806187838, 0.118587114 , -9.792362   , -0.000356632168, -0.00133573392, 0.0005756359, -0.224079818, -0.130510986, 0.45348525  , -0.009484024, -0.009271511, 2.63381743  , 4.94        , 3           , 50          , 0           , 0
-0.06268055 , 0.111092575 , -9.773272   , 0.000346194633, -0.00062704517, 0.00100381928, -0.224079818, -0.1305784  , 0.453283    , -0.009480657, -0.009277686, 2.63382745  , 4.95        , 3           , 11          , 0.005765738 , 0.005765715
-0.06479743 , 0.118379891 , -9.785913   , -7.445001E-05, -0.00133382517, 0.000153146684, -0.224214643, -0.130241334, 0.453080773 , -0.009481417, -0.009291009, 2.63382936  , 4.96        , 3           , 12          , 0.07259554  , 0
-0.0575231127, 0.115640849 , -9.801688   , -0.0006428703, -0.000633732765, 1.0328904E-05, -0.2240124  , -0.13037616 , 0.453283    , -0.009487848, -0.009297345, 2.63382936  , 4.97        , 3           , 50          , 0           , 0
-0.0723120943, 0.08834061  , -9.81683    , 0.000758727256, 0.00148755452, -0.000121100675, -0.2240124  , -0.130510986, 0.453080773 , -0.009480248, -0.009282481, 2.633828    , 4.98        , 3           , 11          , 0.005765738 , 0.005765715
-0.09481618 , 0.102552772 , -9.805192   , -9.01919557E-05, 0.00176338863, -0.0005484238, -0.2240124  , -0.130510986, 0.453080773 , -0.009481098, -0.0092649  , 2.6338222   , 4.99        , 3           , 12          , 0.07259554  , 0
-0.102697082, 0.0837477   , -9.82115    , 3.909663E-05, -0.000457782357, 0.000720711832, -0.22414723 , -0.130241334, 0.45348525  , -0.00956116151, -0.009166897, 2.63383031  , 5           , 3           , 50          , 0           , 0
-0.09192582 , 0.08041822  , -9.807974   , 0.000611824857, -0.00214335532, -0.000126870189, -0.224079818, -0.13037616 , 0.45348525  , -0.009555033, -0.009188342, 2.63382936  , 5.01        , 3           , 11          , 0.005708641 , 0.00570861
-0.09150478 , 0.0879751444, -9.775848   , -0.000246563315, -3.73504E-05, -0.00125771621, -0.224214643, -0.1305784  , 0.453350425 , -0.009557383, -0.009188837, 2.633817    , 5.02        , 3           , 12          , 0.07368781  , 0
-0.08328991 , 0.08971732  , -9.785722   , 2.88934825E-05, 0.001372385 , -0.00125422969, -0.224214643, -0.1305784  , 0.453350425 , -0.009556978, -0.009175233, 2.63380456  , 5.03        , 3           , 50          , 0           , 0
-0.0935193  , 0.105165124 , -9.781669   , -0.0005333796, 0.0009462198, -0.0004099022, -0.22414723 , -0.130510986, 0.453417838 , -0.009562273, -0.00916581 , 2.63379979  , 5.04        , 3           , 11          , 0.005708641 , 0.00570861
-0.0755341947, 0.0954768062, -9.781118   , -0.00166050659, 0.000516234664, 0.0004317915, -0.22414723 , -0.130308747, 0.45348525  , -0.009578916, -0.00916061 , 2.63380456  , 5.05        , 3           , 12          , 0.07368781  , 0
-0.0599681921, 0.102576479 , -9.799501   , -0.00208996749, 0.00163962913, 7.745621E-06, -0.224349469, -0.130241334, 0.453283    , -0.009599815, -0.009144212, 2.633804    , 5.06        , 3           , 50          , 0           , 0
-0.0896894  , 0.111093394 , -9.813252   , -0.0008125663, 0.000240396141, -0.00083611015, -0.224349469, -0.130241334, 0.453283    , -0.00960786548, -0.009141888, 2.633796    , 5.07        , 3           , 11          , 0.005708641 , 0.00570861
-0.1005207  , 0.113927878 , -9.813324   , 0.00258532749, -0.00142607291, -0.000116566778, -0.224282056, -0.130645812, 0.453417838 , -0.009582002, -0.009156158, 2.633795    , 5.08        , 3           , 12          , 0.07368781  , 0
-0.08545265 , 0.09295034  , -9.800188   , 0.00174038287, -0.001854149, 0.0003026377, -0.224349469, -0.130510986, 0.453417838 , -0.009564627, -0.009174669, 2.633798    , 5.09        , 3           , 50          , 0           , 0
