Acc X       , Acc Y       , Acc Z       , Gyro X      , Gyro Y      , Gyro Z      , Magn X      , Magn Y      , Magn Z      , Euler X     , Euler Y     , Euler Z     , Time        , Status      , LowRate X   , LowRate Y   , LowRate Z    
-0.07929173 , 0.07889477  , -9.801556   , -0.0007026134, -0.001205666, -0.000652164, -0.223944992, -0.131185114, 0.4539571   , -0.009489801, -0.009034288, 2.63387084  , 0           , 3           , 11          , 0.0346410163, 0.0346410163
-0.0875212  , 0.0775871053, -9.786709   , -0.00199227175, 0.002586868 , -0.0005109632, -0.22414723 , -0.130982876, 0.4538223   , -0.009509677, -0.009008469, 2.63386559  , 0.01        , 3           , 12          , 0.0346410163, 0
-0.1049976  , 0.09490339  , -9.776375   , -0.00114544353, 0.0027333817, -8.29893E-05, -0.223944992, -0.1311177  , 0.4538223   , -0.009521122, -0.008981145, 2.63386464  , 0.02        , 3           , 50          , 0           , 0
-0.0937172249, 0.08447264  , -9.799835   , -0.001833633, -0.0009317404, -0.000515728956, -0.223944992, -0.1311177  , 0.4538223   , -0.009539411, -0.008990513, 2.6338594   , 0.03        , 3           , 11          , 0.0346410163, 0.0346410163
-0.09430577 , 0.07990445  , -9.781327   , -0.00211319025, -0.00149678008, -0.000376644952, -0.2240124  , -0.131050289, 0.4539571   , -0.00956051052, -0.009005514, 2.633856    , 0.04        , 3           , 12          , 0.0346410163, 0
-0.09108037 , 0.07723442  , -9.803459   , -0.00212016026, -8.895484E-05, -0.0003744753, -0.2244843  , -0.130915463, 0.454024523 , -0.009581678, -0.00900644 , 2.63385224  , 0.05        , 3           , 50          , 0           , 0
-0.09260145 , 0.109181605 , -9.771701   , -0.00183687336, -0.0002278266, -9.083796E-05, -0.2240124  , -0.130982876, 0.454091936 , -0.009600039, -0.009008726, 2.63385129  , 0.06        , 3           , 11          , 0.0346410163, 0.0346410163
-0.0700912  , 0.093189016 , -9.790578   , 0.000281327782, -0.000213501844, -8.096097E-05, -0.2240124  , -0.130982876, 0.454091936 , -0.00959721953, -0.009010871, 2.63385034  , 0.07        , 3           , 12          , 0.0346410163, 0
-0.0870097354, 0.08387826  , -9.780803   , 0.00239264034, 0.00120864878, 7.235446E-05, -0.223944992, -0.131252527, 0.4539571   , -0.009573297, -0.008998776, 2.63385129  , 0.08        , 3           , 50          , 0           , 0
-0.06887351 , 0.0819003358, -9.792424   , 0.00253549265, 0.000928039837, 0.0004963851, -0.223944992, -0.13084805 , 0.454091936 , -0.009547986, -0.008989449, 2.633856    , 0.09        , 3           , 11          , 0.0346410163, 0.0346410163
-0.0573720746, 0.09575162  , -9.791826   , 0.000851839 , -0.00133594184, 6.120731E-05, -0.22414723 , -0.131185114, 0.453889728 , -0.009539474, -0.009002802, 2.63385653  , 0.1         , 3           , 12          , 0.0346410163, 0
-0.07777537 , 0.08838022  , -9.809641   , 0.000422107463, -1.37008556E-06, 0.0009795398, -0.22414723 , -0.131185114, 0.453889728 , -0.00953534152, -0.009002722, 2.63386655  , 0.11        , 3           , 50          , 0           , 0
-0.0952071249, 0.07545498  , -9.79672    , 0.00204807147, -0.0004127358, 0.0008451925, -0.22414723 , -0.130982876, 0.4539571   , -0.009514937, -0.009006769, 2.63387513  , 0.12        , 3           , 11          , 0.0346410163, 0.0346410163
-0.09142877 , 0.100088194 , -9.755458   , 0.00106882723, -0.00246077147, -0.000645884429, -0.224282056, -0.1311177  , 0.454024523 , -0.009504193, -0.009031437, 2.63386846  , 0.13        , 3           , 12          , 0.0346410163, 0
-0.0849237144, 0.10014832  , -9.795635   , -7.752285E-05, 0.000769583858, -0.00170567771, -0.223877579, -0.131185114, 0.454024523 , -0.009504813, -0.009023905, 2.63385129  , 0.14        , 3           , 50          , 0           , 0
-0.09555665 , 0.07643668  , -9.818866   , 0.000340578525, 0.002039495 , -0.000430330838, -0.223877579, -0.131185114, 0.454024523 , -0.009501366, -0.009003551, 2.633847    , 0.15        , 3           , 11          , 0.0346410163, 0.0346410163
-0.09454764 , 0.09034672  , -9.799364   , -0.0009228606, 0.0005526844, -0.000155997564, -0.223810166, -0.13131994 , 0.4539571   , -0.009510579, -0.008998038, 2.63384557  , 0.16        , 3           , 12          , 0.0346410163, 0
-0.0699162  , 0.108060382 , -9.785543   , -0.00205324986, 0.0008970061, 0.001675771 , -0.223944992, -0.1311177  , 0.454159349 , -0.009531261, -0.008988909, 2.63386178  , 0.17        , 3           , 50          , 0           , 0
-0.07776551 , 0.09419076  , -9.7933445  , -0.0009833643, -0.00134835381, 0.0010415283, -0.224079818, -0.13131994 , 0.4539571   , -0.00954119 , -0.009002294, 2.63387227  , 0.18        , 3           , 11          , 0.0346410163, 0.0346410163
-0.0579269268, 0.09388883  , -9.772855   , 0.0002818952, -7.271315E-05, 0.00210892246, -0.224079818, -0.13131994 , 0.4539571   , -0.009538561, -0.009002819, 2.63389325  , 0.19        , 3           , 12          , 0.0346410163, 0
-0.0951810554, 0.08306408  , -9.778609   , -0.000715325761, 0.00146920909, 0.0002702064, -0.2240124  , -0.1311177  , 0.4538223   , -0.009545724, -0.008987966, 2.633896    , 0.2         , 3           , 50          , 0           , 0
-0.103596993, 0.09402898  , -9.78947449 , -0.0004917568, -0.0009930549, -0.0005095809, -0.2240124  , -0.131387353, 0.454024523 , -0.009550596, -0.008997945, 2.63389134  , 0.21        , 3           , 11          , 0.0346699134, 0.0346699134
-0.08501306 , 0.09784419  , -9.781181   , 0.0005608631, 0.000421935169, 0.000345139648, -0.223944992, -0.131185114, 0.454091936 , -0.009545017, -0.008993693, 2.63389468  , 0.22        , 3           , 12          , 0.03466877  , 0
-0.08219834 , 0.09923076  , -9.800589   , 0.000626754 , 0.00140789116, 0.0006295251, -0.223944992, -0.131185114, 0.454091936 , -0.009538806, -0.008979553, 2.633901    , 0.23        , 3           , 50          , 0           , 0
-0.0828135163, 0.08883843  , -9.794309   , -0.0009302008, 0.002101299 , 0.000411463639, -0.223944992, -0.131185114, 0.453889728 , -0.009548143, -0.008958502, 2.6339047   , 0.24        , 3           , 11          , 0.0346699134, 0.0346699134
-0.08561066 , 0.0834489539, -9.792093   , -0.00183920877, 0.000194524328, -0.0005139921, -0.224079818, -0.130713224, 0.454159349 , -0.009566491, -0.008956606, 2.6339      , 0.25        , 3           , 12          , 0.03466877  , 0
-0.0711871  , 0.110378943 , -9.799555   , 0.0009877031, -0.00027911397, -0.000148410443, -0.224079818, -0.13131994 , 0.4539571   , -0.0095566  , -0.008959413, 2.633898    , 0.26        , 3           , 50          , 0           , 0
-0.0827126056, 0.10186436  , -9.777079   , 0.00114031322, -0.00253067818, 0.000272582722, -0.224079818, -0.13131994 , 0.4539571   , -0.009545223, -0.00898469053, 2.633901    , 0.27        , 3           , 11          , 0.0346699134, 0.0346699134
-0.0865178853, 0.08881445  , -9.77445    , 0.00232604961, 0.0005042656, 0.0009891882, -0.223877579, -0.131050289, 0.4539571   , -0.009522052, -0.008979554, 2.63391137  , 0.28        , 3           , 12          , 0.03466877  , 0
-0.07157566 , 0.08908564  , -9.772979   , 6.546711E-05, 0.00070015894, 0.0007670751, -0.2240124  , -0.131050289, 0.4539571   , -0.009521466, -0.008972479, 2.633919    , 0.29        , 3           , 50          , 0           , 0
-0.0910835639, 0.07544645  , -9.80844    , -0.000210537546, -0.0008968801, 0.000834141567, -0.224282056, -0.1311177  , 0.453889728 , -0.009557288, -0.008489697, 2.63392758  , 0.3         , 3           , 11          , 0.0347534679, 0.0347534642
-0.0657021254, 0.0742767   , -9.817289   , 0.00189522514, 0.00144035241, -0.0007769918, -0.224282056, -0.1311177  , 0.453889728 , -0.009538268, -0.008475369, 2.63391948  , 0.31        , 3           , 12          , 0.0347538032, 0
-0.06292884 , 0.0903592557, -9.779236   , 0.0001955626, 0.0023439764, -0.00177236437, -0.2240124  , -0.1311177  , 0.453889728 , -0.009536162, -0.008452099, 2.63390183  , 0.32        , 3           , 50          , 0           , 0
-0.0933173448, 0.08353176  , -9.789891   , 0.00133083877, 0.00150692742, 0.00063317013, -0.22414723 , -0.131185114, 0.454159349 , -0.009522905, -0.00843697 , 2.63390756  , 0.33        , 3           , 11          , 0.0347534679, 0.0347534642
-0.102406822, 0.07825449  , -9.799023   , 0.00240049814, -0.000668040768, 0.000210939514, -0.223877579, -0.13131994 , 0.454159349 , -0.0094989175, -0.008443629, 2.63391     , 0.34        , 3           , 12          , 0.0347538032, 0
-0.102832034, 0.117933184 , -9.7889185  , 0.002333028 , -0.00130203972, 0.0002096338, -0.2240124  , -0.131050289, 0.4539571   , -0.00947560649, -0.00845663 , 2.63391232  , 0.35        , 3           , 50          , 0           , 0
-0.10459359 , 0.122011781 , -9.788011   , 0.000137350158, 0.000161376927, 0.0009786838, -0.2240124  , -0.131050289, 0.4539571   , -0.009474317, -0.00845492352, 2.63392186  , 0.36        , 3           , 11          , 0.0347534679, 0.0347534642
-0.09154607 , 0.107506953 , -9.813734   , 0.000910171948, 0.0008705403, 0.00034768082, -0.2240124  , -0.131252527, 0.454159349 , -0.009465243, -0.008446187, 2.63392568  , 0.37        , 3           , 12          , 0.0347538032, 0
-0.102343157, 0.118849821 , -9.794786   , -0.0004979249, 8.66874E-05 , 0.00069307466, -0.224079818, -0.1311177  , 0.454024523 , -0.009470281, -0.008445254, 2.63393235  , 0.38        , 3           , 50          , 0           , 0
-0.107980452, 0.105357893 , -9.788558   , -0.001556065, 9.136707E-06, 0.00174754334, -0.224079818, -0.131050289, 0.454159349 , -0.009485989, -0.008444997, 2.63394952  , 0.39        , 3           , 11          , 0.0347534679, 0.0347534642
-0.07018159 , 0.0792789161, -9.813235   , 0.00100917276, 0.0006750546, 0.000559870736, -0.224079818, -0.131050289, 0.454159349 , -0.009872272, -0.008950731, 2.633959    , 0.4         , 3           , 12          , 0.03489524  , 0
-0.07225395 , 0.09642203  , -9.805044   , 0.001291314 , 0.0006769633, 6.674701E-05, -0.22414723 , -0.131050289, 0.454091936 , -0.009859363, -0.00894395448, 2.63395953  , 0.41        , 3           , 50          , 0           , 0
-0.08893584 , 0.112298638 , -9.772111   , 0.00192571024, 0.0008220414, -0.000565782, -0.224079818, -0.130982876, 0.454024523 , -0.009840056, -0.00893579051, 2.63395381  , 0.42        , 3           , 11          , 0.01772315  , 0.01772318
-0.0904767662, 0.09475899  , -9.783948   , 0.000723079138, 0.00130666362, -0.000358716439, -0.2240124  , -0.131050289, 0.454024523 , -0.009832792, -0.00892275851, 2.63395     , 0.43        , 3           , 12          , 0.03489524  , 0
-0.08874756 , 0.08217353  , -9.804326   , 0.0008682261, 0.000603708031, 0.00041783505, -0.2240124  , -0.131050289, 0.454024523 , -0.00982414652, -0.008916684, 2.63395429  , 0.44        , 3           , 50          , 0           , 0
-0.08624093 , 0.102875724 , -9.796989   , -0.0008297346, 0.00115537539, -0.000648714136, -0.224214643, -0.130982876, 0.454024523 , -0.009832386, -0.008905192, 2.63394761  , 0.45        , 3           , 11          , 0.01772315  , 0.01772318
-0.0692962557, 0.0872862041, -9.782461   , -0.00295129837, 0.00184496387, -0.000445603131, -0.2240124  , -0.13084805 , 0.454294175 , -0.009861858, -0.008886788, 2.63394284  , 0.46        , 3           , 12          , 0.03489524  , 0
-0.09044196 , 0.09389448  , -9.795252   , 0.000155989939, 0.00179558364, -7.41930262E-06, -0.223944992, -0.1311177  , 0.454024523 , -0.009860295, -0.008868833, 2.63394284  , 0.47        , 3           , 50          , 0           , 0
-0.0861716047, 0.110966191 , -9.787915   , 0.0013584171, 0.00131096039, -0.0005676566, -0.223944992, -0.1311177  , 0.454024523 , -0.009846659, -0.00885578 , 2.63393712  , 0.48        , 3           , 11          , 0.01772315  , 0.01772318
-0.07933314 , 0.08600283  , -9.768531   , 0.001776726 , 0.00244008726, -0.0001401393, -0.224214643, -0.1311177  , 0.454159349 , -0.009828879, -0.008831394, 2.63393521  , 0.49        , 3           , 12          , 0.03489524  , 0
-0.09499629 , 0.101067789 , -9.765877   , 0.00107387279, 0.00181201857, -0.000356208155, -0.22414723 , -0.130982876, 0.454159349 , -0.009817142, -0.008764047, 2.6339314   , 0.5         , 3           , 50          , 0           , 0
-0.07088739 , 0.09998354  , -9.795527   , 0.000163118733, 0.000397986558, -8.01204951E-05, -0.2240124  , -0.1311177  , 0.454024523 , -0.009815505, -0.008760075, 2.63393044  , 0.51        , 3           , 11          , 0.0134486938, 0.0134487217
-0.0771499053, 0.10770788  , -9.789667   , -0.00174112711, -0.000178039045, -0.00122002757, -0.2240124  , -0.1311177  , 0.454024523 , -0.009832811, -0.008761975, 2.63391852  , 0.52        , 3           , 12          , 0.035091985 , 0
-0.09769259 , 0.09843813  , -9.779469   , -0.00251696282, -0.0002536804, -0.000376145239, -0.224079818, -0.131050289, 0.454226762 , -0.009857947, -0.008764548, 2.63391519  , 0.53        , 3           , 50          , 0           , 0
-0.09243472 , 0.085287936 , -9.778579   , 0.0005868405, 0.00040085183, 6.31235744E-05, -0.22414723 , -0.130982876, 0.454226762 , -0.009852083, -0.008760534, 2.63391519  , 0.54        , 3           , 11          , 0.0134486938, 0.0134487217
-0.055196695, 0.08940439  , -9.79048    , 0.00249998434, -0.0008532964, 0.000917672645, -0.223742753, -0.131185114, 0.4539571   , -0.009827166, -0.008768978, 2.63392472  , 0.55        , 3           , 12          , 0.035091985 , 0
-0.0853221938, 0.105553858 , -9.791548   , 0.003628056 , -0.0007048784, -0.000701433048, -0.223742753, -0.131185114, 0.4539571   , -0.009790824, -0.008776094, 2.633918    , 0.56        , 3           , 50          , 0           , 0
-0.09014636 , 0.115558825 , -9.797871   , 0.00327096367, 0.000137429946, -0.000489874161, -0.22414723 , -0.131387353, 0.4539571   , -0.009758071, -0.00877476949, 2.6339128   , 0.57        , 3           , 11          , 0.0134486938, 0.0134487217
-0.09603147 , 0.112058029 , -9.809682   , 0.00242944085, -0.0009241665, 0.000422794459, -0.2240124  , -0.131050289, 0.454091936 , -0.009733816, -0.008783968, 2.633917    , 0.58        , 3           , 12          , 0.035091985 , 0
-0.07923667 , 0.08786638  , -9.78615    , 0.0022145398, -8.08984259E-05, 0.00233023637, -0.223944992, -0.131185114, 0.454091936 , -0.009711875, -0.008784551, 2.63394046  , 0.59        , 3           , 50          , 0           , 0
-0.06398682 , 0.08087304  , -9.772503   , 0.00174268486, 0.00161926926, 0.0012011911, -0.223944992, -0.131185114, 0.454091936 , -0.009811819, -0.008727407, 2.63395333  , 0.6         , 3           , 11          , 0.0113606006, 0.0113606164
-0.06932783 , 0.0823507458, -9.790617   , 0.00118095265, 0.0007707491, -0.0006392378, -0.223877579, -0.13131994 , 0.454091936 , -0.009799953, -0.008719763, 2.63394666  , 0.61        , 3           , 12          , 0.03534267  , 0
-0.0770253539, 0.112272315 , -9.805467   , -0.00128819083, 0.000331689342, -0.0006514119, -0.224079818, -0.130982876, 0.454294175 , -0.009812778, -0.00871651 , 2.63394046  , 0.62        , 3           , 50          , 0           , 0
-0.09846945 , 0.106140994 , -9.786222   , -0.00375116942, -0.00116323517, 0.0009593772, -0.223944992, -0.13131994 , 0.454159349 , -0.009850374, -0.008728047, 2.63395047  , 0.63        , 3           , 11          , 0.0113606006, 0.0113606164
-0.08281037 , 0.0982143357, -9.764892   , -0.0022076983, 0.0006774388, -0.000443246478, -0.223944992, -0.13131994 , 0.454159349 , -0.009872411, -0.008721317, 2.6339457   , 0.64        , 3           , 12          , 0.03534267  , 0
-0.06563347 , 0.0890619   , -9.786494   , -0.0008673573, 0.0008272914, -0.00128438638, -0.223944992, -0.131252527, 0.4539571   , -0.009880971, -0.00871317 , 2.63393283  , 0.65        , 3           , 50          , 0           , 0
-0.0770759955, 0.0792755   , -9.788429   , -0.00107614836, 0.000403515849, 0.000338565354, -0.2240124  , -0.131185114, 0.454226762 , -0.009891762, -0.008709101, 2.63393617  , 0.66        , 3           , 11          , 0.0113606006, 0.0113606164
-0.07830485 , 0.08296718  , -9.808311   , -0.00164665584, 0.0013851698, -0.00100460276, -0.223944992, -0.131454766, 0.454091936 , -0.009908141, -0.008695351, 2.63392568  , 0.67        , 3           , 12          , 0.03534267  , 0
-0.05542028 , 0.107003085 , -9.789957   , -0.000509837759, 5.537802E-05, -0.00015378384, -0.223944992, -0.131454766, 0.454091936 , -0.009913226, -0.008694812, 2.63392472  , 0.68        , 3           , 50          , 0           , 0
-0.06841095 , 0.120214932 , -9.782318   , -0.00135428936, -0.000513481733, -8.796797E-05, -0.224282056, -0.13131994 , 0.4539571   , -0.0099267615, -0.008699954, 2.63392377  , 0.69        , 3           , 11          , 0.0113606006, 0.0113606164
-0.101642869, 0.100818835 , -9.802539   , -0.0013686819, -0.0008242956, 0.000195158485, -0.223877579, -0.131185114, 0.454091936 , -0.009975734, -0.008471895, 2.63392568  , 0.7         , 3           , 12          , 0.0356457457, 0
-0.0754391253, 0.07554221  , -9.757697   , -0.00166054035, 0.00114475132, 0.000761953939, -0.224079818, -0.131185114, 0.454226762 , -0.009992403, -0.008460372, 2.63393331  , 0.71        , 3           , 50          , 0           , 0
-0.08161939 , 0.113610879 , -9.785158   , -0.00180761528, 0.00227005547, 0.000268590666, -0.224079818, -0.131185114, 0.454226762 , -0.0100104995, -0.008437647, 2.63393617  , 0.72        , 3           , 11          , 0.0101396656, 0.010139673
-0.0713414848, 0.09820239  , -9.800962   , 0.00115262053, 0.00327558629, -0.000351771945, -0.2240124  , -0.1311177  , 0.454024523 , -0.009998943, -0.008404926, 2.63393235  , 0.73        , 3           , 12          , 0.0356457457, 0
-0.0643348247, 0.08899756  , -9.77202    , 0.00129795272, 0.00250223838, 0.0001421337, -0.223944992, -0.1311177  , 0.454024523 , -0.009985973, -0.008379891, 2.63393331  , 0.74        , 3           , 50          , 0           , 0
-0.117065445, 0.103655078 , -9.787279   , -0.0006563826, -0.00208656373, 0.000125863662, -0.2240124  , -0.131252527, 0.454091936 , -0.009992548, -0.008400743, 2.63393521  , 0.75        , 3           , 11          , 0.0101396656, 0.010139673
-0.0945582  , 0.09881882  , -9.769499   , 0.00279987557, -0.001148075, 0.0019799   , -0.2240124  , -0.131252527, 0.454091936 , -0.009964718, -0.008412026, 2.63395476  , 0.76        , 3           , 12          , 0.0356457457, 0
-0.0530031174, 0.0875354   , -9.779171   , 0.002018512 , -0.0003790275, 0.000494150154, -0.2240124  , -0.131185114, 0.453889728 , -0.009944574, -0.008415769, 2.63396     , 0.77        , 3           , 50          , 0           , 0
-0.06208461 , 0.08806716  , -9.771555   , -0.000387072767, 0.000449429266, -0.000857794948, -0.224079818, -0.131050289, 0.454226762 , -0.009948374, -0.008411357, 2.63395143  , 0.78        , 3           , 11          , 0.0101396656, 0.010139673
-0.0733636245, 0.08510853  , -9.791541   , -0.0007534346, 0.00326269562, 0.000204413664, -0.224079818, -0.1311177  , 0.454226762 , -0.009955921, -0.00837871153, 2.63395286  , 0.79        , 3           , 12          , 0.0356457457, 0
-0.07172788 , 0.102278665 , -9.804112   , -6.64215349E-07, 0.00312730414, -4.213655E-06, -0.224079818, -0.1311177  , 0.454226762 , -0.009880039, -0.008229749, 2.63395238  , 0.8         , 3           , 50          , 0           , 0
-0.085007   , 0.09338561  , -9.79702    , -0.000205881413, 0.0017180444, -0.000643080333, -0.224079818, -0.131050289, 0.4539571   , -0.009882045, -0.0082126325, 2.6339457   , 0.81        , 3           , 11          , 0.009383256 , 0.009383268
-0.09447454 , 0.0908523053, -9.815633   , -0.00139278919, -0.000964940235, -0.0003702622, -0.224079818, -0.1311177  , 0.454226762 , -0.009895943, -0.008222318, 2.633942    , 0.82        , 3           , 12          , 0.0359994657, 0
-0.0861389  , 0.112331741 , -9.791526   , -0.00238308473, -0.0006900622, -0.00108078134, -0.223944992, -0.131185114, 0.454159349 , -0.009919685, -0.00822932553, 2.6339314   , 0.83        , 3           , 50          , 0           , 0
-0.07867462 , 0.09955473  , -9.77525    , -0.00111696171, 0.000304010784, -0.000932067458, -0.223944992, -0.131185114, 0.454159349 , -0.009930779, -0.008226379, 2.63392186  , 0.84        , 3           , 11          , 0.009383256 , 0.009383268
-0.0659902245, 0.08780599  , -9.814073   , -0.000199604779, 0.000310215633, -0.00184603431, -0.223944992, -0.131050289, 0.454159349 , -0.009932623, -0.00822346 , 2.63390326  , 0.85        , 3           , 12          , 0.0359994657, 0
-0.07888242 , 0.08063964  , -9.78527451 , -0.003023239, 0.00022072604, -0.00136487163, -0.224214643, -0.130915463, 0.454091936 , -0.009962744, -0.008221389, 2.63388944  , 0.86        , 3           , 50          , 0           , 0
-0.08810373 , 0.0934817642, -9.81467    , -0.00273843552, -0.0001997102, -0.000869765, -0.223944992, -0.13131994 , 0.454226762 , -0.009990056, -0.008223472, 2.63388085  , 0.87        , 3           , 11          , 0.009383256 , 0.009383268
-0.104582079, 0.07969198  , -9.816209   , 0.000234546256, -0.00158747809, 6.013987E-05, -0.223944992, -0.13131994 , 0.454226762 , -0.00998771749, -0.00823934 , 2.63388181  , 0.88        , 3           , 12          , 0.0359994657, 0
-0.07855423 , 0.100991316 , -9.800102   , 0.0008616276, -0.0001049693, -0.00177111221, -0.224079818, -0.13131994 , 0.4539571   , -0.009978955, -0.008240566, 2.63386369  , 0.89        , 3           , 50          , 0           , 0
-0.06817865 , 0.0941426158, -9.812255   , -0.00188925269, -0.00162975618, 0.000261012145, -0.223877579, -0.130915463, 0.454159349 , -0.009906979, -0.008295326, 2.633866    , 0.9         , 3           , 11          , 0.008917827 , 0.008917835
-0.0588877536, 0.07957148  , -9.805465   , -0.00110278011, -0.00359545881, 0.000332230469, -0.223944992, -0.131050289, 0.454159349 , -0.009918038, -0.008331246, 2.63386941  , 0.91        , 3           , 12          , 0.0364019535, 0
-0.104892246, 0.09364972  , -9.80621    , -0.00266754651, -0.00128305191, 0.00046983597, -0.223944992, -0.131185114, 0.453889728 , -0.009944754, -0.008344029, 2.63387418  , 0.92        , 3           , 50          , 0           , 0
-0.108153261, 0.090934664 , -9.792686   , -0.00168965221, 0.000905763241, 0.00083098  , -0.223944992, -0.131185114, 0.453889728 , -0.009961719, -0.00833489 , 2.63388276  , 0.93        , 3           , 11          , 0.008917827 , 0.008917835
-0.07858257 , 0.108109966 , -9.770241   , -0.001544583, 6.202156E-05, 0.00026526177, -0.2240124  , -0.131387353, 0.454024523 , -0.009977187, -0.008334244, 2.63388562  , 0.94        , 3           , 12          , 0.0364019535, 0
-0.0573296174, 0.100249507 , -9.78774    , -0.000418134732, 0.0007031822, 5.9602753E-05, -0.22414723 , -0.131050289, 0.454294175 , -0.009981373, -0.008327206, 2.63388562  , 0.95        , 3           , 50          , 0           , 0
-0.0884038359, 0.07583092  , -9.798022   , 6.28768566E-06, 0.0004244791, -0.000998371, -0.223944992, -0.1311177  , 0.454091936 , -0.009981227, -0.008323061, 2.633876    , 0.96        , 3           , 11          , 0.008917827 , 0.008917835
-0.09466857 , 0.08310713  , -9.793068   , -0.000421249046, 0.00126631081, -0.0005046041, -0.223944992, -0.1311177  , 0.454091936 , -0.009985398, -0.008310451, 2.63387036  , 0.97        , 3           , 12          , 0.0364019535, 0
-0.09438853 , 0.103866145 , -9.794787   , -0.0003375289, -0.00112650869, 0.001681702 , -0.224214643, -0.130982876, 0.454159349 , -0.009988914, -0.008321546, 2.63388753  , 0.98        , 3           , 50          , 0           , 0
-0.08348635 , 0.101089105 , -9.811892   , 0.00269564916, -0.000542847, 0.00148482365, -0.224349469, -0.131185114, 0.454294175 , -0.009962081, -0.008326826, 2.63390279  , 0.99        , 3           , 11          , 0.008917827 , 0.008917835
-0.09547508 , 0.09614219  , -9.775393   , -0.0009315976, 0.00051019236, -0.000509223959, -0.224079818, -0.13131994 , 0.454159349 , -0.009907303, -0.0083825225, 2.633897    , 1           , 3           , 12          , 0.0368511938, 0
-0.08996914 , 0.105956852 , -9.761298   , -0.00184489507, -0.000340708328, 0.000191537867, -0.224079818, -0.13131994 , 0.454159349 , -0.009925768, -0.008385912, 2.633899    , 1.01        , 3           , 50          , 0           , 0
-0.0986169  , 0.0957554653, -9.783554   , -0.0012099056, -0.000266020215, -1.729352E-05, -0.2240124  , -0.13131994 , 0.4539571   , -0.009937866, -0.008388574, 2.6338985   , 1.02        , 3           , 11          , 0.008639149 , 0.008639154
-0.08959675 , 0.0929422453, -9.783497   , 0.000414764334, -0.000325427362, 0.0006258795, -0.2240124  , -0.1311177  , 0.4543616   , -0.00993377 , -0.008391766, 2.6339047   , 1.03        , 3           , 12          , 0.0368511938, 0
-0.106378779, 0.0917764   , -9.780918   , 0.00154043408, 0.0004565155, 0.0002791687, -0.2240124  , -0.131252527, 0.454024523 , -0.009918389, -0.00838717353, 2.63390756  , 1.04        , 3           , 50          , 0           , 0
-0.08469042 , 0.110603429 , -9.819093   , 5.88240728E-05, 9.45288557E-05, -0.00078780303, -0.2240124  , -0.131252527, 0.454024523 , -0.009917735, -0.008386308, 2.6339      , 1.05        , 3           , 11          , 0.008639149 , 0.008639154
-0.08992267 , 0.09305037  , -9.814234   , 0.0003517209, -0.00180412026, 0.0010470784, -0.223877579, -0.131050289, 0.454024523 , -0.009914307, -0.008404242, 2.63391042  , 1.06        , 3           , 12          , 0.0368511938, 0
-0.09308165 , 0.09979134  , -9.795246   , 0.00168457662, -3.52660682E-05, 0.00112668017, -0.224079818, -0.13084805 , 0.454091936 , -0.009897555, -0.008404483, 2.63392186  , 1.07        , 3           , 50          , 0           , 0
-0.09202979 , 0.103470057 , -9.819178   , -0.00113946549, -0.0001247576, 0.000901499356, -0.2240124  , -0.13131994 , 0.454024523 , -0.009909027, -0.008405643, 2.63393044  , 1.08        , 3           , 11          , 0.008639149 , 0.008639154
-0.06786801 , 0.0935757756, -9.77926    , -0.00093357 , 0.00107332633, 0.0009043313, -0.2240124  , -0.13131994 , 0.454024523 , -0.009918438, -0.00839482 , 2.63394     , 1.09        , 3           , 12          , 0.0368511938, 0
-0.08164492 , 0.08688332  , -9.754082   , -0.0007275649, 0.001279584 , 0.00154073862, -0.22414723 , -0.130915463, 0.453889728 , -0.009931475, -0.008472121, 2.63395524  , 1.1         , 3           , 50          , 0           , 0
-0.08049067 , 0.09287675  , -9.79563    , 0.0006746517, 0.00311930268, 6.68222856E-05, -0.2240124  , -0.131185114, 0.454159349 , -0.009924731, -0.008440922, 2.63395524  , 1.11        , 3           , 11          , 0.008484138 , 0.008484138
-0.09479864 , 0.1061378   , -9.797945   , 0.001593258 , 0.00291433488, -0.0004942981, -0.2240124  , -0.131454766, 0.454159349 , -0.009908755, -0.008411829, 2.63395047  , 1.12        , 3           , 12          , 0.03734512  , 0
-0.0880111158, 0.100252055 , -9.815545   , 0.00152219913, 0.00305464142, -7.060433E-05, -0.2240124  , -0.131454766, 0.454159349 , -0.00989352353, -0.00838129 , 2.63394952  , 1.13        , 3           , 50          , 0           , 0
-0.109851688, 0.09461805  , -9.808504   , 0.0031512545, 0.00215053954, 0.000924439 , -0.223810166, -0.13131994 , 0.4539571   , -0.009862089, -0.008359696, 2.633958    , 1.14        , 3           , 11          , 0.008484138 , 0.008484138
-0.08602876 , 0.07991158  , -9.811997   , -8.68734351E-05, 8.722657E-05, 0.000341073173, -0.223944992, -0.131252527, 0.454294175 , -0.009862985, -0.008358791, 2.633962    , 1.15        , 3           , 12          , 0.03734512  , 0
-0.0812888443, 0.0618040338, -9.811133   , -0.00136039674, 0.0005713697, 5.33688726E-05, -0.224079818, -0.131050289, 0.454024523 , -0.009876593, -0.008353071, 2.633962    , 1.16        , 3           , 50          , 0           , 0
-0.0745216161, 0.09644559  , -9.804158   , 0.000758520153, 0.00051530503, 0.0006988467, -0.224079818, -0.131050289, 0.454024523 , -0.009869066, -0.00834785 , 2.63396859  , 1.17        , 3           , 11          , 0.008484138 , 0.008484138
-0.07186052 , 0.08922702  , -9.813659   , 0.00167138723, 0.00143659662, -0.000143075216, -0.2240124  , -0.131050289, 0.454226762 , -0.009852339, -0.008333499, 2.63396764  , 1.18        , 3           , 12          , 0.03734512  , 0
-0.07657891 , 0.09135753  , -9.760352   , 0.002593968 , 0.0005277182, 0.0001423319, -0.224214643, -0.131050289, 0.454159349 , -0.009826411, -0.008328208, 2.63396859  , 1.19        , 3           , 50          , 0           , 0
-0.09994214 , 0.10026174  , -9.777218   , 0.0006293863, 0.00154979061, -0.0005022286, -0.223810166, -0.131050289, 0.454226762 , -0.009719235, -0.008335474, 2.63396287  , 1.2         , 3           , 11          , 0.00840385351, 0.00840385
-0.107849896, 0.0778641   , -9.798162   , 0.000281435641, 0.000561926339, -0.000152221823, -0.223810166, -0.131050289, 0.454226762 , -0.009716406, -0.008329869, 2.633961    , 1.21        , 3           , 12          , 0.037881583 , 0
-0.09385854 , 0.07230667  , -9.804406   , -0.00168844126, -0.0007888753, 0.0006841108, -0.223944992, -0.131050289, 0.454091936 , -0.009733349, -0.008337694, 2.63396764  , 1.22        , 3           , 50          , 0           , 0
-0.0963345  , 0.09038764  , -9.805255   , -7.379272E-05, 0.00105227868, 0.000270697521, -0.22414723 , -0.130982876, 0.4543616   , -0.009734108, -0.008327143, 2.6339705   , 1.23        , 3           , 11          , 0.00840385351, 0.00840385
-0.112244323, 0.08695239  , -9.801774   , 0.00260300771, 0.00240785955, 0.0009209789, -0.223944992, -0.13131994 , 0.454159349 , -0.009708155, -0.008302977, 2.63397956  , 1.24        , 3           , 12          , 0.037881583 , 0
-0.0859165341, 0.0956247747, -9.788881   , -0.0011888037, -0.001841401, 0.000967325643, -0.223944992, -0.13131994 , 0.454159349 , -0.009720122, -0.008321296, 2.63398957  , 1.25        , 3           , 50          , 0           , 0
-0.103660524, 0.0912994   , -9.782707   , -0.00225230539, -0.0012150479, -0.00122630189, -0.2240124  , -0.13131994 , 0.454159349 , -0.009742545, -0.008333567, 2.63397717  , 1.26        , 3           , 11          , 0.00840385351, 0.00840385
-0.0960811153, 0.08040106  , -9.78857    , -0.0008425956, -0.000501580362, 0.0006178612, -0.22414723 , -0.1311177  , 0.4543616   , -0.009751023, -0.008338521, 2.63398385  , 1.27        , 3           , 12          , 0.037881583 , 0
-0.08805977 , 0.1051225   , -9.787953   , -0.00127293135, 0.000551416539, -0.00192532432, -0.224079818, -0.131185114, 0.454159349 , -0.009763592, -0.008333196, 2.63396382  , 1.28        , 3           , 50          , 0           , 0
-0.06934793 , 0.08545891  , -9.775689   , 0.000778963848, -0.000138644915, -0.0005041739, -0.224079818, -0.131185114, 0.454159349 , -0.0097557595, -0.008334632, 2.633959    , 1.29        , 3           , 11          , 0.00840385351, 0.00840385
-0.08056592 , 0.08433512  , -9.804707   , -0.00131342537, -0.00189832144, 0.000328759459, -0.223877579, -0.131252527, 0.454159349 , -0.009669813, -0.008495504, 2.633962    , 1.3         , 3           , 12          , 0.03845842  , 0
-0.0876221657, 0.0721491   , -9.779501   , -0.00125542062, 0.000425062462, -0.001574459, -0.224282056, -0.131185114, 0.454226762 , -0.009682234, -0.008491406, 2.6339457   , 1.31        , 3           , 50          , 0           , 0
-0.079087235, 0.10093163  , -9.780671   , -0.00259459368, 6.403657E-05, -0.000521741633, -0.223944992, -0.131050289, 0.454091936 , -0.009708137, -0.008490817, 2.633941    , 1.32        , 3           , 11          , 0.008366149 , 0.008366144
-0.0885559842, 0.09929006  , -9.796118   , -0.0003303002, -0.00090616144, -0.0005127247, -0.223944992, -0.131050289, 0.454091936 , -0.009711396, -0.008499927, 2.63393569  , 1.33        , 3           , 12          , 0.03845842  , 0
-0.102848426, 0.07826888  , -9.801738   , -0.00258799433, -0.00120300485, 4.138064E-05, -0.22414723 , -0.131252527, 0.454159349 , -0.009737281, -0.008511951, 2.63393617  , 1.34        , 3           , 50          , 0           , 0
-0.07276052 , 0.09683013  , -9.790584   , 0.00164636131, -0.000892793236, -0.00106858113, -0.223944992, -0.131252527, 0.454226762 , -0.009720726, -0.008520984, 2.63392568  , 1.35        , 3           , 11          , 0.008366149 , 0.008366144
-0.07352874 , 0.111235261 , -9.777874   , -0.002026344, -0.00035448483, 0.00174054131, -0.223944992, -0.1311177  , 0.454159349 , -0.009741138, -0.008524359, 2.63394284  , 1.36        , 3           , 12          , 0.03845842  , 0
-0.09192349 , 0.118732095 , -9.796063   , 0.000233485756, -0.00062077475, 5.5417855E-05, -0.22414723 , -0.131387353, 0.454159349 , -0.009738808, -0.008530561, 2.6339438   , 1.37        , 3           , 50          , 0           , 0
-0.100116909, 0.0831588358, -9.789494   , -6.11608E-05, 0.00191140245, 0.000623081345, -0.22414723 , -0.131387353, 0.454159349 , -0.009739472, -0.008511388, 2.63394952  , 1.38        , 3           , 11          , 0.008366149 , 0.008366144
-0.09445296 , 0.102474906 , -9.783495   , 0.00136114645, -0.000331573, -0.00106903026, -0.224079818, -0.131387353, 0.454226762 , -0.00972577 , -0.008514806, 2.633939    , 1.39        , 3           , 12          , 0.03845842  , 0
-0.09365177 , 0.09746984  , -9.774017   , 0.00191891193, -0.00154095888, 0.0006263439, -0.224079818, -0.131050289, 0.454226762 , -0.009722126, -0.008628878, 2.6339457   , 1.4         , 3           , 50          , 0           , 0
-0.078127265, 0.108999386 , -9.767975   , -0.00146930525, -0.00184544607, -0.00023750549, -0.223877579, -0.131185114, 0.454159349 , -0.009736801, -0.008647354, 2.63394332  , 1.41        , 3           , 11          , 0.008346331 , 0.008346326
-0.08815433 , 0.0956725   , -9.795225   , 0.0007888784, -0.00154860062, 5.6001154E-05, -0.223877579, -0.131185114, 0.454159349 , -0.009728919, -0.008662834, 2.6339438   , 1.42        , 3           , 12          , 0.03907347  , 0
-0.0731959939, 0.102652021 , -9.776099   , 0.000496693538, 0.000420445169, 5.772177E-05, -0.22414723 , -0.131050289, 0.454159349 , -0.009723956, -0.008658625, 2.63394475  , 1.43        , 3           , 50          , 0           , 0
-0.102010652, 0.112498149 , -9.78577    , 0.0030205017, 0.00381640927, -0.00218551839, -0.224282056, -0.130982876, 0.454226762 , -0.009693559, -0.008620675, 2.63392234  , 1.44        , 3           , 11          , 0.008346331 , 0.008346326
-0.114826642, 0.09735924  , -9.801299   , 0.003027383 , 0.00269015576, 7.304564E-05, -0.2240124  , -0.1311177  , 0.454226762 , -0.009663289, -0.008593768, 2.63392282  , 1.45        , 3           , 12          , 0.03907347  , 0
-0.107181311, 0.09499498  , -9.795826   , -0.00119663659, 0.0001274195, -0.000233151019, -0.2240124  , -0.1311177  , 0.454226762 , -0.009675236, -0.008592515, 2.63392043  , 1.46        , 3           , 50          , 0           , 0
-0.0895433947, 0.08941467  , -9.807918   , 0.00106572919, -0.000420430122, 5.905383E-05, -0.223944992, -0.1311177  , 0.454159349 , -0.009664583, -0.008596714, 2.633921    , 1.47        , 3           , 11          , 0.008346331 , 0.008346326
-0.0883128345, 0.0727802143, -9.830125   , 0.000490628066, 0.001546703 , -0.000788154663, -0.223944992, -0.131050289, 0.454294175 , -0.009659608, -0.008581323, 2.63391328  , 1.48        , 3           , 12          , 0.03907347  , 0
-0.0813332647, 0.0974019244, -9.796522   , -0.0009143729, 0.000129328677, -0.000514371553, -0.224079818, -0.1311177  , 0.454091936 , -0.009668708, -0.00858008 , 2.633908    , 1.49        , 3           , 50          , 0           , 0
-0.09098902 , 0.09248437  , -9.77673    , -0.00176220783, 0.0008639386, -0.001083145, -0.224079818, -0.1311177  , 0.454091936 , -0.009681658, -0.008692261, 2.633897    , 1.5         , 3           , 11          , 0.008330231 , 0.008330226
-0.08474405 , 0.081175    , -9.789836   , -0.00315851835, -0.00224282453, -0.000246890471, -0.223944992, -0.131185114, 0.454024523 , -0.009713222, -0.008714711, 2.63389516  , 1.51        , 3           , 12          , 0.0397245921, 0
-0.101382338, 0.09039168  , -9.78902149 , -0.00344152376, -0.00196316559, 0.00116491376, -0.224079818, -0.131185114, 0.454159349 , -0.009747741, -0.008734229, 2.6339066   , 1.52        , 3           , 50          , 0           , 0
-0.08945181 , 0.102433041 , -9.788427   , 0.0007905336, -0.00108982169, 0.000903432 , -0.224214643, -0.131050289, 0.454159349 , -0.009739915, -0.008745039, 2.63391614  , 1.53        , 3           , 11          , 0.008330231 , 0.008330226
-0.09024719 , 0.105211057 , -9.806501   , -0.000909440161, 2.4979614E-05, 0.00117980374, -0.224214643, -0.131050289, 0.454159349 , -0.009749114, -0.008744677, 2.63392758  , 1.54        , 3           , 12          , 0.0397245921, 0
-0.09359127 , 0.0935017   , -9.801604   , -0.00202897424, -0.00223518559, -0.0005241602, -0.22414723 , -0.13131994 , 0.454091936 , -0.009769359, -0.008767077, 2.63392282  , 1.55        , 3           , 50          , 0           , 0
-0.108323321, 0.0751746148, -9.801793   , -0.00316778687, -0.0002718668, 0.0006037593, -0.224079818, -0.131185114, 0.454226762 , -0.009801091, -0.008769737, 2.63392854  , 1.56        , 3           , 11          , 0.008330231 , 0.008330226
-0.08668363 , 0.106460012 , -9.787938   , -0.00119530747, 0.000586196664, 4.92046638E-05, -0.223944992, -0.131185114, 0.454159349 , -0.009813047, -0.008763869, 2.633929    , 1.57        , 3           , 12          , 0.0397245921, 0
-0.0812453  , 0.113095447 , -9.76752949 , 0.000791764469, -0.00137138763, 0.000620460662, -0.223944992, -0.131185114, 0.454159349 , -0.009805185, -0.00877752248, 2.63393521  , 1.58        , 3           , 50          , 0           , 0
-0.09413852 , 0.08673521  , -9.80028    , 0.0002315823, -0.00221990026, 0.00146413746, -0.223877579, -0.131454766, 0.454159349 , -0.009803   , -0.008799576, 2.63395047  , 1.59        , 3           , 11          , 0.008330231 , 0.008330226
-0.0989742  , 0.09628451  , -9.80525    , 0.00164539693, -0.001443492, 0.0006235825, -0.22414723 , -0.131050289, 0.454159349 , -0.009779055, -0.008906406, 2.63395619  , 1.6         , 3           , 12          , 0.0404096767, 0
-0.0922993  , 0.08941481  , -9.798448   , 0.000798531633, -0.00173079188, -0.00107602694, -0.22414723 , -0.131454766, 0.454226762 , -0.009770975, -0.008923821, 2.6339457   , 1.61        , 3           , 50          , 0           , 0
-0.05009085 , 0.09480357  , -9.803526   , -0.00257894862, -0.00400622934, -0.000247689139, -0.22414723 , -0.131454766, 0.454226762 , -0.009796746, -0.008963903, 2.6339438   , 1.62        , 3           , 11          , 0.008308059 , 0.008308052
-0.062125694, 0.112955347 , -9.792243   , -0.0008911948, -0.00258694356, 4.491939E-05, -0.22414723 , -0.13131994 , 0.454226762 , -0.009805665, -0.008989767, 2.63394475  , 1.63        , 3           , 12          , 0.0404096767, 0
-0.0973056257, 0.09257692  , -9.782202   , -5.76911334E-05, 0.000234437888, 0.000335746969, -0.223944992, -0.1311177  , 0.454294175 , -0.009806273, -0.00898739 , 2.63394761  , 1.64        , 3           , 50          , 0           , 0
-0.100102775, 0.08718744  , -9.779984   , -0.0006230342, 0.0002306156, -0.0005144991, -0.223944992, -0.131185114, 0.454226762 , -0.009812457, -0.008985134, 2.63394284  , 1.65        , 3           , 11          , 0.008308059 , 0.008308052
-0.112537764, 0.07332411  , -9.773809   , 0.0016266224, 0.00221685087, -0.000500926049, -0.223944992, -0.131185114, 0.454226762 , -0.00979614351, -0.008963016, 2.6339376   , 1.66        , 3           , 12          , 0.0404096767, 0
-0.08388159 , 0.07577324  , -9.796631   , 0.00135255966, 0.0005255504, -0.0005048466, -0.2240124  , -0.131050289, 0.454226762 , -0.009782571, -0.008957811, 2.63393235  , 1.67        , 3           , 50          , 0           , 0
-0.071340926, 0.09641744  , -9.806846   , 0.0008019722, -0.00229391851, 5.32549275E-05, -0.224079818, -0.131252527, 0.4543616   , -0.009774558, -0.008980744, 2.63393331  , 1.68        , 3           , 11          , 0.008308059 , 0.008308052
-0.08269335 , 0.0925066   , -9.81192    , 0.0016416302, -0.000880366541, -0.00107077439, -0.223877579, -0.1311177  , 0.454159349 , -0.009758047, -0.008989651, 2.63392282  , 1.69        , 3           , 12          , 0.0404096767, 0
-0.08774859 , 0.08491667  , -9.818318   , -0.00054914644, -0.00115375593, 0.00174330035, -0.223877579, -0.1311177  , 0.454159349 , -0.009683237, -0.008972273, 2.6339395   , 1.7         , 3           , 50          , 0           , 0
-0.103066325, 0.0633627549, -9.796377   , -0.002811913, -0.000887479866, -0.00165725069, -0.224349469, -0.131387353, 0.454091936 , -0.009711207, -0.00898131 , 2.63392282  , 1.71        , 3           , 11          , 0.008276484 , 0.00827648
-0.0892169  , 0.0799336657, -9.807503   , -0.00279945554, -0.00313999457, 0.0005995774, -0.224282056, -0.131050289, 0.454024523 , -0.009739257, -0.009012648, 2.63392949  , 1.72        , 3           , 12          , 0.0411266759, 0
-0.07894949 , 0.100596905 , -9.81547451 , -0.000829349039, -0.00200037053, -0.00164976809, -0.223944992, -0.131454766, 0.454226762 , -0.009747405, -0.009032811, 2.63391328  , 1.73        , 3           , 50          , 0           , 0
-0.0873464048, 0.08710211  , -9.798871   , 1.84952078E-05, -0.001713066, 0.00174506626, -0.223944992, -0.131454766, 0.454226762 , -0.00974737853, -0.009049773, 2.63393044  , 1.74        , 3           , 11          , 0.008276484 , 0.00827648
-0.0709291846, 0.09637886  , -9.7969     , -0.00337676657, -0.0008912998, -0.00165988458, -0.2240124  , -0.131454766, 0.454091936 , -0.009780996, -0.009058846, 2.63391423  , 1.75        , 3           , 12          , 0.0411266759, 0
-0.07505735 , 0.0901347846, -9.804188   , -0.00365977176, -0.000611640862, -0.0002480803, -0.224214643, -0.1311177  , 0.454159349 , -0.009817571, -0.009064986, 2.63391185  , 1.76        , 3           , 50          , 0           , 0
-0.113971174, 0.0874883   , -9.820768   , 0.00281824986, 0.00309263635, 0.000352925039, -0.2240124  , -0.1311177  , 0.454226762 , -0.0097894175, -0.009034027, 2.63391519  , 1.77        , 3           , 11          , 0.008276484 , 0.00827648
-0.124729834, 0.09529148  , -9.822626   , 0.00226692087, 0.000554735 , 0.00204161066, -0.224079818, -0.131252527, 0.454226762 , -0.00976693351, -0.009028281, 2.63393521  , 1.78        , 3           , 12          , 0.0411266759, 0
-0.0949500352, 0.0903928652, -9.811571   , 1.59591582E-05, -0.00143150648, -0.00023226194, -0.224079818, -0.131252527, 0.454226762 , -0.009766754, -0.009042618, 2.63393331  , 1.79        , 3           , 50          , 0           , 0
-0.0797378644, 0.0905105844, -9.765803   , -0.00217490178, -0.000108687425, -0.00250227563, -0.224079818, -0.131185114, 0.454091936 , -0.009690687, -0.00913251 , 2.63390756  , 1.8         , 3           , 11          , 0.008232555 , 0.008232544
-0.08334939 , 0.08743738  , -9.7785     , 0.0009352338, -0.0006508048, -0.0013585072, -0.224214643, -0.131387353, 0.454226762 , -0.009681211, -0.009139149, 2.63389421  , 1.81        , 3           , 12          , 0.0418736   , 0
-0.08034389 , 0.10995701  , -9.776575   , 0.005173268 , -0.0006221474, 0.00148662156, -0.223944992, -0.131252527, 0.453889728 , -0.009629615, -0.009145226, 2.63390851  , 1.82        , 3           , 50          , 0           , 0
-0.05699049 , 0.08765431  , -9.800445   , 0.000372337963, -0.000654615345, 0.00202930858, -0.223944992, -0.131252527, 0.453889728 , -0.00962607749, -0.009151577, 2.63392949  , 1.83        , 3           , 11          , 0.008232555 , 0.008232544
-0.0864494145, 0.09065533  , -9.78529    , -0.000183321477, -0.00291096512, -0.00136724638, -0.22414723 , -0.131050289, 0.454294175 , -0.009627788, -0.009180816, 2.63391614  , 1.84        , 3           , 12          , 0.0418736   , 0
-0.06981126 , 0.0863484   , -9.770266   , 0.000645837 , 0.000755110639, -0.00135765446, -0.2240124  , -0.131185114, 0.4543616   , -0.009621204, -0.009173396, 2.63390183  , 1.85        , 3           , 50          , 0           , 0
-0.08321111 , 0.0929056257, -9.794747   , 0.00148770469, 0.00188710191, -0.00106943049, -0.224079818, -0.131185114, 0.454226762 , -0.009606227, -0.009154629, 2.63389134  , 1.86        , 3           , 11          , 0.008232555 , 0.008232544
-0.09786372 , 0.07866004  , -9.801247   , 0.000358813035, 0.00187946588, 0.000337988953, -0.224079818, -0.131185114, 0.454226762 , -0.009602668, -0.009135802, 2.63389421  , 1.87        , 3           , 12          , 0.0418736   , 0
-0.07394728 , 0.112161011 , -9.783298   , -0.00131934613, -0.0015107767, -0.000240194582, -0.223877579, -0.13131994 , 0.454294175 , -0.00961584 , -0.009150933, 2.6338923   , 1.88        , 3           , 50          , 0           , 0
-0.101620346, 0.09592722  , -9.823802   , -0.002718771, -0.00405441131, 3.18525854E-05, -0.2240124  , -0.131185114, 0.4543616   , -0.009643035, -0.009191472, 2.63389277  , 1.89        , 3           , 11          , 0.008232555 , 0.008232544
-0.109572969, 0.08866915  , -9.785023   , -0.00130472169, -0.00174202013, -0.00108786509, -0.22414723 , -0.13131994 , 0.454226762 , -0.009637898, -0.009142649, 2.63388181  , 1.9         , 3           , 12          , 0.04264854  , 0
-0.102279559, 0.08907002  , -9.79536152 , 0.00206521037, 0.00222281227, -0.00050091173, -0.22414723 , -0.13131994 , 0.454226762 , -0.009617197, -0.009120472, 2.633877    , 1.91        , 3           , 50          , 0           , 0
-0.09029527 , 0.108296558 , -9.784794   , 0.0014956852, 0.003063685 , -0.00134985615, -0.2240124  , -0.131050289, 0.454091936 , -0.009602115, -0.009089964, 2.63386273  , 1.92        , 3           , 11          , 0.008176737 , 0.008176728
-0.0862688  , 0.09794328  , -9.806049   , -0.000179937939, -0.0006081168, 4.92882064E-05, -0.223944992, -0.131050289, 0.454294175 , -0.00960391853, -0.009096041, 2.63386369  , 1.93        , 3           , 12          , 0.04264854  , 0
-0.08306813 , 0.09971673  , -9.807825   , -0.00102106424, -0.002021676, -0.00136951939, -0.2240124  , -0.1311177  , 0.454226762 , -0.009614007, -0.009116389, 2.63385034  , 1.94        , 3           , 50          , 0           , 0
-0.117039531, 0.09831988  , -9.810803   , -0.000193551692, 0.00220753578, 0.000618702557, -0.2240124  , -0.1311177  , 0.454226762 , -0.009615997, -0.009094255, 2.633856    , 1.95        , 3           , 11          , 0.008176737 , 0.008176728
-0.112781353, 0.114042684 , -9.804831   , 8.91271047E-05, 0.0019278751, -0.00135817658, -0.224079818, -0.1311177  , 0.454226762 , -0.009614981, -0.009075107, 2.63384271  , 1.96        , 3           , 12          , 0.04264854  , 0
-0.09555681 , 0.08893436  , -9.778587   , 0.00150781614, 0.00081116904, 0.000341896957, -0.2240124  , -0.131050289, 0.454294175 , -0.009599932, -0.009066962, 2.63384557  , 1.97        , 3           , 50          , 0           , 0
-0.10161946 , 0.07725538  , -9.773258   , 0.00151666964, -0.0008782189, 0.00118690589, -0.223877579, -0.130982876, 0.454159349 , -0.009584874, -0.00907563 , 2.633858    , 1.98        , 3           , 11          , 0.008176737 , 0.008176728
-0.0894380659, 0.09574892  , -9.81331348 , -0.000185840254, 0.0005181419, -0.000514050829, -0.223877579, -0.130982876, 0.454159349 , -0.00958668347, -0.009070499, 2.63385224  , 1.99        , 3           , 12          , 0.04264854  , 0
-0.09599519 , 0.0831487849, -9.800761   , -0.00216230028, -0.0009868869, 3.890434E-05, -0.224282056, -0.130915463, 0.454091936 , -0.009617581, -0.00919523 , 2.6338532   , 2           , 3           , 50          , 0           , 0
-0.102336273, 0.08545325  , -9.793117   , -0.00159916678, -0.000701503537, -0.0005231026, -0.224079818, -0.130982876, 0.454091936 , -0.009633524, -0.009202293, 2.63384843  , 2.01        , 3           , 11          , 0.008112699 , 0.008112689
-0.10899473 , 0.09188993  , -9.805345   , -0.000742454547, -0.00266673067, -0.00108726439, -0.22414723 , -0.130982876, 0.454159349 , -0.009640851, -0.009229065, 2.63383746  , 2.02        , 3           , 12          , 0.0434496626, 0
-0.113167152, 0.0914125443, -9.783231   , 0.00178396411, 0.0007292462, 0.001190095 , -0.22414723 , -0.130982876, 0.454159349 , -0.009623119, -0.009221657, 2.63384938  , 2.03        , 3           , 50          , 0           , 0
-0.0766135156, 0.114911914 , -9.786922   , -0.00159875164, -0.0009830733, -0.00221876148, -0.2240124  , -0.130982876, 0.454024523 , -0.009638904, -0.009231702, 2.63382745  , 2.04        , 3           , 11          , 0.008112699 , 0.008112689
-0.0922823  , 0.09478479  , -9.785318   , -0.00328471116, -0.00240235054, 0.00059654197, -0.22414723 , -0.1311177  , 0.4543616   , -0.009671808, -0.009255669, 2.63383317  , 2.05        , 3           , 12          , 0.0434496626, 0
-0.1009224  , 0.0899458   , -9.792183   , 0.00263731  , -0.00039128185, 0.0020399224, -0.22414723 , -0.131185114, 0.454226762 , -0.009645625, -0.009259383, 2.63385367  , 2.06        , 3           , 50          , 0           , 0
-0.08010852 , 0.08299449  , -9.810132   , 0.00236226828, -0.002082587, 0.000340777042, -0.22414723 , -0.131185114, 0.454226762 , -0.009622035, -0.009280176, 2.633857    , 2.07        , 3           , 11          , 0.008112699 , 0.008112689
-0.08772993 , 0.08493179  , -9.822839   , 0.0009409543, -0.000402750273, -0.00107589131, -0.224079818, -0.131185114, 0.454024523 , -0.009612525, -0.009284307, 2.63384652  , 2.08        , 3           , 12          , 0.0434496626, 0
-0.08399367 , 0.0979257748, -9.808744   , 0.0017949529, -0.00152327528, 0.000904086046, -0.224214643, -0.1311177  , 0.4543616   , -0.009594661, -0.00929945149, 2.633856    , 2.09        , 3           , 50          , 0           , 0
-0.08111066 , 0.12123885  , -9.774275   , -0.00187276583, 0.0009772669, -0.00165218953, -0.224079818, -0.131185114, 0.4543616   , -0.009587811, -0.009302244, 2.633839    , 2.1         , 3           , 11          , 0.00803666  , 0.008036654
-0.08278249 , 0.09555884  , -9.78027    , 0.002657957 , -0.00152626238, -0.002765174, -0.224079818, -0.131185114, 0.4543616   , -0.009560973, -0.00931777 , 2.63381124  , 2.11        , 3           , 12          , 0.04427522  , 0
-0.0924121  , 0.08307451  , -9.791243   , 0.002934556 , -0.000116521507, -0.000783924945, -0.2240124  , -0.13131994 , 0.454091936 , -0.009531555, -0.009319009, 2.63380361  , 2.12        , 3           , 50          , 0           , 0
-0.08114792 , 0.106032752 , -9.814113   , 0.0017974634, 0.00156523369, 0.0009086355, -0.223877579, -0.130982876, 0.454159349 , -0.009513663, -0.009303271, 2.63381267  , 2.13        , 3           , 11          , 0.00803666  , 0.008036654
-0.112716854, 0.0829245448, -9.80993    , -0.00102483272, 0.000983    , -0.000518088869, -0.2240124  , -0.13131994 , 0.454294175 , -0.009523862, -0.009293491, 2.63380742  , 2.14        , 3           , 12          , 0.04427522  , 0
-0.08376099 , 0.08256621  , -9.804286   , 0.00294004288, -0.0009612105, 0.00147507293, -0.2240124  , -0.13131994 , 0.454294175 , -0.0094946  , -0.009302964, 2.6338222   , 2.15        , 3           , 50          , 0           , 0
-0.09293523 , 0.0812374353, -9.779956   , 0.002364779 , 0.001005922 , 0.000345326553, -0.2240124  , -0.1311177  , 0.454159349 , -0.009470983, -0.009292871, 2.63382554  , 2.16        , 3           , 11          , 0.00803666  , 0.008036654
-0.0886510238, 0.0943032056, -9.788908   , -0.001586246, 0.000416052964, 0.0006085592, -0.2240124  , -0.13084805 , 0.454226762 , -0.009486902, -0.009288652, 2.63383174  , 2.17        , 3           , 12          , 0.04427522  , 0
-0.09080891 , 0.09396936  , -9.816045   , 0.00151905522, 0.0007186277, 0.000623479369, -0.223944992, -0.13084805 , 0.454226762 , -0.009471769, -0.009281411, 2.633838    , 2.18        , 3           , 50          , 0           , 0
-0.10318663 , 0.0819378346, -9.817997   , 0.000109545988, 0.000145947037, 0.000333489268, -0.223944992, -0.13084805 , 0.454226762 , -0.009470704, -0.009279917, 2.6338408   , 2.19        , 3           , 11          , 0.00803666  , 0.008036654
-0.0943824  , 0.102085724 , -9.802027   , -0.000139441167, -0.0010001401, 0.0006125729, -0.224214643, -0.131185114, 0.454024523 , -0.009431116, -0.009316404, 2.633847    , 2.2         , 3           , 12          , 0.04512355  , 0
-0.1000625  , 0.0912372246, -9.776804   , 0.000417300471, 0.0004114997, -0.0013603858, -0.224282056, -0.130915463, 0.454429    , -0.009426816, -0.009312419, 2.63383317  , 2.21        , 3           , 50          , 0           , 0
-0.08661018 , 0.08249076  , -9.772217   , 0.00183484762, -0.0007052114, -0.00163807441, -0.224282056, -0.131185114, 0.454159349 , -0.009408316, -0.009319625, 2.633817    , 2.22        , 3           , 11          , 0.007954219 , 0.00795421
-0.07895973 , 0.109515607 , -9.78425    , 0.00155832293, -0.00183338043, -0.00107605208, -0.2240124  , -0.131252527, 0.454159349 , -0.009392633, -0.009338058, 2.63380647  , 2.23        , 3           , 12          , 0.04512355  , 0
-0.06868234 , 0.131079614 , -9.791766   , -0.000144112622, -0.000155447167, -0.000233737577, -0.2240124  , -0.131252527, 0.454159349 , -0.009394053, -0.009339634, 2.63380456  , 2.24        , 3           , 50          , 0           , 0
-0.06590445 , 0.103051379 , -9.785986   , 0.00100634154, -0.004371284, -0.000517516339, -0.224214643, -0.131050289, 0.454429    , -0.009383944, -0.009383393, 2.63379979  , 2.25        , 3           , 11          , 0.007954219 , 0.00795421
-0.06639378 , 0.09900993  , -9.790074   , -0.001260458, -0.00269716862, 0.00116977654, -0.224079818, -0.131050289, 0.454091936 , -0.009396662, -0.009410254, 2.63381124  , 2.26        , 3           , 12          , 0.04512355  , 0
-0.0787200257, 0.09103727  , -9.791557   , -0.000697977433, -0.00241178856, -0.0005223804, -0.224079818, -0.131252527, 0.4539571   , -0.009403595, -0.009434422, 2.63380647  , 2.27        , 3           , 50          , 0           , 0
-0.09785934 , 0.0795563   , -9.799435   , -0.00297207339, 0.0006701507, 0.000602007145, -0.224079818, -0.131252527, 0.4539571   , -0.00943337 , -0.009427663, 2.63381219  , 2.28        , 3           , 11          , 0.007954219 , 0.00795421
-0.0827294961, 0.09917257  , -9.78161049 , 0.0007066973, -0.0009944156, -0.00136123854, -0.223877579, -0.130982876, 0.454024523 , -0.009426175, -0.009437734, 2.63379884  , 2.29        , 3           , 12          , 0.04512355  , 0
-0.0835327655, 0.09881974  , -9.807834   , -0.001021841, -0.001200221, -0.000520775, -0.224214643, -0.131050289, 0.454159349 , -0.009491589, -0.009315472, 2.633794    , 2.3         , 3           , 50          , 0           , 0
-0.102402434, 0.0791507438, -9.797211   , -0.001310422, 0.000205698336, 0.000892764947, -0.22414723 , -0.13131994 , 0.454226762 , -0.00950477552, -0.00931333 , 2.63380361  , 2.31        , 3           , 11          , 0.007865665 , 0.007865654
-0.08437751 , 0.07797535  , -9.778999   , -0.001593991, 0.000203782882, -0.00108631421, -0.22414723 , -0.13131994 , 0.454226762 , -0.00952061452, -0.009311395, 2.63379216  , 2.32        , 3           , 12          , 0.04599308  , 0
-0.0853156149, 0.106898218 , -9.78883    , -0.000741875963, -0.000635179342, 4.64845943E-05, -0.22414723 , -0.13084805 , 0.454091936 , -0.009528038, -0.009317744, 2.633793    , 2.33        , 3           , 50          , 0           , 0
-0.07132459 , 0.10089419  , -9.7964325  , -0.00158792536, -0.000922475, -0.0002404374, -0.223810166, -0.130915463, 0.454091936 , -0.009543896, -0.00932699 , 2.63379073  , 2.34        , 3           , 11          , 0.007865665 , 0.007865654
-0.07003749 , 0.06518662  , -9.78301048 , 0.0018015228, -0.0008995539, 0.000340440543, -0.223877579, -0.130915463, 0.454159349 , -0.009525915, -0.009335953, 2.633794    , 2.35        , 3           , 12          , 0.04599308  , 0
-0.07381948 , 0.08600405  , -9.787924   , 0.0018015228, -0.0008995539, 0.000340440543, -0.223877579, -0.130915463, 0.454159349 , -0.00950793 , -0.009344915, 2.633798    , 2.36        , 3           , 50          , 0           , 0
-0.07657371 , 0.08064934  , -9.79610348 , -0.001027669, 0.00020760989, 0.001459157 , -0.224282056, -0.131252527, 0.454091936 , -0.009518342, -0.0093427  , 2.63381219  , 2.37        , 3           , 11          , 0.007865665 , 0.007865654
-0.0831833556, 0.0951598659, -9.794286   , -0.00101519725, -0.0026080478, -0.00108801969, -0.224282056, -0.130915463, 0.454294175 , -0.009528395, -0.00936888251, 2.6338017   , 2.38        , 3           , 12          , 0.04599308  , 0
-0.101556748, 0.108922914 , -9.797533   , -0.002706229, -0.00346420635, -0.002227373, -0.223810166, -0.130780637, 0.454091936 , -0.009555252, -0.009403737, 2.63377976  , 2.39        , 3           , 50          , 0           , 0
-0.123816833, 0.102874823 , -9.799989   , -0.004395971, -0.00199158955, -0.00110231526, -0.223810166, -0.130780637, 0.454091936 , -0.009581302, -0.009301746, 2.6337688   , 2.4         , 3           , 11          , 0.00777368248, 0.00777367037
-0.08892252 , 0.102489725 , -9.806955   , -0.002140086, -0.00113161141, 3.967175E-05, -0.223944992, -0.13084805 , 0.454226762 , -0.009602709, -0.009313058, 2.63376927  , 2.41        , 3           , 12          , 0.0468823127, 0
-0.07555995 , 0.08831433  , -9.797872   , 0.0006944297, -0.00308346516, 0.000897416 , -0.224079818, -0.130645812, 0.454024523 , -0.009595852, -0.009343805, 2.63377881  , 2.42        , 3           , 50          , 0           , 0
-0.07593964 , 0.0888252258, -9.814144   , 0.00152219413, 0.000864175963, 0.0009074419, -0.2240124  , -0.13084805 , 0.454091936 , -0.009580712, -0.009335079, 2.63378739  , 2.43        , 3           , 11          , 0.00777368248, 0.00777367037
-0.111145228, 0.106737971 , -9.785412   , 0.00123255968, 0.00198851875, -0.00191751414, -0.2240124  , -0.13084805 , 0.454091936 , -0.009568206, -0.009315377, 2.63376832  , 2.44        , 3           , 12          , 0.0468823127, 0
-0.102828279, 0.110348269 , -9.814261   , -0.0007355746, 0.000285760732, -0.00108172372, -0.223944992, -0.1311177  , 0.453889728 , -0.009575461, -0.009312623, 2.63375735  , 2.45        , 3           , 50          , 0           , 0
-0.08865759 , 0.09295884  , -9.791626   , -0.000734017463, 4.19640855E-06, -0.00079962 , -0.2240124  , -0.130780637, 0.454159349 , -0.009582727, -0.009312658, 2.63374925  , 2.46        , 3           , 11          , 0.00777368248, 0.00777367037
-0.08849235 , 0.104697816 , -9.794288   , 0.00153736491, -0.00223304052, 0.0006201312, -0.223944992, -0.13084805 , 0.454091936 , -0.009567413, -0.009334927, 2.633756    , 2.47        , 3           , 12          , 0.0468823127, 0
-0.09092426 , 0.0943222344, -9.786666   , 0.00153720193, -0.00223304122, 0.000337593665, -0.223944992, -0.13084805 , 0.454091936 , -0.009552074, -0.009357224, 2.63375926  , 2.48        , 3           , 50          , 0           , 0
-0.08125008 , 0.101486467 , -9.803737   , 0.00180766091, 2.138535E-05, -0.00107030524, -0.223877579, -0.131050289, 0.453889728 , -0.009533897, -0.009357112, 2.63374829  , 2.49        , 3           , 11          , 0.00777368248, 0.00777367037
-0.102102563, 0.09903317  , -9.806619   , 0.00346628437, -0.00107368256, -0.00191113458, -0.22414723 , -0.131050289, 0.454159349 , -0.00956723653, -0.009335239, 2.63373065  , 2.5         , 3           , 12          , 0.04778986  , 0
-0.09126109 , 0.102455825 , -9.788893   , -0.001631754, 0.00198915857, -0.000234840889, -0.223944992, -0.131050289, 0.454091936 , -0.00958353 , -0.00931537151, 2.63372827  , 2.51        , 3           , 50          , 0           , 0
-0.100200035, 0.1066739   , -9.804312   , -0.004730574, 0.0002787561, -0.0010995433, -0.223944992, -0.131050289, 0.454091936 , -0.009630732, -0.009312689, 2.63371682  , 2.52        , 3           , 11          , 0.00768111832, 0.00768111
-0.107348084, 0.0837010741, -9.791354   , -0.00246042269, -0.0016769151, 0.000603179447, -0.223944992, -0.13084805 , 0.453889728 , -0.009655396, -0.009329399, 2.6337235   , 2.53        , 3           , 12          , 0.04778986  , 0
-0.114681654, 0.08192861  , -9.775599   , -0.00189433841, -0.001954661, 0.000322841865, -0.2240124  , -0.130982876, 0.454024523 , -0.009674371, -0.009348914, 2.63372636  , 2.54        , 3           , 50          , 0           , 0
-0.08094735 , 0.10537672  , -9.754452   , 0.00148084352, 0.000883909466, 0.0003429844, -0.223742753, -0.13084805 , 0.454024523 , -0.009659593, -0.009340044, 2.63373017  , 2.55        , 3           , 11          , 0.00768111832, 0.00768111
-0.0832133442, 0.100045405 , -9.77121449 , 0.000901071 , 0.00369573548, -0.00135053485, -0.223742753, -0.13084805 , 0.454024523 , -0.009650453, -0.009303217, 2.63371587  , 2.56        , 3           , 12          , 0.04778986  , 0
-0.1035318  , 0.0989916548, -9.789454   , 0.004315033 , -0.00106794562, 0.000635653734, -0.2240124  , -0.131185114, 0.4538223   , -0.00960736349, -0.009313836, 2.63372254  , 2.57        , 3           , 50          , 0           , 0
-0.08484071 , 0.073955074 , -9.789415   , 0.00289978459, -0.0005143669, 6.486189E-05, -0.224282056, -0.131050289, 0.4537549   , -0.009578371, -0.009318972, 2.6337235   , 2.58        , 3           , 11          , 0.00768111832, 0.00768111
-0.0916119  , 0.08431755  , -9.7614     , 0.000631101429, 0.00144131121, 0.000904976449, -0.223810166, -0.131185114, 0.4539571   , -0.009572144, -0.009304471, 2.633732    , 2.59        , 3           , 12          , 0.04778986  , 0
-0.0852193162, 0.078484    , -9.793015   , 0.00374781573, 0.00144522463, 7.159222E-05, -0.223810166, -0.131185114, 0.4539571   , -0.009516546, -0.009319488, 2.633733    , 2.6         , 3           , 50          , 0           , 0
-0.0985406339, 0.09804902  , -9.794844   , 0.000933557341, -0.0008264011, -0.001922811, -0.223877579, -0.131252527, 0.453620076 , -0.00950703 , -0.009327935, 2.633714    , 2.61        , 3           , 11          , 0.007584737 , 0.0075847283
-0.07032202 , 0.108550109 , -9.795487   , 0.00205300283, 0.00171533541, 0.002041887 , -0.223810166, -0.130982876, 0.454091936 , -0.00948669 , -0.009310588, 2.633734    , 2.62        , 3           , 12          , 0.0487144   , 0
-0.07744655 , 0.11721307  , -9.797315   , 0.0012117133, 0.0003017754, 0.000340541534, -0.223877579, -0.130982876, 0.454024523 , -0.009474604, -0.009307538, 2.63373733  , 2.63        , 3           , 50          , 0           , 0
-0.09100582 , 0.09247076  , -9.772661   , -0.000755842659, -0.00168255158, -0.000236789245, -0.2240124  , -0.131050289, 0.4538223   , -0.009482143, -0.009324385, 2.633735    , 2.64        , 3           , 11          , 0.007584737 , 0.0075847283
-0.1082715  , 0.114867628 , -9.79756    , -0.00160198112, -0.001688276, 0.00173702219, -0.2240124  , -0.131050289, 0.4538223   , -0.009498325, -0.009341102, 2.633753    , 2.65        , 3           , 12          , 0.0487144   , 0
-0.09342308 , 0.109260239 , -9.792046   , -0.00160591118, -0.00112515129, -0.000239872155, -0.224079818, -0.131185114, 0.4538223   , -0.00951436348, -0.009352375, 2.6337502   , 2.66        , 3           , 50          , 0           , 0
-0.07681782 , 0.09823143  , -9.790609   , 0.00149881165, -0.000541007554, 0.00118816923, -0.2240124  , -0.130982876, 0.454024523 , -0.009499487, -0.009357673, 2.6337626   , 2.67        , 3           , 11          , 0.007584737 , 0.0075847283
-0.101340532, 0.09399636  , -9.787651   , 0.002618687 , 0.0011560159, -0.00134679663, -0.224079818, -0.131050289, 0.4537549   , -0.009473173, -0.00934624 , 2.63374877  , 2.68        , 3           , 12          , 0.0487144   , 0
-0.104594946, 0.08503776  , -9.795848   , -0.0019075278, 0.0028148517, 0.00032996072, -0.224079818, -0.131050289, 0.4537549   , -0.009492277, -0.009318062, 2.633752    , 2.69        , 3           , 50          , 0           , 0
-0.0719406456, 0.09184019  , -9.785626   , 0.0003322407, -8.86226246E-07, -0.000228682155, -0.223877579, -0.131185114, 0.4539571   , -0.009548402, -0.009345563, 2.6337502   , 2.7         , 3           , 11          , 0.00748809054, 0.00748808449
-0.0930459648, 0.0975885   , -9.811074   , 0.0006176187, -0.0005621056, 5.430414E-05, -0.223944992, -0.1311177  , 0.4539571   , -0.009542232, -0.009351179, 2.63375115  , 2.71        , 3           , 12          , 0.049654685 , 0
-0.08285685 , 0.08567885  , -9.793871   , -0.00247948128, -0.00255407137, -0.0002457569, -0.2240124  , -0.131050289, 0.4538223   , -0.00956700649, -0.009376743, 2.63374877  , 2.72        , 3           , 50          , 0           , 0
-0.07471946 , 0.0860192254, -9.789288   , -0.00191536918, -0.0022686834, 0.0008874606, -0.2240124  , -0.131050289, 0.4538223   , -0.009586245, -0.009399343, 2.63375783  , 2.73        , 3           , 11          , 0.00748809054, 0.00748808449
-0.08462564 , 0.0875198543, -9.798397   , -0.00136691716, 0.001113919 , 0.00146037678, -0.223944992, -0.131185114, 0.4539571   , -0.00960005 , -0.009388064, 2.63377213  , 2.74        , 3           , 12          , 0.049654685 , 0
-0.06965116 , 0.093619734 , -9.786053   , 0.00257943571, 0.002548481 , 0.000350833463, -0.223810166, -0.130982876, 0.454091936 , -0.009574287, -0.009362549, 2.633776    , 2.75        , 3           , 50          , 0           , 0
-0.07664832 , 0.07300092  , -9.802464   , 0.000612294651, 0.000282584166, -0.00192215631, -0.2240124  , -0.13084805 , 0.4538223   , -0.009567983, -0.0093599055, 2.6337564   , 2.76        , 3           , 11          , 0.00748809054, 0.00748808449
-0.10441047 , 0.09500693  , -9.808912   , 0.00229603  , 0.00254656631, -0.00134570815, -0.2240124  , -0.13084805 , 0.4538223   , -0.009544896, -0.00933457 , 2.63374257  , 2.77        , 3           , 12          , 0.049654685 , 0
-0.08637995 , 0.09383606  , -9.792056   , -0.00165106449, 0.00139357243, 0.0008944187, -0.223944992, -0.1311177  , 0.4538223   , -0.009561488, -0.009320551, 2.63375115  , 2.78        , 3           , 50          , 0           , 0
-0.0854655057, 0.09829612  , -9.779827   , 0.00145170069, 0.001977707 , -0.00106798939, -0.223944992, -0.131050289, 0.454024523 , -0.009546871, -0.00930087548, 2.63374066  , 2.79        , 3           , 11          , 0.00748809054, 0.00748808449
-0.07997962 , 0.0960431   , -9.799682   , 0.004006047 , 0.001466921 , -0.0004916845, -0.2240124  , -0.130915463, 0.4537549   , -0.009489373, -0.009221134, 2.63373542  , 2.8         , 3           , 12          , 0.05060956  , 0
-0.08826318 , 0.08710366  , -9.796165   , 0.000615279656, 0.002007137 , 0.00147114252, -0.2240124  , -0.130915463, 0.4537549   , -0.009483355, -0.009200924, 2.6337502   , 2.81        , 3           , 50          , 0           , 0
-0.100403562, 0.0935648158, -9.796684   , 0.00232649432, -0.00164175639, -0.00106943434, -0.223944992, -0.130982876, 0.4538223   , -0.009459992, -0.009217442, 2.63373971  , 2.82        , 3           , 11          , 0.007392006 , 0.00739200041
-0.07762577 , 0.07161427  , -9.78937    , 0.00203324156, 0.0006088559, -0.0005022048, -0.223944992, -0.130713224, 0.4539571   , -0.009439612, -0.009211402, 2.633734    , 2.83        , 3           , 12          , 0.05060956  , 0
-0.06577348 , 0.07868239  , -9.785634   , -0.0005185208, 0.00256262114, -0.000793557265, -0.223877579, -0.130982876, 0.4536875   , -0.009444722, -0.009185851, 2.63372636  , 2.84        , 3           , 50          , 0           , 0
-0.06821382 , 0.102148443 , -9.777872   , 0.000330316776, 0.00228678668, -0.0005075028, -0.223877579, -0.130982876, 0.4536875   , -0.009441371, -0.009163034, 2.63372064  , 2.85        , 3           , 11          , 0.007392006 , 0.00739200041
-0.0734560639, 0.108616047 , -9.804099   , -0.00191720435, -0.000262581947, -0.00165209349, -0.224079818, -0.130982876, 0.4537549   , -0.009460392, -0.009165814, 2.63370442  , 2.86        , 3           , 12          , 0.05060956  , 0
-0.06357352 , 0.0728014261, -9.788806   , 0.00259547075, 0.001175807 , -0.000216165587, -0.224079818, -0.13084805 , 0.4539571   , -0.009434416, -0.009154077, 2.63370252  , 2.87        , 3           , 50          , 0           , 0
-0.06789852 , 0.09265836  , -9.774745   , 0.00118645071, 0.000603128341, 0.000341456558, -0.223944992, -0.13084805 , 0.4538223   , -0.00942258351, -0.009148014, 2.63370538  , 2.88        , 3           , 11          , 0.007392006 , 0.00739200041
-0.09010349 , 0.08040604  , -9.810671   , -0.00106959755, -0.0002568505, -0.00108306785, -0.223944992, -0.13084805 , 0.4538223   , -0.009433179, -0.009150683, 2.633695    , 2.89        , 3           , 12          , 0.05060956  , 0
-0.09174457 , 0.09618735  , -9.80157852 , -0.00161827065, 0.00178781978, -0.0007996676, -0.22367534 , -0.131252527, 0.453889728 , -0.009399877, -0.008984192, 2.63368583  , 2.9         , 3           , 50          , 0           , 0
-0.103602685, 0.0913462639, -9.796719   , -0.000219008783, 0.004331454 , -0.00135425257, -0.224214643, -0.130915463, 0.453889728 , -0.009401943, -0.008941007, 2.633672    , 2.91        , 3           , 11          , 0.00729606347, 0.007296063
-0.07978183 , 0.07886985  , -9.792519   , -0.0007703376, 0.00179355266, 0.0003344329, -0.223877579, -0.130982876, 0.4537549   , -0.00940967351, -0.008923041, 2.63367486  , 2.92        , 3           , 12          , 0.05157793  , 0
-0.0964497  , 0.07824284  , -9.816153   , 0.0003656872, 0.000393364229, -0.0007926187, -0.223877579, -0.130982876, 0.4537549   , -0.009405945, -0.008919182, 2.63366723  , 2.93        , 3           , 50          , 0           , 0
-0.09422585 , 0.0795228556, -9.802119   , 0.00177691691, 0.0006844814, 6.20120845E-05, -0.223877579, -0.130780637, 0.453620076 , -0.00938818 , -0.008912332, 2.63366771  , 2.94        , 3           , 11          , 0.00729606347, 0.007296063
-0.08687681 , 0.07952246  , -9.827373   , 0.00179069384, -0.00213116966, -0.0002248645, -0.223944992, -0.130915463, 0.4539571   , -0.009370256, -0.008933663, 2.6336658   , 2.95        , 3           , 12          , 0.05157793  , 0
-0.08826436 , 0.0804074556, -9.817437   , -0.00103078666, -0.0027134  , -0.0002389017, -0.223944992, -0.131050289, 0.4538223   , -0.009380545, -0.008960818, 2.63366342  , 2.96        , 3           , 50          , 0           , 0
-0.09210582 , 0.09894493  , -9.81513    , 0.00149457878, 0.000401000172, -0.00220003841, -0.223944992, -0.131050289, 0.4538223   , -0.009365402, -0.008957014, 2.63364148  , 2.97        , 3           , 11          , 0.00729606347, 0.007296063
-0.08286181 , 0.0865675658, -9.7898     , -0.000484544376, 0.0009507636, -0.00107823918, -0.223944992, -0.13084805 , 0.4536875   , -0.009370151, -0.008947607, 2.633631    , 2.98        , 3           , 12          , 0.05157793  , 0
-0.09991973 , 0.09269197  , -9.80708    , 0.00149711478, 0.000119440563, -0.000222709947, -0.223944992, -0.130982876, 0.4539571   , -0.009355159, -0.00894643553, 2.63362861  , 2.99        , 3           , 50          , 0           , 0
-0.09670222 , 0.129666567 , -9.810517   , 0.00209121313, -0.00016649632, 0.0006267607, -0.223944992, -0.13084805 , 0.454024523 , -0.009280025, -0.008964289, 2.63363433  , 3           , 3           , 11          , 0.0072008837, 0.0072008837
-0.08580644 , 0.09571397  , -9.815547   , 0.000111110967, 0.000383262523, 5.333503E-05, -0.223944992, -0.13084805 , 0.454024523 , -0.009278919, -0.008960452, 2.63363481  , 3.01        , 3           , 12          , 0.0525587834, 0
-0.105227873, 0.06570404  , -9.814012   , -0.00130167557, 0.000373709539, -0.0010833994, -0.223944992, -0.130915463, 0.4537549   , -0.009291839, -0.008956816, 2.63362432  , 3.02        , 3           , 50          , 0           , 0
-0.08452252 , 0.0582184233, -9.807105   , -0.00242548063, -0.000760189, -0.000525327865, -0.224282056, -0.130713224, 0.4539571   , -0.009316048, -0.008964466, 2.63361859  , 3.03        , 3           , 11          , 0.0072008837, 0.0072008837
-0.0819478855, 0.0852246359, -9.796125   , -0.000185834157, 0.003478572 , 0.001469479 , -0.223877579, -0.130915463, 0.4538223   , -0.009318033, -0.008929544, 2.63363338  , 3.04        , 3           , 12          , 0.0525587834, 0
-0.106167436, 0.105338164 , -9.788996   , -0.00101302017, -0.0007506376, 4.63315373E-05, -0.223877579, -0.130915463, 0.4538223   , -0.009328168, -0.008937046, 2.63363385  , 3.05        , 3           , 50          , 0           , 0
-0.09193814 , 0.08397906  , -9.793495   , -0.00241441722, -0.00273113837, 0.00173193438, -0.223877579, -0.13084805 , 0.453620076 , -0.009352469, -0.008964195, 2.63365149  , 3.06        , 3           , 11          , 0.0072008837, 0.0072008837
-0.08896357 , 0.102456465 , -9.797012   , -0.00100433 , -0.0024400265, 0.000608802948, -0.224079818, -0.131050289, 0.454024523 , -0.00936257 , -0.008988537, 2.63365769  , 3.07        , 3           , 12          , 0.0525587834, 0
-0.07993442 , 0.09920418  , -9.800572   , 0.00179821253, 0.00180254527, -0.0007842059, -0.224079818, -0.13084805 , 0.453889728 , -0.009344516, -0.008970584, 2.63365     , 3.08        , 3           , 50          , 0           , 0
-0.068511866, 0.107188992 , -9.799548   , 0.001247462 , -0.00101692462, -0.00050864165, -0.22414723 , -0.13084805 , 0.4536875   , -0.009331995, -0.0089808  , 2.63364482  , 3.09        , 3           , 11          , 0.0072008837, 0.0072008837
-0.09285423 , 0.08487385  , -9.78807449 , 0.00122843776, 0.000119019467, 5.84420231E-05, -0.22414723 , -0.13084805 , 0.4536875   , -0.009347959, -0.008959756, 2.63364625  , 3.1         , 3           , 12          , 0.0535511561, 0
-0.09327357 , 0.08981613  , -9.780375   , -0.000738213654, -0.00214687479, -0.0013669352, -0.224079818, -0.130915463, 0.4539571   , -0.009355221, -0.008981355, 2.63363242  , 3.11        , 3           , 50          , 0           , 0
-0.104271941, 0.07332217  , -9.801769   , -0.00356166647, -0.00216597039, 3.2582655E-05, -0.2240124  , -0.130713224, 0.454024523 , -0.009390842, -0.00900301 , 2.633633    , 3.12        , 3           , 11          , 0.007107206 , 0.00710720755
-0.1139952  , 0.0852370858, -9.822134   , 0.00206547068, 0.0020957028, -0.000782181858, -0.223742753, -0.131252527, 0.453889728 , -0.009370116, -0.00898212753, 2.63362527  , 3.13        , 3           , 12          , 0.0535511561, 0
-0.09528093 , 0.0989776   , -9.813798   , 0.00236167456, -0.000718038937, -0.00106774177, -0.223742753, -0.131252527, 0.453889728 , -0.009346403, -0.008989407, 2.6336143   , 3.14        , 3           , 50          , 0           , 0
-0.0875916  , 0.10066615  , -9.806048   , 0.0006626054, 0.000115194853, -0.00163941667, -0.223944992, -0.130915463, 0.4538223   , -0.00933963 , -0.008988408, 2.63359761  , 3.15        , 3           , 11          , 0.007107206 , 0.00710720755
-0.08100206 , 0.08926378  , -9.792937   , -0.00272693159, 0.000373845 , 4.04388848E-05, -0.22414723 , -0.130982876, 0.4536875   , -0.00936690252, -0.008984666, 2.63359857  , 3.16        , 3           , 12          , 0.0535511561, 0
-0.08752917 , 0.106965639 , -9.801049   , 0.000380667945, 0.000113287206, -0.00079312094, -0.22367534 , -0.130982876, 0.453889728 , -0.0093630245, -0.008983607, 2.63359046  , 3.17        , 3           , 50          , 0           , 0
-0.08836946 , 0.114617124 , -9.792438   , 0.00235830853, 0.000126660132, 0.000346247281, -0.22367534 , -0.130982876, 0.453889728 , -0.009339472, -0.008982308, 2.6335938   , 3.18        , 3           , 11          , 0.007107206 , 0.00710720755
-0.09526604 , 0.106577635 , -9.792975   , 0.00207506563, 0.00012474625, -0.00106775691, -0.223877579, -0.1311177  , 0.4538223   , -0.009318625, -0.008981161, 2.63358331  , 3.19        , 3           , 12          , 0.0535511561, 0
-0.0674543753, 0.08595079  , -9.794204   , 0.00345864287, -0.00241775834, -0.002194952, -0.223944992, -0.131050289, 0.4538223   , -0.009369477, -0.00904358551, 2.63356233  , 3.2         , 3           , 50          , 0           , 0
-0.0855224952, 0.0790568739, -9.827818   , 0.000346772169, -0.00103093393, 0.000900643354, -0.223810166, -0.131185114, 0.4538223   , -0.00936609 , -0.0090538105, 2.63357186  , 3.21        , 3           , 11          , 0.007015278 , 0.00701528043
-0.09048423 , 0.09475294  , -9.78214    , 0.004007332 , 0.001246417 , 0.00120377261, -0.223810166, -0.131185114, 0.4538223   , -0.009326125, -0.009041232, 2.63358331  , 3.22        , 3           , 12          , 0.054554157 , 0
-0.07114822 , 0.08504264  , -9.779772   , 0.0014681156, 0.000666096341, 0.0009085147, -0.2240124  , -0.1311177  , 0.4536875   , -0.009311524, -0.009034487, 2.63359284  , 3.23        , 3           , 50          , 0           , 0
-0.08077261 , 0.1046256   , -9.799652   , -0.000787443365, -0.000193880172, 0.000331602467, -0.2240124  , -0.13084805 , 0.4538223   , -0.009319429, -0.009036396, 2.63359571  , 3.24        , 3           , 11          , 0.007015278 , 0.00701528043
-0.08932878 , 0.10744258  , -9.802418   , 0.002887635 , -0.00101374893, -0.0007827289, -0.223810166, -0.131050289, 0.4538223   , -0.009290483, -0.009046605, 2.633588    , 3.25        , 3           , 12          , 0.054554157 , 0
-0.0861410946, 0.11188364  , -9.792432   , 0.000622644147, 9.72316338E-05, -0.0007915286, -0.223810166, -0.131050289, 0.4538223   , -0.009284184, -0.009045706, 2.63358045  , 3.26        , 3           , 50          , 0           , 0
-0.1002518  , 0.102168441 , -9.806139   , 0.00429747  , -0.0004410666, 7.23359E-05 , -0.224079818, -0.1311177  , 0.4536875   , -0.009241217, -0.009050111, 2.6335814   , 3.27        , 3           , 11          , 0.007015278 , 0.00701528043
-0.08910936 , 0.0867160559, -9.811994   , 0.002042816 , -0.00158261054, -0.00135262241, -0.224079818, -0.130780637, 0.453889728 , -0.009220666, -0.009066061, 2.63356757  , 3.28        , 3           , 12          , 0.054554157 , 0
-0.0865897238, 0.07224128  , -9.810226   , 0.00061525905, 0.00178662676, 0.0009062997, -0.2240124  , -0.13084805 , 0.4536875   , -0.009214595, -0.009048112, 2.63357663  , 3.29        , 3           , 50          , 0           , 0
-0.101425208, 0.08276898  , -9.803064   , -0.001936118, 8.522394E-05, -0.001650741, -0.2240124  , -0.13084805 , 0.4536875   , -0.009269703, -0.00903609 , 2.63356042  , 3.3         , 3           , 11          , 0.006925473 , 0.00692547252
-0.08121656 , 0.073914066 , -9.78984    , 0.000898560858, -0.001866629, -0.000510459067, -0.2240124  , -0.130915463, 0.4537549   , -0.009260673, -0.009054803, 2.63355565  , 3.31        , 3           , 12          , 0.05556695  , 0
-0.0852580443, 0.07398912  , -9.798006   , 0.000886014837, 0.0006674568, -0.0005065536, -0.2240124  , -0.130713224, 0.453889728 , -0.009251766, -0.009048179, 2.63355041  , 3.32        , 3           , 50          , 0           , 0
-0.08132011 , 0.100090683 , -9.791088   , -0.0008011609, -0.00103339809, -0.002212284, -0.223810166, -0.130982876, 0.4538223   , -0.009259578, -0.009058715, 2.63352847  , 3.33        , 3           , 11          , 0.006925473 , 0.00692547252
-0.0929608  , 0.07943131  , -9.7795105  , 0.002853245 , 0.00265178247, -0.000494297536, -0.223810166, -0.130982876, 0.4538223   , -0.009230998, -0.009032242, 2.63352323  , 3.34        , 3           , 12          , 0.05556695  , 0
-0.120391294, 0.0888360441, -9.796857   , 0.000340099039, -0.00299670524, 0.0008978586, -0.223810166, -0.131185114, 0.4536875   , -0.009227683, -0.009062125, 2.63353276  , 3.35        , 3           , 50          , 0           , 0
-0.0842668861, 0.119055085 , -9.784703   , 0.00202064565, -0.000451166648, -0.00163317169, -0.2240124  , -0.13084805 , 0.4538223   , -0.009207328, -0.009066789, 2.63351655  , 3.36        , 3           , 11          , 0.006925473 , 0.00692547252
-0.09253594 , 0.107002936 , -9.79476    , 0.0009015121, -0.002429758, -0.0002287894, -0.223810166, -0.130982876, 0.4539571   , -0.009198292, -0.009091106, 2.63351417  , 3.37        , 3           , 12          , 0.05556695  , 0
-0.0932089239, 0.08897581  , -9.798908   , 0.00201539579, 0.0006750951, -0.00106636086, -0.223810166, -0.130982876, 0.4539571   , -0.009178041, -0.009084452, 2.6335032   , 3.38        , 3           , 50          , 0           , 0
-0.0939428657, 0.09671347  , -9.816056   , 0.000320093561, 0.0009452035, 5.63211761E-05, -0.223877579, -0.130780637, 0.453552663 , -0.009174843, -0.009074997, 2.63350415  , 3.39        , 3           , 11          , 0.006925473 , 0.00692547252
-0.08682275 , 0.094742164 , -9.791604   , 0.00396657828, 0.00123480626, -0.00303390133, -0.2240124  , -0.130982876, 0.4539571   , -0.009184165, -0.009100736, 2.63347459  , 3.4         , 3           , 12          , 0.0565887578, 0
-0.104744069, 0.08000706  , -9.77553    , 0.003695867 , -0.000738049741, 0.000352194067, -0.223810166, -0.13131994 , 0.453889728 , -0.009147239, -0.009108084, 2.633478    , 3.41        , 3           , 50          , 0           , 0
-0.109315075, 0.082257    , -9.757928   , -0.0005575893, 0.00261208019, -0.000227427459, -0.223810166, -0.13131994 , 0.453889728 , -0.009152791, -0.009081985, 2.63347554  , 3.42        , 3           , 11          , 0.0068376367, 0.0068376204
-0.107396826, 0.08589334  , -9.772363   , 0.000305929774, -0.000760973257, -0.00107629644, -0.2240124  , -0.130982876, 0.4538223   , -0.009149634, -0.0090896925, 2.633465    , 3.43        , 3           , 12          , 0.0565887578, 0
-0.0923482254, 0.08625071  , -9.796653   , 0.00340942224, 0.000104736289, 0.000634716533, -0.223944992, -0.131050289, 0.4538223   , -0.009115599, -0.009088587, 2.63347125  , 3.44        , 3           , 50          , 0           , 0
-0.0645825341, 0.101666868 , -9.781462   , 0.00368561968, 0.00123290345, -0.0004923806, -0.223877579, -0.130982876, 0.453889728 , -0.009078696, -0.009076303, 2.633466    , 3.45        , 3           , 11          , 0.0068376367, 0.0068376204
-0.07750186 , 0.118060946 , -9.781041   , 0.0008736457, -0.0010387114, 0.00146874087, -0.223877579, -0.130982876, 0.453889728 , -0.009070095, -0.009086557, 2.63348079  , 3.46        , 3           , 12          , 0.0565887578, 0
-0.08569544 , 0.112318888 , -9.789263   , 0.000873319455, -0.001038713, 0.0009036658, -0.224079818, -0.131050289, 0.4538223   , -0.00906144548, -0.009096863, 2.63348985  , 3.47        , 3           , 50          , 0           , 0
-0.10114488 , 0.1039746   , -9.803426   , -0.00140724261, 0.002887911 , -0.00192616927, -0.224079818, -0.130713224, 0.4539571   , -0.009075338, -0.009068158, 2.63347077  , 3.48        , 3           , 11          , 0.0068376367, 0.0068376204
-0.07177397 , 0.1004559   , -9.79869652 , 0.004522653 , 0.00320958649, -0.00133300468, -0.224079818, -0.130915463, 0.4539571   , -0.009029988, -0.009036184, 2.633457    , 3.49        , 3           , 12          , 0.0565887578, 0
-0.0669575855, 0.08999829  , -9.79192352 , -0.000594304642, -0.00020074693, -0.000231182319, -0.223944992, -0.13084805 , 0.453552663 , -0.009153469, -0.009031682, 2.63345647  , 3.5         , 3           , 50          , 0           , 0
-0.09895846 , 0.06735864  , -9.791359   , -0.000318269565, 0.000927419343, -0.001640817, -0.223944992, -0.13084805 , 0.453552663 , -0.009156503, -0.009022559, 2.6334393   , 3.51        , 3           , 11          , 0.006751641 , 0.00675162068
-0.08863138 , 0.09565817  , -9.789354   , 0.00109164021, 0.001781674 , 0.00175751909, -0.2240124  , -0.130713224, 0.4538223   , -0.009145743, -0.009004583, 2.63345742  , 3.52        , 3           , 12          , 0.0576188453, 0
-0.0791536  , 0.08927277  , -9.801964   , 0.00222684955, 0.000381481368, -0.0007822201, -0.223944992, -0.13084805 , 0.4538223   , -0.009123404, -0.009000838, 2.63344932  , 3.53        , 3           , 50          , 0           , 0
-0.10184595 , 0.08324662  , -9.809393   , 0.000818318862, -0.000191194747, 0.000623014639, -0.2240124  , -0.131050289, 0.453620076 , -0.009115277, -0.009002693, 2.63345551  , 3.54        , 3           , 11          , 0.006751641 , 0.00675162068
-0.0862173662, 0.109590054 , -9.781142   , -0.0008914873, 0.00261299  , -0.00164084742, -0.2240124  , -0.131050289, 0.453620076 , -0.009124043, -0.008976713, 2.63343883  , 3.55        , 3           , 12          , 0.0576188453, 0
-0.07257017 , 0.114838362 , -9.779207   , -0.000885421759, 0.00148673193, -0.0007949706, -0.223944992, -0.130982876, 0.4536875   , -0.009132825, -0.008961921, 2.63343072  , 3.56        , 3           , 50          , 0           , 0
-0.07270664 , 0.0991055146, -9.79645    , 0.00138498179, -0.0007505096, -0.00107044424, -0.223877579, -0.130915463, 0.453889728 , -0.00911888 , -0.008969521, 2.63342023  , 3.57        , 3           , 11          , 0.006751641 , 0.00675162068
-0.0861118138, 0.07850521  , -9.79618549 , 0.00109542161, 0.0006554049, -0.00135212892, -0.223944992, -0.13084805 , 0.4538223   , -0.009107805, -0.008963091, 2.63340688  , 3.58        , 3           , 12          , 0.0576188453, 0
-0.07610799 , 0.08556435  , -9.783424   , 0.000826682837, -0.0018805851, 0.000620411 , -0.223944992, -0.13084805 , 0.4538223   , -0.009099595, -0.00898184 , 2.633413    , 3.59        , 3           , 50          , 0           , 0
-0.0687757358, 0.08555036  , -9.804611   , 0.0010793996, 0.000115481344, -0.002200216, -0.223877579, -0.130713224, 0.4536875   , -0.009132395, -0.008925444, 2.63339162  , 3.6         , 3           , 11          , 0.006669956 , 0.00666993158
-0.08822058 , 0.08669181  , -9.807919   , -0.00174388976, 9.638634E-05, -0.0005181604, -0.223877579, -0.13084805 , 0.454024523 , -0.009149787, -0.008924529, 2.63338637  , 3.61        , 3           , 12          , 0.0586565249, 0
-0.07591967 , 0.090626806 , -9.813231   , -0.003996008, -0.00132671732, 3.42091662E-05, -0.223944992, -0.130780637, 0.453620076 , -0.009189751, -0.008937793, 2.63338685  , 3.62        , 3           , 50          , 0           , 0
-0.0570134334, 0.08942111  , -9.789138   , 0.00135346246, 0.00180678163, -0.00219629565, -0.223944992, -0.130780637, 0.453620076 , -0.009176017, -0.008919927, 2.633365    , 3.63        , 3           , 11          , 0.006669956 , 0.00666993158
-0.08283133 , 0.09507291  , -9.769876   , 0.000221946073, 0.002362277 , -0.000505470438, -0.2240124  , -0.130915463, 0.4536875   , -0.009173752, -0.008896352, 2.63335919  , 3.64        , 3           , 12          , 0.0586565249, 0
-0.0861381739, 0.08071561  , -9.782618   , 0.00277633383, -0.000154619236, -0.0004975234, -0.223944992, -0.130780637, 0.454024523 , -0.009145943, -0.008897943, 2.63335443  , 3.65        , 3           , 50          , 0           , 0
-0.08611857 , 0.106992014 , -9.813695   , -0.000635581848, 0.00432750024, -0.00135399611, -0.223810166, -0.131252527, 0.453620076 , -0.009152176, -0.008854793, 2.6333406   , 3.66        , 3           , 11          , 0.006669956 , 0.00666993158
-0.07207876 , 0.07387427  , -9.809657   , 0.0005156881, 0.000111666886, -0.000225087439, -0.223810166, -0.131252527, 0.453620076 , -0.009146998, -0.008853696, 2.63333821  , 3.67        , 3           , 12          , 0.0586565249, 0
-0.0780395642, 0.109070435 , -9.789218   , 0.00474372646, 0.001829707 , -0.000202729832, -0.223877579, -0.130780637, 0.4537549   , -0.009099542, -0.008835419, 2.63333631  , 3.68        , 3           , 50          , 0           , 0
-0.10476774 , 0.113390006 , -9.773131   , 0.00333487  , 0.00125702925, 0.0006374299, -0.223944992, -0.13084805 , 0.4539571   , -0.009066248, -0.008822794, 2.633342    , 3.69        , 3           , 11          , 0.006669956 , 0.00666993158
-0.08328627 , 0.08704217  , -9.795224   , -0.0006461295, 0.0004000378, -0.00135963177, -0.2240124  , -0.131050289, 0.453889728 , -0.00914651 , -0.00878342 , 2.63332963  , 3.7         , 3           , 12          , 0.05970118  , 0
-0.0952021256, 0.1021659   , -9.82282448 , -0.002905381, 0.00038475878, -0.0010876297, -0.2240124  , -0.131050289, 0.453889728 , -0.009175468, -0.008779672, 2.63331866  , 3.71        , 3           , 50          , 0           , 0
-0.09911006 , 0.0890328139, -9.795337   , 0.000494641 , -0.00156327174, 0.000902898144, -0.224079818, -0.130780637, 0.4536875   , -0.009170601, -0.00879522 , 2.63332772  , 3.72        , 3           , 11          , 0.00658836961, 0.00658835145
-0.09727227 , 0.0948357061, -9.783095   , 0.00247843587, -0.002957728, 0.00062740955, -0.2240124  , -0.130915463, 0.453889728 , -0.009145874, -0.008824739, 2.6333344   , 3.73        , 3           , 12          , 0.05970118  , 0
-0.09778916 , 0.09389638  , -9.770448   , -0.0009261834, 0.000116567411, 0.000333842065, -0.2240124  , -0.130915463, 0.4537549   , -0.009155166, -0.008823543, 2.63333774  , 3.74        , 3           , 50          , 0           , 0
-0.0873086751, 0.09025714  , -9.797955   , -0.000929461, 0.000679695164, -0.0005129023, -0.2240124  , -0.130915463, 0.4537549   , -0.009164415, -0.008816793, 2.63333249  , 3.75        , 3           , 11          , 0.00658836961, 0.00658835145
-0.06770997 , 0.09548924  , -9.811793   , -7.357171E-05, -0.00100396411, -8.774893E-05, -0.223877579, -0.130915463, 0.453620076 , -0.009165144, -0.00882684 , 2.63333154  , 3.76        , 3           , 12          , 0.05970118  , 0
-0.0650024861, 0.0981279761, -9.800914   , 0.0009207801, -0.00198275223, 0.0016105664, -0.223877579, -0.13084805 , 0.453889728 , -0.009156079, -0.00884651951, 2.63334775  , 3.77        , 3           , 50          , 0           , 0
-0.08670842 , 0.100637384 , -9.800618   , 0.000355066266, -0.00184579042, 0.00132561184, -0.2240124  , -0.13084805 , 0.4537549   , -0.009152648, -0.00886485353, 2.63336158  , 3.78        , 3           , 11          , 0.00658836961, 0.00658835145
-0.0770392  , 0.116278253 , -9.78918    , 0.0007696899, -0.000153538262, 0.000200041 , -0.2240124  , -0.13084805 , 0.4537549   , -0.009144968, -0.008866371, 2.63336349  , 3.79        , 3           , 12          , 0.05970118  , 0
-0.0709285662, 0.10486003  , -9.769745   , 0.000437726179, 0.002255393 , -7.958795E-05, -0.22367534 , -0.13084805 , 0.453620076 , -0.009235442, -0.008799519, 2.63336349  , 3.8         , 3           , 50          , 0           , 0
-0.0725233555, 0.08504498  , -9.775715   , 0.00184125127, 0.00395433232, -0.0004942058, -0.223944992, -0.130982876, 0.4538223   , -0.009216982, -0.008760023, 2.63335824  , 3.81        , 3           , 11          , 0.00650945073, 0.006509439
-0.06274864 , 0.09452243  , -9.809952   , 0.00171319954, 0.0012785088, -0.000640255341, -0.2240124  , -0.130645812, 0.453889728 , -0.00919979252, -0.008747297, 2.63335156  , 3.82        , 3           , 12          , 0.0607521869, 0
-0.0613404624, 0.09633225  , -9.816261   , -0.00165455986, -0.00310867117, -0.00108659081, -0.2240124  , -0.130645812, 0.453889728 , -0.009216246, -0.008778484, 2.633341    , 3.83        , 3           , 50          , 0           , 0
-0.0905177742, 0.0871378   , -9.798444   , -0.000664182648, -0.003383549, -0.000234803068, -0.2240124  , -0.130713224, 0.4536875   , -0.009222869, -0.008812338, 2.63333917  , 3.84        , 3           , 11          , 0.00650945073, 0.006509439
-0.08829006 , 0.0835110843, -9.801153   , -0.0008145829, -0.00141354534, 0.000756457157, -0.22414723 , -0.130780637, 0.4539571   , -0.009231083, -0.008826404, 2.6333468   , 3.85        , 3           , 12          , 0.0607521869, 0
-0.09902883 , 0.09043768  , -9.810698   , -0.000539904635, 0.000136972041, 0.0006188919, -0.223810166, -0.13084805 , 0.4537549   , -0.009236537, -0.008824977, 2.633353    , 3.86        , 3           , 50          , 0           , 0
-0.0892304257, 0.0843862146, -9.789857   , 0.000876493054, -0.000698173, 0.0007654436, -0.223810166, -0.13084805 , 0.4537549   , -0.00922784 , -0.00883188751, 2.63336062  , 3.87        , 3           , 11          , 0.00650945073, 0.006509439
-0.0761207342, 0.08600039  , -9.778903   , 0.0007409372, -0.00182538794, 0.000904318062, -0.223810166, -0.130780637, 0.453620076 , -0.009220511, -0.008850057, 2.63336968  , 3.88        , 3           , 12          , 0.0607521869, 0
-0.0847090557, 0.0856668651, -9.783941   , 0.00158256013, -0.000693398062, 0.0007687359, -0.2240124  , -0.130915463, 0.4538223   , -0.00920475647, -0.00885692 , 2.63337779  , 3.89        , 3           , 50          , 0           , 0
-0.0828975439, 0.07850429  , -9.807009   , 2.95371137E-05, -0.000546553056, 0.001326919 , -0.2240124  , -0.131050289, 0.4539571   , -0.009202785, -0.008819246, 2.63339067  , 3.9         , 3           , 11          , 0.006431833 , 0.006431818
-0.0849679857, 0.0631395355, -9.79307652 , -0.000394058967, -0.000690203742, 0.000194576758, -0.2240124  , -0.131050289, 0.4539571   , -0.009206745, -0.008826127, 2.633393    , 3.91        , 3           , 12          , 0.0618090034, 0
-0.100574866, 0.0862844139, -9.778184   , 0.00228493987, 3.185101E-05, -0.0007807086, -0.223810166, -0.1311177  , 0.453889728 , -0.009183825, -0.00882588048, 2.633385    , 3.92        , 3           , 50          , 0           , 0
-0.103400454, 0.102668889 , -9.809777   , 0.00171614892, 0.0008727275, -0.000358234567, -0.2240124  , -0.130713224, 0.4537549   , -0.009166632, -0.00881718751, 2.63338161  , 3.93        , 3           , 11          , 0.006431833 , 0.006431818
-0.101818845, 0.08460762  , -9.811647   , -0.000121879522, 0.00128265936, -0.0006486811, -0.22414723 , -0.130780637, 0.4539571   , -0.009167793, -0.00880442 , 2.63337541  , 3.94        , 3           , 12          , 0.0618090034, 0
-0.06542247 , 0.102177016 , -9.795929   , -0.0006801339, 1.17982836E-05, -8.819281E-05, -0.22367534 , -0.13084805 , 0.453552663 , -0.009174587, -0.00880431 , 2.63337445  , 3.95        , 3           , 50          , 0           , 0
-0.0858329  , 0.09524618  , -9.810577   , -0.002655765, -0.000423922582, -0.001369481, -0.22367534 , -0.13084805 , 0.453552663 , -0.009201025, -0.008808674, 2.63336062  , 3.96        , 3           , 11          , 0.006431833 , 0.006431818
-0.0913710147, 0.08986893  , -9.80250549 , -0.00153962709, 0.00225858437, -0.00192516565, -0.223944992, -0.130915463, 0.4536875   , -0.009216248, -0.008786267, 2.633341    , 3.97        , 3           , 12          , 0.0618090034, 0
-0.08490637 , 0.09837698  , -9.805585   , 0.000306105852, 0.000440830278, -0.0003654701, -0.223877579, -0.13084805 , 0.4538223   , -0.009213155, -0.008781893, 2.63333726  , 3.98        , 3           , 50          , 0           , 0
-0.107556738, 0.101311877 , -9.794447   , 0.0010220944, -0.00152534968, -8.267782E-05, -0.223944992, -0.131252527, 0.4538223   , -0.00920293 , -0.008797154, 2.63333678  , 3.99        , 3           , 11          , 0.006431833 , 0.006431818
-0.118589006, 0.08434409  , -9.809066   , 0.00170939392, 0.000154574154, -7.677919E-05, -0.223944992, -0.131252527, 0.4538223   , -0.009213558, -0.008833597, 2.63333631  , 4           , 3           , 12          , 0.0628711   , 0
-0.0947866142, 0.0772089139, -9.78315    , 0.00072290923, -0.000274458755, -0.0002233081, -0.223944992, -0.131185114, 0.4538223   , -0.00920631 , -0.008836361, 2.6333344   , 4.01        , 3           , 50          , 0           , 0
-0.0873169154, 0.09426761  , -9.783022   , 0.00129481452, -0.00167846365, -8.15751337E-05, -0.22367534 , -0.130915463, 0.453889728 , -0.009193355, -0.008853152, 2.63333344  , 4.02        , 3           , 11          , 0.0063565555, 0.00635653641
-0.08771108 , 0.09030329  , -9.810161   , 0.001721695 , -0.00237951265, -0.0005044908, -0.223877579, -0.130982876, 0.4538223   , -0.009176095, -0.008876993, 2.63332868  , 4.03        , 3           , 12          , 0.0628711   , 0
-0.08505637 , 0.08709669  , -9.8051815  , 0.00214090873, -0.00153195381, -0.0009250198, -0.223877579, -0.130982876, 0.4538223   , -0.009154605, -0.008892396, 2.63331962  , 4.04        , 3           , 50          , 0           , 0
-0.06417976 , 0.0944794044, -9.792335   , 0.00143541256, -0.0015367259, 6.056903E-05, -0.223944992, -0.13084805 , 0.4538223   , -0.009140259, -0.008907758, 2.63332057  , 4.05        , 3           , 11          , 0.0063565555, 0.00635653641
-0.07223873 , 0.104468681 , -9.782864   , 0.00157543947, -0.00139499072, -0.000786168, -0.223810166, -0.13084805 , 0.4538223   , -0.009124435, -0.008921778, 2.63331246  , 4.06        , 3           , 12          , 0.0628711   , 0
-0.06280848 , 0.0993837938, -9.77965    , 0.00100484665, -0.000272551144, -0.00106960372, -0.223877579, -0.130982876, 0.4538223   , -0.009114291, -0.008924601, 2.633302    , 4.07        , 3           , 50          , 0           , 0
-0.07504343 , 0.0963949561, -9.787439   , 0.000298327417, -0.000136542309, -0.000648872752, -0.223877579, -0.130982876, 0.4538223   , -0.00911125 , -0.008926025, 2.6332953   , 4.08        , 3           , 11          , 0.0063565555, 0.00635653641
-0.0889947  , 0.0930578858, -9.819651   , 0.000867199968, -0.0009774184, -0.000930078037, -0.223944992, -0.130982876, 0.4538223   , -0.009102496, -0.008935884, 2.63328671  , 4.09        , 3           , 12          , 0.0628711   , 0
-0.07016899 , 0.08375263  , -9.801918   , 0.000433306035, -0.00208625663, 0.000337931677, -0.223944992, -0.130982876, 0.4539571   , -0.009143543, -0.00890122 , 2.63329053  , 4.1         , 3           , 50          , 0           , 0
-0.09562522 , 0.1146931   , -9.789781   , 0.0002913956, -0.00194642914, 0.000337490172, -0.223810166, -0.1311177  , 0.453889728 , -0.009140662, -0.008920652, 2.63329387  , 4.11        , 3           , 11          , 0.00628332  , 0.006283305
-0.09670187 , 0.105191745 , -9.778528   , 0.00085013936, -0.000675565563, 0.000624614244, -0.223810166, -0.1311177  , 0.453889728 , -0.009132216, -0.00892735 , 2.6333      , 4.12        , 3           , 12          , 0.0639379844, 0
-0.08016244 , 0.08830701  , -9.779827   , 0.00127177022, -0.000250352663, 0.0007685093, -0.223944992, -0.130713224, 0.4536875   , -0.00911956653, -0.00892978348, 2.6333077   , 4.13        , 3           , 50          , 0           , 0
-0.07215666 , 0.112123124 , -9.778312   , -0.000141305674, -0.000119121119, 0.00033833526, -0.223877579, -0.130780637, 0.4537549   , -0.009121008, -0.008930943, 2.63331151  , 4.14        , 3           , 11          , 0.00628332  , 0.006283305
-0.0716538057, 0.104124069 , -9.816308   , 0.00028008048, 0.000306090631, 5.8424077E-05, -0.223810166, -0.13084805 , 0.453889728 , -0.009118213, -0.008927877, 2.63331151  , 4.15        , 3           , 12          , 0.0639379844, 0
-0.08266835 , 0.09609768  , -9.806481   , 0.0005667337, -0.000677480246, -0.0010719276, -0.223810166, -0.13084805 , 0.453889728 , -0.00911245 , -0.008934749, 2.633301    , 4.16        , 3           , 50          , 0           , 0
-0.09335816 , 0.08126694  , -9.78719    , -0.000280013, -0.0008239934, -0.00135863281, -0.223877579, -0.131050289, 0.4536875   , -0.00911513 , -0.008943112, 2.63328767  , 4.17        , 3           , 11          , 0.00628332  , 0.006283305
-0.0817192942, 0.07700335  , -9.767683   , -0.0009908775, 0.000156709779, -0.00121913769, -0.223877579, -0.130713224, 0.453889728 , -0.009124929, -0.008941656, 2.63327527  , 4.18        , 3           , 12          , 0.0639379844, 0
-0.09082804 , 0.09841735  , -9.797044   , -0.00113656209, 0.00114123453, -0.000511933758, -0.223810166, -0.1311177  , 0.453889728 , -0.00913624652, -0.008930291, 2.63327     , 4.19        , 3           , 50          , 0           , 0
-0.0925335  , 0.1052195   , -9.801095   , 0.000548434036, 3.81151949E-05, -0.00135317584, -0.223810166, -0.1311177  , 0.453889728 , -0.009171778, -0.008897254, 2.63325667  , 4.2         , 3           , 11          , 0.00621208875, 0.00621205568
-0.09565557 , 0.08394447  , -9.770472   , 0.000133936439, -0.00179492263, -0.001216703, -0.224349469, -0.130982876, 0.453620076 , -0.009170332, -0.00891531352, 2.63324475  , 4.21        , 3           , 12          , 0.06500919  , 0
-0.08206465 , 0.08111287  , -9.780777   , -0.00169729255, -0.00251124473, 0.00061014574, -0.22367534 , -0.130780637, 0.4536875   , -0.009187361, -0.008940369, 2.633251    , 4.22        , 3           , 50          , 0           , 0
-0.07614295 , 0.07348457  , -9.813757   , -0.000568527, -0.00236282358, 0.000191824351, -0.22367534 , -0.130915463, 0.4537549   , -0.009193066, -0.008963979, 2.63325334  , 4.23        , 3           , 11          , 0.00621208875, 0.00621205568
-0.0860435739, 0.0825776756, -9.799784   , 0.0013950991, 0.000184627977, -0.00120773911, -0.22367534 , -0.130915463, 0.4537549   , -0.009179005, -0.008962244, 2.633241    , 4.24        , 3           , 12          , 0.06500919  , 0
-0.07566821 , 0.113148078 , -9.802289   , -0.000868045, 0.000873259734, -0.00164099608, -0.223944992, -0.131050289, 0.453620076 , -0.009187539, -0.00895366352, 2.63322473  , 4.25        , 3           , 50          , 0           , 0
-0.08016224 , 0.110996887 , -9.8177     , -0.00157546892, 0.001290836 , -0.0003722188, -0.223810166, -0.130780637, 0.454024523 , -0.009203259, -0.008940789, 2.633221    , 4.26        , 3           , 11          , 0.00621208875, 0.00621205568
-0.09072937 , 0.100729056 , -9.813756   , -0.000165796708, 0.00186351757, 0.000200308728, -0.2240124  , -0.130915463, 0.454091936 , -0.009204934, -0.008922136, 2.63322282  , 4.27        , 3           , 12          , 0.06500919  , 0
-0.08642048 , 0.0568302944, -9.790402   , -0.00129152229, 0.0008703956, -0.00136043387, -0.2240124  , -0.130915463, 0.454091936 , -0.009217729, -0.008913558, 2.633209    , 4.28        , 3           , 50          , 0           , 0
-0.09623513 , 0.103858672 , -9.786214   , -0.0005855368, 0.000875170052, -0.00149841025, -0.2240124  , -0.130982876, 0.4537549   , -0.009223449, -0.008904944, 2.63319421  , 4.29        , 3           , 11          , 0.00621208875, 0.00621205568
-0.0919213146, 0.119180225 , -9.795158   , -0.0004525703, 0.00172373711, -8.366128E-05, -0.223877579, -0.130915463, 0.4538223   , -0.009242012, -0.008879338, 2.63319325  , 4.3         , 3           , 12          , 0.06608429  , 0
-0.07484706 , 0.117532551 , -9.767463   , 0.0005450219, 4.10350367E-05, 0.001189763 , -0.223877579, -0.130780637, 0.4539571   , -0.009236668, -0.008878817, 2.63320518  , 4.31        , 3           , 50          , 0           , 0
-0.1082596  , 0.09084849  , -9.766924   , 0.00182213413, -0.00121741323, 0.00105246773, -0.223877579, -0.130780637, 0.4539571   , -0.009218542, -0.008890893, 2.63321567  , 4.32        , 3           , 11          , 0.00614287658, 0.00614284258
-0.103703536, 0.08858644  , -9.78091049 , 0.00152868114, 0.0008924123, 6.552409E-05, -0.223944992, -0.131185114, 0.453620076 , -0.009203261, -0.008881963, 2.63321614  , 4.33        , 3           , 12          , 0.06608429  , 0
-0.0869279057, 0.09376426  , -9.769009   , 0.00180590258, 0.00187979848, -0.0004967151, -0.2240124  , -0.13084805 , 0.4539571   , -0.009185156, -0.008863213, 2.63321137  , 4.34        , 3           , 50          , 0           , 0
-0.09325425 , 0.0907244757, -9.782178   , 0.0005426933, 0.000181809854, -0.00163539487, -0.223810166, -0.130982876, 0.454024523 , -0.009179583, -0.008861545, 2.63319516  , 4.35        , 3           , 11          , 0.00614287658, 0.00614284258
-0.09468217 , 0.08488151  , -9.784021   , 0.00139078964, 0.00018754373, -0.000218756584, -0.223742753, -0.131454766, 0.4537549   , -0.009165655, -0.008859688, 2.6331923   , 4.36        , 3           , 12          , 0.06608429  , 0
-0.07492899 , 0.104968347 , -9.787855   , 0.00111089891, -9.5925956E-05, 0.00175725494, -0.223742753, -0.131454766, 0.4537549   , -0.009154702, -0.008860486, 2.63321042  , 4.37        , 3           , 50          , 0           , 0
-0.0768103451, 0.0982374549, -9.792416   , -0.000443019875, -0.00010643353, 0.0007611306, -0.223944992, -0.131050289, 0.4538223   , -0.009159199, -0.008861481, 2.633218    , 4.38        , 3           , 11          , 0.00614287658, 0.00614284258
-0.07830586 , 0.08921526  , -9.787945   , 0.000389667926, 0.00271494384, -0.0003607291, -0.223877579, -0.130713224, 0.453889728 , -0.009155268, -0.008834365, 2.63321424  , 4.39        , 3           , 12          , 0.06608429  , 0
-0.07381484 , 0.07708081  , -9.817793   , 0.000661909 , 0.0015930488, -0.000360927574, -0.2240124  , -0.131050289, 0.4537549   , -0.009195085, -0.008811243, 2.633211    , 4.4         , 3           , 50          , 0           , 0
-0.0853731  , 0.0997100547, -9.797899   , 0.0005327893, -0.0008012081, 5.85316229E-05, -0.2240124  , -0.131050289, 0.4537549   , -0.009189761, -0.008819249, 2.63321137  , 4.41        , 3           , 11          , 0.0060755536, 0.006075527
-0.114472181, 0.09548885  , -9.783224   , 0.000105337793, -0.000100161895, -0.0005074339, -0.223944992, -0.130915463, 0.453889728 , -0.009188663, -0.0088203  , 2.63320661  , 4.42        , 3           , 12          , 0.06716287  , 0
-0.09985688 , 0.0669287   , -9.794531   , 0.00250047119, 0.00104233355, -0.00035323546, -0.224079818, -0.130915463, 0.4538223   , -0.00916362647, -0.008809907, 2.63320279  , 4.43        , 3           , 50          , 0           , 0
-0.0796875954, 0.08787322  , -9.786605   , 0.00319895265, 0.00259571685, -0.000206287747, -0.223944992, -0.131050289, 0.4539571   , -0.009131617, -0.008783971, 2.633201    , 4.44        , 3           , 11          , 0.0060755536, 0.006075527
-0.0733410046, 0.125670582 , -9.777362   , 0.0006609674, 0.00173383032, -0.000784516858, -0.223944992, -0.131050289, 0.4539571   , -0.00912493747, -0.008766706, 2.63319278  , 4.45        , 3           , 12          , 0.06716287  , 0
-0.0729779452, 0.112648413 , -9.797298   , -0.0005981116, -0.000386496016, 0.001607871 , -0.22414723 , -0.130915463, 0.4538223   , -0.00913106 , -0.008770424, 2.633209    , 4.46        , 3           , 50          , 0           , 0
-0.102287315, 0.08102943  , -9.81935    , -0.0024257293, -0.00194751634, 0.00244453643, -0.224282056, -0.131050289, 0.454159349 , -0.009155533, -0.008789674, 2.63323331  , 4.47        , 3           , 11          , 0.0060755536, 0.006075527
-0.111582167, 0.09782912  , -9.817995   , 0.000119396464, -0.002775026, 0.0009011311, -0.224079818, -0.131050289, 0.4536875   , -0.009154419, -0.008817341, 2.63324285  , 4.48        , 3           , 12          , 0.06716287  , 0
-0.09630139 , 0.09487798  , -9.798907   , 0.000534635561, -0.0012235567, -0.000365925458, -0.224079818, -0.131050289, 0.4536875   , -0.009149043, -0.00882960949, 2.633239    , 4.49        , 3           , 50          , 0           , 0
-0.08266471 , 0.0934225   , -9.815984   , -0.00245034951, -0.0006957028, -0.0006613166, -0.2240124  , -0.130915463, 0.453889728 , -0.00922344 , -0.008882579, 2.63323379  , 4.5         , 3           , 11          , 0.0060104304, 0.00601040572
-0.09655584 , 0.0759251043, -9.797632   , -0.000329323142, -0.00110372214, 0.0006193281, -0.2240124  , -0.131050289, 0.453889728 , -0.00922679 , -0.008893559, 2.63324     , 4.51        , 3           , 12          , 0.06824457  , 0
-0.09268009 , 0.0934956148, -9.802954   , 0.0005272631, -0.00292816362, 0.00104426453, -0.22414723 , -0.130982876, 0.4537549   , -0.009221611, -0.008922743, 2.633251    , 4.52        , 3           , 50          , 0           , 0
-0.08447674 , 0.094782114 , -9.811473   , -0.0007415667, -0.00335910637, 0.00103768741, -0.22414723 , -0.130982876, 0.4537549   , -0.009229124, -0.008956237, 2.63326144  , 4.53        , 3           , 11          , 0.0060104304, 0.00601040572
-0.0807776153, 0.077914685 , -9.773548   , -0.0006042906, -0.00251345523, 0.001463454 , -0.22414723 , -0.131050289, 0.4537549   , -0.0092353  , -0.008981235, 2.63327622  , 4.54        , 3           , 12          , 0.06824457  , 0
-0.0775690451, 0.118006513 , -9.76477    , -0.0008890531, -0.00209301873, 0.00103898172, -0.224079818, -0.131252527, 0.453889728 , -0.009244285, -0.009002068, 2.63328719  , 4.55        , 3           , 50          , 0           , 0
-0.074221015, 0.127487332 , -9.777812   , -0.000759644259, 0.00016045387, -8.703818E-05, -0.224079818, -0.131185114, 0.4537549   , -0.009251875, -0.00900047 , 2.63328624  , 4.56        , 3           , 11          , 0.0060104304, 0.00601040572
-0.07740766 , 0.09187676  , -9.777533   , -0.000196963229, 0.0005866211, -0.00022502213, -0.224079818, -0.131185114, 0.4537549   , -0.009253823, -0.008994625, 2.63328385  , 4.57        , 3           , 12          , 0.06824457  , 0
-0.0962973461, 0.09532762  , -9.798453   , 0.0006523266, 0.000170003 , -0.000362990977, -0.224349469, -0.131185114, 0.453620076 , -0.009247268, -0.008992959, 2.63328     , 4.58        , 3           , 50          , 0           , 0
-0.09847939 , 0.0976522937, -9.811116   , 0.00206064968, 0.000883464 , -0.000920396356, -0.224214643, -0.130915463, 0.4538223   , -0.009226576, -0.00898421 , 2.633271    , 4.59        , 3           , 11          , 0.0060104304, 0.00601040572
-0.08862447 , 0.09744917  , -9.785278   , 0.000349919457, -0.000113037415, -0.000929553644, -0.224349469, -0.130982876, 0.4536875   , -0.009288025, -0.008984089, 2.63326287  , 4.6         , 3           , 12          , 0.0693290159, 0
-0.08603176 , 0.0910678953, -9.775341   , 0.000209484642, -0.000254774583, -0.0007891603, -0.224349469, -0.130982876, 0.4536875   , -0.009285861, -0.008986709, 2.63325477  , 4.61        , 3           , 50          , 0           , 0
-0.08967466 , 0.08841561  , -9.778996   , -0.0006443952, 0.00100653677, -0.00135623349, -0.224416882, -0.131252527, 0.453417838 , -0.00929218251, -0.0089767715, 2.633241    , 4.62        , 3           , 11          , 0.00594667438, 0.00594664644
-0.09277766 , 0.0952019542, -9.773568   , -0.003179882, -0.000277695333, -0.00122876978, -0.224282056, -0.130915463, 0.4536875   , -0.009323871, -0.008979661, 2.63322854  , 4.63        , 3           , 12          , 0.0693290159, 0
-0.08480231 , 0.07800333  , -9.785782   , -0.00092264 , 0.000159931646, -0.00135885226, -0.224282056, -0.130982876, 0.4536875   , -0.009332974, -0.00897819 , 2.63321519  , 4.64        , 3           , 50          , 0           , 0
-0.104933046, 0.0913848951, -9.803508   , 0.0003366763, 0.00256183115, -0.000925431552, -0.224282056, -0.130982876, 0.4536875   , -0.009329523, -0.008952657, 2.63320565  , 4.65        , 3           , 11          , 0.00594667438, 0.00594664644
-0.101836845, 0.08548574  , -9.804413   , 0.0006289354, 0.000874357647, 0.001616119 , -0.224686533, -0.1311177  , 0.453552663 , -0.009323377, -0.00894376449, 2.63322186  , 4.66        , 3           , 12          , 0.0693290159, 0
-0.06429565 , 0.08902931  , -9.781511   , 0.001482081 , -0.000386957545, 0.000911773532, -0.224686533, -0.131050289, 0.45348525  , -0.009308637, -0.008947548, 2.633231    , 4.67        , 3           , 50          , 0           , 0
-0.0623230934, 0.09806584  , -9.791854   , 0.00204402814, 3.92062248E-05, -0.000497628935, -0.224686533, -0.131050289, 0.4536875   , -0.009288153, -0.008947203, 2.63322568  , 4.68        , 3           , 11          , 0.00594667438, 0.00594664644
-0.05752975 , 0.08669683  , -9.782373   , 0.0007816344, -0.00165877829, -0.000223621289, -0.224686533, -0.131050289, 0.4536875   , -0.009280317, -0.00896381 , 2.63322377  , 4.69        , 3           , 12          , 0.0693290159, 0
-0.08003494 , 0.09689098  , -9.783407   , 0.000782393443, -0.00191949285, 0.000623754633, -0.22461912 , -0.13131994 , 0.453350425 , -0.009276126, -0.008917061, 2.63323045  , 4.7         , 3           , 50          , 0           , 0
-0.106421567, 0.08683188  , -9.786363   , 0.000361088954, -0.002344704, 0.00104493438, -0.224686533, -0.131185114, 0.453552663 , -0.009272609, -0.00894041 , 2.633241    , 4.71        , 3           , 11          , 0.00588484  , 0.005884807
-0.106466107, 0.08456402  , -9.782756   , -0.00119443145, -0.00193286187, 0.0008970736, -0.224686533, -0.131252527, 0.45348525  , -0.009284636, -0.008959653, 2.63325047  , 4.72        , 3           , 12          , 0.07041588  , 0
-0.09423434 , 0.0857648849, -9.779946   , -6.84166E-05, -0.00108052429, 0.00175125559, -0.224686533, -0.131252527, 0.45348525  , -0.009285476, -0.008970295, 2.63326764  , 4.73        , 3           , 50          , 0           , 0
-0.099438   , 0.101637095 , -9.785344   , 6.943778E-05, -0.000516442, 0.0007639007, -0.22461912 , -0.131252527, 0.453283    , -0.00928485 , -0.00897538848, 2.63327527  , 4.74        , 3           , 11          , 0.00588484  , 0.005884807
-0.0879132748, 0.114168219 , -9.794696   , -0.000924261461, 0.00046234933, 0.000195735178, -0.224956185, -0.131185114, 0.453620076 , -0.00929411 , -0.008970746, 2.63327718  , 4.75        , 3           , 12          , 0.07041588  , 0
-0.102119677, 0.09857293  , -9.803908   , -0.00176477933, -0.0008104211, 0.0010374441, -0.224753946, -0.13131994 , 0.4537549   , -0.00931185 , -0.008978754, 2.63328767  , 4.76        , 3           , 50          , 0           , 0
-0.104802862, 0.07103241  , -9.790031   , -0.0003448967, -0.00234947866, 0.001182911 , -0.224753946, -0.13131994 , 0.4537549   , -0.009315408, -0.009002139, 2.6333      , 4.77        , 3           , 11          , 0.00588484  , 0.005884807
-0.09890877 , 0.0740941539, -9.781838   , 0.00120086537, -0.000790365448, 0.00133380946, -0.224686533, -0.131252527, 0.45348525  , -0.0093035195, -0.009009916, 2.63331342  , 4.78        , 3           , 12          , 0.07041588  , 0
-0.09744461 , 0.07594934  , -9.801707   , 0.00119327987, 0.000758242852, 0.00147746492, -0.224821359, -0.1311177  , 0.4537549   , -0.009291719, -0.009002197, 2.6333282   , 4.79        , 3           , 50          , 0           , 0
-0.09364    , 0.09569397  , -9.782612   , 0.000498866139, 0.00031349546, 0.0002020225, -0.22461912 , -0.1311177  , 0.4538223   , -0.009253467, -0.009055976, 2.63333058  , 4.8         , 3           , 11          , 0.005824626 , 0.00582459662
-0.107179791, 0.102137811 , -9.773197   , -0.000486142671, -0.000397102121, 0.0001963284, -0.224551708, -0.131387353, 0.453552663 , -0.009258348, -0.009059928, 2.633333    , 4.81        , 3           , 12          , 0.0715048239, 0
-0.0880588442, 0.09619624  , -9.816918   , -0.00132465118, -0.00209222035, 0.0008961177, -0.224551708, -0.131387353, 0.453552663 , -0.009271677, -0.009080767, 2.633342    , 4.82        , 3           , 50          , 0           , 0
-0.09033047 , 0.09844833  , -9.807886   , -5.49984179E-05, -0.00194284553, -8.662033E-05, -0.224686533, -0.131252527, 0.4536875   , -0.009272222, -0.00910020247, 2.63334155  , 4.83        , 3           , 11          , 0.005824626 , 0.00582459662
-0.07820141 , 0.09688786  , -9.788817   , 0.0009229588, 0.000175576686, -0.000220025307, -0.2244843  , -0.13131994 , 0.4539571   , -0.009262972, -0.009098467, 2.63333917  , 4.84        , 3           , 12          , 0.0715048239, 0
-0.09187341 , 0.09340485  , -9.778992   , 0.00233632373, -9.643946E-05, -0.0004964121, -0.224551708, -0.131522179, 0.4536875   , -0.009239562, -0.009099476, 2.6333344   , 4.85        , 3           , 50          , 0           , 0
-0.08797082 , 0.0793804   , -9.78173351 , 0.00135201192, -0.000947819441, -0.00050232315, -0.224551708, -0.131522179, 0.4536875   , -0.009225998, -0.009109001, 2.63332963  , 4.86        , 3           , 11          , 0.005824626 , 0.00582459662
-0.102246843, 0.09043559  , -9.798971   , 0.00077879423, 0.000737751 , -0.0005023534, -0.2244843  , -0.131185114, 0.4537549   , -0.009218165, -0.009101671, 2.633324    , 4.87        , 3           , 12          , 0.0715048239, 0
-0.09222329 , 0.101527862 , -9.778058   , 0.00190407468, 0.00159008487, -0.00091959 , -0.22461912 , -0.130982876, 0.4537549   , -0.009199036, -0.00908585452, 2.63331485  , 4.88        , 3           , 50          , 0           , 0
-0.09390044 , 0.108799309 , -9.787532   , 0.000920993742, 0.000457138958, -0.00120847241, -0.224349469, -0.131050289, 0.4538223   , -0.00918971747, -0.009081394, 2.633303    , 4.89        , 3           , 11          , 0.005824626 , 0.00582459662
-0.0813924149, 0.0955686   , -9.787943   , 0.000769859646, 2.36839478E-05, -0.0002207642, -0.224349469, -0.131050289, 0.4538223   , -0.009223554, -0.009114721, 2.633302    , 4.9         , 3           , 12          , 0.07259556  , 0
-0.0782126337, 0.104466721 , -9.761667   , -0.000216098168, -0.000264560542, 0.0017519549, -0.22414723 , -0.130915463, 0.4538223   , -0.009225875, -0.009117204, 2.63331914  , 4.91        , 3           , 50          , 0           , 0
-0.07417515 , 0.08876616  , -9.802832   , -0.00205142028, -0.0004177591, 0.00131937175, -0.224551708, -0.1311177  , 0.453889728 , -0.009246509, -0.00912126 , 2.63333249  , 4.92        , 3           , 11          , 0.005766019 , 0.00576598244
-0.0799201354, 0.09832305  , -9.806903   , -0.0009194144, -0.0009732516, 0.000476158952, -0.224214643, -0.131185114, 0.4538223   , -0.009255748, -0.009130947, 2.63333726  , 4.93        , 3           , 12          , 0.07259556  , 0
-0.09901646 , 0.0971429646, -9.792139   , 0.0004936614, -0.00110448315, 0.000906333 , -0.224214643, -0.131185114, 0.4538223   , -0.009250896, -0.009141908, 2.63334632  , 4.94        , 3           , 50          , 0           , 0
-0.0845572  , 0.09694867  , -9.784798   , -7.18076553E-05, -0.0009675203, 0.00104518479, -0.224349469, -0.130982876, 0.4537549   , -0.009251709, -0.009151486, 2.63335729  , 4.95        , 3           , 11          , 0.005766019 , 0.00576598244
-0.0674479157, 0.09220493  , -9.775646   , -0.000348984759, -0.002095692, 0.000477057038, -0.224214643, -0.13084805 , 0.4539571   , -0.009255244, -0.009172397, 2.633362    , 4.96        , 3           , 12          , 0.07259556  , 0
-0.07943916 , 0.103696778 , -9.796481   , -0.001480331, -0.00182176812, 4.841706E-05, -0.224079818, -0.131050289, 0.454024523 , -0.009270053, -0.00919061 , 2.63336253  , 4.97        , 3           , 50          , 0           , 0
-0.08050681 , 0.09375638  , -9.788848   , 0.00126150041, 0.000660550257, 0.0007007634, -0.224079818, -0.131050289, 0.454024523 , -0.009257503, -0.00918394048, 2.63336968  , 4.98        , 3           , 11          , 0.005766019 , 0.00576598244
-0.08180627 , 0.06264967  , -9.792603   , 0.00168071385, 0.00150810927, 0.000280234381, -0.224214643, -0.1311177  , 0.454024523 , -0.009240721, -0.00916883349, 2.63337255  , 4.99        , 3           , 12          , 0.07259556  , 0
-0.08614373 , 0.07312315  , -9.805699   , -0.000428180647, -0.0007425606, -0.000580601336, -0.224282056, -0.13084805 , 0.454226762 , -0.00924953 , -0.009121728, 2.63336682  , 5           , 3           , 50          , 0           , 0
-0.109752931, 0.09960793  , -9.816617   , 0.000211357939, -0.00151256588, -0.000155025424, -0.224214643, -0.130982876, 0.454024523 , -0.00924740452, -0.009136868, 2.633365    , 5.01        , 3           , 11          , 0.00570893334, 0.00570889236
-0.1013545  , 0.120245561 , -9.810593   , -0.00150146615, 0.00206592679, -0.00100500672, -0.224214643, -0.130982876, 0.454024523 , -0.009262327, -0.009116302, 2.633355    , 5.02        , 3           , 12          , 0.07368782  , 0
-0.05561812 , 0.09657672  , -9.775085   , -0.00156283 , 0.000305670168, -8.98013241E-05, -0.224282056, -0.13084805 , 0.454159349 , -0.009277946, -0.009113256, 2.633354    , 5.03        , 3           , 50          , 0           , 0
-0.06791354 , 0.0899680853, -9.779728   , -0.00134428462, -0.00110072386, -0.0005147894, -0.224282056, -0.130645812, 0.454159349 , -0.00929134153, -0.009124309, 2.6333487   , 5.04        , 3           , 11          , 0.00570893334, 0.00570889236
-0.08940408 , 0.106488883 , -9.787056   , -0.00028902106, -0.000178471746, 0.0006923436, -0.2240124  , -0.130982876, 0.454091936 , -0.009294298, -0.009126029, 2.63335538  , 5.05        , 3           , 12          , 0.07368782  , 0
-0.108185835, 0.08465937  , -9.804916   , -0.00058224774, 0.0018609619, -0.0005066116, -0.2240124  , -0.130982876, 0.454091936 , -0.009300071, -0.009107467, 2.63335061  , 5.06        , 3           , 50          , 0           , 0
-0.08712839 , 0.104686409 , -9.795632   , 0.00239296583, 0.000121239726, 0.00127036346, -0.223810166, -0.130915463, 0.454024523 , -0.009276256, -0.009106138, 2.633363    , 5.07        , 3           , 11          , 0.00570893334, 0.00570889236
-0.07037472 , 0.112970911 , -9.768351   , 0.00281455973, 0.000405666535, 0.0001426229, -0.22414723 , -0.13084805 , 0.454159349 , -0.009248124, -0.009102067, 2.633365    , 5.08        , 3           , 12          , 0.07368782  , 0
-0.0799154341, 0.09966592  , -9.803734   , 0.0009152339, -0.00115583674, -0.000928168651, -0.22414723 , -0.130713224, 0.454091936 , -0.009238889, -0.009113711, 2.63335538  , 5.09        , 3           , 50          , 0           , 0
-0.066228494, 0.103161007 , -9.817175   , -0.00156967947, -0.00200473657, 0.0004013943, -0.22414723 , -0.130713224, 0.454091936 , -0.009318846, -0.00909064151, 2.63336015  , 5.1         , 3           , 11          , 0.005653437 , 0.00565339345
