Acc X       , Acc Y       , Acc Z       , Gyro X      , Gyro Y      , Gyro Z      , Magn X      , Magn Y      , Magn Z      , Euler X     , Euler Y     , Euler Z     , Time        , Status      , LowRate X   , LowRate Y   , LowRate Z    
0.00534561742, -0.0223327614, -9.782796   , 0.00110842136, -0.0009333155, 0.000317665661, -0.516313851, -0.0568963178, 0.325670749 , 0.00218411349, 7.123253E-05, 3.030482    , 0           , 3           , 11          , 0.0346410163, 0.0346410163
0.006590386 , -0.0246724971, -9.762458   , 0.000817956636, 0.0007541666, 0.000884027337, -0.5165161  , -0.0568289049, 0.325805575 , 0.00219229376, 7.87548342E-05, 3.030491    , 0.01        , 3           , 12          , 0.0346410163, 0
0.01891942  , -0.0256245881, -9.79039    , 0.0005333201, 0.00103381765, -0.0005295429, -0.515774548, -0.0573007949, 0.324726969 , 0.002197627 , 8.910462E-05, 3.03048539  , 0.02        , 3           , 14          , 0.000383140432, 0.0005426591
-0.007838674, -0.0315953344, -9.800111   , 0.000264418282, -0.00150217325, 0.00116045948, -0.515774548, -0.0573007949, 0.324726969 , 0.002200272 , 7.405742E-05, 3.03049731  , 0.03        , 3           , 15          , 0           , -4.67263162E-05
0.00110173691, -0.0465246253, -9.819539   , 0.00027057252, -0.0029100026, -0.000254397426, -0.5149656  , -0.05696373 , 0.3254011   , 0.00220297766, 4.49630461E-05, 3.030495    , 0.04        , 3           , 50          , 0           , 0
0.0106796268, -0.0282796565, -9.777357   , 0.000247527059, 0.00187660707, 0.0008831292, -0.5165161  , -0.05716597 , 0.3260078   , 0.00220545335, 6.370961E-05, 3.03050351  , 0.05        , 3           , 11          , 0.0346410163, 0.0346410163
0.0224015974, 0.00405068742, -9.771257   , 0.00165057008, 0.003293972 , -0.0027811036, -0.5160442  , -0.05716597 , 0.324592143 , 0.00222195638, 9.671081E-05, 3.03047585  , 0.06        , 3           , 12          , 0.0346410163, 0
0.00509572076, -0.0101115927, -9.793142   , 0.000262697955, -0.00122060964, 0.0005958184, -0.5160442  , -0.05716597 , 0.324592143 , 0.002224584 , 8.449151E-05, 3.03048158  , 0.07        , 3           , 14          , 0.000383140432, 0.0005426591
0.00172114267, -0.0227383673, -9.78373    , -0.0011466482, -0.00179328991, 0.0005883659, -0.5151004  , -0.0570985563, 0.325198859 , 0.00221311813, 6.65456E-05 , 3.0304873   , 0.08        , 3           , 15          , 0           , -4.67263162E-05
-0.00192097947, -0.0294071753, -9.8005085  , 0.000268852251, -0.00262843887, -0.0008190385, -0.5166509  , -0.0568963178, 0.325805575 , 0.002215806 , 4.027941E-05, 3.03047967  , 0.09        , 3           , 50          , 0           , 0
0.008226788 , -0.0493846163, -9.799158   , 0.001101125 , 0.000474508444, -0.000245239382, -0.515841961, -0.05716597 , 0.32452473  , 0.00222681928, 4.504202E-05, 3.03047681  , 0.1         , 3           , 11          , 0.0346410163, 0.0346410163
-0.0006466545, -0.03975726 , -9.813197   , 0.0008166515, 0.0007541605, -0.00137627241, -0.515841961, -0.05716597 , 0.32452473  , 0.00223498535, 5.26143122E-05, 3.03046346  , 0.11        , 3           , 12          , 0.0346410163, 0
-0.0121145034, -0.0108058481, -9.795086   , 0.0008146792, 0.00131729455, 3.72829782E-05, -0.515033   , -0.05696373 , 0.325198859 , 0.002243132 , 6.57863857E-05, 3.03046346  , 0.12        , 3           , 14          , 0.0003831404, 0.0005426589
-0.012142065, -0.007703728, -9.778351   , -0.0036934875, -0.0009657879, -0.000834871957, -0.516246438, -0.056761492, 0.325873    , 0.00220619654, 5.61471024E-05, 3.03045487  , 0.13        , 3           , 15          , 0           , -4.672634E-05
-0.00495278928, -0.0145288333, -9.78646    , -0.00116542284, 0.00186705356, -0.0005361427, -0.5159094  , -0.0568289049, 0.324726969 , 0.00219454174, 7.482937E-05, 3.03045     , 0.14        , 3           , 50          , 0           , 0
0.004291041 , -0.03226258 , -9.778326   , 0.00391301  , 0.00302769477, 5.43728565E-05, -0.5159094  , -0.0568289049, 0.324726969 , 0.00223367219, 0.000105105057, 3.03045     , 0.15        , 3           , 11          , 0.0346410163, 0.0346410163
0.011889793 , -0.007065018, -9.783587   , 0.0002673695, -0.00206530257, 0.00144212914, -0.5148982  , -0.05716597 , 0.325333685 , 0.00223634741, 8.441985E-05, 3.030465    , 0.16        , 3           , 12          , 0.0346410163, 0
-0.0122188609, -0.0158002656, -9.785616   , -0.00200482877, 0.000171930587, -0.00139030966, -0.5165161  , -0.05696373 , 0.325805575 , 0.00221629767, 8.617008E-05, 3.030451    , 0.17        , 3           , 14          , 0.0003831404, 0.0005426589
0.00341008487, -0.0393736027, -9.807289   , -0.003411802, -0.000682309736, 0.000297028659, -0.515707135, -0.05716597 , 0.324592143 , 0.00218217983, 7.934048E-05, 3.030454    , 0.18        , 3           , 15          , 0           , -4.672634E-05
-0.0209544227, -0.0287508983, -9.795228   , -0.00200433936, 0.000171932916, -0.0005426971, -0.515707135, -0.05716597 , 0.324592143 , 0.00216213637, 8.10715937E-05, 3.0304482   , 0.19        , 3           , 50          , 0           , 0
-0.006723867, -0.0158141628, -9.800489   , 0.001667536 , 0.000196763664, 3.94972521E-05, -0.515033   , -0.05716597 , 0.325266272 , 0.00217881962, 8.302631E-05, 3.03044915  , 0.2         , 3           , 11          , 0.0346694328, 0.03466943
0.0138294781, -0.0296718366, -9.776886   , -0.0008751211, 0.000179570052, -0.00138504268, -0.5165161  , -0.0570985563, 0.325738162 , 0.00217006728, 8.48521158E-05, 3.03043485  , 0.21        , 3           , 12          , 0.0346692465, 0
0.0116950516, -0.0259695239, -9.796774   , 0.0033600505, 0.000489785569, -0.00108231721, -0.515841961, -0.057233382, 0.3243899   , 0.00220366661, 8.977362E-05, 3.03042436  , 0.22        , 3           , 14          , 0.000383140141, 0.0005426593
0.0143093364, -0.003394696, -9.809768   , 0.00138092716, 0.001039549 , 3.94821182E-05, -0.515841961, -0.057233382, 0.3243899   , 0.002217476 , 0.000100168196, 3.03042436  , 0.23        , 3           , 15          , 0           , -4.672555E-05
-0.0272654258, -0.0286538079, -9.802055   , -0.00142874848, -0.0017951983, 0.00115212309, -0.515033   , -0.05716597 , 0.325198859 , 0.00220318954, 8.21908E-05 , 3.0304358   , 0.24        , 3           , 50          , 0           , 0
-0.00260745361, -0.00779419532, -9.784605   , 0.00532793254, 0.0024741143, 6.0088867E-05, -0.5165835  , -0.0568289049, 0.325805575 , 0.00225646887, 0.000106930514, 3.03043675  , 0.25        , 3           , 11          , 0.0346694328, 0.03466943
0.0008040499, -0.02318342 , -9.782383   , 0.001662123 , 0.00132302486, 0.000323770248, -0.515841961, -0.057233382, 0.324726969 , 0.00227309018, 0.000120153381, 3.03044     , 0.26        , 3           , 12          , 0.0346692465, 0
-0.008632883, -0.0221211072, -9.796914   , -0.00114623271, -0.0020748598, -0.00110729353, -0.515841961, -0.057233382, 0.324726969 , 0.00226162653, 9.942995E-05, 3.03042912  , 0.27        , 3           , 14          , 0.000383140141, 0.0005426593
0.026216    , -0.0234357417, -9.795749   , -2.7766333E-05, 0.000466872 , 0.00116217928, -0.5149656  , -0.0570985563, 0.325333685 , 0.00226135016, 0.000104072395, 3.03044057  , 0.28        , 3           , 15          , 0           , -4.672555E-05
0.0074135256, -0.007862758, -9.798992   , 0.00166941958, -8.479896E-05, 0.0008866756, -0.5166509  , -0.05696373 , 0.325738162 , 0.002278045 , 0.000103204264, 3.03044915  , 0.29        , 3           , 50          , 0           , 0
0.0264801737, -0.0365380459, -9.791734   , 0.00307967  , 0.00020631378, 4.60817537E-05, -0.515774548, -0.0570985563, 0.32452473  , 0.00230883178, 0.000105271793, 3.03045     , 0.3         , 3           , 11          , 0.0347551219, 0.0347551219
0.000917181431, -0.0163964946, -9.78823    , -0.0008725854, -0.000101989172, 0.0005922855, -0.515774548, -0.0570985563, 0.32452473  , 0.00230010669, 0.000104238243, 3.03045583  , 0.31        , 3           , 12          , 0.03475475  , 0
0.00282476  , -0.00696626632, -9.781397   , -0.00256148144, -0.00152128073, -0.00167808565, -0.5148982  , -0.05716597 , 0.325333685 , 0.00227449043, 8.90638548E-05, 3.03043866  , 0.32        , 3           , 14          , 0.0003831406, 0.000542659
-0.0163527541, -0.0171391331, -9.775709   , -0.00199876353, -0.000954327465, -0.0005444338, -0.5166509  , -0.0570311435, 0.325670749 , 0.00225450215, 7.953293E-05, 3.03043342  , 0.33        , 3           , 15          , 0           , -4.672538E-05
-0.02047234 , -0.0269470736, -9.796573   , 0.004219624 , -0.00175699941, 0.0008959242, -0.515707135, -0.0570311435, 0.3243225   , 0.002296699 , 6.194261E-05, 3.03044248  , 0.34        , 3           , 50          , 0           , 0
0.02230408  , -0.009418844, -9.790749   , -0.00340901385, -0.00124544 , 0.000296159851, -0.515707135, -0.0570311435, 0.3243225   , 0.00226260885, 4.9481474E-05, 3.03044534  , 0.35        , 3           , 11          , 0.0347551219, 0.0347551219
-0.00167379749, -0.0051039625, -9.782779   , -0.000590648153, -0.000100081546, -0.000254009821, -0.5149656  , -0.05696373 , 0.325535923 , 0.00225670263, 4.84864067E-05, 3.03044248  , 0.36        , 3           , 12          , 0.03475475  , 0
-0.005810962, -0.0109089911, -9.786451   , 0.00137928082, 0.00160268508, 0.002018112 , -0.5165161  , -0.05696373 , 0.325738162 , 0.00227049622, 6.446753E-05, 3.030463    , 0.37        , 3           , 14          , 0.0003831406, 0.000542659
-0.007499741, -0.00677143037, -9.803169   , -0.0008927542, 0.003839919 , -0.000531789148, -0.5156397  , -0.0570311435, 0.324592143 , 0.00226156833, 0.000102878679, 3.03045774  , 0.38        , 3           , 15          , 0           , -4.672538E-05
-0.020716412, -0.0169529356, -9.81551552 , 0.00306048035, 0.0041482267, 0.000617231533, -0.5156397  , -0.0570311435, 0.324592143 , 0.002292174 , 0.000144346792, 3.03046441  , 0.39        , 3           , 50          , 0           , 0
-0.00128088519, -0.018101953, -9.809948   , -0.0017291361, 0.00186323817, 0.0014389836, -0.5149656  , -0.057233382, 0.325266272 , 0.00227486063, 0.00016292982, 3.03047872  , 0.4         , 3           , 11          , 0.034897238 , 0.034897238
0.014894532 , -0.03089229 , -9.819821   , -0.00198031683, -0.00461467262, 1.49988837E-05, -0.5165161  , -0.05696373 , 0.325670749 , 0.00225505722, 0.000116782874, 3.03047872  , 0.41        , 3           , 12          , 0.03489667  , 0
0.00206993055, -0.0348794125, -9.797337   , -0.0005711337, -0.00404199352, -0.0002600861, -0.515841961, -0.0570985563, 0.32452473  , 0.00224934565, 7.63689E-05 , 3.03047585  , 0.42        , 3           , 14          , 0.000383142149, 0.000542660069
0.000948344357, -0.0145858461, -9.79003048 , 0.0008185332, 0.000472596555, -0.000529095938, -0.515841961, -0.0570985563, 0.32452473  , 0.00225753034, 8.110679E-05, 3.03047061  , 0.43        , 3           , 15          , 0           , -4.67242062E-05
0.00606676238, -0.0399004929, -9.794163   , 0.00335840229, 0.00105292047, 0.0008963116, -0.5151004  , -0.05696373 , 0.325535923 , 0.00229111523, 9.16155841E-05, 3.03047967  , 0.44        , 3           , 50          , 0           , 0
-0.017886959, -0.0382441431, -9.800668   , 0.0005378267, 0.000189123035, 3.422817E-05, -0.5167183  , -0.0570985563, 0.325670749 , 0.00229649362, 9.350601E-05, 3.03047967  , 0.45        , 3           , 11          , 0.034897238 , 0.034897238
0.006960742 , -0.007857441, -9.798996   , 0.00112038734, -0.003185833, 0.00172687962, -0.5156397  , -0.0570311435, 0.324659556 , 0.0023076986, 6.160802E-05, 3.03049684  , 0.46        , 3           , 12          , 0.03489667  , 0
0.006058349 , -0.006058831, -9.79402351 , -0.00199892814, -0.000954329269, -0.0008269724, -0.5156397  , -0.0570311435, 0.324659556 , 0.00228770915, 5.20837566E-05, 3.03048873  , 0.47        , 3           , 14          , 0.000383142149, 0.000542660069
0.0089734   , -0.0250489376, -9.792724   , 0.0005432395, -0.000937138, -0.000250045036, -0.5149656  , -0.0570985563, 0.325333685 , 0.00229314156, 4.271813E-05, 3.03048635  , 0.48        , 3           , 15          , 0           , -4.67242062E-05
0.01303354  , -0.0251088738, -9.789078   , -0.000883160741, 0.00186896161, -0.0008173655, -0.5165835  , -0.056761492, 0.325535923 , 0.00228430959, 6.14264E-05 , 3.03047824  , 0.49        , 3           , 50          , 0           , 0
-0.00749947643, -0.0339244381, -9.779779   , 0.00364329061, 0.000491699262, 0.0003316864, -0.5156397  , -0.057233382, 0.32452473  , 0.00232073944, 6.634477E-05, 3.03048158  , 0.5         , 3           , 11          , 0.0350946635, 0.0350946635
-0.0160793215, -0.0404999927, -9.806991   , -3.26032168E-05, 0.00131156412, 3.33308162E-05, -0.5156397  , -0.057233382, 0.32452473  , 0.00232041371, 7.945962E-05, 3.03048158  , 0.51        , 3           , 12          , 0.0350939035, 0
0.009114684 , -0.0480705239, -9.790559   , -0.00116665568, 0.002148619 , -0.00025317262, -0.5151004  , -0.057233382, 0.3254011   , 0.00230874657, 0.000100951613, 3.03047967  , 0.52        , 3           , 14          , 0.0003831424, 0.000542659371
0.008386891 , 0.0006621992, -9.788102   , -0.00284604565, -0.0009600577, -0.000548384967, -0.5166509  , -0.05696373 , 0.325670749 , 0.00228028581, 9.136363E-05, 3.030474    , 0.53        , 3           , 15          , 0           , -4.672498E-05
-0.008184225, 0.009933308 , -9.803557   , -0.00286080153, 0.00185558957, -0.00195673318, -0.5154375  , -0.0570985563, 0.3248618   , 0.00225167559, 0.00010996381, 3.0304544   , 0.54        , 3           , 50          , 0           , 0
-0.02140655 , -0.0278523583, -9.792516   , 0.00109759357, 0.00131920632, 0.0008862108, -0.5154375  , -0.0570985563, 0.3248618   , 0.00226265262, 0.000123135833, 3.03046346  , 0.55        , 3           , 11          , 0.0350946635, 0.0350946635
-0.0181819629, -0.0265058726, -9.801526   , -0.003408111, -0.001527008, -0.00055188674, -0.515302658, -0.0570311435, 0.3254011   , 0.00222857087, 0.000107878193, 3.03045774  , 0.56        , 3           , 12          , 0.0350939035, 0
-0.0352776535, -0.0159485638, -9.795283   , 0.000808774843, 0.00244355318, -0.0005260576, -0.5167183  , -0.0570985563, 0.325535923 , 0.00223665824, 0.0001323254, 3.03045249  , 0.57        , 3           , 14          , 0.0003831424, 0.000542659371
-0.0160932951, -0.03158432 , -9.774863   , 0.00110342156, -8.862442E-05, -0.001093721, -0.5155723  , -0.0570985563, 0.324457318 , 0.00224769069, 0.000131463661, 3.03044152  , 0.58        , 3           , 15          , 0           , -4.672498E-05
0.00113712437, -0.03132004 , -9.77925    , -0.000586719951, -0.0006632066, 0.00172288425, -0.5155723  , -0.0570985563, 0.324457318 , 0.00224182568, 0.000124792947, 3.03045869  , 0.59        , 3           , 50          , 0           , 0
0.00548762  , -0.01686149 , -9.799948   , 0.000260071683, -0.0006574821, 0.0008792204, -0.515033   , -0.0570985563, 0.325603336 , 0.00224443316, 0.000118165881, 3.03046727  , 0.6         , 3           , 11          , 0.03534605  , 0.03534605
0.00448001642, -0.0263068974, -9.805419   , -0.00114894821, -0.00123016047, 0.00143684272, -0.5165835  , -0.0570311435, 0.3254685   , 0.00223294529, 0.00010583215, 3.03048158  , 0.61        , 3           , 12          , 0.0353450961, 0
0.0121777877, -0.0232724715, -9.79540348 , 0.00336734462, -0.000918041449, -0.000519414549, -0.5155049  , -0.0570985563, 0.324659556 , 0.00226661819, 9.666343E-05, 3.03047681  , 0.62        , 3           , 14          , 0.0003831419, 0.0005426624
0.0143915983, -0.033159364, -9.814863   , -0.000592043449, 0.000181480078, -0.0002535784, -0.5155049  , -0.0570985563, 0.324659556 , 0.00226069731, 9.848398E-05, 3.030474    , 0.63        , 3           , 15          , 0           , -4.672287E-05
0.0132335788, -0.0142343668, -9.803041   , -0.000590975746, -0.000100086472, -0.0008190873, -0.5151004  , -0.0570985563, 0.3254685   , 0.002254787 , 9.75016155E-05, 3.03046584  , 0.64        , 3           , 50          , 0           , 0
0.0179949626, -0.0233975053, -9.778637   , -0.00143342162, -0.00095050846, 0.0003058098, -0.5166509  , -0.05696373 , 0.325603336 , 0.00224045315, 8.79896761E-05, 3.03046918  , 0.65        , 3           , 11          , 0.03534605  , 0.03534605
0.00528529  , -0.0308623016, -9.795487   , -0.000580565131, -0.002071039, 0.000308024872, -0.5156397  , -0.0570985563, 0.324592143 , 0.00223464752, 6.727244E-05, 3.030472    , 0.66        , 3           , 12          , 0.0353450961, 0
-0.00346313627, -0.03846716 , -9.784739   , -0.0011529671, -0.000385464518, 0.00172068214, -0.5156397  , -0.0570985563, 0.324592143 , 0.00222311937, 6.33794843E-05, 3.03048921  , 0.67        , 3           , 14          , 0.0003831419, 0.0005426624
0.00584217161, -0.016053712, -9.773275   , -0.00170896715, -0.00207867264, 0.00256305723, -0.515033   , -0.0570311435, 0.325535923 , 0.002206031 , 4.2536034E-05, 3.030515    , 0.68        , 3           , 15          , 0           , -4.672287E-05
-0.0235091653, -0.02144616 , -9.811488   , 0.00082148466, -9.053509E-05, -0.000247427641, -0.5165161  , -0.05716597 , 0.325603336 , 0.0022142455, 4.16361727E-05, 3.030512    , 0.69        , 3           , 50          , 0           , 0
-0.0242288969, 0.0005862182, -9.786092   , 0.005065021 , -0.00146971049, 5.26917975E-05, -0.5156397  , -0.0573007949, 0.324659556 , 0.00226490432, 2.6935304E-05, 3.030513    , 0.7         , 3           , 11          , 0.03564984  , 0.0356498435
-0.010948563, 0.00858755  , -9.796351   , 0.00110194017, 0.0004745085, 0.001167442 , -0.5156397  , -0.0573007949, 0.324659556 , 0.00227592443, 3.16538644E-05, 3.03052449  , 0.71        , 3           , 12          , 0.03564869  , 0
-0.00393199734, -0.009982601, -9.799992   , -0.00172281743, 0.000455406465, 0.000306660164, -0.515033   , -0.05696373 , 0.325333685 , 0.00225869613, 3.62009741E-05, 3.03052735  , 0.72        , 3           , 14          , 0.000383140985, 0.0005426627
-0.004170106, -0.0244587455, -9.788302   , 0.000541846734, -0.000655575539, -0.000249614823, -0.5166509  , -0.05716597 , 0.325603336 , 0.00226411433, 2.96508733E-05, 3.030525    , 0.73        , 3           , 15          , 0           , -4.672049E-05
0.0113952346, -0.018252302, -9.809401   , -0.000305433728, -0.000661305443, -0.000253565639, -0.5155723  , -0.0570985563, 0.3243899   , 0.00226106  , 2.30435617E-05, 3.03052258  , 0.74        , 3           , 50          , 0           , 0
0.018541038 , -0.0233272333, -9.801231   , -0.000322814361, 0.00271747261, -0.0013785084, -0.5155723  , -0.0570985563, 0.3243899   , 0.00225783139, 5.0249364E-05, 3.03050876  , 0.75        , 3           , 11          , 0.03564984  , 0.0356498435
-0.00964683853, -0.0351424627, -9.812343   , -2.73520418E-05, 0.000185298908, -0.0005334844, -0.515167832, -0.0570311435, 0.325535923 , 0.00225755759, 5.211438E-05, 3.03050351  , 0.76        , 3           , 12          , 0.03564869  , 0
-0.000430635147, -0.0172647052, -9.793667   , -0.000877583632, 0.000742698438, -0.00081910484, -0.5165835  , -0.0568289049, 0.325603336 , 0.002248781 , 5.95597958E-05, 3.030495    , 0.77        , 3           , 14          , 0.000383140985, 0.0005426627
0.00548267644, -0.0159728  , -9.7958765  , -0.000302482571, -0.0012244347, 2.81039829E-05, -0.5155723  , -0.05716597 , 0.32452473  , 0.00224575656, 4.73148539E-05, 3.03049541  , 0.78        , 3           , 15          , 0           , -4.672049E-05
-0.0135901487, -0.02070465 , -9.798303   , -0.000302156259, -0.00122443319, 0.000593178731, -0.5155723  , -0.05716597 , 0.32452473  , 0.00224273512, 3.50572445E-05, 3.0305016   , 0.79        , 3           , 50          , 0           , 0
0.000835541636, -0.0209261533, -9.782825   , -0.00143637287, -0.0003873803, 2.413435E-05, -0.5151004  , -0.0573682077, 0.3254685   , 0.00222836342, 3.117566E-05, 3.0305016   , 0.8         , 3           , 11          , 0.0360043049, 0.0360043049
0.0126855373, -0.0169843435, -9.788594   , 0.00307163061, 0.00189570163, 0.0006137515, -0.5165161  , -0.0568963178, 0.325603336 , 0.00225907983, 5.011887E-05, 3.0305078   , 0.81        , 3           , 12          , 0.0360029452, 0
-0.010334854, -0.0130843865, -9.794629   , -0.00143792992, -0.000105816027, -0.0002579692, -0.515302658, -0.05716597 , 0.324457318 , 0.00224470068, 4.90665261E-05, 3.03050542  , 0.82        , 3           , 14          , 0.0003831419, 0.000542663562
0.012213896 , -0.0223505087, -9.801275   , -0.001440718, 0.000457314134, -0.000257101347, -0.515302658, -0.05716597 , 0.324457318 , 0.00223029335, 5.364541E-05, 3.03050256  , 0.83        , 3           , 15          , 0           , -4.671679E-05
0.0239724666, -0.0184827782, -9.784898   , 0.00337406271, -0.00204429752, 0.00145660585, -0.515167832, -0.057233382, 0.3254685   , 0.00226403447, 3.3169752E-05, 3.03051686  , 0.84        , 3           , 50          , 0           , 0
-0.002742189, -0.0186157748, -9.78646    , 0.00194405892, 0.00132492813, -0.000522533839, -0.5165835  , -0.0570311435, 0.325738162 , 0.00228347513, 4.643089E-05, 3.030512    , 0.85        , 3           , 11          , 0.0360043049, 0.0360043049
0.0126259625, -0.02194247 , -9.789971   , -0.002841863, -0.00180475716, -0.000549695, -0.5155723  , -0.05716597 , 0.324726969 , 0.00225505582, 2.83958288E-05, 3.03050637  , 0.86        , 3           , 12          , 0.0360029452, 0
0.0109065417, -0.0138125792, -9.786334   , 0.00109677832, 0.00131919817, -0.0005264846, -0.5155723  , -0.05716597 , 0.324726969 , 0.00226602377, 4.15996838E-05, 3.03050113  , 0.87        , 3           , 14          , 0.0003831419, 0.000542663562
0.00139455032, -0.01593554 , -9.792744   , 0.000248015 , 0.001876605 , 0.001730732 , -0.5151004  , -0.05696373 , 0.3254011   , 0.002268505 , 6.03264562E-05, 3.03051877  , 0.88        , 3           , 15          , 0           , -4.671679E-05
0.008921056 , -0.02776945 , -9.788668   , 0.00138215639, 0.000757978938, -0.000243498085, -0.5167183  , -0.0570311435, 0.325535923 , 0.00228232658, 6.791178E-05, 3.030516    , 0.89        , 3           , 50          , 0           , 0
0.00514597166, -0.005161017, -9.789507   , 0.00194594124, 0.00104336755, 0.000324642868, -0.515235245, -0.05716597 , 0.324592143 , 0.00230177725, 7.83550349E-05, 3.03051925  , 0.9         , 3           , 11          , 0.0364075564, 0.0364075564
-0.00429777242, -0.00321152667, -9.799515   , 0.00193913444, 0.00245119422, 0.000609350041, -0.515235245, -0.05716597 , 0.324592143 , 0.00232116878, 0.00010285282, 3.03052545  , 0.91        , 3           , 12          , 0.03640598  , 0
-0.008285703, -0.00130767468, -9.814904   , 0.0002487553, 0.00159503892, 0.000600146654, -0.515302658, -0.0568289049, 0.3254685   , 0.002323657 , 0.000118789219, 3.03053164  , 0.92        , 3           , 14          , 0.000383143051, 0.0005426614
0.0135328714, -0.02775457 , -9.808972   , -0.000299859763, -0.00178756437, -0.000255306659, -0.5166509  , -0.0568963178, 0.325603336 , 0.00232065818, 0.000100919555, 3.03052926  , 0.93        , 3           , 15          , 0           , -4.67152E-05
0.0111060943, -0.0336625054, -9.788223   , 0.00365116447, -0.0011976955, -0.0005185392, -0.515167832, -0.05696373 , 0.32452473  , 0.002357169 , 8.895477E-05, 3.03052354  , 0.94        , 3           , 50          , 0           , 0
0.016718246 , -0.01885191 , -9.784051   , 0.000535779167, 0.000470683677, -0.00109549682, -0.515167832, -0.05696373 , 0.32452473  , 0.002362526 , 9.368743E-05, 3.030513    , 0.95        , 3           , 11          , 0.0364075564, 0.0364075564
0.0241166279, -0.0477509424, -9.803549   , 0.000251380174, 0.00103190774, 0.000316741265, -0.515167832, -0.0573682077, 0.3254011   , 0.00236504013, 0.000103998987, 3.030516    , 0.96        , 3           , 12          , 0.03640598  , 0
0.0116418581, -0.0349396355, -9.812632   , 0.001661794 , 0.00132302125, -0.000241314847, -0.5166509  , -0.0570985563, 0.325603336 , 0.00238165748, 0.000117234878, 3.03051353  , 0.97        , 3           , 14          , 0.000383143051, 0.0005426614
0.0005449513, -0.0158795565, -9.80631    , 0.000541518442, -0.0006555758, -0.0008146952, -0.5154375  , -0.0570311435, 0.324457318 , 0.00238707173, 0.000110698566, 3.03050542  , 0.98        , 3           , 15          , 0           , -4.67152E-05
-0.002751517, -0.0186233334, -9.7842     , -0.000592207769, 0.000181480253, -0.0005361235, -0.5154375  , -0.0570311435, 0.324457318 , 0.00238114921, 0.000112526141, 3.03050017  , 0.99        , 3           , 50          , 0           , 0
0.0005591968, -0.009172758, -9.788202   , 0.00110358372, -8.86230555E-05, -0.000811197155, -0.5153701  , -0.0570985563, 0.325535923 , 0.00239218143, 0.000111678382, 3.030492    , 1           , 3           , 11          , 0.0368576   , 0.0368576
-0.006141288, -0.004109199, -9.79455948 , 0.00223582727, -0.0003625428, 0.00117139879, -0.516853154, -0.056761492, 0.325535923 , 0.002414541 , 0.000108024818, 3.03050351  , 1.01        , 3           , 12          , 0.0368558019, 0
-0.030360328, -0.0209681913, -9.79572    , 0.00250087352, 0.003018145 , 4.777325E-05, -0.5154375  , -0.0570985563, 0.324659556 , 0.00243955  , 0.00013820501, 3.03050447  , 1.02        , 3           , 14          , 0.000383143371, 0.0005426588
-0.00116903055, -0.0380229354, -9.790596   , -2.91635788E-05, 0.000748437655, 0.00116259907, -0.5154375  , -0.0570985563, 0.324659556 , 0.00243926  , 0.000145661 , 3.030516    , 1.03        , 3           , 15          , 0           , -4.67114041E-05
0.008551023 , -0.0268043745, -9.805842   , -1.59649062E-05, -0.001785645, 0.00228884351, -0.515167832, -0.0570311435, 0.3254685   , 0.002439103 , 0.000127748775, 3.0305388   , 1.04        , 3           , 50          , 0           , 0
-0.0246187337, -0.0300814863, -9.789385   , -0.002565755, -0.0003950139, 0.000583935936, -0.5166509  , -0.0568289049, 0.3254685   , 0.00241344632, 0.000123784484, 3.03054452  , 1.05        , 3           , 11          , 0.0368576   , 0.0368576
0.0107505936, -0.0179560948, -9.761493   , 0.00167187792, -0.0006479302, 0.000320718565, -0.5156397  , -0.0568963178, 0.32452473  , 0.00243016565, 0.00011729743, 3.03054738  , 1.06        , 3           , 12          , 0.0368558019, 0
0.0235057361, -0.0171497129, -9.777212   , -0.00200434215, 0.000171933032, -0.000542712, -0.5156397  , -0.0568963178, 0.32452473  , 0.00241012173, 0.0001190299, 3.03054261  , 1.07        , 3           , 14          , 0.000383143371, 0.0005426588
0.0120793572, -0.0278157312, -9.785932   , -0.004824102, -0.0006918603, 7.89182E-06 , -0.5151004  , -0.0573007949, 0.325603336 , 0.00236188038, 0.000112111105, 3.03054261  , 1.08        , 3           , 15          , 0           , -4.67114041E-05
-0.006963713, -0.03520157 , -9.804188   , -0.00171257241, -0.00151554262, 0.001151226 , -0.5165835  , -0.0570985563, 0.325670749 , 0.002344756 , 9.692861E-05, 3.030554    , 1.09        , 3           , 50          , 0           , 0
0.00160656881, -0.009068494, -9.822545   , -0.000846427632, -0.00545172673, 1.89485454E-05, -0.5155049  , -0.05716597 , 0.324794382 , 0.00233629788, 4.241558E-05, 3.030554    , 1.1         , 3           , 11          , 0.03735236  , 0.03735236
0.0149978753, -0.0196498  , -9.808927   , -0.000302810338, -0.00122443179, -0.000536983542, -0.5155049  , -0.05716597 , 0.324794382 , 0.00233326945, 3.01838445E-05, 3.03054833  , 1.11        , 3           , 12          , 0.0373503231, 0
-0.00230472535, 0.0134295681, -9.79039    , 0.000269339624, -0.00262843561, 2.85556252E-05, -0.5151004  , -0.05716597 , 0.325670749 , 0.00233596284, 3.89889465E-06, 3.03054881  , 1.12        , 3           , 14          , 0.000383142469, 0.000542658148
0.001537959 , -0.00599963032, -9.795865   , -0.000586957438, -0.0009447783, -0.00110294158, -0.5164487  , -0.05696373 , 0.325603336 , 0.002330093 , -5.523165E-06, 3.03053784  , 1.13        , 3           , 15          , 0           , -4.67079335E-05
-0.001496179, -0.0294351615, -9.793726   , -0.001435884, -0.0003873726, 0.000871737662, -0.5156397  , -0.05716597 , 0.32452473  , 0.00231573381, -9.417126E-06, 3.03054643  , 1.14        , 3           , 50          , 0           , 0
-0.000946502259, -0.024452107, -9.801385   , -0.0003085495, -9.81722551E-05, -0.0008177854, -0.5156397  , -0.05716597 , 0.32452473  , 0.00231264834, -1.037991E-05, 3.03053784  , 1.15        , 3           , 11          , 0.03735236  , 0.03735236
0.006930891 , -0.007881634, -9.791764   , 0.00223115669, 0.0004821507, 0.000325084664, -0.5151004  , -0.0570985563, 0.3254685   , 0.00233496  , -5.56597661E-06, 3.03054166  , 1.16        , 3           , 12          , 0.0373503231, 0
-0.0102744913, -0.0121427746, -9.806376   , 0.00279961433, -7.71555642E-05, 0.00173953816, -0.5165835  , -0.0570985563, 0.3254685   , 0.00236295583, -6.378381E-06, 3.03055882  , 1.17        , 3           , 14          , 0.000383142469, 0.000542658148
0.00769206742, -0.01916802 , -9.792708   , -0.00115287886, -0.000667031563, -0.0005400665, -0.5153701  , -0.0570985563, 0.324592143 , 0.00235142722, -1.303594E-05, 3.030553    , 1.18        , 3           , 15          , 0           , -4.67079335E-05
0.010452548 , -0.0129155479, -9.783171   , 0.00335774943, 0.00105291919, -0.000233854444, -0.5153701  , -0.0570985563, 0.324592143 , 0.002385005 , -2.5012414E-06, 3.0305512   , 1.19        , 3           , 50          , 0           , 0
-0.0221423656, -0.0201162137, -9.809212   , 0.00111071358, -0.00149644539, -0.000530838734, -0.5154375  , -0.057233382, 0.3254685   , 0.0023960846, -1.74418965E-05, 3.03054547  , 1.2         , 3           , 11          , 0.0378896929, 0.0378896929
-0.00821781252, -0.03286939 , -9.822266   , -0.004545445, -0.000126822415, -0.00168515788, -0.5166509  , -0.0570311435, 0.3254685   , 0.00235063024, -1.86701218E-05, 3.03052878  , 1.21        , 3           , 12          , 0.03788741  , 0
0.011750767 , -0.0161046647, -9.778655   , 0.000527248369, 0.00216007885, -0.001375444, -0.515235245, -0.0568963178, 0.324457318 , 0.002355903 , 2.96297367E-06, 3.030515    , 1.22        , 3           , 14          , 0.000383146718, 0.0005426564
-0.00414971169, -0.0195323713, -9.777433   , 0.0025065348, 0.0016103161, -0.00221470557, -0.515235245, -0.0568963178, 0.324457318 , 0.0023809683, 1.91185536E-05, 3.030493    , 1.23        , 3           , 15          , 0           , -4.670201E-05
-0.0133501366, -0.0311484281, -9.779812   , 0.00252784556, -0.00233158679, 0.0008871313, -0.515235245, -0.0568289049, 0.3254685   , 0.00240624673, -4.218484E-06, 3.0305016   , 1.24        , 3           , 50          , 0           , 0
-0.0175913647, -0.0165798143, -9.80328751 , 0.000825335563, -0.000935225864, -0.000813825347, -0.5165835  , -0.0570985563, 0.325603336 , 0.00241449988, -1.35510927E-05, 3.030494    , 1.25        , 3           , 11          , 0.0378896929, 0.0378896929
-0.009406762, -0.017986618, -9.815886   , -0.0008554485, -0.00376233738, -0.00110860378, -0.5155049  , -0.0570311435, 0.324592143 , 0.002405946 , -5.11476537E-05, 3.03048253  , 1.26        , 3           , 12          , 0.03788741  , 0
0.0220377855, -0.02927403 , -9.789476   , -0.0008680833, -0.000946680258, 0.00115603523, -0.5155049  , -0.0570311435, 0.324592143 , 0.00239726482, -6.064218E-05, 3.030494    , 1.27        , 3           , 14          , 0.000383146718, 0.0005426564
0.0189495981, -0.0251537841, -9.796264   , -0.0008693141, -0.0006651144, 0.00143900677, -0.515302658, -0.057233382, 0.3254011   , 0.00238857046, -6.732774E-05, 3.03050828  , 1.28        , 3           , 15          , 0           , -4.670201E-05
-0.0112234028, -0.0152917076, -9.805945   , -0.00425293436, -0.00209586648, -0.0011218033, -0.5165835  , -0.05716597 , 0.3254685   , 0.00234604254, -8.825978E-05, 3.03049684  , 1.29        , 3           , 50          , 0           , 0
0.00325626624, -0.0105596213, -9.787736   , -0.000581387, -0.00207103649, -0.00110468781, -0.515302658, -0.05716597 , 0.324592143 , 0.00234022154, -0.000108941618, 3.03048635  , 1.3         , 3           , 11          , 0.03846745  , 0.0384674445
0.00440757629, -0.0259192456, -9.786434   , -1.85056415E-05, -0.00150408247, 0.000311501 , -0.515302658, -0.05716597 , 0.324592143 , 0.00234003621, -0.000123989652, 3.03048921  , 1.31        , 3           , 12          , 0.0384649076, 0
0.004348781 , -0.03489389 , -9.800937   , -0.00171643263, -0.0006708431, 0.00171758863, -0.515033   , -0.0570311435, 0.325670749 , 0.00232286961, -0.000130738146, 3.03050637  , 1.32        , 3           , 14          , 0.000383148028, 0.000542656
0.00320251565, -0.0177447814, -9.79770851 , -0.00115453033, -0.000103893777, 0.001438553 , -0.516785741, -0.0568289049, 0.325198859 , 0.00231132237, -0.00013181039, 3.03052068  , 1.33        , 3           , 15          , 0           , -4.669727E-05
0.00519864168, -0.00199389 , -9.792206   , 0.00110349036, 0.000192950945, 0.00144952233, -0.515167832, -0.05716597 , 0.324457318 , 0.002322355 , -0.000129914508, 3.030535    , 1.34        , 3           , 50          , 0           , 0
0.00426105224, -0.0100435074, -9.810325   , -0.001719547, -0.0001077145, 0.00115338154, -0.515167832, -0.05716597 , 0.324457318 , 0.00230515818, -0.0001310183, 3.03054643  , 1.35        , 3           , 11          , 0.03846745  , 0.0384674445
-0.0090363035, -0.01582689 , -9.788755   , -0.00228168722, -0.000956236734, -0.00139339129, -0.515167832, -0.0570985563, 0.325603336 , 0.00228234334, -0.0001405487, 3.030533    , 1.36        , 3           , 12          , 0.0384649076, 0
-0.0206068754, -0.0324122943, -9.781229   , -0.00029986474, -0.00178755913, -0.0002553246, -0.5166509  , -0.0568963178, 0.3254011   , 0.002279345 , -0.00015841845, 3.03053021  , 1.37        , 3           , 14          , 0.000383148028, 0.000542656
-0.0006472701, -0.0227964483, -9.758437   , -0.00227127643, -0.00292718923, -0.000266278861, -0.515235245, -0.0568289049, 0.32452473  , 0.00225663255, -0.000187684229, 3.03052735  , 1.38        , 3           , 15          , 0           , -4.669727E-05
0.0113323526, -0.0200886577, -9.799916   , -0.0003070867, -9.816306E-05, 0.00172504142, -0.515235245, -0.0568289049, 0.32452473  , 0.00225355849, -0.000188704827, 3.03054452  , 1.39        , 3           , 50          , 0           , 0
-0.00705795549, -0.00142945535, -9.783257   , -0.001428832, -0.002076766, -0.00139117788, -0.515235245, -0.05716597 , 0.325670749 , 0.002239265 , -0.000209434511, 3.03053069  , 1.4         , 3           , 11          , 0.0390834659, 0.03908346
0.00614715973, -0.0268911924, -9.771961   , -0.00200049253, -0.0006727598, -0.00110910449, -0.5165161  , -0.05662667 , 0.325198859 , 0.0022192623, -0.00021613737, 3.03051972  , 1.41        , 3           , 12          , 0.03908065  , 0
0.0140241515, -0.0210334379, -9.796737   , 0.0002456347, 0.002158174 , 3.59202968E-05, -0.5153701  , -0.0568963178, 0.32452473  , 0.00222171843, -0.0001945565, 3.03051972  , 1.42        , 3           , 14          , 0.000383149367, 0.0005426549
0.0108742965, -0.0196412615, -9.797207   , 0.00251153  , 0.000765625853, -0.0008033264, -0.5153701  , -0.0568963178, 0.32452473  , 0.0022468355, -0.000186882316, 3.030512    , 1.43        , 3           , 15          , 0           , -4.66957244E-05
0.00838109851, -0.004698702, -9.803944   , -0.00142457557, -0.002639889, 0.00115079142, -0.5151004  , -0.0570311435, 0.3254011   , 0.00223258766, -0.000213306892, 3.03052354  , 1.44        , 3           , 50          , 0           , 0
0.01976512  , 0.004147592 , -9.790712   , 0.0008095835, 0.00244356156, 0.000886600348, -0.5164487  , -0.0570985563, 0.325603336 , 0.00224068179, -0.000188891223, 3.03053212  , 1.45        , 3           , 11          , 0.0390834659, 0.03908346
0.00131497439, -0.0151073225, -9.770594   , 0.00364091084, 0.0007732642, -0.00136313366, -0.5153701  , -0.0570311435, 0.324659556 , 0.002277093 , -0.0001811278, 3.03051877  , 1.46        , 3           , 12          , 0.03908065  , 0
0.008322831 , -0.007870359, -9.79989    , -0.00144286093, 0.00102045608, 0.0008738952, -0.5153701  , -0.0570311435, 0.324659556 , 0.00226266263, -0.000170943109, 3.03052735  , 1.47        , 3           , 14          , 0.000383149367, 0.0005426549
-0.000396070071, -0.015897654, -9.79772949 , -2.33415922E-05, -0.0006593892, -0.00081734854, -0.515235245, -0.0570311435, 0.3254685   , 0.00226243073, -0.000177518508, 3.03051972  , 1.48        , 3           , 15          , 0           , -4.66957244E-05
-0.008875673, -0.00275257882, -9.785988   , -1.94115273E-05, -0.00122251385, 0.00115954585, -0.5165835  , -0.0568963178, 0.325333685 , 0.00226223445, -0.000189769868, 3.03053117  , 1.49        , 3           , 50          , 0           , 0
0.0106333382, -0.0354587659, -9.789139   , -0.0005795122, -0.00235259486, -0.000257511128, -0.5151004  , -0.0568963178, 0.324592143 , 0.00225639832, -0.000213270512, 3.03052831  , 1.5         , 3           , 11          , 0.0397356041, 0.0397356
0.0249190852, -0.0184601489, -9.794834   , 0.000250387675, 0.001031913 , -0.001378503, -0.5151004  , -0.0568963178, 0.324592143 , 0.00225890451, -0.000202920273, 3.03051448  , 1.51        , 3           , 12          , 0.03973251  , 0
0.0131126586, -0.0214739572, -9.796745   , -0.000309053168, -9.816797E-05, -0.00166541012, -0.515235245, -0.057233382, 0.3254011   , 0.002255818 , -0.000203864343, 3.03049779  , 1.52        , 3           , 14          , 0.000383156672, 0.0005426515
-0.00423132069, -0.0316499546, -9.796468   , 0.002522586 , -0.00120532 , 0.00145393563, -0.516785741, -0.05696373 , 0.325333685 , 0.00228104065, -0.00021595048, 3.030512    , 1.53        , 3           , 15          , 0           , -4.66955462E-05
0.0117939124, -0.0183014628, -9.79629    , 0.00055675  , -0.00347121037, 0.00144124567, -0.515235245, -0.05696373 , 0.324457318 , 0.00228660461, -0.000250695419, 3.03052688  , 1.54        , 3           , 50          , 0           , 0
0.0316567831, -0.02617166 , -9.806114   , 0.00195248274, -8.28780758E-05, 0.00201811246, -0.515235245, -0.05696373 , 0.324457318 , 0.0023061242, -0.000251570542, 3.030547    , 1.55        , 3           , 11          , 0.0397356041, 0.0397356
0.00469266251, -0.0109586883, -9.808065   , 0.00109955156, 0.000756080146, -0.000527373748, -0.5149656  , -0.0570311435, 0.3254685   , 0.00231712125, -0.000243997551, 3.03054166  , 1.56        , 3           , 12          , 0.03973251  , 0
-0.006151698, -0.00813479 , -9.804973   , 0.0005287068, 0.00216009049, 0.00116738677, -0.5165161  , -0.05696373 , 0.325333685 , 0.00232240534, -0.000222423783, 3.030553    , 1.57        , 3           , 14          , 0.000383156672, 0.0005426515
-0.018941734, -0.0107548395, -9.78655    , -0.0003081486, -0.000379735429, -0.00251345662, -0.515302658, -0.0570311435, 0.324592143 , 0.00231933  , -0.000226162811, 3.03052831  , 1.58        , 3           , 15          , 0           , -4.66955462E-05
0.0093594715, -0.0295718126, -9.790932   , -0.00312660355, -0.00124352239, 0.000297446939, -0.515302658, -0.0570311435, 0.324592143 , 0.002288063 , -0.000238604844, 3.03053117  , 1.59        , 3           , 50          , 0           , 0
0.01969477  , -0.0404702947, -9.806266   , 0.0008108928, 0.0018804326, -0.00165711064, -0.515033   , -0.05716597 , 0.3254685   , 0.00229615835, -0.0002197351, 3.030515    , 1.6         , 3           , 11          , 0.0404217765, 0.04042177
0.022383824 , -0.04007825 , -9.798106   , -0.0008715371, -0.000383543433, 2.674133E-05, -0.5164487  , -0.0570985563, 0.325333685 , 0.002287443 , -0.0002235711, 3.030515    , 1.61        , 3           , 12          , 0.0404183678, 0
0.0225097537, -0.0234612487, -9.775438   , -0.00341395661, -0.00011916415, 0.00142801006, -0.515235245, -0.0568289049, 0.324659556 , 0.0022533   , -0.000224795149, 3.03052926  , 1.62        , 3           , 14          , 0.000383159815, 0.0005426466
0.00551361125, -0.0119305868, -9.790436   , -0.00142712216, -0.00235832133, -0.0008265426, -0.515235245, -0.0568289049, 0.324659556 , 0.00223903079, -0.00024835972, 3.03052068  , 1.63        , 3           , 15          , 0           , -4.66899037E-05
-0.0008152686, -0.0158651229, -9.805868   , -0.000872441567, -0.00010197598, 0.0008747875, -0.5149656  , -0.05716597 , 0.3254011   , 0.00223030429, -0.000249399047, 3.03052926  , 1.64        , 3           , 50          , 0           , 0
-0.00225899462, -0.0203818511, -9.79957    , 0.00195461488, -0.0006460065, 0.00088708906, -0.5164487  , -0.05716597 , 0.325266272 , 0.00224984833, -0.000255878957, 3.03053832  , 1.65        , 3           , 11          , 0.0404217765, 0.04042177
-0.01605988 , -0.001725913, -9.79779    , 0.00392093975, 0.00161988649, 0.00174739142, -0.5153701  , -0.0568963178, 0.3243225   , 0.00228905329, -0.0002397198, 3.030556    , 1.66        , 3           , 12          , 0.0404183678, 0
-0.0112994751, -0.0122288968, -9.777457   , -0.00256921235, 0.000168125262, -0.0005453674, -0.5153701  , -0.0568963178, 0.3243225   , 0.002263362 , -0.000238026128, 3.03055024  , 1.67        , 3           , 14          , 0.000383159815, 0.0005426466
0.00949925  , -0.01696074 , -9.78455    , -0.002283508, -0.000393092545, 0.0003026939, -0.515167832, -0.0568963178, 0.3254685   , 0.00224052672, -0.000241963862, 3.03055358  , 1.68        , 3           , 15          , 0           , -4.66899037E-05
0.00999747  , -0.0160365365, -9.792679   , 0.002223843 , 0.0018899861, -0.0002378384, -0.5165835  , -0.057233382, 0.325266272 , 0.002262765 , -0.0002230587, 3.0305512   , 1.69        , 3           , 50          , 0           , 0
0.0149336839, -0.0232726112, -9.804874   , 0.001399352 , -0.00262077781, 0.0005988728, -0.5151004  , -0.057233382, 0.324457318 , 0.002276735 , -0.000249255449, 3.030557    , 1.7         , 3           , 11          , 0.041139923 , 0.0411399156
-0.0009666681, -0.0316100568, -9.819493   , -0.000873498851, -0.000383548351, -0.00336371572, -0.5151004  , -0.057233382, 0.324457318 , 0.00226800842, -0.000253014441, 3.03052354  , 1.71        , 3           , 12          , 0.041136194 , 0
0.000180943869, -0.01178515 , -9.814883   , -2.55658233E-05, -0.0003778153, -0.002229615, -0.515167832, -0.0570985563, 0.325670749 , 0.00226775859, -0.000256742, 3.03050113  , 1.72        , 3           , 14          , 0.000383163861, 0.000542642141
0.00659912638, 0.002041453 , -9.789465   , -0.00144640473, 0.0018651674, 0.00200533378, -0.5165161  , -0.0568963178, 0.325266272 , 0.00225328933, -0.000238135734, 3.03052115  , 1.73        , 3           , 15          , 0           , -4.66826132E-05
0.0318479836, -0.00191381841, -9.774826   , -3.246151E-05, 0.001311582 , 0.0003158257, -0.5153701  , -0.0570985563, 0.324659556 , 0.002252964 , -0.000225027034, 3.03052449  , 1.74        , 3           , 50          , 0           , 0
0.00422173925, -0.005165511, -9.784994   , -0.000587720249, -0.000663194049, 2.761704E-05, -0.5153701  , -0.0570985563, 0.324659556 , 0.002247087 , -0.000231659549, 3.03052449  , 1.75        , 3           , 11          , 0.041139923 , 0.0411399156
0.000868896954, -0.01866737 , -9.783719   , -3.09931638E-05, 0.00131158927, 0.00285866274, -0.515033   , -0.05716597 , 0.325603336 , 0.00224677054, -0.000218607936, 3.030553    , 1.76        , 3           , 12          , 0.041136194 , 0
-0.00684347842, -0.0212672837, -9.788761   , -0.0003098761, -9.81625053E-05, -0.00307811075, -0.5165161  , -0.05696373 , 0.325266272 , 0.00224367855, -0.000219520443, 3.03052258  , 1.77        , 3           , 14          , 0.000383163861, 0.000542642141
-0.009801411, -0.009899886, -9.804104   , -0.000597967766, 0.001307759 , -0.000816958, -0.515033   , -0.05696373 , 0.324255079 , 0.00223770062, -0.000206424549, 3.030514    , 1.78        , 3           , 15          , 0           , -4.66826132E-05
-0.007779327, -0.0244056359, -9.791493   , -0.00228269631, -0.0003930841, 0.00171537418, -0.515033   , -0.05696373 , 0.324255079 , 0.00221487  , -0.000210393584, 3.03053117  , 1.79        , 3           , 50          , 0           , 0
-0.01905267 , -0.01709364 , -9.779798   , 0.0005252537, 0.00272322912, 3.80871352E-05, -0.515235245, -0.0568289049, 0.3254011   , 0.0022200942, -0.000183149779, 3.03053212  , 1.8         , 3           , 11          , 0.0418880731, 0.0418880619
0.008488567 , -0.02551593 , -9.786401   , -0.000323257555, 0.002999065 , 0.0003171075, -0.5165835  , -0.0568289049, 0.3254011   , 0.00221686112, -0.000153166213, 3.030535    , 1.81        , 3           , 12          , 0.0418839976, 0
0.0150864236, -0.01332914 , -9.810255   , -2.85221886E-05, 0.000185316254, -0.00251128967, -0.5149656  , -0.0570985563, 0.3243899   , 0.00221658  , -0.000151257365, 3.03051019  , 1.82        , 3           , 14          , 0.00038316907, 0.0005426399
0.00379936583, -0.006920959, -9.798112   , 0.0005402615, -0.0003739884, -0.0005317611, -0.5149656  , -0.0570985563, 0.3243899   , 0.00222198339, -0.000154985479, 3.03050447  , 1.83        , 3           , 15          , 0           , -4.66777637E-05
0.0135358181, -0.0237350278, -9.796751   , -0.001444349, 0.001020464 , -0.00166896 , -0.515167832, -0.0568289049, 0.325535923 , 0.00220754254, -0.000144743914, 3.03048825  , 1.84        , 3           , 50          , 0           , 0
0.00610722229, -0.0304943509, -9.773785   , -0.00539873959, 0.00127529434, 8.26185E-06 , -0.5165835  , -0.0568289049, 0.325198859 , 0.002153555 , -0.000131991139, 3.03048825  , 1.85        , 3           , 11          , 0.0418880731, 0.0418880619
-0.00227094442, -0.0239623319, -9.808173   , -0.00369040133, -0.00152889732, -0.000270713383, -0.515302658, -0.0570311435, 0.32452473  , 0.002116651 , -0.00014727423, 3.03048539  , 1.86        , 3           , 12          , 0.0418839976, 0
0.008314611 , -0.0114478236, -9.809396   , 0.000815065636, 0.00103574374, -0.0016584245, -0.515302658, -0.0570311435, 0.32452473  , 0.002124804 , -0.000136881659, 3.03046918  , 1.87        , 3           , 14          , 0.00038316907, 0.0005426399
0.00107882265, -0.00957027 , -9.805828   , -1.83635275E-05, -0.00150406547, 0.000594019 , -0.5154375  , -0.0570985563, 0.325333685 , 0.00212461944, -0.000151934917, 3.030475    , 1.88        , 3           , 15          , 0           , -4.66777637E-05
0.0126548316, -0.0232581273, -9.801276   , 0.00222989917, 0.0007637349, 0.000608025934, -0.5165161  , -0.056761492, 0.325198859 , 0.00214691763, -0.000144310587, 3.03048062  , 1.89        , 3           , 50          , 0           , 0
-0.00422025472, -0.0267311335, -9.78334    , -0.00256971363, 0.000168135273, -0.001392988, -0.5149656  , -0.0570985563, 0.3243899   , 0.002121208 , -0.0001425698, 3.03046727  , 1.9         , 3           , 11          , 0.0426643081, 0.0426643044
0.00420694146, -0.0100873495, -9.797218   , 0.0002532349, 0.0007503722, 0.00116388628, -0.5149656  , -0.0570985563, 0.3243899   , 0.00212373864, -0.000135090784, 3.03047872  , 1.91        , 3           , 12          , 0.04265987  , 0
0.0139133148, -0.02469405 , -9.781384   , 0.00336550549, -0.00035487843, 0.0011766369, -0.5149656  , -0.05696373 , 0.325535923 , 0.00215739221, -0.000138664749, 3.03049016  , 1.92        , 3           , 14          , 0.0003831718, 0.0005426343
-0.0273012351, -0.02154122 , -9.770387   , 0.000530174468, 0.00159697118, -0.00109379459, -0.5164487  , -0.0568289049, 0.325266272 , 0.0021626954, -0.000122671423, 3.03047967  , 1.93        , 3           , 15          , 0           , -4.66816928E-05
-0.001825981, -0.0168323889, -9.783281   , -0.00369228772, -0.00124732917, -0.00111788791, -0.5154375  , -0.057233382, 0.3243899   , 0.00212577381, -0.000135120732, 3.03046823  , 1.94        , 3           , 50          , 0           , 0
-0.00416955259, -0.0262436979, -9.794185   , -0.000587238756, -0.000663183862, 0.000875228434, -0.5154375  , -0.057233382, 0.3243899   , 0.0021199   , -0.000141771161, 3.03047681  , 1.95        , 3           , 11          , 0.0426643081, 0.0426643044
0.0108799934, -0.016958544, -9.789964   , 0.000534845865, 0.000752278254, -0.000247483957, -0.515167832, -0.0570985563, 0.325535923 , 0.002125249 , -0.0001342431, 3.03047442  , 1.96        , 3           , 12          , 0.04265987  , 0
0.00860506948, -0.011584674, -9.770071   , 0.00336141256, 0.000208245343, -0.00108279486, -0.5166509  , -0.05696373 , 0.325131446 , 0.00215886487, -0.000132137473, 3.03046346  , 1.97        , 3           , 14          , 0.0003831718, 0.0005426343
0.0067625707, -0.0187304318, -9.785482   , 0.001961736 , -0.002053819, 0.00116744859, -0.515033   , -0.0573682077, 0.32452473  , 0.00217848015, -0.00015270093, 3.03047538  , 1.98        , 3           , 15          , 0           , -4.66816928E-05
0.000755014829, -0.0290257074, -9.789187   , 0.001964361 , -0.00261694938, 0.0008840432, -0.515033   , -0.0573682077, 0.32452473  , 0.00219812244, -0.000178889721, 3.03048444  , 1.99        , 3           , 50          , 0           , 0
-0.004779921, -0.0326149762, -9.776136   , -2.39435776E-05, -0.000377795717, 0.0005957444, -0.5151004  , -0.0570311435, 0.325670749 , 0.00219787518, -0.00018265986, 3.03049016  , 2           , 3           , 11          , 0.0434668139, 0.0434668139
0.012958711 , -0.0305257067, -9.788197   , -0.00172268646, 0.000455439615, 0.0005891446, -0.516313851, -0.0568963178, 0.325333685 , 0.00218064687, -0.000178118426, 3.030496    , 2.01        , 3           , 12          , 0.04346199  , 0
0.02662479  , -0.0274938568, -9.798023   , -0.000867531344, -0.00122822309, -0.000257120439, -0.515033   , -0.0568963178, 0.324659556 , 0.00217197184, -0.000190395, 3.030493    , 2.02        , 3           , 14          , 0.000383173116, 0.0005426304
0.0144436816, -0.0206193477, -9.78724    , 0.0005441875, -0.000937103643, 0.00144512288, -0.515033   , -0.0568963178, 0.324659556 , 0.00217741122, -0.000199797461, 3.0305078   , 2.03        , 3           , 15          , 0           , -4.66674464E-05
-0.0158165582, -0.0152914654, -9.790161   , -0.00143066479, -0.00151360664, 0.0003048865, -0.5151004  , -0.05696373 , 0.325535923 , 0.00216310378, -0.000214940112, 3.03051066  , 2.04        , 3           , 50          , 0           , 0
-0.0106869768, -0.0330091231, -9.772568   , -0.0005835475, -0.00150787761, 2.63000729E-05, -0.5165835  , -0.0568289049, 0.325266272 , 0.00215726835, -0.000230019417, 3.03051114  , 2.05        , 3           , 11          , 0.0434668139, 0.0434668139
-0.0138265593, -0.005348093, -9.801856   , -0.001428767, -0.002358313, -0.00365193957, -0.515235245, -0.0570311435, 0.32452473  , 0.00214298931, -0.000253524, 3.03047442  , 2.06        , 3           , 12          , 0.04346199  , 0
-0.00497361273, -0.0225800127, -9.807284   , 0.00194755709, 0.00048026297, -0.00165403506, -0.515235245, -0.0570311435, 0.32452473  , 0.00216246955, -0.00024868577, 3.03045774  , 2.07        , 3           , 14          , 0.000383173116, 0.0005426304
-0.0081113195, -0.0122509925, -9.781954   , -0.00256692688, -0.00039499093, -0.00139387022, -0.5153701  , -0.05696373 , 0.3254685   , 0.0021368037, -0.0002526057, 3.030444    , 2.08        , 3           , 15          , 0           , -4.66674464E-05
0.006829839 , -0.0159978159, -9.793155   , 0.00165741867, 0.002167747 , -0.0005225983, -0.5165161  , -0.0566940829, 0.325064033 , 0.00215337938, -0.000230917023, 3.03043866  , 2.09        , 3           , 50          , 0           , 0
0.000571242534, -0.0456895754, -9.797846   , -0.00341142132, -0.000963849656, -0.00139868248, -0.5151004  , -0.056761492, 0.324659556 , 0.002119259 , -0.000240518712, 3.03042483  , 2.1         , 3           , 11          , 0.0442938432, 0.0442938469
-0.0113527691, -0.0238771886, -9.801914   , 0.000533612 , 0.00103384932, 3.5479603E-05, -0.5151004  , -0.056761492, 0.324659556 , 0.002124595 , -0.000230180973, 3.03042531  , 2.11        , 3           , 12          , 0.04428861  , 0
-0.002096044, -0.0117691569, -9.811737   , -0.00115389016, -0.0006670072, -0.00223532529, -0.515167832, -0.05716597 , 0.3254011   , 0.002113061 , -0.0002368037, 3.03040242  , 2.12        , 3           , 14          , 0.0003831749, 0.000542629045
-0.0150908688, -0.00168514077, -9.813149   , 0.0008294893, -0.00177989388, -0.0008151553, -0.516381264, -0.0568289049, 0.325131446 , 0.002121358 , -0.000254585349, 3.03039479  , 2.13        , 3           , 15          , 0           , -4.66738347E-05
-0.0133976042, -0.00224826531, -9.78602    , -0.00228786841, 0.0004516195, 2.14423944E-05, -0.515167832, -0.0570985563, 0.32452473  , 0.00209847954, -0.0002500696, 3.03039479  , 2.14        , 3           , 50          , 0           , 0
-0.005920101, -0.0275123864, -9.813187   , -0.0011656204, 0.00186708267, -0.0008187327, -0.515167832, -0.0570985563, 0.32452473  , 0.0020868252, -0.00023138168, 3.03038669  , 2.15        , 3           , 11          , 0.0442938432, 0.0442938469
-0.006371377, -0.020364251, -9.790562   , -0.0028496075, -0.000115328992, 0.0005830154, -0.5151004  , -0.0570311435, 0.3254685   , 0.002058328 , -0.000232547027, 3.03039241  , 2.16        , 3           , 12          , 0.04428861  , 0
0.0149244545, -0.0206019878, -9.794016   , 0.00137629546, 0.00216584466, 0.001736391 , -0.5165835  , -0.056761492, 0.325064033 , 0.00207208679, -0.000210924482, 3.03041     , 2.17        , 3           , 14          , 0.0003831749, 0.000542629045
-0.00395035837, -0.001963175, -9.769675   , -0.00367737212, -0.0040629697, 0.000572989462, -0.515235245, -0.05716597 , 0.32452473  , 0.00203531166, -0.000251565885, 3.03041577  , 2.18        , 3           , 15          , 0           , -4.66738347E-05
-0.00473442 , -0.00408583973, -9.806301   , -0.000860400032, -0.00263604638, 2.325379E-05, -0.515235245, -0.05716597 , 0.32452473  , 0.00202670763, -0.000277926767, 3.03041577  , 2.19        , 3           , 50          , 0           , 0
0.00849328  , -0.024173066, -9.783232   , -0.0011407861, -0.00291951885, 0.00115164509, -0.515235245, -0.057233382, 0.3254011   , 0.00201526633, -0.0003071472, 3.03042722  , 2.2         , 3           , 11          , 0.0451437421, 0.0451437421
-0.0050462503, -0.0275487229, -9.805496   , -3.13218043E-05, 0.000748456863, -0.00251043332, -0.5165161  , -0.0568289049, 0.325131446 , 0.00201496086, -0.000299612, 3.030402    , 2.21        , 3           , 12          , 0.0451380648, 0
0.00246362668, -0.009118431, -9.810786   , -0.0028479672, -0.000678465061, -0.00139562215, -0.515033   , -0.0570985563, 0.324457318 , 0.00198648521, -0.000306368747, 3.030388    , 2.22        , 3           , 14          , 0.000383180653, 0.000542629452
0.009958712 , -0.0129434969, -9.773231   , -0.00116521842, 0.00186708383, -0.000112396447, -0.515033   , -0.0570985563, 0.324457318 , 0.00197483343, -0.00028769573, 3.03038716  , 2.23        , 3           , 15          , 0           , -4.66663369E-05
-0.002548404, -0.008639043, -9.801784   , -0.000880781969, 0.00144664594, -0.000252999162, -0.5151004  , -0.0568963178, 0.3254685   , 0.00196602615, -0.0002732243, 3.0303843   , 2.24        , 3           , 50          , 0           , 0
-0.0221657343, -0.0214742012, -9.807862   , -0.000306785747, -0.000379706762, -0.000111917121, -0.5164487  , -0.0565592572, 0.325198859 , 0.0019629586, -0.000277019164, 3.03038335  , 2.25        , 3           , 11          , 0.0451437421, 0.0451437421
-0.00618659426, -0.009948466, -9.802269   , -0.00030252224, -0.00122440164, 2.804983E-05, -0.515033   , -0.0568289049, 0.324659556 , 0.0019599332, -0.000289263728, 3.03038335  , 2.26        , 3           , 12          , 0.0451380648, 0
0.0174748711, -0.0012033591, -9.8015995  , -0.00143518066, -0.0006689121, -0.000258887536, -0.515033   , -0.0568289049, 0.324659556 , 0.00194558233, -0.000295947772, 3.030381    , 2.27        , 3           , 14          , 0.000383180653, 0.000542629452
-0.0015244931, -0.0299044549, -9.788304   , -0.000587611052, -0.0008039668, -0.0009614974, -0.515235245, -0.0568963178, 0.325805575 , 0.00193970883, -0.0003039688, 3.03037143  , 2.28        , 3           , 15          , 0           , -4.66663369E-05
-0.0009230301, -0.0204159431, -9.794137   , 0.00054148084, -0.0006555439, -0.000814744039, -0.5165161  , -0.0566940829, 0.325333685 , 0.00194512657, -0.000310508418, 3.03036332  , 2.29        , 3           , 50          , 0           , 0
0.00299003441, -0.002815188, -9.80849552 , 0.0002616758, -0.00122058229, -0.00109945633, -0.515033   , -0.0570985563, 0.32452473  , 0.00194773113, -0.0003226801, 3.03035235  , 2.3         , 3           , 11          , 0.046014946 , 0.04601495
-0.009851786, -0.009940705, -9.791901   , -0.00100194861, -0.002637001, -0.0005424774, -0.515033   , -0.0570985563, 0.32452473  , 0.00193771336, -0.0003490395, 3.030347    , 2.31        , 3           , 12          , 0.0460087955, 0
0.00249603856, -0.0331209376, -9.785123   , -0.0008734072, 3.88252374E-05, 0.0004511846, -0.5148982  , -0.0568289049, 0.325670749 , 0.00192897767, -0.000348659931, 3.0303514   , 2.32        , 3           , 14          , 0.000383183651, 0.000542627
0.004877482 , -0.0254643355, -9.789141   , 0.000394154515, 0.0006105476, -0.0005309025, -0.5164487  , -0.0570311435, 0.325198859 , 0.001932921 , -0.000342544226, 3.03034616  , 2.33        , 3           , 15          , 0           , -4.667614E-05
-0.0007874118, -0.0109326923, -9.796807   , -0.000445948419, -0.0009437929, -0.00138485245, -0.515033   , -0.05716597 , 0.3243899   , 0.00192846637, -0.0003519553, 3.03033185  , 2.34        , 3           , 50          , 0           , 0
-0.00767925847, -0.0176293  , -9.794176   , -0.00171740307, -0.000811604434, -0.00110802415, -0.515033   , -0.05716597 , 0.3243899   , 0.00191129639, -0.000360050035, 3.03032136  , 2.35        , 3           , 11          , 0.046014946 , 0.04601495
0.004574259 , -0.01730353 , -9.799504   , 0.000111030618, 0.00074942  , -0.000532002363, -0.515235245, -0.05696373 , 0.325535923 , 0.00191240839, -0.0003525457, 3.03031564  , 2.36        , 3           , 12          , 0.0460087955, 0
-0.0157835  , -0.0210672375, -9.816852   , -0.000455587549, 0.00116794929, 3.108946E-05, -0.5165161  , -0.05696373 , 0.325333685 , 0.00190785236, -0.000340866827, 3.030316    , 2.37        , 3           , 14          , 0.000383183651, 0.000542627
-0.0203438569, -0.0170232616, -9.796078   , -0.00130131084, 0.000880655 , 0.0003092422, -0.5151004  , -0.05716597 , 0.324659556 , 0.00189483829, -0.000332066178, 3.03031945  , 2.38        , 3           , 15          , 0           , -4.667614E-05
0.027627578 , -0.0220695063, -9.80432    , 0.00265241973, 0.0009073934, -9.61267942E-05, -0.5151004  , -0.05716597 , 0.324659556 , 0.00192136271, -0.0003229904, 3.0303185   , 2.39        , 3           , 50          , 0           , 0
0.005532826 , -0.013700407, -9.800839   , 0.004344029 , 0.00148198544, -0.000369901, -0.515302658, -0.0570985563, 0.325535923 , 0.001964801 , -0.0003081477, 3.03031468  , 2.4         , 3           , 11          , 0.0469059721, 0.0469059758
0.00124367606, -0.0258775018, -9.787814   , 0.002086705 , 0.001044358 , -0.0003810874, -0.5165835  , -0.05696373 , 0.325198859 , 0.00198566914, -0.000297696621, 3.03031087  , 2.41        , 3           , 12          , 0.04689932  , 0
-0.000513810664, -0.0213492587, -9.786453   , -0.00100436655, -0.00221465179, -0.00110690761, -0.515235245, -0.05696373 , 0.324592143 , 0.001975629 , -0.000319821149, 3.03029943  , 2.42        , 3           , 14          , 0.000383184262, 0.000542624
-0.007144049, -0.0171214789, -9.812701   , -0.00298237754, -0.00208724081, -0.00168098416, -0.515235245, -0.05696373 , 0.324592143 , 0.00194581121, -0.0003406605, 3.03028274  , 2.43        , 3           , 15          , 0           , -4.66699676E-05
-0.00410129875, -0.02217124 , -9.797784   , -0.0022770518, -0.00180089741, -0.000547108066, -0.515302658, -0.0570311435, 0.3254685   , 0.00192304235, -0.000358658843, 3.03027749  , 2.44        , 3           , 50          , 0           , 0
-0.007365362, -0.03158402 , -9.805079   , -2.079596E-05, -0.00108170358, 2.95872269E-05, -0.5164487  , -0.0570311435, 0.325198859 , 0.00192283432, -0.000369476445, 3.03027749  , 2.45        , 3           , 11          , 0.0469059721, 0.0469059758
-0.0153242657, -0.01481842 , -9.798291   , 0.002091377 , 0.000199665214, 0.0004652232, -0.5149656  , -0.05716597 , 0.324659556 , 0.00194374635, -0.0003674888, 3.03028226  , 2.46        , 3           , 12          , 0.04689932  , 0
0.000385606661, -0.0195794739, -9.779207   , 0.00139748526, -0.00219841138, 0.00102331734, -0.5149656  , -0.05716597 , 0.324659556 , 0.00195771758, -0.0003894929, 3.03029275  , 2.47        , 3           , 14          , 0.000383184262, 0.000542624
-0.00109936949, -0.0294858366, -9.780164   , 0.000966674648, -0.000934237731, -0.0005306615, -0.5151004  , -0.0570311435, 0.325333685 , 0.00196738658, -0.000398824777, 3.030287    , 2.48        , 3           , 15          , 0           , -4.66699676E-05
0.00348567124, -0.03038535 , -9.796856   , -0.000456774724, 0.00130873232, -0.000816312269, -0.5164487  , -0.0568289049, 0.325266272 , 0.00196282216, -0.000385721418, 3.030279    , 2.49        , 3           , 50          , 0           , 0
0.0110170515, -0.0105985869, -9.803043   , -0.0021503896, 0.001156493 , -0.000400616816, -0.515033   , -0.0568963178, 0.324794382 , 0.00194134191, -0.000374139, 3.03027463  , 2.5         , 3           , 11          , 0.0478154272, 0.0478154346
-0.00674527138, -0.01449246 , -9.790992   , -0.00101629284, 0.000178652845, -0.00124448026, -0.515033   , -0.0568963178, 0.324794382 , 0.00193118362, -0.0003723284, 3.03026223  , 2.51        , 3           , 12          , 0.0478082374, 0
-0.00283060782, -0.0298461765, -9.80097    , 0.0002629919, -0.001502143, -0.00124115765, -0.515033   , -0.0570311435, 0.325670749 , 0.00193381833, -0.0003873259, 3.03024983  , 2.52        , 3           , 14          , 0.00038318  , 0.0005426221
-0.0109954374, -0.0319941565, -9.804656   , -0.00129011075, -0.00151264656, -0.000824594463, -0.5164487  , -0.0570311435, 0.325333685 , 0.00192092056, -0.000402436272, 3.03024173  , 2.53        , 3           , 15          , 0           , -4.66776546E-05
-0.00412005838, -0.0248645432, -9.801863   , -0.002567349, -0.000113412993, 0.0003017988, -0.5149656  , -0.0570311435, 0.32452473  , 0.00189524586, -0.0004035761, 3.030245    , 2.54        , 3           , 50          , 0           , 0
0.0007457789, -0.0263550878, -9.778328   , 0.000252856 , 0.0008911685, 0.00172917417, -0.5149656  , -0.0570311435, 0.32452473  , 0.00189776742, -0.000394697126, 3.03026223  , 2.55        , 3           , 11          , 0.0478154272, 0.0478154346
0.0314544179, -0.03258454 , -9.777216   , 0.00152513362, 0.000477412163, 0.000463030941, -0.5151004  , -0.0570311435, 0.3254685   , 0.00191301689, -0.000389931753, 3.030267    , 2.56        , 3           , 12          , 0.0478082374, 0
0.0179466773, -0.0256683826, -9.774126   , 0.00236749742, 0.001327834 , -0.000803135044, -0.5165161  , -0.0568963178, 0.325266272 , 0.00193669519, -0.000376638054, 3.030259    , 2.57        , 3           , 14          , 0.00038318  , 0.0005426221
-0.0103902435, -0.022502616, -9.811392   , 0.00208650157, 0.00118514488, 0.000466749654, -0.515033   , -0.0570311435, 0.324659556 , 0.00195755833, -0.000364795764, 3.03026319  , 2.58        , 3           , 15          , 0           , -4.66776546E-05
-0.004554511, -0.025290722, -9.807744   , -0.000591510441, 0.0001815231, 0.000735257345, -0.515033   , -0.0570311435, 0.324659556 , 0.00195164082, -0.000362994964, 3.03027081  , 2.59        , 3           , 50          , 0           , 0
0.0146685038, -0.00392221473, -9.788525   , 0.000393586757, 0.000892127166, 0.000882218068, -0.515033   , -0.0568289049, 0.3254685   , 0.0019556086, -0.0003540595, 3.0302794   , 2.6         , 3           , 11          , 0.0487420037, 0.0487420037
0.00787685253, -0.00875223149, -9.804416   , 0.00166938629, -8.47557239E-05, 0.0008866254, -0.5167183  , -0.056761492, 0.325333685 , 0.0019722993, -0.0003549245, 3.03028846  , 2.61        , 3           , 12          , 0.04873424  , 0
0.0117975436, -0.0209766235, -9.805793   , 0.0005441874, -0.0009370893, 0.00144513091, -0.515167832, -0.057233382, 0.324592143 , 0.001977736 , -0.000364323962, 3.03030324  , 2.62        , 3           , 14          , 0.000383173261, 0.0005426161
-0.006551319, -0.0343469158, -9.791525   , -0.000447791448, -0.000239861518, 0.00144160655, -0.515167832, -0.057233382, 0.324592143 , 0.00197325251, -0.000366751075, 3.03031754  , 2.63        , 3           , 15          , 0           , -4.66754063E-05
-0.008749287, -0.03337419 , -9.804646   , -0.000586461567, -0.000803947856, 0.00101627386, -0.5151004  , -0.05696373 , 0.325603336 , 0.00196738425, -0.000374810537, 3.03032756  , 2.64        , 3           , 50          , 0           , 0
-0.00148157869, -0.0298696775, -9.7987     , 0.00110428815, -8.857692E-05, 0.0004601854, -0.5165161  , -0.05696373 , 0.325198859 , 0.001978425 , -0.000375705364, 3.03033185  , 2.65        , 3           , 11          , 0.0487420037, 0.0487420037
-0.0155978259, -0.0293232948, -9.778014   , 0.00237635826, -0.000361548358, 4.18714553E-05, -0.5151004  , -0.057233382, 0.324592143 , 0.0020021887, -0.000379321747, 3.0303328   , 2.66        , 3           , 12          , 0.04873424  , 0
-0.02833955 , -0.0372604057, -9.78854    , 0.001255875 , -0.0021993604, 0.000316320627, -0.5151004  , -0.057233382, 0.324592143 , 0.00201474619, -0.0004013216, 3.03033566  , 2.67        , 3           , 14          , 0.000383173261, 0.0005426161
-0.0195566863, -0.0233787354, -9.787512   , 0.00153616618, -0.00163431722, 0.00144865515, -0.515235245, -0.0570985563, 0.3254011   , 0.0020301016, -0.000417694071, 3.03035     , 2.68        , 3           , 15          , 0           , -4.66754063E-05
-0.00319893565, -0.0163819157, -9.778318   , 0.00407349924, -0.0007724337, 0.0008967343, -0.5165835  , -0.05716597 , 0.325266272 , 0.00207083276, -0.000425436476, 3.030359    , 2.69        , 3           , 50          , 0           , 0
0.0223481748, -0.00268785469, -9.779874   , 0.00152966147, -0.00064885075, -0.00137520442, -0.515167832, -0.05696373 , 0.324592143 , 0.002086166 , -0.0004319151, 3.0303452   , 2.7         , 3           , 11          , 0.0496844649, 0.04968447
0.014948382 , -0.02102895 , -9.801249   , -0.0008716634, -0.000524302945, -0.00138618133, -0.515167832, -0.05696373 , 0.324592143 , 0.00207745517, -0.000437129347, 3.03033137  , 2.71        , 3           , 12          , 0.04967609  , 0
-0.01036245 , -0.027836306, -9.83537    , 0.000400117482, -0.000656489865, -0.00109793455, -0.515033   , -0.0570985563, 0.325873    , 0.002081461 , -0.0004436715, 3.03032041  , 2.72        , 3           , 14          , 0.00038316744, 0.000542619731
0.00202298537, -0.0429517552, -9.811834   , -0.002134917, -0.00208150572, -0.00139449409, -0.516246438, -0.0568963178, 0.325198859 , 0.002060118 , -0.000464457524, 3.030306    , 2.73        , 3           , 15          , 0           , -4.66717465E-05
-0.00216236152, -0.005573988, -9.775553   , -0.00213057175, -0.0029262004, -0.00111325842, -0.5151004  , -0.0570985563, 0.3243899   , 0.00203881739, -0.000493696658, 3.03029513  , 2.74        , 3           , 50          , 0           , 0
0.0075449273, -0.029106956, -9.788683   , 0.0002624262, -0.00122057146, 0.000171957727, -0.5151004  , -0.0570985563, 0.3243899   , 0.002041441 , -0.000505905948, 3.030297    , 2.75        , 3           , 11          , 0.0496844649, 0.04968447
0.007984649 , -0.0291228555, -9.785517   , 0.00138709135, -0.000227454628, -0.000103793289, -0.515167832, -0.0570985563, 0.325670749 , 0.00205531274, -0.0005081783, 3.03029561  , 2.76        , 3           , 12          , 0.04967609  , 0
0.0205474775, -0.00622893 , -9.793914   , 0.00194874906, 0.000339493417, -0.000806635246, -0.5165835  , -0.0568963178, 0.325333685 , 0.00207480416, -0.0005047667, 3.030288    , 2.77        , 3           , 14          , 0.00038316744, 0.000542619731
-0.005206748, -0.00275730668, -9.79726    , 0.00250921329, 0.00132879359, 4.51298547E-05, -0.515033   , -0.05716597 , 0.324457318 , 0.00209989632, -0.000491479761, 3.030288    , 2.78        , 3           , 15          , 0           , -4.66717465E-05
0.008954281 , -0.02060092 , -9.773722   , 0.00251642778, -7.903054E-05, 0.000466766476, -0.515033   , -0.05716597 , 0.324457318 , 0.00212505786, -0.000492279942, 3.03029275  , 2.79        , 3           , 50          , 0           , 0
-0.00573973171, -0.0104049314, -9.802267   , 0.00139213121, -0.00121292088, 0.000177216745, -0.515235245, -0.05716597 , 0.3254685   , 0.002138966 , -0.000504356, 3.03029466  , 2.8         , 3           , 11          , 0.0506416559, 0.0506416559
0.0204186   , 0.0159100033, -9.801957   , -0.0007299629, -0.000523334835, -0.0005379192, -0.5165161  , -0.0568963178, 0.325266272 , 0.00213166885, -0.000509577862, 3.030289    , 2.81        , 3           , 12          , 0.05063263  , 0
-0.008031289, -0.01754234 , -9.818585   , -0.00298991147, -0.00039783126, -0.000265700131, -0.5151004  , -0.0570985563, 0.324457318 , 0.0021017713, -0.000513550534, 3.03028655  , 2.82        , 3           , 14          , 0.000383169769, 0.0005426089
-0.008674488, -0.0203694161, -9.781088   , -0.002703384, -0.001240617, -0.000406953826, -0.5151004  , -0.0570985563, 0.324457318 , 0.00207473966, -0.000525948242, 3.03028226  , 2.83        , 3           , 15          , 0           , -4.666302E-05
0.0217130221, -0.0148817664, -9.774505   , -0.0008600243, -0.00277681043, -0.0005420491, -0.515235245, -0.057233382, 0.3254685   , 0.00206614239, -0.000553705031, 3.030277    , 2.84        , 3           , 50          , 0           , 0
-0.000555386767, -0.0271854978, -9.795065   , -0.000163670848, -0.000941865437, -0.00166608614, -0.5165835  , -0.0568963178, 0.325064033 , 0.00206451514, -0.00056308927, 3.03026032  , 2.85        , 3           , 11          , 0.0506416559, 0.0506416559
0.01071894  , -0.0331576541, -9.802688   , -0.00172517507, 0.000596235157, -0.002518555, -0.5148982  , -0.0570311435, 0.324592143 , 0.00204727752, -0.000557075138, 3.030235    , 2.86        , 3           , 12          , 0.05063263  , 0
0.010465607 , -0.0129049635, -9.786335   , -0.00015920696, -0.00164577365, 2.80539552E-05, -0.5148982  , -0.0570311435, 0.324592143 , 0.00204568519, -0.000573533354, 3.03023553  , 2.87        , 3           , 14          , 0.000383169769, 0.0005426089
-0.0112971524, -0.0166905168, -9.792393   , 0.0006992627, -0.00375177851, 0.00130016881, -0.5153701  , -0.0570311435, 0.325670749 , 0.00205267034, -0.0006110777, 3.0302484   , 2.88        , 3           , 15          , 0           , -4.666302E-05
-0.00434474554, -0.003695934, -9.789574   , -0.00142127415, -0.00334375654, 0.000867136463, -0.5165161  , -0.0570311435, 0.325266272 , 0.002038452 , -0.0006445329, 3.030257    , 2.89        , 3           , 50          , 0           , 0
0.005737777 , 0.003873314 , -9.794436   , -0.0012931833, -0.0008087083, -0.000117178162, -0.515033   , -0.05716597 , 0.32452473  , 0.00202549133, -0.0006525624, 3.03025556  , 2.9         , 3           , 11          , 0.0516124927, 0.0516124927
0.02320055  , -0.0116685992, -9.795723   , -0.0010144863, -0.00010288677, -0.000538582448, -0.515033   , -0.05716597 , 0.32452473  , 0.00201534969, -0.0006535803, 3.03025031  , 2.91        , 3           , 12          , 0.0516027771, 0
0.0194108617, -0.031401135, -9.818433   , -0.00115430565, -0.0003854068, -0.0005396749, -0.5154375  , -0.0568289049, 0.325603336 , 0.00200381014, -0.0006574235, 3.030245    , 2.92        , 3           , 14          , 0.0003831753, 0.0005425985
-0.00178984471, -0.0234983582, -9.813591   , -0.002141613, -0.0005328719, 0.000303111185, -0.5165161  , -0.0570985563, 0.325131446 , 0.001982392 , -0.0006627582, 3.030248    , 2.93        , 3           , 15          , 0           , -4.66655874E-05
0.004496352 , -0.0218301564, -9.795004   , -0.00270585134, -0.0006774748, 0.000158991592, -0.5148982  , -0.05716597 , 0.3243899   , 0.00195533247, -0.0006695361, 3.03024983  , 2.94        , 3           , 50          , 0           , 0
-0.0181609131, -0.0206862614, -9.787941   , 0.000110178917, 0.000890230236, -0.0008143335, -0.5148982  , -0.05716597 , 0.3243899   , 0.00195643958, -0.0006606179, 3.03024125  , 2.95        , 3           , 11          , 0.0516124927, 0.0516124927
-0.0146795213, -0.0297699571, -9.782529   , 0.00180723879, 0.000479344453, -0.000100739184, -0.5153701  , -0.0570311435, 0.3254011   , 0.00197451282, -0.000655822456, 3.0302403   , 2.96        , 3           , 12          , 0.0516027771, 0
-0.0175310355, -0.008050272, -9.790596   , 0.000121820267, -0.00136228814, 2.98074156E-05, -0.516381264, -0.0568963178, 0.3248618   , 0.001975731 , -0.0006694459, 3.03024077  , 2.97        , 3           , 14          , 0.0003831753, 0.0005425985
-0.000171833672, -0.0326031223, -9.795537   , -0.00242690952, 2.83479949E-05, 0.000161393473, -0.5148982  , -0.0570311435, 0.324457318 , 0.00195146061, -0.0006691657, 3.0302422   , 2.98        , 3           , 15          , 0           , -4.66655874E-05
-0.002357196, -0.02715668 , -9.797339   , -0.000463491015, 0.0027165846, -0.000390340661, -0.5148982  , -0.0570311435, 0.324457318 , 0.00194682821, -0.0006419925, 3.03023839  , 2.99        , 3           , 50          , 0           , 0
-0.0133633614, -0.001327821, -9.791441   , 0.00178986124, 0.00385812763, -0.00122568407, -0.515235245, -0.0568963178, 0.325670749 , 0.0019647507, -0.000603361346, 3.030226    , 3           , 3           , 11          , 0.05259596  , 0.05259596
-0.005984949, -0.0320284367, -9.81185    , -0.0007422222, 0.00186998188, -0.00124057417, -0.516785741, -0.05696373 , 0.325131446 , 0.00195733574, -0.000584637164, 3.03021359  , 3.01        , 3           , 12          , 0.0525855124, 0
0.00424867868, -0.0167487934, -9.828884   , -0.00144427049, 0.0010205108, -0.0015277057, -0.5149656  , -0.0573007949, 0.324457318 , 0.001942902 , -0.000574402336, 3.03019834  , 3.02        , 3           , 14          , 0.000383172272, 0.000542593654
-0.000805315562, -0.007376399, -9.780973   , 0.0009574626, 0.0008959649, -0.000810385, -0.5149656  , -0.0573007949, 0.324457318 , 0.00195248122, -0.0005654269, 3.03019071  , 3.03        , 3           , 15          , 0           , -4.66633064E-05
0.0052398853, 0.003395735 , -9.78495    , 0.00152690616, 5.50915065E-05, -0.000102709171, -0.5151004  , -0.0570985563, 0.3254685   , 0.001967751 , -0.0005648741, 3.03018975  , 3.04        , 3           , 50          , 0           , 0
0.005354258 , 0.00170300808, -9.818404   , 0.000117025869, -0.000376805168, 0.000172592627, -0.5165161  , -0.05696373 , 0.32499662  , 0.00196892023, -0.0005686454, 3.03019118  , 3.05        , 3           , 11          , 0.05259596  , 0.05259596
-0.0057123974, -0.0112754824, -9.811762   , 0.00011190214, 0.0006086716, -0.000249694829, -0.514830768, -0.0570311435, 0.324592143 , 0.00197004061, -0.0005625539, 3.0301888   , 3.06        , 3           , 12          , 0.0525855124, 0
-0.0199356209, -0.01929643 , -9.792469   , 0.00137851492, 0.0016027469, 0.0007466313, -0.514830768, -0.0570311435, 0.324592143 , 0.00198382162, -0.0005465412, 3.03019643  , 3.07        , 3           , 14          , 0.000383172272, 0.000542593654
-0.000106005929, -0.0267472267, -9.7928     , 0.00153153308, -0.0006488159, 0.001873968 , -0.515167832, -0.0570311435, 0.325603336 , 0.001999127 , -0.0005530666, 3.030215    , 3.08        , 3           , 15          , 0           , -4.66633064E-05
-0.0306283515, -0.00295915827, -9.782991   , 0.000682124344, -0.000372984185, 0.0005990328, -0.5164487  , -0.057233382, 0.325198859 , 0.00200594449, -0.0005568085, 3.03022122  , 3.09        , 3           , 50          , 0           , 0
-0.012412359, -0.000408940017, -9.799564   , 0.00194844615, 0.000480300834, -0.000100086516, -0.5149656  , -0.0568289049, 0.32452473  , 0.00202538329, -0.0005520209, 3.03022027  , 3.1         , 3           , 11          , 0.0535911247, 0.05359113
0.009201525 , -0.0114735756, -9.804869   , 0.00181670173, -0.00135082542, 0.000602778047, -0.5149656  , -0.0568289049, 0.32452473  , 0.00204354664, -0.0005655415, 3.030226    , 3.11        , 3           , 12          , 0.053579893 , 0
-0.02140531 , 0.00644347165, -9.793278   , 0.0009689694, -0.00121577154, 0.00102285028, -0.515235245, -0.0570311435, 0.325603336 , 0.0020532303, -0.0005777201, 3.03023648  , 3.12        , 3           , 14          , 0.000383180944, 0.0005425969
-0.00178339332, -0.0172442272, -9.795033   , 0.00251362682, 0.0004841223, 0.000467622245, -0.5164487  , -0.0570311435, 0.325198859 , 0.00207836367, -0.0005728886, 3.03024077  , 3.13        , 3           , 15          , 0           , -4.66596575E-05
0.0211584363, -0.0265640467, -9.787213   , -2.89490345E-05, 0.00046692905, -0.0008156489, -0.5151004  , -0.05716597 , 0.32452473  , 0.002078079 , -0.000568202231, 3.03023267  , 3.14        , 3           , 50          , 0           , 0
0.0139959687, -0.0264124777, -9.807155   , -0.00172244245, 0.000173902619, -0.00138905947, -0.5151004  , -0.05716597 , 0.32452473  , 0.00206086226, -0.0005664345, 3.03021884  , 3.15        , 3           , 11          , 0.0535911247, 0.05359113
-0.00452632457, -0.01991168 , -9.797326   , -0.0008823395, 0.00172824285, -0.00053510943, -0.5151004  , -0.0570985563, 0.325670749 , 0.002052042 , -0.000549141, 3.03021359  , 3.16        , 3           , 12          , 0.053579893 , 0
0.0191978924, -0.004420477, -9.7903     , -0.000175538255, 0.00173302123, 0.0007396015, -0.5165161  , -0.0568963178, 0.325198859 , 0.00205028243, -0.0005318259, 3.03022122  , 3.17        , 3           , 14          , 0.000383180944, 0.0005425969
0.0177034922, -0.0170125775, -9.797595   , 0.0002553611, 0.000187276251, 3.28464921E-05, -0.5148982  , -0.0573682077, 0.324592143 , 0.00205283565, -0.0005299538, 3.03022122  , 3.18        , 3           , 15          , 0           , -4.66596575E-05
-0.00629268773, -0.0198541284, -9.808187   , -2.96461621E-05, 0.0006077116, -0.0008154319, -0.5148982  , -0.0573682077, 0.324592143 , 0.00205254368, -0.0005238599, 3.030213    , 3.19        , 3           , 50          , 0           , 0
-0.0113639329, 0.0113012958, -9.796797   , 0.000108194057, 0.00145337707, 0.0005992004, -0.5155723  , -0.0568289049, 0.325535923 , 0.00205358514, -0.000509276637, 3.03021932  , 3.2         , 3           , 11          , 0.0545971   , 0.0545971
0.0118676312, -0.009314721, -9.785405   , 0.001374807 , 0.0024474524, 0.00159552635, -0.516246438, -0.057233382, 0.325064033 , 0.002067325 , -0.000484834978, 3.030235    , 3.21        , 3           , 12          , 0.0545850322, 0
0.01912581  , -0.0111741377, -9.794396   , 0.00207899045, 0.00273379  , 0.000751640357, -0.5149656  , -0.0570985563, 0.32452473  , 0.00208811113, -0.000457512826, 3.03024268  , 3.22        , 3           , 14          , 0.000383187842, 0.0005425856
0.007307503 , -0.007502323, -9.77187252 , 0.000387343433, 0.00201841467, -0.000246227224, -0.5149656  , -0.0570985563, 0.32452473  , 0.00209198566, -0.00043732347, 3.0302403   , 3.23        , 3           , 15          , 0           , -4.664419E-05
-0.02167576 , -0.0165395364, -9.801059   , -0.000878616644, 0.00102434261, -0.000112403461, -0.515167832, -0.05696373 , 0.325535923 , 0.0020831998, -0.00042707767, 3.03023934  , 3.24        , 3           , 50          , 0           , 0
-0.00657875137, -0.0361545421, -9.790628   , 0.0006872771, -0.00149923842, -0.000109065732, -0.5165161  , -0.0570311435, 0.325064033 , 0.00209007342, -0.0004420678, 3.030238    , 3.25        , 3           , 11          , 0.0545971   , 0.0545971
-0.006987638, -0.0347746052, -9.796954   , 0.00139047462, -0.000931333867, -0.000246174255, -0.5148982  , -0.05696373 , 0.324592143 , 0.002103979 , -0.000451375934, 3.03023553  , 3.26        , 3           , 12          , 0.0545850322, 0
0.00134289078, -0.0253507551, -9.81041    , -0.00115964946, 0.0007408675, -0.000114154318, -0.5148982  , -0.05696373 , 0.324592143 , 0.00209238287, -0.000443964847, 3.03023458  , 3.27        , 3           , 14          , 0.000383187842, 0.0005425856
-0.0101853516, -0.03252851 , -9.782957   , -0.000872877543, -0.000101917, 0.000168398168, -0.515235245, -0.05696373 , 0.325535923 , 0.00208365335, -0.000444987527, 3.030236    , 3.28        , 3           , 15          , 0           , -4.664419E-05
0.00233687926, -0.0141309807, -9.795893   , 0.0009659296, -0.0006526311, 0.000599896535, -0.5164487  , -0.0568963178, 0.325064033 , 0.00209331  , -0.0004515264, 3.0302422   , 3.29        , 3           , 50          , 0           , 0
0.019035399 , -0.01749631 , -9.792616   , 0.001390185 , -0.000790545, 0.000460393174, -0.515033   , -0.05716597 , 0.324592143 , 0.002107208 , -0.000459418632, 3.030247    , 3.3         , 3           , 11          , 0.0556130446, 0.05561305
0.00530165341, -0.0339734964, -9.809511   , 0.002095266 , -0.000504202966, 0.00117046316, -0.515033   , -0.05716597 , 0.324592143 , 0.002128155 , -0.000464485463, 3.03025842  , 3.31        , 3           , 12          , 0.0556000955, 0
-0.008186577, -0.0207926277, -9.791029   , 0.00251595536, 6.179137E-05, 0.000890768948, -0.5148982  , -0.0570985563, 0.325670749 , 0.00215331069, -0.000463886565, 3.030267    , 3.32        , 3           , 14          , 0.000383188133, 0.000542581431
0.00548542663, -0.0173096266, -9.800854   , 0.00251460564, 0.000202570765, -0.0002391639, -0.5165161  , -0.0570311435, 0.325333685 , 0.00217845757, -0.0004618557, 3.030265    , 3.33        , 3           , 15          , 0           , -4.665109E-05
0.009297045 , -0.0358712934, -9.79593    , 0.00166863739, -8.47246E-05, -0.0003848174, -0.5151004  , -0.057233382, 0.324592143 , 0.002195146 , -0.0004626945, 3.03026128  , 3.34        , 3           , 50          , 0           , 0
-0.02106729 , -0.00258184317, -9.794216   , 0.000107296481, 0.001453377 , -0.0009547489, -0.5151004  , -0.057233382, 0.324592143 , 0.00219622278, -0.000448139821, 3.03025174  , 3.35        , 3           , 11          , 0.0556130446, 0.05561305
0.00122956466, 0.005281439 , -9.794917   , -3.149965E-05, 0.00103007583, -0.000390983361, -0.515302658, -0.0570311435, 0.325738162 , 0.00219590962, -0.000437830458, 3.030248    , 3.36        , 3           , 12          , 0.0556000955, 0
-0.00130261993, -0.0172268674, -9.801809   , -0.00143510662, -0.000668863649, -0.000117634139, -0.516381264, -0.0568963178, 0.325198859 , 0.0021815584, -0.000444516481, 3.0302465   , 3.37        , 3           , 14          , 0.000383188133, 0.000542581431
-0.0062837135, -0.0127052553, -9.787366   , -0.0018579684, -0.0008125107, 2.14422471E-05, -0.515167832, -0.057233382, 0.3243225   , 0.00216297922, -0.000452642, 3.030247    , 3.38        , 3           , 15          , 0           , -4.665109E-05
0.008999293 , -0.0227962  , -9.791811   , 0.000401157216, -0.000656446442, 0.000738538336, -0.515167832, -0.057233382, 0.3243225   , 0.00216698716, -0.000459222443, 3.03025413  , 3.39        , 3           , 50          , 0           , 0
0.00513303746, -0.01008135 , -9.802182   , 0.00180867652, 0.000127410138, -0.000595748657, -0.5155723  , -0.0573007949, 0.3254685   , 0.00218504132, -0.000457898568, 3.030248    , 3.4         , 3           , 11          , 0.0566381961, 0.0566382036
0.0237177238, -0.00269472878, -9.782576   , 0.00237608864, -0.000220722315, 0.0008190301, -0.5164487  , -0.0570311435, 0.32499662  , 0.00220879866, -0.0004601239, 3.03025651  , 3.41        , 3           , 12          , 0.056624312 , 0
0.009786297 , 0.00067951344, -9.798034   , 0.00293579977, 0.0006981811, -0.0002364412, -0.5151004  , -0.05716597 , 0.32452473  , 0.00223815744, -0.0004531368, 3.03025365  , 3.42        , 3           , 14          , 0.000383194536, 0.0005425748
-0.0132153379, 0.00727277249, -9.799992   , 0.00180942938, 0.000197806759, 0.00131148775, -0.5151004  , -0.05716597 , 0.32452473  , 0.002256246 , -0.0004511883, 3.030267    , 3.43        , 3           , 15          , 0           , -4.663905E-05
-0.00068783015, -0.034880776, -9.7874155  , 0.00181271043, -0.0005061069, 0.000957231 , -0.5153701  , -0.0568289049, 0.325603336 , 0.00227436866, -0.000456271024, 3.03027654  , 3.44        , 3           , 50          , 0           , 0
-0.0115710124, -0.0392299369, -9.797912   , -0.00016870047, 0.000184431527, -0.000675493153, -0.516381264, -0.05696373 , 0.325266272 , 0.00227268483, -0.000454411376, 3.03026986  , 3.45        , 3           , 11          , 0.0566381961, 0.0566382036
-0.0245044269, -0.0165983532, -9.773961   , -0.00300044683, 0.00150276208, -0.00216992316, -0.515033   , -0.0570985563, 0.324457318 , 0.00224269  , -0.000439334777, 3.030248    , 3.46        , 3           , 12          , 0.056624312 , 0
-0.0109274462, -0.0181022026, -9.776576   , -0.0011538947, -0.0004557738, -0.0003985415, -0.515033   , -0.0570985563, 0.324457318 , 0.00223115273, -0.000443883531, 3.030244    , 3.47        , 3           , 14          , 0.000383194536, 0.0005425748
0.00132842269, -0.0298259836, -9.821277   , -0.000945396663, 0.000249571982, -0.000113931223, -0.5154375  , -0.05696373 , 0.3254685   , 0.00222169887, -0.000441385258, 3.03024316  , 3.48        , 3           , 15          , 0           , -4.663905E-05
0.00708304066, -0.0313407667, -9.793669   , 0.0003220798, 0.0009620797, -3.62857354E-05, -0.516381264, -0.05696373 , 0.325198859 , 0.00222491985, -0.000431763649, 3.03024268  , 3.49        , 3           , 50          , 0           , 0
0.005694178 , -0.0322422348, -9.789163   , 0.000393245049, 0.0006105979, -0.00208489341, -0.5148982  , -0.0570311435, 0.324659556 , 0.00222885446, -0.0004255954, 3.03022218  , 3.5         , 3           , 11          , 0.0576718338, 0.05767184
-0.009727335, -0.008054465, -9.8163     , -0.000166225116, -0.000167518549, 0.0005953856, -0.5148982  , -0.0570311435, 0.324659556 , 0.00222719  , -0.000427283871, 3.030228    , 3.51        , 3           , 12          , 0.0576569624, 0
-0.0181109644, -0.02377024 , -9.810101   , -0.000290547323, -0.00354725355, 0.0008720574, -0.515235245, -0.0570985563, 0.325738162 , 0.0022242805, -0.0004627758, 3.03023648  , 3.52        , 3           , 14          , 0.000383195729, 0.000542572
-0.00646345969, -0.021331558, -9.771131   , 0.0007619948, -0.00227305 , 0.000384508 , -0.5165161  , -0.05696373 , 0.325266272 , 0.00223189872, -0.0004855149, 3.0302403   , 3.53        , 3           , 15          , 0           , -4.66416E-05
0.00643453561, -0.00880432 , -9.784088   , 4.26438673E-05, 0.000397043274, 0.000314703619, -0.5149656  , -0.05696373 , 0.324794382 , 0.00223232387, -0.000481551484, 3.03024316  , 3.54        , 3           , 50          , 0           , 0
0.0135814529, -0.0174491443, -9.787685   , -0.002005874, 0.0005943704, 0.00051738444, -0.5149656  , -0.05696373 , 0.324794382 , 0.00221226248, -0.0004756193, 3.03024888  , 3.55        , 3           , 11          , 0.0576718338, 0.05767184
-0.01272674 , -0.017178636, -9.776586   , -0.00193219353, 3.17191552E-05, 0.0010112864, -0.515302658, -0.05716597 , 0.3254011   , 0.00219293637, -0.000475324341, 3.03025842  , 3.56        , 3           , 12          , 0.0576569624, 0
0.009838019 , -0.022414647, -9.774174   , -0.00257461658, 0.00115367549, -0.00139150943, -0.5165161  , -0.0568963178, 0.325064033 , 0.00216719625, -0.000463757315, 3.030245    , 3.57        , 3           , 14          , 0.000383195729, 0.000542572
0.00048076082, -0.0195023715, -9.802258   , 0.000122085476, -0.00136226031, 0.000524223957, -0.515167832, -0.0570311435, 0.32452473  , 0.00216841488, -0.00047739115, 3.03024983  , 3.58        , 3           , 15          , 0           , -4.66416E-05
-0.0215801783, -0.0133376364, -9.814152   , 0.0027791285, 0.00379444426, -0.000444226956, -0.515167832, -0.0570311435, 0.32452473  , 0.002196208 , -0.000439437048, 3.030246    , 3.59        , 3           , 50          , 0           , 0
0.00415594224, -0.0186093356, -9.812169   , 0.00185064063, 0.005829582 , -0.00129297865, -0.515235245, -0.05716597 , 0.325535923 , 0.00221469137, -0.0003811082, 3.03023267  , 3.6         , 3           , 11          , 0.0587132834, 0.0587132871
0.0144502893, -0.0268629  , -9.808961   , -0.0003225255, 0.002647173 , -0.001378701, -0.516381264, -0.05716597 , 0.325064033 , 0.002211471 , -0.000354605931, 3.03021932  , 3.61        , 3           , 12          , 0.0586973578, 0
-0.01283005 , -0.0360090621, -9.811919   , -0.00172863156, 0.00137057877, -0.00181104441, -0.5148982  , -0.057233382, 0.324659556 , 0.00219419133, -0.00034086025, 3.0302012   , 3.62        , 3           , 14          , 0.000383200677, 0.0005425712
0.017607253 , -0.02110771 , -9.787218   , 0.00137057854, 0.00301059056, -0.000875816331, -0.5148982  , -0.057233382, 0.324659556 , 0.0022079   , -0.0003107352, 3.03019261  , 3.63        , 3           , 15          , 0           , -4.66364727E-05
0.004585652 , -0.01193809 , -9.78502    , -0.0002524562, 0.002929219 , 0.0001053839, -0.515235245, -0.0570311435, 0.3254685   , 0.00220537488, -0.000281445449, 3.03019357  , 3.64        , 3           , 50          , 0           , 0
0.009554829 , 0.0151473694, -9.80566    , -0.00222169165, 0.00122645614, -0.0009659537, -0.516381264, -0.0568289049, 0.325064033 , 0.00218316051, -0.0002691597, 3.030184    , 3.65        , 3           , 11          , 0.0587132834, 0.0587132871
0.0038756365, -0.00462740473, -9.80940151 , -3.61614657E-05, 0.00180438638, -0.001802492, -0.5148982  , -0.05696373 , 0.324592143 , 0.00218280358, -0.000251076621, 3.030166    , 3.66        , 3           , 12          , 0.0586973578, 0
-0.0006994186, -0.00282708928, -9.79225349 , -0.000448345527, -0.000380604877, -0.0006776805, -0.5148982  , -0.05696373 , 0.324592143 , 0.00217832159, -0.0002548679, 3.03015924  , 3.67        , 3           , 14          , 0.000383200677, 0.0005425712
-0.0279685687, -0.0119641861, -9.797924   , -0.00150523277, -0.000810114434, -0.000471366657, -0.515302658, -0.0570311435, 0.325670749 , 0.00216327049, -0.0002629588, 3.03015447  , 3.68        , 3           , 15          , 0           , -4.66364727E-05
-0.00577318855, -0.0153418863, -9.809972   , 0.0004004662, -0.0004452607, 0.00137455843, -0.516313851, -0.0570985563, 0.325064033 , 0.00216727122, -0.000267441123, 3.03016782  , 3.69        , 3           , 50          , 0           , 0
0.004066577 , -0.0133255366, -9.773276   , 0.000462412863, 0.00110381958, -0.000317951024, -0.514830768, -0.0570985563, 0.32452473  , 0.002171815 , -0.000256398169, 3.030165    , 3.7         , 3           , 11          , 0.0597619154, 0.0597619228
0.0104573555, -0.008894497, -9.771402   , 0.000468811835, -0.0003040084, -0.00130900193, -0.514830768, -0.0570985563, 0.32452473  , 0.00217650644, -0.000259409833, 3.03015161  , 3.71        , 3           , 12          , 0.0597448722, 0
0.01628402  , -0.0215096567, -9.797173   , 0.00116794242, 0.00139016414, 0.00116909691, -0.515302658, -0.0568963178, 0.325738162 , 0.00218818313, -0.000245533738, 3.03016353  , 3.72        , 3           , 14          , 0.00038321488, 0.000542571535
0.01352963  , 0.002966829 , -9.820145   , -0.002006486, 0.000664761057, 9.36811E-05 , -0.516381264, -0.0568289049, 0.325198859 , 0.00216811779, -0.000238888271, 3.03016448  , 3.73        , 3           , 15          , 0           , -4.66358069E-05
-0.00164931267, -0.007315878, -9.795896   , -0.00185840658, -0.000671717, 0.0005160845, -0.514763355, -0.0568963178, 0.324726969 , 0.00214953278, -0.000245616538, 3.03016973  , 3.74        , 3           , 50          , 0           , 0
-0.00862244051, -0.0256834552, -9.81094    , -0.000169010062, 0.0003252193, 3.10643481E-05, -0.514763355, -0.0568963178, 0.324726969 , 0.00214784266, -0.000242365, 3.03016973  , 3.75        , 3           , 11          , 0.0597619154, 0.0597619228
0.0107510844, -0.03000716 , -9.800414   , 0.0002549565, 0.0003280857, 0.0005981146, -0.515235245, -0.05716597 , 0.325738162 , 0.00215039053, -0.000239097033, 3.030176    , 3.76        , 3           , 12          , 0.0597448722, 0
0.008716008 , -0.005245882, -9.776824   , 0.00174538675, -0.00128088775, 3.74585179E-05, -0.516313851, -0.05696373 , 0.325064033 , 0.00216784468, -0.0002519067, 3.0301764   , 3.77        , 3           , 14          , 0.00038321488, 0.000542571535
-0.00166096725, -0.00286181876, -9.778702   , 0.002865992 , 0.000556925 , -2.508748E-05, -0.514830768, -0.057233382, 0.324726969 , 0.0021965045, -0.0002463369, 3.030176    , 3.78        , 3           , 15          , 0           , -4.66358069E-05
-0.0102512483, -0.00587503146, -9.791887   , 0.00329051074, 0.0004894012, 0.00089502614, -0.514830768, -0.057233382, 0.324726969 , 0.00222940743, -0.000241462752, 3.030185    , 3.79        , 3           , 50          , 0           , 0
-0.00750193745, -0.00721955672, -9.804075   , 0.000389245426, 0.00166647881, 0.000106379252, -0.5154375  , -0.057233382, 0.325670749 , 0.00223319884, -0.000224769436, 3.030186    , 3.8         , 3           , 11          , 0.0608171374, 0.06081715
0.008900564 , -0.0353740081, -9.808135   , -0.00207473361, 0.000241942515, 0.000587126939, -0.516179   , -0.0570985563, 0.325131446 , 0.00221245  , -0.000222363058, 3.03019166  , 3.81        , 3           , 12          , 0.06079891  , 0
0.007250446 , -0.05434119 , -9.79783    , 0.00123786076, 0.00132025045, -0.000596556056, -0.5149656  , -0.05696373 , 0.324659556 , 0.00222482975, -0.000209147343, 3.030186    , 3.82        , 3           , 14          , 0.0003832322, 0.0005425663
0.0134898582, -0.0304675251, -9.807175   , -0.00319843134, -0.00110313448, -0.000479717448, -0.5149656  , -0.05696373 , 0.324659556 , 0.00219284673, -0.000220168, 3.03018117  , 3.83        , 3           , 15          , 0           , -4.66213132E-05
0.0122452881, -0.0227714218, -9.810316   , -0.00362229766, -0.00103560754, -0.0002696812, -0.515302658, -0.057233382, 0.325670749 , 0.00215662434, -0.000230518184, 3.03017831  , 3.84        , 3           , 50          , 0           , 0
0.0127550671, -0.0463129766, -9.789167   , -0.00185665907, -0.00109406083, -4.96557332E-05, -0.516381264, -0.05716597 , 0.325198859 , 0.002138058 , -0.000241457674, 3.03017783  , 3.85        , 3           , 11          , 0.0608171374, 0.06081715
0.0263438951, -0.04691452 , -9.791777   , 0.00131566357, -0.000157489441, -0.000810408, -0.5148982  , -0.057233382, 0.324659556 , 0.00215121685, -0.000243015224, 3.03016973  , 3.86        , 3           , 12          , 0.06079891  , 0
0.0255676582, -0.0307304841, -9.771378   , 0.002653995 , 0.000414711132, -0.00150962849, -0.5148982  , -0.057233382, 0.324659556 , 0.00217776024, -0.000238835433, 3.03015447  , 3.87        , 3           , 14          , 0.0003832322, 0.0005425663
0.004036529 , -0.0187060945, -9.783244   , -0.000164129742, -0.0005898602, 0.000665348838, -0.515302658, -0.0568289049, 0.325603336 , 0.00217611738, -0.000244748517, 3.03016114  , 3.88        , 3           , 15          , 0           , -4.66213132E-05
-0.00533238333, -0.0113397585, -9.794132   , -0.000936888449, -0.00136941625, 0.0008018026, -0.5165161  , -0.0570985563, 0.325131446 , 0.00216674618, -0.000258460059, 3.03016925  , 3.89        , 3           , 50          , 0           , 0
-0.009076766, -0.02523303 , -9.809134   , -3.37910824E-05, 0.00145245576, -0.000672899652, -0.515033   , -0.0573682077, 0.32452473  , 0.00216644979, -0.000243816365, 3.03016257  , 3.9         , 3           , 11          , 0.0618784   , 0.0618784167
0.0106503908, -0.00248917332, -9.798041   , -0.000592824, 0.000322376582, -0.00025346296, -0.515033   , -0.0573682077, 0.32452473  , 0.00216052216, -0.0002405871, 3.03016019  , 3.91        , 3           , 12          , 0.061858926 , 0
8.990057E-06, -0.01995879 , -9.799099   , -0.000658559031, -0.000382006983, 0.00214669132, -0.5154375  , -0.05696373 , 0.325333685 , 0.00215393165, -0.000244453433, 3.03018165  , 3.92        , 3           , 14          , 0.000383225473, 0.0005425485
-0.0147959907, -0.008513668, -9.79645252 , -0.000807172444, 0.00109525432, 0.002007042 , -0.516313851, -0.05716597 , 0.325131446 , 0.002145855 , -0.0002335441, 3.03020167  , 3.93        , 3           , 15          , 0           , -4.66213569E-05
-0.00661630137, -0.0166197009, -9.829418   , -0.002141337, -0.0005328203, 0.0008681418, -0.514763355, -0.057233382, 0.324457318 , 0.00212443969, -0.0002388909, 3.03021026  , 3.94        , 3           , 50          , 0           , 0
-0.023951441, -0.0147370817, -9.79248    , -0.00150605838, -0.000598916668, -4.72501961E-05, -0.514763355, -0.057233382, 0.324457318 , 0.00210937951, -0.000244879047, 3.03020978  , 3.95        , 3           , 11          , 0.0618784   , 0.0618784167
0.006213215 , -0.0232668631, -9.776466   , -0.00200251862, -0.000179912138, -0.000260807, -0.5151004  , -0.0570985563, 0.325738162 , 0.00208935468, -0.000246672658, 3.030207    , 3.96        , 3           , 12          , 0.061858926 , 0
0.02079472  , -0.0144351  , -9.76999    , -0.00143691222, -0.000105695668, 0.00164906308, -0.516179   , -0.0568963178, 0.3249292   , 0.00207498134, -0.000247763935, 3.03022361  , 3.97        , 3           , 14          , 0.000383225473, 0.0005425485
0.018898569 , -0.0260878336, -9.786777   , -0.00137368 , 0.00116181944, -0.000255782827, -0.5148982  , -0.05716597 , 0.32452473  , 0.002061245 , -0.00023614052, 3.03022122  , 3.98        , 3           , 15          , 0           , -4.66213569E-05
0.0243930053, -0.02431678 , -9.795767   , -0.00165481633, 0.0009487368, 0.000166380923, -0.5148982  , -0.05716597 , 0.32452473  , 0.00204469659, -0.000226656528, 3.03022313  , 3.99        , 3           , 50          , 0           , 0
0.00685353763, -0.0141932191, -9.793146   , -0.00129981386, 0.0005287928, -4.45371224E-05, -0.515167832, -0.0573007949, 0.325535923 , 0.00203170138, -0.00022126807, 3.03022218  , 4           , 3           , 11          , 0.0629451945, 0.06294521
-0.000123912469, -0.02319093 , -9.776966   , -0.000306110975, -0.0005907844, -0.0006773729, -0.5164487  , -0.05716597 , 0.325064033 , 0.002028642 , -0.000227162134, 3.0302155   , 4.01        , 3           , 12          , 0.0629244   , 0
-0.005011482, -0.0208252948, -9.792361   , 0.000193545275, -0.0015729171, 0.000241659611, -0.5145611  , -0.0568963178, 0.324592143 , 0.00203057681, -0.000242896174, 3.030218    , 4.02        , 3           , 14          , 0.000383224979, 0.0005425317
-0.012742714, -0.0287966933, -9.81008148 , -0.0005873512, -0.0007334745, 0.000168705621, -0.5145611  , -0.0568963178, 0.324592143 , 0.00202470273, -0.0002502343, 3.03021932  , 4.03        , 3           , 15          , 0           , -4.66110068E-05
-0.009632599, -0.0284356624, -9.794236   , -0.000669313944, 0.00151856791, -0.000181323936, -0.5154375  , -0.057233382, 0.325670749 , 0.00201801048, -0.00023504495, 3.030218    , 4.04        , 3           , 50          , 0           , 0
-0.0211850069, -0.0156213781, -9.807379   , -0.000383791456, 0.000886956 , -0.000251617719, -0.5165161  , -0.05696373 , 0.325064033 , 0.00201417319, -0.0002261703, 3.0302155   , 4.05        , 3           , 11          , 0.0629451945, 0.06294521
0.0138703333, -0.03499494 , -9.804027   , -0.0007276602, -0.00101599679, -0.000679999241, -0.5148982  , -0.0570985563, 0.324457318 , 0.002006898 , -0.000236316613, 3.03020883  , 4.06        , 3           , 12          , 0.0629244   , 0
-0.0158866439, -0.0269533657, -9.810549   , -0.00150000723, -0.001936337, -0.001038203, -0.5148982  , -0.0570985563, 0.324457318 , 0.00199190085, -0.000255659164, 3.03019834  , 4.07        , 3           , 14          , 0.000383224979, 0.0005425317
-0.0289976783, -0.0227660611, -9.802497   , 0.000182786083, 0.000468426442, -0.000885344169, -0.5151004  , -0.0568963178, 0.3254685   , 0.001993731 , -0.000250957266, 3.03018928  , 4.08        , 3           , 15          , 0           , -4.66110068E-05
-0.0140236216, -0.019790981, -9.800109   , -0.00109018455, 0.0008821794, -0.000819985056, -0.516381264, -0.0568963178, 0.325131446 , 0.0019828314, -0.000242119146, 3.03018117  , 4.09        , 3           , 50          , 0           , 0
0.006549171 , -0.0376500525, -9.79415    , 0.0008065671, 0.002866018 , -0.00059614476, -0.514830768, -0.0570985563, 0.32452473  , 0.001990938 , -0.000213507927, 3.03017545  , 4.1         , 3           , 11          , 0.06401702  , 0.06401705
0.01618788  , -0.02292661 , -9.778196   , 0.001444734 , 0.002307185 , -0.0007353183, -0.514830768, -0.0570985563, 0.32452473  , 0.00200538663, -0.000190421444, 3.03016782  , 4.11        , 3           , 12          , 0.0639948547, 0
-0.008116132, -0.0162720419, -9.793722   , 0.0022218565, 0.00231243973, 4.528123E-05, -0.5153701  , -0.05696373 , 0.325535923 , 0.00202760519, -0.000167297985, 3.03016877  , 4.12        , 3           , 14          , 0.000383218372, 0.0005425418
-0.00239785574, 0.0008562943, -9.80807    , 0.000602718268, 0.00138637179, 0.00053073914, -0.5165835  , -0.0570985563, 0.325064033 , 0.00203363132, -0.0001534451, 3.03017354  , 4.13        , 3           , 15          , 0           , -4.66213423E-05
-0.0160635076, 0.0009492445, -9.788288   , 0.00145043619, 0.00104013912, -0.00172615238, -0.5149656  , -0.05716597 , 0.324659556 , 0.002048138 , -0.000143008481, 3.03015637  , 4.14        , 3           , 50          , 0           , 0
-0.008686468, -0.0163619742, -9.765252   , 0.00110187  , 0.000193057815, -0.00123465969, -0.5149656  , -0.05716597 , 0.324659556 , 0.00205915887, -0.000141052544, 3.030144    , 4.15        , 3           , 11          , 0.06401702  , 0.06401705
0.0266171657, -0.05777771 , -9.782781   , -0.0004430763, -0.0013660515, 2.71291938E-05, -0.515167832, -0.0570985563, 0.3254685   , 0.002054728 , -0.000154713634, 3.03014445  , 4.16        , 3           , 12          , 0.0639948547, 0
0.00554307364, -0.03995263 , -9.776993   , 0.00188169186, -8.324649E-05, 0.00180580572, -0.5167183  , -0.0570985563, 0.325131446 , 0.00207354175, -0.000155583344, 3.03016257  , 4.17        , 3           , 14          , 0.000383218372, 0.0005425418
-0.0251430124, -0.003427229, -9.796963   , 0.0002576372, -0.0001646222, 0.00102114689, -0.5151004  , -0.0570311435, 0.32452473  , 0.00207611662, -0.000157250819, 3.03017259  , 4.18        , 3           , 15          , 0           , -4.66213423E-05
-0.0122010531, -0.0220347345, -9.810049   , -0.0008045333, 0.0002505584, -0.000678365468, -0.5151004  , -0.0570311435, 0.32452473  , 0.00206807186, -0.000154731184, 3.030166    , 4.19        , 3           , 50          , 0           , 0
0.005141711 , -0.01096703 , -9.807158   , 0.0006138107, -0.000795762229, 0.00102181383, -0.5153701  , -0.0570311435, 0.3254685   , 0.002074229 , -0.000162747659, 3.0301764   , 4.2         , 3           , 11          , 0.0650934651, 0.065093495
-0.0127912285, -0.0288360026, -9.798329   , 0.00131555833, -0.000157471688, -0.0010223143, -0.516381264, -0.0570985563, 0.3249292   , 0.00208738656, -0.000164301033, 3.030166    , 4.21        , 3           , 12          , 0.0650698245, 0
-0.0128152547, -0.0310872216, -9.799695   , -0.0009500662, 0.00102389872, -0.001525446, -0.515033   , -0.05696373 , 0.3243225   , 0.002077888 , -0.000154030218, 3.03015065  , 4.22        , 3           , 14          , 0.000383215 , 0.000542547961
-0.01544211 , -0.0229482111, -9.795613   , 0.00166413956, 0.0009007886, 0.0003230123, -0.515033   , -0.05696373 , 0.3243225   , 0.00209452934, -0.000145029117, 3.03015351  , 4.23        , 3           , 15          , 0           , -4.661841E-05
-0.022226423, -0.02286243 , -9.797473   , 0.0004584533, 0.00201893272, 0.0006723229, -0.515235245, -0.0570985563, 0.3254685   , 0.00209911261, -0.000124853963, 3.03016067  , 4.24        , 3           , 50          , 0           , 0
0.00458227843, -0.01908243 , -9.807196   , 0.000534246559, 0.0009635408, 0.000600390369, -0.516313851, -0.0570311435, 0.32499662  , 0.00210445444, -0.000115231211, 3.03016686  , 4.25        , 3           , 11          , 0.0650934651, 0.065093495
-0.007849444, -0.0284796059, -9.787443   , 0.00165827409, 0.0021678335, 0.00103130867, -0.514695942, -0.057233382, 0.324726969 , 0.00212103571, -9.35747E-05, 3.03017735  , 4.26        , 3           , 12          , 0.0650698245, 0
-0.004402455, -0.008652557, -9.791403   , 0.00258828118, -0.000430439919, -0.000310478179, -0.514695942, -0.057233382, 0.324726969 , 0.00214691879, -9.787242E-05, 3.030174    , 4.27        , 3           , 14          , 0.000383215 , 0.000542547961
0.0106320661, -0.002057678, -9.792164   , 0.00131319324, 0.0006168392, 0.00152171659, -0.515167832, -0.056761492, 0.3254685   , 0.00216004951, -9.17368743E-05, 3.0301888   , 4.28        , 3           , 15          , 0           , -4.661841E-05
-0.0207775552, -0.0138780307, -9.790645   , -3.456287E-05, 0.001734024 , 0.000387046952, -0.5164487  , -0.05696373 , 0.3249292   , 0.00215970352, -7.440504E-05, 3.030193    , 4.29        , 3           , 50          , 0           , 0
0.0190242045, -0.0175053775, -9.789905   , -0.000941964565, -0.000243146336, 0.00165115308, -0.5149656  , -0.0570311435, 0.32452473  , 0.00215024152, -7.69409E-05, 3.03020978  , 4.3         , 3           , 11          , 0.066174075 , 0.0661741
-0.00651397277, 0.0008708732, -9.79816    , -0.00284805265, -0.000537609041, -0.000265298062, -0.5149656  , -0.0570311435, 0.32452473  , 0.00212176121, -8.231142E-05, 3.030207    , 4.31        , 3           , 12          , 0.0661488846, 0
-0.0170102268, -0.00175156619, -9.786951   , -0.00340782 , -0.00166769174, -0.0011172801, -0.515235245, -0.0573007949, 0.325535923 , 0.002087684 , -9.89647742E-05, 3.03019547  , 4.32        , 3           , 14          , 0.000383221661, 0.0005425591
-0.0103305979, -0.00727837253, -9.77697849 , -0.00192249869, -0.00208000978, -0.0002634046, -0.5164487  , -0.0570985563, 0.325131446 , 0.00206845929, -0.000119759345, 3.030193    , 4.33        , 3           , 15          , 0           , -4.66235251E-05
-0.0118682114, -0.02793979 , -9.799674   , 0.00173562183, 0.0006900805, 4.04838429E-05, -0.514830768, -0.05716597 , 0.324659556 , 0.00208581565, -0.000112859379, 3.03019357  , 4.34        , 3           , 50          , 0           , 0
0.01724236  , -0.0156749748, -9.79126549 , 0.00130696152, 0.00160229974, -0.0008076937, -0.514830768, -0.05716597 , 0.324659556 , 0.00209888583, -9.681949E-05, 3.03018546  , 4.35        , 3           , 11          , 0.066174075 , 0.0661741
0.00127169536, -0.03344275 , -9.819033   , 0.000806156 , 0.00286599854, -0.00130248629, -0.5153701  , -0.0573007949, 0.3254685   , 0.00210694829, -6.813221E-05, 3.03017259  , 4.36        , 3           , 12          , 0.0661488846, 0
-0.000999595, -0.0307440422, -9.808643   , -3.57596036E-05, 0.00201557949, 0.000740657735, -0.516313851, -0.0566940829, 0.325064033 , 0.00210659066, -4.799207E-05, 3.03018022  , 4.37        , 3           , 14          , 0.000383221661, 0.0005425591
0.0050036395, -0.05385438 , -9.800557   , -0.00115509343, -0.000103799153, 0.0005908666, -0.5149656  , -0.0570985563, 0.324726969 , 0.00209503947, -4.90425E-05, 3.030186    , 4.38        , 3           , 15          , 0           , -4.66235251E-05
-0.006869695, -0.0239666253, -9.791032   , -0.00418843469, -0.000687461754, 0.0005052074, -0.5149656  , -0.0570985563, 0.324726969 , 0.0020531544, -5.59276159E-05, 3.03019071  , 4.39        , 3           , 50          , 0           , 0
0.009221918 , -0.00654719444, -9.794002   , -0.0038346732, -0.000896252459, -5.85538837E-05, -0.5154375  , -0.0570985563, 0.325535923 , 0.002014862 , -6.49065842E-05, 3.03019023  , 4.4         , 3           , 11          , 0.06725846  , 0.0672584847
0.003316299 , -0.01006463 , -9.80084    , -0.000869766169, -0.0007354147, 0.000167393882, -0.5164487  , -0.0570985563, 0.3249292   , 0.002006164 , -7.226408E-05, 3.03019166  , 4.41        , 3           , 12          , 0.0672316551, 0
-0.000873105542, -0.0159119889, -9.791857   , 0.0008167199, 0.000824651041, -0.0005286615, -0.5149656  , -0.0570311435, 0.3248618   , 0.00201433175, -6.400695E-05, 3.030187    , 4.42        , 3           , 14          , 0.000383213046, 0.0005425619
0.00402536336, -0.02630309 , -9.804971   , 0.00278999261, 0.00175311149, 0.0008946546, -0.5149656  , -0.0570311435, 0.3248618   , 0.00204223138, -4.649404E-05, 3.03019547  , 4.43        , 3           , 15          , 0           , -4.66163074E-05
-0.00355672161, -0.0465773  , -9.787937   , 0.000811532838, 0.00188052037, -0.0004563998, -0.515302658, -0.0568963178, 0.3254011   , 0.002050347 , -2.7679489E-05, 3.03019071  , 4.44        , 3           , 50          , 0           , 0
-0.00228786469, -0.0190661922, -9.788265   , 0.000177674345, 0.00145387312, -0.00130762637, -0.516246438, -0.05696373 , 0.3249292   , 0.00205212366, -1.31139823E-05, 3.03017831  , 4.45        , 3           , 11          , 0.06725846  , 0.0672584847
-0.00308017526, -0.0171783864, -9.809959   , 0.00258793426, -0.0003600626, -0.000310371717, -0.5149656  , -0.0570985563, 0.3243899   , 0.00207800278, -1.67082326E-05, 3.030175    , 4.46        , 3           , 12          , 0.0672316551, 0
-0.013775887, 0.00272726966, -9.788262   , -0.000442025485, -0.00157724542, 2.67989162E-05, -0.5149656  , -0.0570985563, 0.3243899   , 0.002073583 , -3.24812136E-05, 3.03017545  , 4.47        , 3           , 14          , 0.000383213046, 0.0005425619
0.0176389739, -0.02108201 , -9.794901   , -0.00172216666, 0.000103546176, -0.00145984546, -0.5154375  , -0.05696373 , 0.325535923 , 0.00205636164, -3.14156423E-05, 3.03016067  , 4.48        , 3           , 15          , 0           , -4.66163074E-05
0.0144088175, -0.03002096 , -9.808973   , -0.00404368667, -0.00139042211, 0.0005754083, -0.516246438, -0.0568963178, 0.3248618   , 0.00201592431, -4.533142E-05, 3.03016639  , 4.49        , 3           , 50          , 0           , 0
0.01912581  , -0.0111741405, -9.794396   , -0.00269971788, -0.001874083, 0.0005809145, -0.514830768, -0.0568963178, 0.324457318 , 0.00198893924, -6.404761E-05, 3.030172    , 4.5         , 3           , 11          , 0.0683462545, 0.0683462843
0.03713826  , -0.0217330121, -9.803343   , -0.00200590747, 0.0005239932, -0.000118448224, -0.514830768, -0.0568963178, 0.324457318 , 0.00196888065, -5.88053372E-05, 3.03017068  , 4.51        , 3           , 12          , 0.06831775  , 0
-0.00196398981, -0.0321201272, -9.798713   , 0.002017896 , 0.0006919924, -0.000240733614, -0.5154375  , -0.0568289049, 0.325603336 , 0.00198905938, -5.18806919E-05, 3.03016877  , 4.52        , 3           , 14          , 0.0003832111, 0.000542556169
0.00488723628, -0.0223319847, -9.781445   , 0.00104126974, -0.00163760257, 0.000386786269, -0.516313851, -0.05696373 , 0.32499662  , 0.001999472 , -6.826442E-05, 3.03017259  , 4.53        , 3           , 15          , 0           , -4.66266174E-05
-0.008071155, -0.0108793937, -9.787371   , -0.001650168, -3.674983E-05, -0.0002589387, -0.5149656  , -0.0570985563, 0.3243899   , 0.0019829704, -6.8626774E-05, 3.03016973  , 4.54        , 3           , 50          , 0           , 0
0.0187081173, -0.0467742719, -9.806751   , -0.0008084856, 0.00116563321, 0.000311931217, -0.5149656  , -0.0570985563, 0.3243899   , 0.00197488535, -5.697664E-05, 3.03017259  , 4.55        , 3           , 11          , 0.0683462545, 0.0683462843
0.0116253616, -0.0269186944, -9.782768   , -0.00010147311, 0.000888840936, -0.000462188385, -0.5151004  , -0.0570985563, 0.325535923 , 0.00197387044, -4.80791277E-05, 3.03016829  , 4.56        , 3           , 12          , 0.06831775  , 0
-0.000399696641, -0.0132224886, -9.788226   , -0.00150751951, -0.000317359751, -0.0001880797, -0.516381264, -0.0570985563, 0.324726969 , 0.00195879536, -5.12489933E-05, 3.03016639  , 4.57        , 3           , 14          , 0.0003832111, 0.000542556169
0.02382447  , -0.0346713141, -9.800786   , -0.000589739764, -9.997399E-05, 0.00144111621, -0.5149656  , -0.0570985563, 0.324457318 , 0.00195289729, -5.2276926E-05, 3.03018117  , 4.58        , 3           , 15          , 0           , -4.66266174E-05
-0.00643458869, -0.02264722 , -9.782435   , 0.00026385815, -0.00150207267, 0.0003127473, -0.5149656  , -0.0570985563, 0.324457318 , 0.00195553573, -6.73037139E-05, 3.030184    , 4.59        , 3           , 50          , 0           , 0
0.004373991 , -0.0259464551, -9.778299   , -0.00143225 , -0.00123195373, 2.27365563E-05, -0.515302658, -0.0570985563, 0.325535923 , 0.00194127718, -7.95312153E-05, 3.030184    , 4.6         , 3           , 11          , 0.0694371238, 0.06943715
0.036743056 , -0.0118613308, -9.785678   , -0.004825554, -0.000410178152, 8.235151E-06, -0.516381264, -0.057233382, 0.325064033 , 0.00189302163, -8.363314E-05, 3.030184    , 4.61        , 3           , 12          , 0.0694068149, 0
0.002306831 , -0.0195115358, -9.80586    , -0.000872809265, -0.00010187272, 0.0003096434, -0.5149656  , -0.05716597 , 0.324659556 , 0.00188429328, -8.46577241E-05, 3.03018737  , 4.62        , 3           , 14          , 0.000383201143, 0.0005425418
-0.0366875641, -0.0226696469, -9.804363   , -3.28250753E-05, 0.001311681 , -0.000249310862, -0.5149656  , -0.05716597 , 0.324659556 , 0.00188396533, -7.15362257E-05, 3.030185    , 4.63        , 3           , 15          , 0           , -4.66208E-05
-0.0120757772, -0.00631096726, -9.790095   , -2.5202462E-05, -9.61412443E-05, 0.0008786692, -0.5154375  , -0.0570311435, 0.325738162 , 0.00188371271, -7.251421E-05, 3.03019357  , 4.64        , 3           , 50          , 0           , 0
-0.0004435033, -0.0119189341, -9.773306   , 0.00391639  , 0.00246468512, 0.00118354918, -0.516381264, -0.0568963178, 0.325198859 , 0.00192287576, -4.788993E-05, 3.03020549  , 4.65        , 3           , 11          , 0.0694371238, 0.06943715
0.002698698 , -0.0186735149, -9.788226   , 0.00136873522, 0.003292183 , -0.00165237614, -0.5149656  , -0.0570311435, 0.324457318 , 0.00193656364, -1.49362677E-05, 3.0301888   , 4.66        , 3           , 12          , 0.0694068149, 0
0.01787826  , -0.0426851362, -9.812164   , -0.003131319, -0.0003987199, -0.000548938231, -0.5149656  , -0.0570311435, 0.324457318 , 0.00190525025, -1.89129132E-05, 3.03018355  , 4.67        , 3           , 14          , 0.000383201143, 0.0005425418
-0.00222236384, -0.0136569161, -9.786886   , 0.00250344072, 0.00245513138, -0.0002357227, -0.5155049  , -0.0566940829, 0.325535923 , 0.00193028478, 5.64286165E-06, 3.03018117  , 4.68        , 3           , 15          , 0           , -4.66208E-05
-0.00494951755, -0.0100626769, -9.77288151 , -0.005386063, -0.00125869247, 0.0002868367, -0.5164487  , -0.0570311435, 0.325064033 , 0.00187642418, -6.94949267E-06, 3.030184    , 4.69        , 3           , 50          , 0           , 0
0.0135562448, -0.0263965819, -9.810322   , -0.000569797, -0.004323438, -0.000260616653, -0.5146285  , -0.05696373 , 0.3243899   , 0.00187073706, -5.01625545E-05, 3.03018117  , 4.7         , 3           , 11          , 0.07053073  , 0.07053075
0.0157174487, -0.029184496, -9.794045   , -0.00143503631, -0.0006688211, 2.36111809E-05, -0.5146285  , -0.05696373 , 0.3243899   , 0.00185638689, -5.6851175E-05, 3.03018165  , 4.71        , 3           , 12          , 0.07049853  , 0
-0.021063298, -0.0297318213, -9.77172852 , -0.00172877836, 0.00158178888, -0.000256771775, -0.5154375  , -0.0570985563, 0.325603336 , 0.001839099 , -4.10286E-05, 3.03017926  , 4.72        , 3           , 14          , 0.000383199484, 0.0005425393
0.01319132  , -0.0133759081, -9.789931   , -0.00200316752, -0.000109513239, -0.000825767347, -0.5164487  , -0.0568289049, 0.32499662  , 0.00181906775, -4.21086224E-05, 3.03017068  , 4.73        , 3           , 15          , 0           , -4.6627556E-05
0.0168817248, -0.004436235, -9.777662   , -0.000588897965, -0.000663096667, -0.00195020041, -0.5148982  , -0.0568963178, 0.32452473  , 0.0018131797, -4.87041762E-05, 3.03015161  , 4.74        , 3           , 50          , 0           , 0
-0.03496837 , -0.0285679772, -9.800758   , -0.0003231248, 0.00299916649, 0.0005995948, -0.5148982  , -0.0568963178, 0.32452473  , 0.00180994824, -1.87234255E-05, 3.03015733  , 4.75        , 3           , 11          , 0.07053073  , 0.07053075
0.0026340792, -0.0254211277, -9.79413    , 0.00279046618, 0.00133077858, -0.00193135964, -0.5154375  , -0.0570311435, 0.3254685   , 0.00183785311, -5.38043969E-06, 3.03013825  , 4.76        , 3           , 12          , 0.07049853  , 0
0.0227285512, -0.009893452, -9.785324   , 0.0005464597, -0.00150014507, 0.0005966026, -0.5165161  , -0.0568963178, 0.32499662  , 0.00184331753, -2.039285E-05, 3.030144    , 4.77        , 3           , 14          , 0.000383199484, 0.0005425393
0.0307329856, -0.0230513513, -9.791645   , -0.000309347932, 0.000183514727, 0.000312717981, -0.5148982  , -0.0570985563, 0.32452473  , 0.001840224 , -1.85634635E-05, 3.03014684  , 4.78        , 3           , 15          , 0           , -4.6627556E-05
0.0284310877, -0.023948241, -9.785339   , -2.3391709E-05, -0.0006592736, -0.000817416643, -0.5148982  , -0.0570985563, 0.32452473  , 0.00183999026, -2.51411475E-05, 3.03013921  , 4.79        , 3           , 50          , 0           , 0
-0.00293248 , -0.009024408, -9.819868   , -0.000863533933, -0.00207280647, -0.000541003363, -0.5154375  , -0.0570311435, 0.325535923 , 0.00183138833, -4.57164933E-05, 3.03013349  , 4.8         , 3           , 11          , 0.07162676  , 0.07162679
-0.0389417373, -0.0195107162, -9.796682   , -0.00144109677, 0.000457458431, -0.000822269358, -0.5167183  , -0.0570311435, 0.3249292   , 0.00181697786, -4.112693E-05, 3.03012538  , 4.81        , 3           , 12          , 0.07159258  , 0
0.00913281552, -0.0110829035, -9.786788   , 0.00307452935, 0.001332718 , 0.0008953282, -0.5149656  , -0.0570985563, 0.324794382 , 0.00184772268, -2.781616E-05, 3.03013444  , 4.82        , 3           , 14          , 0.000383194449, 0.000542517635
-0.00712378277, -0.00728535373, -9.785994   , 0.000242312177, 0.002721439 , -0.0008108963, -0.5149656  , -0.0570985563, 0.324794382 , 0.0018501461, -5.86820533E-07, 3.03012633  , 4.83        , 3           , 15          , 0           , -4.66238344E-05
0.00230987649, -0.0128138205, -9.78504    , 0.00110681017, -0.000651609735, 3.54598669E-05, -0.5154375  , -0.0570985563, 0.325670749 , 0.00186121429, -7.103561E-06, 3.03012681  , 4.84        , 3           , 50          , 0           , 0
0.015891172 , -0.0236875266, -9.81888    , 0.00137964217, 0.00132125651, 0.000322351581, -0.5165835  , -0.05696373 , 0.32499662  , 0.00187501067, 6.102957E-06, 3.03012967  , 4.85        , 3           , 11          , 0.07162676  , 0.07162679
0.0320780762, -0.0284342486, -9.805668   , -0.000306955539, -0.000661167433, -0.00279649976, -0.515167832, -0.05716597 , 0.324457318 , 0.001871941 , -4.563044E-07, 3.030102    , 4.86        , 3           , 12          , 0.07159258  , 0
0.00552850543, -0.0471060351, -9.796457   , -0.00313131255, -0.00039869576, -0.0005489352, -0.515167832, -0.05716597 , 0.324457318 , 0.00184062775, -4.43306635E-06, 3.03009629  , 4.87        , 3           , 14          , 0.000383194449, 0.000542517635
-0.00141146313, -0.0257957112, -9.802751   , -0.002558421, -0.00208426779, -0.00111397984, -0.515167832, -0.0570311435, 0.325535923 , 0.00181504386, -2.52553509E-05, 3.03008485  , 4.88        , 3           , 15          , 0           , -4.66238344E-05
0.002574631 , -0.03528901 , -9.811346   , 0.0019568787, -0.0012090099, 3.85428E-05 , -0.5165161  , -0.0570985563, 0.325131446 , 0.00183461246, -3.734613E-05, 3.0300858   , 4.89        , 3           , 50          , 0           , 0
0.026255805 , -0.0149228321, -9.778086   , 0.00251018023, 0.00132891221, 0.00174031418, -0.515033   , -0.0573007949, 0.324592143 , 0.00185981311, -2.40096779E-05, 3.030103    , 4.9         , 3           , 11          , 0.07272494  , 0.07272497
-0.00523067545, -0.00233033858, -9.790027   , 0.00223341817, -8.082937E-05, -0.0005234723, -0.515033   , -0.0573007949, 0.324592143 , 0.00188214739, -2.48081633E-05, 3.03009772  , 4.91        , 3           , 12          , 0.07268867  , 0
0.0103566665, -0.0241519958, -9.795873   , -0.00114406249, -0.00235626753, 0.000304865243, -0.515302658, -0.05716597 , 0.325535923 , 0.00187070656, -4.8376518E-05, 3.030101    , 4.92        , 3           , 14          , 0.0003831796, 0.000542505761
-0.00107170828, -0.0299097709, -9.788301   , -0.0014233751, -0.0029213056, 0.000867755443, -0.5161116  , -0.0568963178, 0.3249292   , 0.00185647246, -7.760569E-05, 3.03010964  , 4.93        , 3           , 15          , 0           , -4.66310521E-05
