Acc X       , Acc Y       , Acc Z       , Gyro X      , Gyro Y      , Gyro Z      , Magn X      , Magn Y      , Magn Z      , Euler X     , Euler Y     , Euler Z     , Time        , Status      , LowRate X   , LowRate Y   , LowRate Z    
0.3912865   , 0.0236377958, -9.7692585  , 0.000252053724, -0.000865546055, 0.00110241817, -0.184373736, -0.16024    , 0.4219361   , -0.00371944928, 0.03896156  , 2.384086    , 0           , 3           , 11          , 0.0346410163, 0.0346410163
0.366526425 , 0.03341945  , -9.773928   , 0.0008108863, 0.000123746169, -0.0008711913, -0.184575975, -0.15990293 , 0.4219361   , -0.003711682, 0.0389627665, 2.38407731  , 0.01        , 3           , 12          , 0.0346410163, 0
0.374796063 , 0.03609871  , -9.794193   , 0.002223102 , 0.000133296388, -0.000723337929, -0.184508562, -0.1597681  , 0.4219361   , -0.00368973287, 0.0389640778, 2.38406968  , 0.02        , 3           , 50          , 0           , 0
0.388014019 , 0.0480666757, -9.776415   , 0.0008123175, -1.70328458E-05, 0.000400010234, -0.184373736, -0.160105169, 0.42207092  , -0.003681455, 0.0389639176, 2.3840735   , 0.03        , 3           , 11          , 0.0346410163, 0.0346410163
0.373144031 , 0.0496393852, -9.789629   , 0.0009518478, 0.0004062717, 0.00110766327, -0.184238911, -0.160105169, 0.421868682 , -0.00367150619, 0.03896802  , 2.384085    , 0.04        , 3           , 12          , 0.0346410163, 0
0.3682266   , 0.0519808345, -9.797792   , 0.00236295862, 0.0005566025, 0.000549389864, -0.184238911, -0.160105169, 0.421868682 , -0.00364766084, 0.0389736034, 2.38409019  , 0.05        , 3           , 50          , 0           , 0
0.3815764   , 0.0382414646, -9.784188   , 0.00278533087, 0.0007002473, -0.0004372988, -0.184441149, -0.160037756, 0.4220035   , -0.00361997774, 0.03898059  , 2.384086    , 0.06        , 3           , 11          , 0.0346410163, 0.0346410163
0.356565028 , 0.03085821  , -9.782603   , 0.00108876044, 0.00111113547, -0.0003032808, -0.184306324, -0.159835517, 0.422138333 , -0.00360920979, 0.03899169  , 2.384083    , 0.07        , 3           , 12          , 0.0346410163, 0
0.384658456 , 0.0283137057, -9.794601   , 0.0003812993, 0.00138792547, -0.000306139176, -0.184373736, -0.1597681  , 0.4220035   , -0.003605519, 0.0390055664, 2.38407969  , 0.08        , 3           , 50          , 0           , 0
0.3928404   , 0.0385098346, -9.769185   , -4.082099E-05, 0.000962710241, -0.00129764655, -0.184373736, -0.1597681  , 0.4220035   , -0.00360643654, 0.03901514  , 2.38406682  , 0.09        , 3           , 11          , 0.0346410163, 0.0346410163
0.38124454  , 0.0454863757, -9.790489   , -0.00116175646, -0.000734318048, -0.000599172956, -0.184508562, -0.15990293 , 0.42207092  , -0.003618289, 0.03900778  , 2.384061    , 0.1         , 3           , 12          , 0.0346410163, 0
0.3907471   , 0.04492359  , -9.790419   , 0.00053710537, -0.001426767, 0.0008203312, -0.184441149, -0.15990293 , 0.422273159 , -0.00361259514, 0.03899355  , 2.3840692   , 0.11        , 3           , 50          , 0           , 0
0.383394241 , 0.0422427729, -9.77286    , 0.00180253154, -0.000291911478, 0.0009692618, -0.184441149, -0.159835517, 0.422205746 , -0.00359419151, 0.0389906578, 2.38407922  , 0.12        , 3           , 11          , 0.0346410163, 0.0346410163
0.400139272 , 0.043825    , -9.765039   , 0.000108014916, -0.000444156845, -0.000169006627, -0.184441149, -0.159835517, 0.422205746 , -0.00359317614, 0.03898621  , 2.38407731  , 0.13        , 3           , 12          , 0.0346410163, 0
0.380682945 , 0.0369228423, -9.791432   , -0.00144967774, 0.0003900328, -0.000457485381, -0.184306324, -0.159835517, 0.421801269 , -0.00360785262, 0.0389901   , 2.38407254  , 0.14        , 3           , 50          , 0           , 0
0.373023331 , 0.04016824  , -9.790573   , -0.000882733031, -2.84949238E-05, -0.0004555025, -0.184575975, -0.1597681  , 0.42207092  , -0.00361685851, 0.0389897972, 2.38406777  , 0.15        , 3           , 11          , 0.0346410163, 0.0346410163
0.3747818   , 0.0293919183, -9.8123     , -0.00227899919, -0.00327604357, -0.0007496148, -0.184441149, -0.160037756, 0.422205746 , -0.003639936, 0.0389570072, 2.38406062  , 0.16        , 3           , 12          , 0.0346410163, 0
0.398373157 , 0.03406305  , -9.807581   , -0.00129296689, -0.00270622736, -0.000179062728, -0.184441149, -0.159970343, 0.42207092  , -0.003652934, 0.03892994  , 2.38405919  , 0.17        , 3           , 50          , 0           , 0
0.382380068 , 0.0238650572, -9.805485   , 0.00123817462, -0.0005773008, -0.000587762159, -0.184441149, -0.159970343, 0.42207092  , -0.00364078023, 0.0389241539, 2.384053    , 0.18        , 3           , 11          , 0.0346410163, 0.0346410163
0.370545179 , 0.02529171  , -9.786134   , -0.000603420543, 0.00053654355, -0.0010183925, -0.184373736, -0.159970343, 0.42207092  , -0.003647214, 0.0389294736, 2.384043    , 0.19        , 3           , 12          , 0.0346410163, 0
0.369572818 , 0.02569453  , -9.768513   , -3.9344468E-05, 0.000681145641, -0.00115680869, -0.184643388, -0.160105169, 0.422205746 , -0.00364802754, 0.0389362536, 2.38403153  , 0.2         , 3           , 50          , 0           , 0
0.382043153 , 0.0369084   , -9.791874   , 0.00194215158, -0.000150178254, -0.000583817135, -0.184306324, -0.16037482 , 0.42207092  , -0.003628834, 0.0389347225, 2.38402581  , 0.21        , 3           , 11          , 0.0346699134, 0.0346699134
0.393263549 , 0.0611702055, -9.799824   , 0.00306537771, 0.00126528949, 0.000271232653, -0.184306324, -0.16037482 , 0.42207092  , -0.00359807559, 0.0389473848, 2.3840282   , 0.22        , 3           , 12          , 0.0346688256, 0
0.397810966 , 0.03487239  , -9.778202   , 0.00291756517, 0.002531376 , -0.000292547978, -0.184508562, -0.15990293 , 0.42207092  , -0.00356901879, 0.038972687 , 2.38402486  , 0.23        , 3           , 50          , 0           , 0
0.3826912   , 0.06161057  , -9.760127   , 0.002221175 , 0.0005556448, -0.00044014657, -0.1847108  , -0.159633279, 0.42207092  , -0.00354698 , 0.03897823  , 2.38402057  , 0.24        , 3           , 11          , 0.0346699134, 0.0346699134
0.3997728   , 0.04702466  , -9.775877   , 0.0009565273, -0.000719992968, -0.000448025472, -0.1841715  , -0.16024    , 0.422138333 , -0.00353759062, 0.03897102  , 2.38401628  , 0.25        , 3           , 12          , 0.0346688256, 0
0.39898628  , 0.0217639934, -9.775536   , 0.000941645354, 0.00223643915, -0.00086727523, -0.1841715  , -0.16024    , 0.422138333 , -0.00352851581, 0.0389933549, 2.38400769  , 0.26        , 3           , 50          , 0           , 0
0.393485    , 0.0458015651, -9.792654   , 0.00136270514, 0.00266164914, -0.00171226147, -0.184373736, -0.159970343, 0.42207092  , -0.003515561, 0.0390199125, 2.38399053  , 0.27        , 3           , 11          , 0.0346699134, 0.0346699134
0.3997215   , 0.03314631  , -9.808025   , 0.0008126517, -0.000298602972, -0.00143691408, -0.184373736, -0.159835517, 0.4220035   , -0.00350799551, 0.0390168726, 2.38397574  , 0.28        , 3           , 12          , 0.0346688256, 0
0.388592035 , 0.053519018 , -9.789495   , -0.000315090583, -0.0005878052, -0.0004537346, -0.184104085, -0.159835517, 0.4220035   , -0.003511324, 0.039010983 , 2.38397145  , 0.29        , 3           , 50          , 0           , 0
0.366827637 , 0.04750039  , -9.802342   , -0.000342046755, -0.0001335761, -3.01418822E-05, -0.184104085, -0.159835517, 0.4220035   , -0.00403277855, 0.03966617  , 2.38395047  , 0.3         , 3           , 11          , 0.034753412 , 0.034753412
0.370416135 , 0.0496622138, -9.786939   , 0.0016345334, -0.000120208279, -0.000727267063, -0.184441149, -0.160037756, 0.422138333 , -0.004016722, 0.03966494  , 2.38394332  , 0.31        , 3           , 12          , 0.0347539037, 0
0.379143775 , 0.0242944546, -9.787881   , 0.0003562346, 0.00127902033, -0.00143736717, -0.184306324, -0.159835517, 0.42207092  , -0.00401373 , 0.0396776721, 2.38392854  , 0.32        , 3           , 50          , 0           , 0
0.366224319 , 0.0380103551, -9.796059   , 0.000774461951, 0.00240814639, -0.00115111854, -0.184373736, -0.160105169, 0.4220035   , -0.004006445, 0.0397017077, 2.383917    , 0.33        , 3           , 11          , 0.034753412 , 0.034753412
0.3449968   , 0.0449987426, -9.787603   , 0.00317262788, 0.002987513 , -0.000573981844, -0.184373736, -0.160105169, 0.4220035   , -0.00397495 , 0.03973156  , 2.38391137  , 0.34        , 3           , 12          , 0.0347539037, 0
0.386919439 , 0.03185552  , -9.782366   , 0.00232768338, 0.00255943649, -0.000154777415, -0.184441149, -0.160037756, 0.4219361   , -0.00395173859, 0.0397571437, 2.38390946  , 0.35        , 3           , 50          , 0           , 0
0.399778    , 0.0541705079, -9.754152   , 0.000641857157, 0.0007178021, -0.0007305745, -0.1847108  , -0.15990293 , 0.4220035   , -0.00394561142, 0.0397642925, 2.38390279  , 0.36        , 3           , 11          , 0.034753412 , 0.034753412
0.388513684 , 0.0458675958, -9.794951   , 0.000217356734, 0.000855718856, -0.00101487048, -0.184508562, -0.160172582, 0.4220035   , -0.003943843, 0.0397728123, 2.3838923   , 0.37        , 3           , 12          , 0.0347539037, 0
0.383882284 , 0.03690982  , -9.79864    , -0.00133156392, 5.199581E-07, -0.0005996092, -0.184508562, -0.160172582, 0.4220035   , -0.0039573973, 0.0397727937, 2.38388658  , 0.38        , 3           , 50          , 0           , 0
0.389937818 , 0.0241079126, -9.770171   , -0.00131963333, -0.00239278236, -0.000462028867, -0.184441149, -0.15990293 , 0.4219361   , -0.003970774, 0.03974884  , 2.38388181  , 0.39        , 3           , 11          , 0.034753412 , 0.034753412
0.392350882 , 0.0291120317, -9.790472   , -0.000763287651, -0.0005863549, -0.000315388665, -0.184441149, -0.1597681  , 0.422138333 , -0.003974174, 0.03948955  , 2.383879    , 0.4         , 3           , 12          , 0.0348953977, 0
0.38390103  , 0.0396031141, -9.79456    , 0.000219956564, 0.000546591531, 0.000256031228, -0.184508562, -0.160037756, 0.4219361   , -0.003971874, 0.0394950248, 2.38388133  , 0.41        , 3           , 50          , 0           , 0
0.389849722 , 0.0485116839, -9.780918   , 0.002047656 , 0.00210761256, -0.000439365656, -0.184441149, -0.15990293 , 0.42207092  , -0.00395157328, 0.03951608  , 2.383877    , 0.42        , 3           , 11          , 0.0176963843, 0.0176961143
0.381971627 , 0.0283697918, -9.801854   , -0.0007822697, 0.00321477279, -0.000592068071, -0.184441149, -0.15990293 , 0.42207092  , -0.00395963248, 0.0395482033, 2.38387132  , 0.43        , 3           , 12          , 0.0348953977, 0
0.395356178 , 0.0538632274, -9.781307   , -0.0009118416, 0.000961299171, 0.000251414429, -0.184575975, -0.15990293 , 0.42207092  , -0.003968653, 0.0395578258, 2.38387322  , 0.44        , 3           , 50          , 0           , 0
0.384740651 , 0.03864634  , -9.78145    , 0.00149321312, 0.000132839792, 0.000685112842, -0.184306324, -0.15990293 , 0.422205746 , -0.00395345 , 0.0395591781, 2.38388038  , 0.45        , 3           , 11          , 0.0176963843, 0.0176961143
0.3765037   , 0.03733263  , -9.764795   , 0.0007895261, -0.0004350673, -2.5391E-05 , -0.184373736, -0.160172582, 0.421868682 , -0.00394556 , 0.0395548232, 2.38388     , 0.46        , 3           , 12          , 0.0348953977, 0
0.384589672 , 0.0260262   , -9.78512    , 0.001492642 , 0.000132837071, -0.00030376832, -0.184373736, -0.160172582, 0.421868682 , -0.003930753, 0.0395561345, 2.383877    , 0.47        , 3           , 50          , 0           , 0
0.369740248 , 0.03029373  , -9.794708   , 0.00079022313, -0.00057584967, -2.56079948E-05, -0.184508562, -0.1597681  , 0.421801269 , -0.00392286 , 0.03955038  , 2.383877    , 0.48        , 3           , 11          , 0.0176963843, 0.0176961143
0.363420427 , 0.0361862443, -9.78072    , -0.0009051165, -0.000446527352, -0.00017456137, -0.184643388, -0.16024    , 0.4220035   , -0.003931979, 0.03954591  , 2.38387513  , 0.49        , 3           , 12          , 0.0348953977, 0
0.379662365 , 0.0301450286, -9.785141   , -0.0017393548, -0.000362496823, -0.00159060245, -0.184778214, -0.160172582, 0.422138333 , -0.00387989171, 0.0392969   , 2.38386178  , 0.5         , 3           , 50          , 0           , 0
0.3793512   , 0.0427629352, -9.779215   , -0.000748362, -0.0007781576, -0.0008803003, -0.184778214, -0.160172582, 0.422138333 , -0.00388772087, 0.03928909  , 2.3838532   , 0.51        , 3           , 11          , 0.01343911  , 0.0134389978
0.376761258 , 0.04780738  , -9.794129   , -0.00032165178, -0.00119763543, 0.0008162491, -0.184441149, -0.15990293 , 0.42207092  , -0.00389061472, 0.03927714  , 2.3838613   , 0.52        , 3           , 12          , 0.0350921936, 0
0.3961893   , 0.04665232  , -9.786754   , -0.00272014458, -0.00177700352, -0.000325962523, -0.184373736, -0.160037756, 0.4220035   , -0.00391794275, 0.03925936  , 2.383858    , 0.53        , 3           , 50          , 0           , 0
0.396981239 , 0.0340517834, -9.799456   , -0.00342916255, -0.00121864921, -0.0006109244, -0.184643388, -0.160037756, 0.4220035   , -0.00395247154, 0.03924715  , 2.38385224  , 0.54        , 3           , 11          , 0.01343911  , 0.0134389978
0.3535517   , 0.0403953   , -9.79027    , -0.00244034245, -0.00121196255, -4.124027E-05, -0.184643388, -0.160037756, 0.4220035   , -0.00397688849, 0.0392350331, 2.38385224  , 0.55        , 3           , 12          , 0.0350921936, 0
0.3941718   , 0.0674106851, -9.780355   , -0.0003221413, -0.00119763776, -3.13632554E-05, -0.184306324, -0.159970343, 0.42207092  , -0.00398011971, 0.0392230526, 2.38385129  , 0.56        , 3           , 50          , 0           , 0
0.380337656 , 0.0437105373, -9.795926   , -0.00201696926, -0.00113870611, 0.0001021123, -0.184238911, -0.160172582, 0.422407985 , -0.00400024932, 0.0392116755, 2.38385272  , 0.57        , 3           , 11          , 0.01343911  , 0.0134389978
0.3684951   , 0.0397747755, -9.79196548 , -0.00194866466, -0.000434310146, 0.00215192279, -0.184508562, -0.159970343, 0.422138333 , -0.00401889067, 0.0392074175, 2.38387418  , 0.58        , 3           , 12          , 0.0350921936, 0
0.387473166 , 0.0372882076, -9.789571   , 0.0003196701, -0.00231959717, 0.00131191709, -0.184508562, -0.159970343, 0.422138333 , -0.00401517656, 0.039184276 , 2.38388753  , 0.59        , 3           , 50          , 0           , 0
0.375603765 , 0.0297598727, -9.790598   , -0.000133983776, -0.000940758968, 0.00102857954, -0.184441149, -0.15990293 , 0.4220035   , -0.004084566, 0.03909687  , 2.38389516  , 0.6         , 3           , 11          , 0.011352377 , 0.0113523267
0.377208322 , 0.0451193526, -9.801369   , 0.002895101 , 0.000206026642, -0.00142773043, -0.184441149, -0.159835517, 0.422340572 , -0.004056175, 0.03909887  , 2.38388085  , 0.61        , 3           , 12          , 0.03534294  , 0
0.3853231   , 0.04767312  , -9.784121   , -0.00022225664, 0.00243754033, -0.0005911329, -0.184575975, -0.160105169, 0.42207092  , -0.00405863253, 0.03912322  , 2.38387513  , 0.62        , 3           , 50          , 0           , 0
0.3760484   , 0.0364432074, -9.767062   , -0.00288792723, -0.00110016845, -0.000679702149, -0.184575975, -0.160105169, 0.42207092  , -0.00408777641, 0.03911219  , 2.383868    , 0.63        , 3           , 11          , 0.011352377 , 0.0113523267
0.362094581 , 0.0397993028, -9.7771     , -0.00372731453, -0.00272489828, -0.0008980512, -0.184373736, -0.160105169, 0.421801269 , -0.004125397, 0.0390849076, 2.383859    , 0.64        , 3           , 12          , 0.03534294  , 0
0.3988832   , 0.04347748  , -9.79126549 , -0.00155476376, 0.0005982944, -0.000670843059, -0.184643388, -0.159565866, 0.42207092  , -0.00414120732, 0.0390908644, 2.38385224  , 0.65        , 3           , 50          , 0           , 0
0.386310935 , 0.04281927  , -9.81983948 , 0.00112798356, 0.0006868306, -0.0005875894, -0.184508562, -0.159835517, 0.422205746 , -0.00413015857, 0.0390977077, 2.38384652  , 0.66        , 3           , 11          , 0.011352377 , 0.0113523267
0.382049382 , 0.0378061719, -9.790515   , -0.0014019052, -0.00179405476, -0.001027045, -0.184508562, -0.1597681  , 0.421868682 , -0.00414457731, 0.03907972  , 2.383836    , 0.67        , 3           , 12          , 0.03534294  , 0
0.382170022 , 0.0196777023, -9.767536   , 0.0002891076, -0.00100828963, -0.0005235094, -0.184508562, -0.1597681  , 0.421868682 , -0.00414188951, 0.0390696153, 2.38383126  , 0.68        , 3           , 50          , 0           , 0
0.366584063 , 0.0356978774, -9.780698   , -0.0009195518, 0.0007433765, 0.000109314868, -0.184373736, -0.159970343, 0.4220035   , -0.004151042, 0.03907705  , 2.38383222  , 0.69        , 3           , 11          , 0.011352377 , 0.0113523267
0.359071255 , 0.0408476777, -9.809661   , -0.000959650439, 0.00134149112, -0.0003832751, -0.184441149, -0.159835517, 0.422407985 , -0.00408888655, 0.0390165672, 2.38383126  , 0.7         , 3           , 12          , 0.0356460735, 0
0.375836581 , 0.0446781   , -9.799574   , -0.0009573519, 0.0007783586, -0.00123175513, -0.184238911, -0.16024    , 0.4220035   , -0.004098943, 0.0390243   , 2.38381886  , 0.71        , 3           , 50          , 0           , 0
0.383200854 , 0.05272435  , -9.802648   , 0.00108883018, 0.001003378 , -0.00185759144, -0.184238911, -0.16024    , 0.4220035   , -0.00408878 , 0.0390342623, 2.38380027  , 0.72        , 3           , 11          , 0.0101335188, 0.0101334816
0.4002725   , 0.0475037545, -9.785814   , -0.000104087419, -0.00034216998, -0.0005231967, -0.184575975, -0.160172582, 0.422205746 , -0.004090023, 0.0390308127, 2.383795    , 0.73        , 3           , 12          , 0.0356460735, 0
0.3975158   , 0.0439324826, -9.787659   , 0.000326337351, -0.00167673815, -0.000240744863, -0.184508562, -0.159970343, 0.4220035   , -0.00408684975, 0.039014034 , 2.38379264  , 0.74        , 3           , 50          , 0           , 0
0.38476944  , 0.0346525051, -9.801354   , -0.001231685, -0.0007017642, 0.0001067025, -0.184306324, -0.159970343, 0.4220035   , -0.004099125, 0.03900702  , 2.383794    , 0.75        , 3           , 11          , 0.0101335188, 0.0101334816
0.38735193  , 0.0296020079, -9.784633   , -0.000384078245, -0.000696032832, 0.0006757283, -0.184306324, -0.159970343, 0.4220035   , -0.004102701, 0.0390000828, 2.38380075  , 0.76        , 3           , 12          , 0.0356460735, 0
0.378624916 , 0.02067544  , -9.78338051 , 0.000530038262, 1.4085902E-05, 0.000186652469, -0.184643388, -0.160172582, 0.422138333 , -0.004097327, 0.03900023  , 2.38380265  , 0.77        , 3           , 50          , 0           , 0
0.39139995  , 0.0308713336, -9.773748   , 0.0006670323, 0.0007189502, -0.0010830228, -0.184778214, -0.160105169, 0.422273159 , -0.00409108028, 0.0390073732, 2.38379121  , 0.78        , 3           , 11          , 0.0101335188, 0.0101334816
0.392274022 , 0.0611128062, -9.779491   , 0.000874014338, 0.00170586025, -0.001009882, -0.184104085, -0.160172582, 0.42207092  , -0.004082734, 0.039024394 , 2.38378167  , 0.79        , 3           , 12          , 0.0356460735, 0
0.387168    , 0.0427693278, -9.808082   , -0.00158563524, 0.0003248968, -0.0008819515, -0.184104085, -0.160172582, 0.42207092  , -0.004091424, 0.0390997529, 2.383773    , 0.8         , 3           , 50          , 0           , 0
0.370326817 , 0.03977015  , -9.796925   , 0.00032229934, 0.0001970107, 0.0006100425, -0.184373736, -0.160105169, 0.4220035   , -0.004087962, 0.03910175  , 2.38377881  , 0.81        , 3           , 11          , 0.009378825 , 0.009378806
0.391149431 , 0.0421992764, -9.786811   , -0.00151068333, -0.000519320252, -0.00060038676, -0.184508562, -0.15990293 , 0.422138333 , -0.004103304, 0.039096538 , 2.383773    , 0.82        , 3           , 12          , 0.0359998532, 0
0.380107224 , 0.0345968045, -9.768847   , -0.00158342544, 4.333563E-05, 0.0005303018, -0.184441149, -0.159970343, 0.42207092  , -0.00411892869, 0.03909699  , 2.38377833  , 0.83        , 3           , 50          , 0           , 0
0.372458577 , 0.0400828421, -9.763459   , -2.99112126E-05, -8.694457E-05, -0.000380918733, -0.184441149, -0.159970343, 0.42207092  , -0.004119376, 0.0390961   , 2.38377452  , 0.84        , 3           , 11          , 0.009378825 , 0.009378806
0.374258339 , 0.03469615  , -9.777931   , 0.00102831062, -9.393436E-06, -0.00129411847, -0.184441149, -0.160105169, 0.42207092  , -0.004109599, 0.0390959568, 2.38376164  , 0.85        , 3           , 12          , 0.0359998532, 0
0.370311558 , 0.03931144  , -9.794666   , 0.00293524  , 7.389445E-05, 0.000268835283, -0.184508562, -0.15990293 , 0.422273159 , -0.004080141, 0.0390967   , 2.38376451  , 0.86        , 3           , 50          , 0           , 0
0.387522519 , 0.0435771123, -9.781409   , 0.00201589987, 0.0002788589, -0.0004414629, -0.184306324, -0.160037756, 0.422138333 , -0.00406015245, 0.03909947  , 2.38375974  , 0.87        , 3           , 11          , 0.009378825 , 0.009378806
0.37438646  , 0.0441733524, -9.778795   , 0.0008793821, 0.00181983085, 0.00103897764, -0.184306324, -0.160037756, 0.422138333 , -0.004050955, 0.0391177125, 2.38377023  , 0.88        , 3           , 12          , 0.0359998532, 0
0.3731007   , 0.03889189  , -9.81363    , -0.00228872523, -0.0004541863, -0.00236975914, -0.184508562, -0.160037756, 0.4219361   , -0.004074769, 0.03911307  , 2.38374639  , 0.89        , 3           , 50          , 0           , 0
0.369029582 , 0.03671119  , -9.821806   , -0.00200675474, -0.000791972154, -0.0005327171, -0.184508562, -0.159970343, 0.4219361   , -0.00409911573, 0.0390237719, 2.38374114  , 0.9         , 3           , 11          , 0.008913222 , 0.00891321
0.381671578 , 0.03831858  , -9.807239   , -9.619177E-05, -0.00162377511, -0.000525129552, -0.184238911, -0.160037756, 0.422273159 , -0.00410027849, 0.0390075073, 2.383736    , 0.91        , 3           , 12          , 0.0364024   , 0
0.3666942   , 0.03846527  , -9.798765   , 0.0006071651, -0.000915083743, 0.000821300666, -0.184643388, -0.159970343, 0.421868682 , -0.004093884, 0.0389983878, 2.38374448  , 0.92        , 3           , 50          , 0           , 0
0.3816244   , 0.04006573  , -9.790056   , -0.000172270709, -0.0005683847, -0.000947637833, -0.184643388, -0.159970343, 0.421868682 , -0.004095975, 0.038992662 , 2.383735    , 0.93        , 3           , 11          , 0.008913222 , 0.00891321
0.363286436 , 0.0538575053, -9.80189    , 0.000184863238, -0.0014106927, -0.00108856219, -0.184643388, -0.160037756, 0.422138333 , -0.00409454852, 0.03897851  , 2.3837235   , 0.94        , 3           , 12          , 0.0364024   , 0
0.3744375   , 0.0451074   , -9.788282   , 0.0001654696, 0.002531219 , -0.000870584, -0.184643388, -0.159633279, 0.42207092  , -0.00409324 , 0.0390037857, 2.383715    , 0.95        , 3           , 50          , 0           , 0
0.349644482 , 0.0557550639, -9.7821     , -0.0005404937, 0.00245605153, -0.00129779091, -0.184373736, -0.160037756, 0.42207092  , -0.00409915624, 0.0390282944, 2.38370156  , 0.96        , 3           , 11          , 0.008913222 , 0.00891321
0.376116574 , 0.0378374755, -9.779261   , 0.00137316168, 0.00113151281, -0.000160813084, -0.184373736, -0.160037756, 0.42207092  , -0.004085487, 0.0390396044, 2.38370061  , 0.97        , 3           , 12          , 0.0364024   , 0
0.383911669 , 0.0413971469, -9.79139    , 0.00377973262, 2.14889169E-05, 0.000484354416, -0.1841715  , -0.160037756, 0.422205746 , -0.004047502, 0.0390398428, 2.38370538  , 0.98        , 3           , 50          , 0           , 0
0.381066948 , 0.06981757  , -9.779542   , 0.00244025188, -0.000269145326, 0.00160781492, -0.184441149, -0.160037756, 0.42207092  , -0.00402247 , 0.0390372127, 2.38372159  , 0.99        , 3           , 11          , 0.008913222 , 0.00891321
0.356678843 , 0.03095043  , -9.810172   , -0.00148994045, 0.00107686082, 0.00172885449, -0.184373736, -0.15990293 , 0.42207092  , -0.00417513866, 0.0389145054, 2.383733    , 1           , 3           , 12          , 0.0368517078, 0
0.365178853 , 0.0227317419, -9.811045   , -0.00021374799, -0.000111199028, 0.000602786546, -0.184373736, -0.15990293 , 0.42207092  , -0.00417704042, 0.03891341  , 2.38373971  , 1.01        , 3           , 50          , 0           , 0
0.377706975 , 0.013980791 , -9.801946   , -0.00345605821, -0.00132981665, 2.07226767E-05, -0.1841715  , -0.160037756, 0.4219361   , -0.00421159063, 0.03890012  , 2.38373971  , 1.02        , 3           , 11          , 0.008636971 , 0.008636964
0.391432047 , 0.0313436538, -9.780074   , 0.00112638518, 0.000179438517, 0.000609475945, -0.184508562, -0.160172582, 0.422138333 , -0.00420008833, 0.0389019325, 2.38374543  , 1.03        , 3           , 12          , 0.0368517078, 0
0.382653981 , 0.0214830376, -9.769334   , 0.0024613766, 0.00138515932, -0.000441939716, -0.184508562, -0.160037756, 0.422205746 , -0.00417565 , 0.03891577  , 2.38374114  , 1.04        , 3           , 50          , 0           , 0
0.366957247 , 0.02893286  , -9.782983   , -0.00113482727, 0.000304936 , -0.00130797026, -0.184508562, -0.160037756, 0.422205746 , -0.00418750849, 0.03891876  , 2.38372827  , 1.05        , 3           , 11          , 0.008636971 , 0.008636964
0.375926256 , 0.04742885  , -9.812669   , -0.0018427  , 0.000722510042, -0.0008161711, -0.184306324, -0.159835517, 0.42207092  , -0.004206254, 0.03892595  , 2.38371968  , 1.06        , 3           , 12          , 0.0368517078, 0
0.400362581 , 0.05337931  , -9.788954   , -0.000644580636, 0.00122336741, -0.0003860086, -0.184373736, -0.159835517, 0.4219361   , -0.004212851, 0.0389381647, 2.38371587  , 1.07        , 3           , 50          , 0           , 0
0.3768927   , 0.0541628   , -9.805853   , -0.00028927438, 0.000873801066, 0.0005333418, -0.184441149, -0.160037756, 0.42207092  , -0.004215537, 0.038946934 , 2.38372159  , 1.08        , 3           , 11          , 0.008636971 , 0.008636964
0.382592738 , 0.03921327  , -9.808132   , 0.00225889939, -0.0003056588, 0.00124969368, -0.184441149, -0.160037756, 0.42207092  , -0.00419246033, 0.0389439277, 2.383734    , 1.09        , 3           , 12          , 0.0368517078, 0
0.38773042  , 0.0223949   , -9.789632   , 0.00205099839, 0.000571961049, -0.0005154996, -0.1841715  , -0.159700692, 0.422138333 , -0.00416100072, 0.0389072746, 2.38372922  , 1.1         , 3           , 50          , 0           , 0
0.396319032 , 0.0307629611, -9.758795   , 0.002116745 , 0.00162830937, 0.000122166181, -0.184441149, -0.160037756, 0.422138333 , -0.00413978938, 0.03892356  , 2.38373017  , 1.11        , 3           , 11          , 0.008482645 , 0.008482632
0.3750173   , 0.04788307  , -9.810413   , 0.003957869 , 0.000584855559, 0.000341001985, -0.1841715  , -0.160172582, 0.422340572 , -0.00410007825, 0.03892942  , 2.383734    , 1.12        , 3           , 12          , 0.0373456962, 0
0.375686377 , 0.0356293656, -9.791928   , 0.00282953377, 0.000366043474, 0.0009004838, -0.1841715  , -0.160172582, 0.422340572 , -0.00407143356, 0.03893312  , 2.38374257  , 1.13        , 3           , 50          , 0           , 0
0.373317331 , 0.0270901229, -9.79379    , 0.0007823911, 0.000211412509, 0.000466912839, -0.184238911, -0.160105169, 0.4220035   , -0.00406342559, 0.03893525  , 2.38374734  , 1.14        , 3           , 11          , 0.008482645 , 0.008482632
0.37560156  , 0.0293117352, -9.791503   , -0.000969826244, -0.00219382253, 0.0023621216, -0.184373736, -0.160037756, 0.4219361   , -0.004072201, 0.03891341  , 2.38377118  , 1.15        , 3           , 12          , 0.0373456962, 0
0.380832464 , 0.0450783335, -9.801794   , -0.00266893255, -0.00150137488, 0.000518811343, -0.184575975, -0.15990293 , 0.42207092  , -0.00409868639, 0.03889842  , 2.38377643  , 1.16        , 3           , 50          , 0           , 0
0.4057686   , 0.0515078828, -9.788017   , -0.0014082595, 0.0004781731, -0.0003198373, -0.184306324, -0.160037756, 0.4220035   , -0.00411289465, 0.038903188 , 2.383773    , 1.17        , 3           , 11          , 0.008482645 , 0.008482632
0.398789585 , 0.04295527  , -9.770025   , -0.00148026028, 0.0007592607, -0.000319732615, -0.184306324, -0.160037756, 0.4220035   , -0.00412782142, 0.03891077  , 2.38377023  , 1.18        , 3           , 12          , 0.0373456962, 0
0.3899614   , 0.0232343413, -9.778763   , 0.0012717814, 0.0011298398, -9.444716E-05, -0.184306324, -0.160105169, 0.422138333 , -0.004115143, 0.038922064 , 2.38376927  , 1.19        , 3           , 50          , 0           , 0
0.386127949 , 0.03999292  , -9.784146   , 0.000192133448, 0.0009215571, -2.72708185E-05, -0.184575975, -0.160172582, 0.422138333 , -0.00405783 , 0.039023336 , 2.38377118  , 1.2         , 3           , 11          , 0.008403478 , 0.00840347
0.365352929 , 0.04652937  , -9.777046   , 0.0005419267, 0.00162785838, 0.000399266457, -0.184575975, -0.160105169, 0.421868682 , -0.0040522567, 0.039039623 , 2.383775    , 1.21        , 3           , 12          , 0.0378822275, 0
0.3900618   , 0.06296666  , -9.786282   , -0.000374692521, 0.001480871 , 0.00138365047, -0.184575975, -0.160105169, 0.421868682 , -0.004055466, 0.0390544944, 2.38378835  , 1.22        , 3           , 50          , 0           , 0
0.3883113   , 0.06437615  , -9.796684   , -0.000576977152, -0.0005619109, 0.000390635629, -0.184306324, -0.160037756, 0.42207092  , -0.004061083, 0.0390488878, 2.38379264  , 1.23        , 3           , 11          , 0.008403478 , 0.00840347
0.385131061 , 0.0247536059, -9.810884   , -0.000302791974, 0.00112939021, 0.000606459333, -0.184441149, -0.159700692, 0.422407985 , -0.00406387541, 0.0390602052, 2.38379884  , 1.24        , 3           , 12          , 0.0378822275, 0
0.3905931   , 0.0256057288, -9.814907   , 0.0023052108, 0.00192135852, -0.000439681084, -0.184238911, -0.159700692, 0.4220035   , -0.00404099748, 0.03907941  , 2.383794    , 1.25        , 3           , 50          , 0           , 0
0.394512534 , 0.04678243  , -9.819308   , -0.00128656637, -3.55910288E-06, -0.000883207249, -0.184238911, -0.159700692, 0.4220035   , -0.00405420875, 0.03907933  , 2.38378549  , 1.26        , 3           , 11          , 0.008403478 , 0.00840347
0.389727771 , 0.0372540727, -9.787293   , -0.00381783047, -0.00213248655, -0.0006864111, -0.185047865, -0.160037756, 0.4219361   , -0.00409265235, 0.03905798  , 2.38377833  , 1.27        , 3           , 12          , 0.0378822275, 0
0.378278375 , 0.0256766826, -9.793304   , -0.003964683, -0.0009367883, -0.000190784864, -0.184643388, -0.159835517, 0.4219361   , -0.00413237326, 0.03904861  , 2.383777    , 1.28        , 3           , 50          , 0           , 0
0.391581535 , 0.036820963 , -9.799033   , -0.0009331472, 6.922318E-05, 0.000389965862, -0.184104085, -0.160105169, 0.4220035   , -0.00414155144, 0.0390493125, 2.38378072  , 1.29        , 3           , 11          , 0.008403478 , 0.00840347
0.4079547   , 0.04963285  , -9.7749     , 0.000305448484, 0.000493115571, 0.001174896 , -0.184104085, -0.160105169, 0.4220035   , -0.004093363, 0.0391262323, 2.383794    , 1.3         , 3           , 12          , 0.03845914  , 0
0.3849855   , 0.0246356856, -9.775631   , -0.002153889, -0.00219847145, -0.00117168378, -0.184373736, -0.159970343, 0.422138333 , -0.004115358, 0.0391041972, 2.38378263  , 1.31        , 3           , 50          , 0           , 0
0.3697397   , 0.0320786834, -9.788824   , -0.00257841521, -0.00184937567, 0.00031020504, -0.184575975, -0.159970343, 0.422205746 , -0.00414101733, 0.03908572  , 2.38378549  , 1.32        , 3           , 11          , 0.008365546 , 0.008365542
0.38257134  , 0.0405349731, -9.798635   , -0.00201661652, -0.00121203414, 0.0004550839, -0.184306324, -0.160105169, 0.422138333 , -0.004161005, 0.03907362  , 2.38379025  , 1.33        , 3           , 12          , 0.03845914  , 0
0.3900025   , 0.0584551543, -9.786301   , -0.002090586, -0.000508598343, 0.0006677427, -0.184306324, -0.160105169, 0.422138333 , -0.00418165047, 0.03906856  , 2.383797    , 1.34        , 3           , 50          , 0           , 0
0.3728512   , 0.061825797 , -9.789581   , -0.000467529, -0.0004976203, -0.0008786409, -0.184306324, -0.160105169, 0.4219361   , -0.00418666657, 0.0390635468, 2.38378835  , 1.35        , 3           , 11          , 0.008365546 , 0.008365542
0.367976755 , 0.03169264  , -9.801947   , 0.000519997266, -0.0001389753, 0.000468563754, -0.184643388, -0.159835517, 0.422138333 , -0.00418128353, 0.0390621722, 2.383793    , 1.36        , 3           , 12          , 0.03845914  , 0
0.378079265 , 0.01614203  , -9.775268   , 0.002983094 , 0.00149673549, 0.0002706788, -0.184238911, -0.159835517, 0.42207092  , -0.004151347, 0.0390771478, 2.3837955   , 1.37        , 3           , 50          , 0           , 0
0.371169925 , 0.04104796  , -9.777477   , 0.00227731629, 0.00135117606, -0.0004391741, -0.184238911, -0.159835517, 0.42207092  , -0.00412874576, 0.03909065  , 2.38379121  , 1.38        , 3           , 11          , 0.008365546 , 0.008365542
0.379456341 , 0.04374082  , -9.801809   , -0.000964589533, 0.000273346144, 0.000886106864, -0.184373736, -0.159970343, 0.4220035   , -0.004138046, 0.03909341  , 2.38379979  , 1.39        , 3           , 12          , 0.03845914  , 0
0.352198184 , 0.0368443653, -9.80295    , 0.000893331 , -0.000468680228, 0.000329061178, -0.184575975, -0.160105169, 0.42207092  , -0.004107392, 0.03903137  , 2.383804    , 1.4         , 3           , 50          , 0           , 0
0.376103252 , 0.0400584638, -9.768855   , 0.00223141443, 0.000244305 , 0.0004070358, -0.184373736, -0.1597681  , 0.422273159 , -0.004084919, 0.03903383  , 2.38380837  , 1.41        , 3           , 11          , 0.008345895 , 0.008345895
0.3856727   , 0.03910349  , -9.786413   , 0.0008925116, -0.000327898364, 0.000117375 , -0.184306324, -0.1597681  , 0.42207092  , -0.004075948, 0.0390305519, 2.38380933  , 1.42        , 3           , 12          , 0.03907427  , 0
0.386258483 , 0.0450085   , -9.799944   , 0.00102667336, 0.00108088169, -2.10655853E-05, -0.184306324, -0.1597681  , 0.42207092  , -0.00406568963, 0.03904136  , 2.38380933  , 1.43        , 3           , 50          , 0           , 0
0.4014995   , 0.03622263  , -9.78992    , 0.0005963078, 0.00248584361, 0.0004029349, -0.184373736, -0.15990293 , 0.42207092  , -0.0040595727, 0.03906624  , 2.38381314  , 1.44        , 3           , 11          , 0.008345895 , 0.008345895
0.3832178   , 0.0229067635, -9.79192352 , 0.00186376937, 0.00298717245, -0.00135623873, -0.184373736, -0.160037756, 0.422205746 , -0.00404146966, 0.03909605  , 2.38379979  , 1.45        , 3           , 12          , 0.03907427  , 0
0.3666152   , 0.03750854  , -9.782497   , -0.00143787684, -0.00034365707, -0.0005291989, -0.184441149, -0.160037756, 0.422138333 , -0.00405605324, 0.0390925966, 2.383794    , 1.46        , 3           , 50          , 0           , 0
0.378846973 , 0.0387093946, -9.779688   , 0.00047122917, -0.0008235024, -2.66285224E-05, -0.184441149, -0.160037756, 0.422138333 , -0.00405135052, 0.0390843563, 2.383794    , 1.47        , 3           , 11          , 0.008345895 , 0.008345895
0.3941373   , 0.0335342549, -9.770101   , -0.000805286167, 0.000223769937, -0.0006666366, -0.184373736, -0.15990293 , 0.42207092  , -0.00405966351, 0.0390865728, 2.38378739  , 1.48        , 3           , 12          , 0.03907427  , 0
0.381626785 , 0.03828229  , -9.796391   , -0.0005198266, -0.000337449164, -0.000242381459, -0.184643388, -0.159970343, 0.422138333 , -0.004064956, 0.0390831828, 2.383785    , 1.49        , 3           , 50          , 0           , 0
0.374527872 , 0.0411634445, -9.8231     , 0.00136461458, -0.001462993, 0.001037501 , -0.184306324, -0.160037756, 0.4220035   , -0.00400183164, 0.039055068 , 2.383798    , 1.5         , 3           , 11          , 0.008329624 , 0.008329625
0.3720054   , 0.0293754339, -9.797857   , -5.015952E-05, -0.001120591, -0.000522497343, -0.184306324, -0.160037756, 0.4220035   , -0.004002535, 0.03904384  , 2.38379216  , 1.51        , 3           , 12          , 0.03972547  , 0
0.384643435 , 0.03321136  , -9.77514648 , -0.000901132531, -0.000281623157, 0.000322466018, -0.184238911, -0.15990293 , 0.422138333 , -0.00401142 , 0.03904104  , 2.383796    , 1.52        , 3           , 50          , 0           , 0
0.376232445 , 0.0432875752, -9.790085   , 0.00029068  , 0.00120470522, -0.00171805557, -0.1841715  , -0.15990293 , 0.422340572 , -0.00400918676, 0.0390530154, 2.38377833  , 1.53        , 3           , 11          , 0.008329624 , 0.008329625
0.385748267 , 0.0405038074, -9.800418   , -0.00329839461, -0.00114255713, -0.001102717, -0.184306324, -0.1597681  , 0.4220035   , -0.00404260028, 0.03904154  , 2.38376737  , 1.54        , 3           , 12          , 0.03972547  , 0
0.38138327  , 0.0540794134, -9.79678    , -0.0006086773, -0.00246184622, -0.00102163292, -0.184306324, -0.1597681  , 0.4220035   , -0.00404908136, 0.0390168838, 2.38375735  , 1.55        , 3           , 50          , 0           , 0
0.395869374 , 0.0574777   , -9.784452   , -0.000964420848, -0.00176031725, 0.000319858518, -0.184373736, -0.160037756, 0.4220035   , -0.00405859761, 0.038999293 , 2.38376069  , 1.56        , 3           , 11          , 0.008329624 , 0.008329625
0.406657457 , 0.0465739   , -9.799781   , 0.000153789486, 0.000429448672, -0.0008722948, -0.184373736, -0.160442233, 0.42207092  , -0.00405739853, 0.0390035436, 2.383752    , 1.57        , 3           , 12          , 0.03972547  , 0
0.372561663 , 0.03570287  , -9.8028     , -0.0001260718, -0.000205985547, -0.0018634696, -0.184441149, -0.1603074  , 0.4220035   , -0.004059385, 0.0390014127, 2.383733    , 1.58        , 3           , 50          , 0           , 0
0.393320918 , 0.0656802058, -9.799353   , -0.00125315785, -0.000635970559, -0.0009511411, -0.184441149, -0.1603074  , 0.4220035   , -0.00407228759, 0.0389950164, 2.3837235   , 1.59        , 3           , 11          , 0.008329624 , 0.008329625
0.36808902  , 0.039817892 , -9.803268   , -0.000560135755, -0.00078866136, 3.79389239E-05, -0.184373736, -0.16037482 , 0.4220035   , -0.00417931145, 0.03905033  , 2.38372016  , 1.6         , 3           , 12          , 0.0404106453, 0
0.3706358   , 0.03697023  , -9.770717   , -0.00191158091, 0.0010324351, -0.00144881767, -0.184306324, -0.160105169, 0.4220035   , -0.004198995, 0.0390605927, 2.38370538  , 1.61        , 3           , 50          , 0           , 0
0.401238024 , 0.05557605  , -9.774474   , -0.001398663, -0.00255417242, 0.000101910293, -0.184441149, -0.15990293 , 0.4220035   , -0.00421293871, 0.03903506  , 2.38370681  , 1.62        , 3           , 11          , 0.008307559 , 0.008307561
0.3869713   , 0.0639606   , -9.802571   , 0.00148710678, -0.0005636367, 0.00124859635, -0.184441149, -0.15990293 , 0.4220035   , -0.00419758074, 0.03902948  , 2.38371968  , 1.63        , 3           , 12          , 0.0404106453, 0
0.37891838  , 0.0445698239, -9.778307   , 0.00106166443, -0.0002849387, 0.0005407113, -0.184508562, -0.1603074  , 0.4220035   , -0.004186751, 0.0390266478, 2.383725    , 1.64        , 3           , 50          , 0           , 0
0.380683362 , 0.0400476344, -9.781475   , 0.00127717352, -0.0009874179, 0.000893785851, -0.1847108  , -0.160037756, 0.4220035   , -0.00417363 , 0.039016813 , 2.383734    , 1.65        , 3           , 11          , 0.008307559 , 0.008307561
0.4148909   , 0.0532409549, -9.798335   , -0.001695786, 0.000329957431, -0.0006013024, -0.184306324, -0.15990293 , 0.422138333 , -0.004190824, 0.03902009  , 2.38372731  , 1.66        , 3           , 12          , 0.0404106453, 0
0.411427438 , 0.03384691  , -9.78895    , -0.00127916026, 0.0018814333, 0.0005332096, -0.1841715  , -0.160037756, 0.421868682 , -0.00420341 , 0.0390389226, 2.383733    , 1.67        , 3           , 50          , 0           , 0
0.38852036  , 0.04230223  , -9.808073   , -0.0007815916, 0.00118086243, 0.0002518918, -0.1841715  , -0.160037756, 0.421868682 , -0.00421113 , 0.03905074  , 2.38373542  , 1.68        , 3           , 11          , 0.008307559 , 0.008307561
0.3796244   , 0.0292215627, -9.778817   , 0.00070304  , 0.0006277553, -0.00129601813, -0.184306324, -0.15990293 , 0.4220035   , -0.004204606, 0.03905696  , 2.38372254  , 1.69        , 3           , 12          , 0.0404106453, 0
0.380194664 , 0.0368994251, -9.782848   , 0.000116426672, 0.0017036   , 0.0006097126, -0.184575975, -0.160105169, 0.422138333 , -0.004225292, 0.0391895026, 2.38372779  , 1.7         , 3           , 50          , 0           , 0
0.392759681 , 0.02505392  , -9.792746   , -0.00129336445, 0.0009901319, -0.00137571921, -0.184306324, -0.160037756, 0.42207092  , -0.004238768, 0.0391993448, 2.383714    , 1.71        , 3           , 11          , 0.008275518 , 0.00827551447
0.40317142  , 0.0218053479, -9.802171   , -0.00375134125, -0.00149026944, 0.0004454543, -0.184306324, -0.160037756, 0.42207092  , -0.00427610427, 0.0391844623, 2.38371873  , 1.72        , 3           , 12          , 0.0411277339, 0
0.3810656   , 0.0328435637, -9.787379   , -0.00107281341, -0.000697824231, -0.0007416257, -0.184306324, -0.160105169, 0.4220035   , -0.00428712135, 0.0391774476, 2.383711    , 1.73        , 3           , 50          , 0           , 0
0.361651331 , 0.03758062  , -9.786603   , 0.000693066453, -0.000615490659, 0.001103207 , -0.184238911, -0.159700692, 0.422138333 , -0.00427975645, 0.03917134  , 2.383722    , 1.74        , 3           , 11          , 0.008275518 , 0.00827551447
0.363154    , 0.0461622477, -9.79424    , -0.000793893647, 7.83912255E-05, -0.000174040571, -0.184238911, -0.159835517, 0.42207092  , -0.0042877607, 0.0391721167, 2.38372064  , 1.75        , 3           , 12          , 0.0411277339, 0
0.375837028 , 0.0478028879, -9.789617   , -8.75375263E-05, -5.76182974E-05, -0.0008773089, -0.184238911, -0.159835517, 0.42207092  , -0.00428898 , 0.0391715   , 2.38371158  , 1.76        , 3           , 50          , 0           , 0
0.382181346 , 0.0147770233, -9.786089   , 0.00307883834, 0.00214599748, -0.00107103353, -0.184373736, -0.160037756, 0.42207092  , -0.00425861636, 0.03919291  , 2.38370061  , 1.77        , 3           , 11          , 0.008275518 , 0.00827551447
0.3740892   , 0.0451973826, -9.813596   , 0.00272616837, 0.00228439784, 0.000764030847, -0.184373736, -0.159835517, 0.422138333 , -0.00423105946, 0.039215792 , 2.38370824  , 1.78        , 3           , 12          , 0.0411277339, 0
0.365884721 , 0.0474807844, -9.79331    , -0.0008656087, 0.0003594803, 0.0003205046, -0.184306324, -0.15990293 , 0.4219361   , -0.00423958665, 0.03921939  , 2.38371158  , 1.79        , 3           , 50          , 0           , 0
0.3758356   , 0.05092618  , -9.779208   , -0.00125809223, 0.00139737688, -0.00130318315, -0.184306324, -0.15990293 , 0.4219361   , -0.00420475053, 0.0391247235, 2.38370061  , 1.8         , 3           , 11          , 0.00823147  , 0.008231466
0.3721365   , 0.0428721681, -9.786501   , 1.64357625E-05, 0.0007020596, -0.00108643866, -0.184238911, -0.160172582, 0.4220035   , -0.004205013, 0.0391317   , 2.38368964  , 1.81        , 3           , 12          , 0.04187476  , 0
0.386473775 , 0.0314202644, -9.785536   , -0.000476991729, 0.000557935156, -0.000877057, -0.184575975, -0.160037756, 0.422205746 , -0.004210126, 0.0391372442, 2.38368058  , 1.82        , 3           , 50          , 0           , 0
0.4026517   , 0.0271126   , -9.768705   , 0.001785211 , 1.00847683E-05, -0.0008673894, -0.184238911, -0.159835517, 0.42207092  , -0.00419261446, 0.03913731  , 2.383672    , 1.83        , 3           , 11          , 0.00823147  , 0.008231466
0.4046133   , 0.0339085   , -9.783578   , 0.000378978963, -0.00112572382, -0.000310634874, -0.184238911, -0.159835517, 0.42207092  , -0.004188943, 0.0391260348, 2.38366914  , 1.84        , 3           , 12          , 0.04187476  , 0
0.364874154 , 0.0416037664, -9.786562   , -0.000479453476, 0.00112106686, -0.0003111142, -0.184238911, -0.160105169, 0.421733856 , -0.00419385871, 0.039137233 , 2.38366628  , 1.85        , 3           , 50          , 0           , 0
0.3920892   , 0.0506970175, -9.767785   , -0.0010344747, -0.000572136545, 0.00222648564, -0.184373736, -0.15990293 , 0.422273159 , -0.004203331, 0.0391316   , 2.38368821  , 1.86        , 3           , 11          , 0.00823147  , 0.008231466
0.3821543   , 0.04860356  , -9.781429   , -0.00131820678, -0.000574052858, -3.513138E-05, -0.184441149, -0.160037756, 0.422138333 , -0.004216527, 0.039125856 , 2.38368821  , 1.87        , 3           , 12          , 0.04187476  , 0
0.3885379   , 0.0534751751, -9.776388   , 8.851453E-05, 0.000561758236, 0.0002557265, -0.184441149, -0.160037756, 0.422138333 , -0.00421554269, 0.03913149  , 2.38369     , 1.88        , 3           , 50          , 0           , 0
0.410718143 , 0.05231694  , -9.777579   , -0.0018799461, -0.00114100124, 0.0005264419, -0.184238911, -0.160105169, 0.421733856 , -0.00423413469, 0.0391200967, 2.38369584  , 1.89        , 3           , 11          , 0.00823147  , 0.008231466
0.401661873 , 0.0466202721, -9.796204   , 0.0003286628, 0.00147760846, -2.5365589E-05, -0.184575975, -0.15990293 , 0.4220035   , -0.0042809546, 0.03922616  , 2.38369346  , 1.9         , 3           , 12          , 0.0426498055, 0
0.362492442 , 0.0259126257, -9.808341   , -0.0010738764, -0.0005028977, -0.000317525031, -0.184306324, -0.160037756, 0.4220035   , -0.00429181661, 0.0392211229, 2.38369     , 1.91        , 3           , 50          , 0           , 0
0.370721132 , 0.0312368013, -9.810063   , -0.00363588636, 0.0034218207, -0.00145345228, -0.184441149, -0.159835517, 0.421868682 , -0.0043287524, 0.0392552726, 2.38367581  , 1.92        , 3           , 11          , 0.008175488 , 0.008175486
0.3808226   , 0.04685573  , -9.79365    , 0.00146050542, 0.000922115054, -0.0011511154, -0.184441149, -0.159835517, 0.421868682 , -0.0043146  , 0.03926444  , 2.38366437  , 1.93        , 3           , 12          , 0.0426498055, 0
0.385286927 , 0.0440729856, -9.786848   , 0.00204199855, -0.00217127451, 0.00110704487, -0.184373736, -0.1597681  , 0.4220035   , -0.004293741, 0.039242778 , 2.38367534  , 1.94        , 3           , 50          , 0           , 0
0.373368263 , 0.0329339243, -9.787437   , -0.00108256668, 0.00118649122, -0.000879996456, -0.184238911, -0.160037756, 0.4220035   , -0.00430491427, 0.0392546   , 2.38366628  , 1.95        , 3           , 11          , 0.008175488 , 0.008175486
0.38837105  , 0.03950309  , -9.780516   , -0.00164693082, 0.00118267362, -3.501805E-05, -0.184373736, -0.160037756, 0.4219361   , -0.004321398, 0.0392664224, 2.38366628  , 1.96        , 3           , 12          , 0.0426498055, 0
0.379811466 , 0.0351757333, -9.805458   , -0.001927222, 0.0006176303, -0.00116735254, -0.184373736, -0.160037756, 0.4219361   , -0.00434112875, 0.03927255  , 2.38365436  , 1.97        , 3           , 50          , 0           , 0
0.374423563 , 0.0464351475, -9.780594   , -0.003332713, -0.000799746544, -0.001741182, -0.184306324, -0.1597681  , 0.421868682 , -0.00437513972, 0.0392644778, 2.38363671  , 1.98        , 3           , 11          , 0.008175488 , 0.008175486
0.378517836 , 0.04461748  , -9.790966   , -0.00220497767, -0.000228972523, -0.000322358828, -0.1841715  , -0.160037756, 0.4219361   , -0.004397315, 0.0392621756, 2.38363385  , 1.99        , 3           , 12          , 0.0426498055, 0
0.382957578 , 0.04136846  , -9.779646   , 0.0009179805, 0.000874666148, -0.000305450434, -0.184306324, -0.160037756, 0.4220035   , -0.00435827952, 0.03921113  , 2.383632    , 2           , 3           , 50          , 0           , 0
0.398536533 , 0.0284670256, -9.75472    , 0.000355010328, 0.000589283532, 0.000539094035, -0.184306324, -0.160037756, 0.4220035   , -0.00435451651, 0.0392170474, 2.38363767  , 2.01        , 3           , 11          , 0.008109635 , 0.00810963
0.361212373 , 0.041167926 , -9.778456   , 0.0006339965, 0.00115432055, -0.000588870957, -0.184104085, -0.159970343, 0.42207092  , -0.00434841029, 0.0392285623, 2.38363147  , 2.02        , 3           , 12          , 0.0434510373, 0
0.3629808   , 0.0388803221, -9.775289   , -0.000497846166, 0.00170981383, 0.000536878943, -0.184238911, -0.1597681  , 0.421868682 , -0.004353178, 0.0392456762, 2.38363671  , 2.03        , 3           , 50          , 0           , 0
0.386620283 , 0.03287804  , -9.816715   , -0.000196807843, -0.00194861973, 0.0013801672, -0.184508562, -0.160105169, 0.421868682 , -0.0043546  , 0.0392262563, 2.383651    , 2.04        , 3           , 11          , 0.008109635 , 0.00810963
0.380598575 , 0.0261420719, -9.805489   , 0.0009409372, -0.00363037153, 0.0008177563, -0.184508562, -0.160105169, 0.421868682 , -0.00434486475, 0.0391899869, 2.38365912  , 2.05        , 3           , 12          , 0.0434510373, 0
0.3820584   , 0.03736711  , -9.794132   , 7.455575E-05, 2.42395326E-05, -0.000875778031, -0.184306324, -0.159835517, 0.421868682 , -0.004344459, 0.0391901881, 2.38365     , 2.06        , 3           , 50          , 0           , 0
0.372499138 , 0.0343131162, -9.791958   , 0.0012115594, -0.00137594412, -0.000307605, -0.184373736, -0.159835517, 0.422138333 , -0.004332462, 0.0391764157, 2.3836472   , 2.07        , 3           , 11          , 0.008109635 , 0.00810963
0.383581758 , 0.0513217375, -9.789543   , 0.00175394607, 0.003132916 , -0.000580565655, -0.184373736, -0.159835517, 0.4220035   , -0.004315155, 0.0392077267, 2.38364148  , 2.08        , 3           , 12          , 0.0434510373, 0
0.363425076 , 0.0348509327, -9.786149   , 0.00402451167, 0.000895675155, -0.0005735017, -0.184373736, -0.159835517, 0.4220035   , -0.004275135, 0.0392166451, 2.38363576  , 2.09        , 3           , 50          , 0           , 0
0.409653366 , 0.0361299776, -9.790763   , -0.00101763336, 0.0007823691, -0.00059587846, -0.184373736, -0.159970343, 0.4220035   , -0.00422626454, 0.0391120166, 2.383632    , 2.1         , 3           , 11          , 0.00803455152, 0.008034549
0.380208939 , 0.03601829  , -9.78918    , 0.00123883015, 0.00136077811, -0.0008670126, -0.184441149, -0.15990293 , 0.422138333 , -0.004214219, 0.03912558  , 2.38362336  , 2.11        , 3           , 12          , 0.0442767143, 0
0.386016965 , 0.0661634952, -9.783587   , -0.0015803515, 0.000215415843, -0.00172953028, -0.184306324, -0.159970343, 0.422205746 , -0.004230699, 0.0391276665, 2.3836062   , 2.12        , 3           , 50          , 0           , 0
0.354652226 , 0.021870058 , -9.786722   , -0.00214520516, 0.0002115959, -0.001732164, -0.184306324, -0.159970343, 0.422205746 , -0.004252832, 0.03912971  , 2.383589    , 2.13        , 3           , 11          , 0.00803455152, 0.008034549
0.3845616   , 0.0233253352, -9.78694    , -0.00157544261, -0.0003477041, 0.00194258883, -0.184306324, -0.15990293 , 0.4219361   , -0.004267823, 0.03912632  , 2.383608    , 2.14        , 3           , 12          , 0.0442767143, 0
0.383467436 , 0.0454265326, -9.780529   , -0.00298994966, -7.569353E-05, 0.00024121342, -0.184238911, -0.15990293 , 0.4220035   , -0.004297628, 0.0391255729, 2.383611    , 2.15        , 3           , 50          , 0           , 0
0.387211084 , 0.0481604561, -9.801279   , -0.0046885293, 0.0007575426, 0.000517151144, -0.184238911, -0.160037756, 0.42207092  , -0.004344312, 0.0391331725, 2.38361573  , 2.16        , 3           , 11          , 0.00803455152, 0.008034549
0.386320531 , 0.0508613661, -9.796304   , -0.00185606023, -0.0009127491, 0.000245179341, -0.184441149, -0.159970343, 0.4220035   , -0.004362777, 0.0391240567, 2.38361859  , 2.17        , 3           , 12          , 0.0442767143, 0
0.371272922 , 0.0442559123, -9.792377   , 0.0012307181, 0.0027685985, -0.00284260558, -0.184441149, -0.159970343, 0.4220035   , -0.00435158657, 0.0391516127, 2.38359     , 2.18        , 3           , 50          , 0           , 0
0.3580701   , 0.0376564   , -9.796575   , 0.00013166439, -0.00287033 , 0.00194658514, -0.184373736, -0.160037756, 0.421868682 , -0.00434950367, 0.039122995 , 2.38360953  , 2.19        , 3           , 11          , 0.00803455152, 0.008034549
0.373077333 , 0.04512183  , -9.78784    , -0.001558607, -0.000696938951, 0.00194249942, -0.184508562, -0.1597681  , 0.421868682 , -0.00434140256, 0.0390158631, 2.38363     , 2.2         , 3           , 12          , 0.0451251753, 0
0.404754    , 0.0478594154, -9.773124   , -0.002119101, -0.00210859673, -0.00258290372, -0.184373736, -0.1597681  , 0.421733856 , -0.004363599, 0.0389946662, 2.38360429  , 2.21        , 3           , 50          , 0           , 0
0.390627056 , 0.0363456681, -9.788648   , -0.000155074231, 0.000720428536, -0.000874120858, -0.184373736, -0.1597681  , 0.421733856 , -0.00436549028, 0.03900183  , 2.38359571  , 2.22        , 3           , 11          , 0.007953626 , 0.007953625
0.3669911   , 0.0267285053, -9.798359   , -0.0018332334, -0.00266981381, -0.00145230466, -0.184238911, -0.160105169, 0.4219361   , -0.004384383, 0.0389750674, 2.3835814   , 2.23        , 3           , 12          , 0.0451251753, 0
0.364287078 , 0.0263243653, -9.802901   , 0.0009826708, -0.000961323734, -0.00143653166, -0.184373736, -0.15990293 , 0.4220035   , -0.004375114, 0.0389653929, 2.383567    , 2.24        , 3           , 50          , 0           , 0
0.3751834   , 0.0409502275, -9.762531   , 0.00069515733, 0.000163029064, -0.0005885004, -0.1841715  , -0.160037756, 0.4220035   , -0.00436839228, 0.03896699  , 2.383561    , 2.25        , 3           , 11          , 0.007953626 , 0.007953625
0.401473373 , 0.0362014659, -9.783592   , 0.000138252683, -0.0012486116, 0.00110192073, -0.1841715  , -0.160037756, 0.4220035   , -0.004366578, 0.038954556 , 2.38357186  , 2.26        , 3           , 12          , 0.0451251753, 0
0.372521162 , 0.0338846557, -9.798739   , -0.00436614733, -0.00409481954, 0.0019241228, -0.184306324, -0.1597681  , 0.42207092  , -0.0044094827, 0.0389136933, 2.38359141  , 2.27        , 3           , 50          , 0           , 0
0.3865643   , 0.0404206142, -9.778717   , -0.0004334822, -0.000126177387, -0.001159277, -0.184575975, -0.159700692, 0.42207092  , -0.004414268, 0.03891238  , 2.38357949  , 2.28        , 3           , 11          , 0.007953626 , 0.007953625
0.3843299   , 0.04002477  , -9.787323   , -0.0018416862, -0.0006988521, 0.00081103266, -0.184373736, -0.160037756, 0.42207092  , -0.00443236856, 0.0389054231, 2.383588    , 2.29        , 3           , 12          , 0.0451251753, 0
0.371251583 , 0.037989676 , -9.807321   , 0.000189903134, -0.00152760558, -0.00228686118, -0.184373736, -0.160037756, 0.42207092  , -0.00435081776, 0.0388940461, 2.383568    , 2.3         , 3           , 50          , 0           , 0
0.384854645 , 0.0440949276, -9.791823   , 0.00158366328, 0.002423861 , -0.000296439, -0.184238911, -0.15990293 , 0.421733856 , -0.00433510169, 0.0389182754, 2.38356519  , 2.31        , 3           , 11          , 0.007866359 , 0.00786636
0.389300883 , 0.0395121127, -9.786385   , -0.000389142515, 0.001565796 , -0.000306959322, -0.184441149, -0.160037756, 0.422205746 , -0.00433911476, 0.0389339179, 2.38356233  , 2.32        , 3           , 12          , 0.0459948368, 0
0.398910761 , 0.04037536  , -9.808002   , -0.0006568879, -0.001533333, -0.00144319946, -0.184104085, -0.159970343, 0.42207092  , -0.004346243, 0.03891852  , 2.383548    , 2.33        , 3           , 50          , 0           , 0
0.382415    , 0.0608662851, -9.805783   , -0.00037675965, -0.0009682907, -0.0005934022, -0.184104085, -0.159970343, 0.42207092  , -0.00435024 , 0.03890882  , 2.3835423   , 2.34        , 3           , 11          , 0.007866359 , 0.00786636
0.379019171 , 0.0446514674, -9.80271149 , 0.0007562251, -0.00152377831, 0.000258609856, -0.184508562, -0.160172582, 0.4219361   , -0.004342575, 0.0388935879, 2.38354421  , 2.35        , 3           , 12          , 0.0459948368, 0
0.3884999   , 0.04228559  , -9.803102   , 0.0002106356, -0.005187939, 0.00222809752, -0.184643388, -0.15990293 , 0.421868682 , -0.00433959253, 0.0388418026, 2.383567    , 2.36        , 3           , 50          , 0           , 0
0.373382717 , 0.0374091528, -9.776571   , -0.000371925038, -0.00181298261, 0.000535445753, -0.184104085, -0.159835517, 0.4219361   , -0.00434310129, 0.0388236977, 2.38357234  , 2.37        , 3           , 11          , 0.007866359 , 0.00786636
0.382313579 , 0.0247038566, -9.786499   , -0.00235121138, -0.0012632201, 0.00137470756, -0.184104085, -0.159835517, 0.4219361   , -0.00436607748, 0.0388111249, 2.38358617  , 2.38        , 3           , 12          , 0.0459948368, 0
0.3915894   , 0.0399518125, -9.790884   , -0.0006668091, 0.0004376216, -0.00172269938, -0.184306324, -0.160037756, 0.421801269 , -0.004373416, 0.03881542  , 2.383569    , 2.39        , 3           , 50          , 0           , 0
0.3798581   , 0.0428014547, -9.792318   , -0.003177454, 0.0007345815, 0.000810128346, -0.184575975, -0.159700692, 0.42207092  , -0.00435499754, 0.038874954 , 2.38357949  , 2.4         , 3           , 11          , 0.0077742734, 0.00777427573
0.373868    , 0.03341301  , -9.797375   , 0.00219267444, -7.382507E-05, 0.000551310834, -0.184238911, -0.159633279, 0.422205746 , -0.00433285628, 0.03887424  , 2.38358474  , 2.41        , 3           , 12          , 0.0468842164, 0
0.384339482 , 0.03780076  , -9.796824   , 0.002469036 , 0.00105434284, -0.00029324877, -0.184306324, -0.15990293 , 0.4219361   , -0.004308282, 0.0388847664, 2.38358188  , 2.42        , 3           , 50          , 0           , 0
0.386372656 , 0.0558134541, -9.79311848 , 0.00048630868, 0.00216723257, -0.000583269051, -0.184306324, -0.15990293 , 0.4219361   , -0.0043036514, 0.0389064141, 2.38357568  , 2.43        , 3           , 11          , 0.0077742734, 0.00777427573
0.388934731 , 0.0534245074, -9.762826   , -0.00261267484, 0.000456829323, -0.0017305091, -0.184508562, -0.160105169, 0.422138333 , -0.00433045253, 0.0389109068, 2.38355851  , 2.44        , 3           , 12          , 0.0468842164, 0
0.3806603   , 0.03913626  , -9.778768   , 0.000776283734, 0.000479748182, -0.00199724315, -0.184575975, -0.1597681  , 0.4220035   , -0.00432346668, 0.03891561  , 2.38353848  , 2.45        , 3           , 50          , 0           , 0
0.398056448 , 0.0466764122, -9.800299   , 0.000497045636, 0.000196281762, 0.00110891811, -0.184575975, -0.159835517, 0.421868682 , -0.004318065, 0.0389176235, 2.38354945  , 2.46        , 3           , 11          , 0.0077742734, 0.00777427573
0.375090867 , 0.06177956  , -9.783689   , 0.00162561063, 0.000203916148, -0.0008635763, -0.184575975, -0.159835517, 0.421868682 , -0.00430214638, 0.0389196239, 2.38354087  , 2.47        , 3           , 12          , 0.0468842164, 0
0.3979255   , 0.0461239554, -9.77002    , -0.001753916, -0.00178995961, -0.00116495462, -0.184575975, -0.159835517, 0.4220035   , -0.004320137, 0.03890168  , 2.383529    , 2.48        , 3           , 50          , 0           , 0
0.393117726 , 0.0280962978, -9.759734   , -0.002616857, 0.00130152446, -0.001729207, -0.184306324, -0.15990293 , 0.42207092  , -0.00434698025, 0.0389146172, 2.38351178  , 2.49        , 3           , 11          , 0.0077742734, 0.00777427573
0.3931603   , 0.027684452 , -9.771488   , 0.00217151223, 0.00279621314, -9.386393E-06, -0.184643388, -0.160037756, 0.42207092  , -0.00433676038, 0.0390329547, 2.38351178  , 2.5         , 3           , 12          , 0.04779192  , 0
0.385512829 , 0.0220126584, -9.802305   , -0.00177507836, 0.00108007831, -0.00172565179, -0.184643388, -0.160037756, 0.42207092  , -0.004355186, 0.0390436836, 2.38349462  , 2.51        , 3           , 50          , 0           , 0
0.369855583 , 0.03752878  , -9.799647   , -0.00120752549, 0.0008023394, 0.00053684786, -0.184778214, -0.160037756, 0.421801269 , -0.00436705351, 0.0390517339, 2.38349938  , 2.52        , 3           , 11          , 0.00767947268, 0.007679476
0.3774376   , 0.0377912931, -9.77021    , -0.00316220918, -0.00371607183, 0.0005206864, -0.184643388, -0.159970343, 0.4219361   , -0.00439846562, 0.0390145965, 2.383505    , 2.53        , 3           , 12          , 0.04779192  , 0
0.386977136 , 0.0368121341, -9.780537   , -0.00288224383, -0.00315102958, 0.00108794612, -0.184238911, -0.16024    , 0.422138333 , -0.00442685746, 0.03898313  , 2.383516    , 2.54        , 3           , 50          , 0           , 0
0.381990582 , 0.036419455 , -9.780577   , -0.0017736099, 0.00108008529, 0.000817185268, -0.184238911, -0.16024    , 0.422138333 , -0.00444427738, 0.0389939658, 2.38352418  , 2.55        , 3           , 11          , 0.00767947268, 0.007679476
0.387447476 , 0.04039184  , -9.773287   , -0.00149683352, 0.00192668359, -0.00172303326, -0.184238911, -0.15990293 , 0.4219361   , -0.00445992127, 0.0390131548, 2.383507    , 2.56        , 3           , 12          , 0.04779192  , 0
0.407139122 , 0.0452529229, -9.811083   , -0.0006262701, -0.002572623, -3.08004965E-05, -0.184643388, -0.1597681  , 0.4219361   , -0.004466191, 0.0389874354, 2.38350654  , 2.57        , 3           , 50          , 0           , 0
0.394982725 , 0.0552718826, -9.796219   , -6.773387E-05, -0.00116097485, 0.001104153 , -0.184104085, -0.15990293 , 0.4219361   , -0.004466436, 0.0389758721, 2.3835175   , 2.58        , 3           , 11          , 0.00767947268, 0.007679476
0.378587961 , 0.0486914441, -9.795016   , -0.00177475193, 0.00108007994, -0.00116057682, -0.184104085, -0.15990293 , 0.4219361   , -0.00448463764, 0.03898662  , 2.383506    , 2.59        , 3           , 12          , 0.04779192  , 0
0.385526419 , 0.02782623  , -9.786914   , -0.00120795623, 0.00253661582, -0.00143769989, -0.184575975, -0.159835517, 0.421868682 , -0.004481616, 0.039089337 , 2.38349271  , 2.6         , 3           , 50          , 0           , 0
0.409626544 , 0.032537397 , -9.795749   , 0.0010623585, 0.0005809454, 0.0005475603, -0.184306324, -0.16024    , 0.42207092  , -0.00447078 , 0.03909517  , 2.383498    , 2.61        , 3           , 11          , 0.007584129 , 0.00758413
0.394404262 , 0.04669474  , -9.793095   , 0.0004872573, 0.00254807854, -0.000299648324, -0.184306324, -0.159835517, 0.42207092  , -0.004466029, 0.0391206332, 2.38349462  , 2.62        , 3           , 12          , 0.0487166233, 0
0.40403986  , 0.0520422831, -9.806559   , 0.003045664 , -0.000813513354, -0.0005755406, -0.184306324, -0.159835517, 0.42207092  , -0.00443579769, 0.03911248  , 2.383489    , 2.63        , 3           , 50          , 0           , 0
0.4062669   , 0.05511027  , -9.787546   , -0.002323234, -0.0002866726, -0.0005996945, -0.184238911, -0.15990293 , 0.421868682 , -0.00445926376, 0.03910958  , 2.38348317  , 2.64        , 3           , 11          , 0.007584129 , 0.00758413
0.375714779 , 0.0387768447, -9.788751   , -0.00117909722, -0.00309468084, 0.0002488461, -0.184306324, -0.15990293 , 0.421868682 , -0.004470954, 0.03907865  , 2.383486    , 2.65        , 3           , 12          , 0.0487166233, 0
0.3805055   , 0.023834914 , -9.790132   , -0.00202138 , -0.003945102, 0.00165628106, -0.184508562, -0.159835517, 0.422273159 , -0.00449051242, 0.0390392728, 2.38350224  , 2.66        , 3           , 50          , 0           , 0
0.395951    , 0.026819801 , -9.792261   , -0.0006260482, -0.000838343869, -0.000875198341, -0.184238911, -0.160037756, 0.421801269 , -0.00449711364, 0.03903085  , 2.38349366  , 2.67        , 3           , 11          , 0.007584129 , 0.00758413
0.348138243 , 0.04226067  , -9.789399   , 0.0004898822, 0.00198494783, -0.0005830537, -0.184238911, -0.160037756, 0.421801269 , -0.00449244538, 0.0390506759, 2.383488    , 2.68        , 3           , 12          , 0.0487166233, 0
0.361803532 , 0.0493090376, -9.786101   , -0.00202407921, -0.00366354361, -0.0006035848, -0.184238911, -0.160105169, 0.4219361   , -0.00451291632, 0.03901401  , 2.38348222  , 2.69        , 3           , 50          , 0           , 0
0.3803009   , 0.041895356 , -9.792771   , -0.00118347164, 0.003371813 , 0.000259897846, -0.1841715  , -0.159970343, 0.422205746 , -0.00447506458, 0.0390307643, 2.38348651  , 2.7         , 3           , 11          , 0.007487344 , 0.00748734549
0.372564822 , 0.0374908373, -9.79782    , 0.002221889 , 1.594919E-05, -0.000577118364, -0.184306324, -0.160037756, 0.422138333 , -0.004453072, 0.0390309   , 2.38348079  , 2.71        , 3           , 12          , 0.0496570952, 0
0.3940579   , 0.05705235  , -9.785823   , -0.00341312261, -0.00255633122, 0.0010878623, -0.184306324, -0.160037756, 0.422138333 , -0.004486773, 0.0390053838, 2.38349175  , 2.72        , 3           , 50          , 0           , 0
0.387523443 , 0.0346508436, -9.810372   , 0.0016547367, 0.0005752617, 0.000268727832, -0.184238911, -0.160105169, 0.422138333 , -0.004470121, 0.0390111431, 2.38349462  , 2.73        , 3           , 11          , 0.007487344 , 0.00748734549
0.3934695   , 0.04757442  , -9.783155   , -0.000897515332, 0.00252902438, -0.0008702367, -0.184441149, -0.159835517, 0.4219361   , -0.004479442, 0.0390363932, 2.38348556  , 2.74        , 3           , 12          , 0.0496570952, 0
0.3798996   , 0.0459595174, -9.792305   , 0.00163923949, 0.003672477 , -9.03639E-06, -0.184306324, -0.159835517, 0.4219361   , -0.004463058, 0.03907312  , 2.383485    , 2.75        , 3           , 50          , 0           , 0
0.387735069 , 0.05624713  , -9.792653   , -0.0006086968, 0.00140467787, 0.0005420317, -0.184306324, -0.159835517, 0.4219361   , -0.004468934, 0.0390871875, 2.3834908   , 2.76        , 3           , 11          , 0.007487344 , 0.00748734549
0.386162072 , 0.04582311  , -9.773726   , -0.000620175153, 0.00365719735, -1.957186E-05, -0.184238911, -0.160172582, 0.421868682 , -0.00447515 , 0.03912376  , 2.38349032  , 2.77        , 3           , 12          , 0.0496570952, 0
0.37654978  , 0.03915538  , -9.770212   , -0.00202353019, 0.001676687 , -0.00172441872, -0.184508562, -0.15990293 , 0.421868682 , -0.004496065, 0.0391404442, 2.38347268  , 2.78        , 3           , 50          , 0           , 0
0.385253429 , 0.0467239469, -9.770113   , 0.000530768535, -0.0005586378, 0.0005442619, -0.184104085, -0.160037756, 0.4219361   , -0.004490541, 0.03913488  , 2.3834784   , 2.79        , 3           , 11          , 0.007487344 , 0.00748734549
0.383094072 , 0.04951338  , -9.786842   , 0.0013709201, 1.41476639E-05, 0.00196161983, -0.184104085, -0.160037756, 0.4219361   , -0.004485627, 0.03914238  , 2.383498    , 2.8         , 3           , 12          , 0.05061216  , 0
0.3887731   , 0.0314224139, -9.794105   , -0.00371406786, -2.0238047E-05, -0.0003223847, -0.184306324, -0.159970343, 0.4219361   , -0.004522893, 0.0391421542, 2.38349462  , 2.81        , 3           , 50          , 0           , 0
0.394177645 , 0.0299961027, -9.791358   , 0.000802388065, 0.0002918818, -0.00199610484, -0.184373736, -0.159835517, 0.4220035   , -0.004515652, 0.0391449854, 2.38347459  , 2.82        , 3           , 11          , 0.00739175454, 0.0073917564
0.3940877   , 0.0218889862, -9.795461   , 0.0005273321, -0.000836280058, 0.00110875466, -0.184373736, -0.160105169, 0.4220035   , -0.004509942, 0.03913667  , 2.383486    , 2.83        , 3           , 12          , 0.05061216  , 0
0.372989058 , 0.0392477959, -9.785153   , -0.00259354059, 0.00167678832, -0.00172720093, -0.184373736, -0.160105169, 0.4220035   , -0.004536558, 0.0391533561, 2.38346887  , 2.84        , 3           , 50          , 0           , 0
0.385632843 , 0.03817851  , -9.779638   , -0.0014644115, 0.00196599727, -0.0003088117, -0.184643388, -0.159970343, 0.4220035   , -0.00455132453, 0.039173    , 2.38346553  , 2.85        , 3           , 11          , 0.00739175454, 0.0073917564
0.364324927 , 0.03974551  , -9.768947   , 0.000517662847, 0.000853104342, -0.00114894146, -0.184508562, -0.1597681  , 0.4219361   , -0.00454660039, 0.039181482 , 2.38345361  , 2.86        , 3           , 12          , 0.05061216  , 0
0.38068983  , 0.0387138352, -9.787357   , -0.001164856, -0.00112930022, 0.00279564387, -0.184306324, -0.160105169, 0.422205746 , -0.00455715 , 0.0391703174, 2.38348222  , 2.87        , 3           , 50          , 0           , 0
0.4047628   , 0.04206399  , -9.79394    , -3.22719E-05, -0.00196636165, 0.00053931016, -0.184306324, -0.160105169, 0.422205746 , -0.004557258, 0.0391506776, 2.38348746  , 2.88        , 3           , 11          , 0.00739175454, 0.0073917564
0.390050739 , 0.0255384743, -9.793216   , -0.00146146026, 0.00140286773, -2.71423214E-05, -0.184508562, -0.159835517, 0.4220035   , -0.00457188347, 0.0391647033, 2.383487    , 2.89        , 3           , 12          , 0.05061216  , 0
0.36134395  , 0.0426136069, -9.80602    , -0.0005532205, -0.00054564944, -0.0005891232, -0.184441149, -0.160105169, 0.42207092  , -0.004478669, 0.03919129  , 2.383486    , 2.9         , 3           , 50          , 0           , 0
0.360987723 , 0.0547486022, -9.790606   , -0.0005600274, 0.0008621768, -0.000304416026, -0.1841715  , -0.15990293 , 0.422138333 , -0.00448438851, 0.0391998962, 2.38348222  , 2.91        , 3           , 11          , 0.0072953226, 0.00729532447
0.383434534 , 0.03870462  , -9.794116   , -0.002541197, 0.0016935023, -0.000312332762, -0.184238911, -0.16024    , 0.421801269 , -0.004509927, 0.0392168164, 2.38347936  , 2.92        , 3           , 12          , 0.051580742 , 0
0.3891263   , 0.0277655534, -9.781463   , 0.00197263458, 0.002568753 , -0.00170264742, -0.184238911, -0.16024    , 0.421801269 , -0.00449087471, 0.0392424278, 2.38346219  , 2.93        , 3           , 50          , 0           , 0
0.398764759 , 0.03713264  , -9.782705   , 0.00283114123, 0.0006035345, 0.0008411029, -0.184238911, -0.160037756, 0.42207092  , -0.00446223374, 0.0392485037, 2.38347077  , 2.94        , 3           , 11          , 0.0072953226, 0.00729532447
0.387763619 , 0.0620727949, -9.780878   , 0.00197270862, 0.00285032531, 0.0008406236, -0.184238911, -0.16037482 , 0.422205746 , -0.004442181, 0.0392770469, 2.38347936  , 2.95        , 3           , 12          , 0.051580742 , 0
0.375051081 , 0.05326665  , -9.801351   , -0.0025348796, 0.000285673741, -0.00144465233, -0.184238911, -0.160172582, 0.4219361   , -0.004468097, 0.0392798372, 2.383464    , 2.96        , 3           , 50          , 0           , 0
0.391071677 , 0.0327628925, -9.798149   , -0.000827609561, -0.00223695138, -0.00115811871, -0.184238911, -0.160172582, 0.4219361   , -0.004476823, 0.03925741  , 2.38345313  , 2.97        , 3           , 11          , 0.0072953226, 0.00729532447
0.3772836   , 0.05366098  , -9.792293   , -0.00309392 , -0.0005628336, 0.00137678673, -0.184508562, -0.16024    , 0.4220035   , -0.00450721849, 0.03925184  , 2.383467    , 2.98        , 3           , 12          , 0.051580742 , 0
0.370481849 , 0.0528399274, -9.792801   , -0.000838761567, 1.55693269E-05, -0.00115464733, -0.184441149, -0.160105169, 0.422205746 , -0.00451606 , 0.03925195  , 2.38345551  , 2.99        , 3           , 50          , 0           , 0
0.383819282 , 0.03239528  , -9.797754   , 0.00199200376, -0.00223886082, 0.00168012257, -0.1841715  , -0.1597681  , 0.4220035   , -0.004507958, 0.039187938 , 2.38347173  , 3           , 3           , 11          , 0.007200295 , 0.0072003
0.388837576 , 0.03281366  , -9.805398   , 0.000283265 , 0.0002837572, -0.00114924845, -0.1841715  , -0.1597681  , 0.4220035   , -0.004505578, 0.0391907245, 2.38346028  , 3.01        , 3           , 12          , 0.05256181  , 0
0.365926981 , 0.05421025  , -9.781982   , -0.001411296, 0.000272297359, -0.00115715 , -0.184913039, -0.159835517, 0.421868682 , -0.00452014431, 0.03919339  , 2.38344884  , 3.02        , 3           , 50          , 0           , 0
0.3778704   , 0.03598439  , -9.771118   , -0.00169479032, 0.000551954 , -0.000592957949, -0.184373736, -0.159835517, 0.422138333 , -0.004537326, 0.03919889  , 2.383443    , 3.03        , 3           , 11          , 0.007200295 , 0.0072003
0.390383929 , 0.0200800374, -9.781485   , -0.00367300888, 0.000820150133, -0.0003192051, -0.184373736, -0.160037756, 0.42207092  , -0.004574181, 0.03920707  , 2.38343978  , 3.04        , 3           , 12          , 0.05256181  , 0
0.381611943 , 0.0409483761, -9.784177   , -0.00028691272, 0.00112462707, -0.0031283428, -0.184373736, -0.160037756, 0.42207092  , -0.00457828 , 0.0392181724, 2.38340831  , 3.05        , 3           , 50          , 0           , 0
0.374621183 , 0.0163176022, -9.815066   , -0.00252543157, -0.00255098566, 0.00165861775, -0.184575975, -0.1597681  , 0.4220035   , -0.00460287929, 0.0391927436, 2.383425    , 3.06        , 3           , 11          , 0.007200295 , 0.0072003
0.379852831 , 0.0356556065, -9.814042   , 8.134462E-06, -0.00112597668, -0.00058766 , -0.184643388, -0.159970343, 0.42207092  , -0.004603028, 0.03918146  , 2.38341928  , 3.07        , 3           , 12          , 0.05256181  , 0
0.362093151 , 0.03533466  , -9.791129   , -0.000575167534, 0.00253054779, -0.00114972773, -0.184643388, -0.160037756, 0.4219361   , -0.004609232, 0.039206706 , 2.38340783  , 3.08        , 3           , 50          , 0           , 0
0.375564247 , 0.0292815   , -9.782464   , -0.00113509782, 0.00140046445, -0.0022842472, -0.184643388, -0.160037756, 0.4219361   , -0.00462148152, 0.0392205976, 2.383385    , 3.09        , 3           , 11          , 0.007200295 , 0.0072003
0.364410758 , 0.0398150645, -9.789737   , 0.000638532161, -0.00172726787, -0.0005835769, -0.184373736, -0.159835517, 0.4219361   , -0.004486441, 0.03911728  , 2.383384    , 3.1         , 3           , 12          , 0.053554412 , 0
0.367860615 , 0.053395547 , -9.814513   , -0.00077376503, -0.00173681858, -0.000872699136, -0.184441149, -0.159700692, 0.422138333 , -0.004494518, 0.0390998721, 2.38337541  , 3.11        , 3           , 50          , 0           , 0
0.381024539 , 0.0328103   , -9.777435   , -0.00133411051, -0.00258533214, -0.000311559765, -0.184373736, -0.15990293 , 0.422273159 , -0.004507977, 0.0390740037, 2.38337255  , 3.12        , 3           , 11          , 0.007106579 , 0.007106582
0.398221374 , 0.0330473557, -9.773687   , -0.00276002148, 0.000220769449, -3.12678458E-05, -0.184373736, -0.15990293 , 0.422273159 , -0.0045355875, 0.03907621  , 2.38337255  , 3.13        , 3           , 12          , 0.053554412 , 0
0.379569978 , 0.02114318  , -9.791506   , 0.002040004 , 0.0005348048, 0.000274091464, -0.184238911, -0.159835517, 0.42207092  , -0.004515081, 0.039081566 , 2.383375    , 3.14        , 3           , 50          , 0           , 0
0.392041653 , 0.04173144  , -9.784998   , -0.0007851691, 0.000797272543, 0.00110896851, -0.1841715  , -0.1597681  , 0.4220035   , -0.004522501, 0.0390895978, 2.383386    , 3.15        , 3           , 11          , 0.007106579 , 0.007106582
0.387198478 , 0.05127468  , -9.788159   , -0.00248825713, 0.00247520232, 0.000821133 , -0.184575975, -0.1603074  , 0.42207092  , -0.00454706559, 0.03911438  , 2.38339448  , 3.16        , 3           , 12          , 0.053554412 , 0
0.383907229 , 0.0302347764, -9.826239   , -0.00246488536, -0.00231140526, 0.000248681143, -0.184373736, -0.159835517, 0.4219361   , -0.00457161339, 0.0390912779, 2.38339686  , 3.17        , 3           , 50          , 0           , 0
0.376768053 , 0.04692019  , -9.798653   , -0.000493147352, -0.001171774, 0.000824710354, -0.184373736, -0.159835517, 0.4219361   , -0.00457621925, 0.0390796028, 2.383405    , 3.18        , 3           , 11          , 0.007106579 , 0.007106582
0.374500424 , 0.04694375  , -9.797766   , 0.00259272661, 0.002791141 , -0.00141502789, -0.184373736, -0.159970343, 0.42207092  , -0.00455085 , 0.0391074456, 2.38339067  , 3.19        , 3           , 12          , 0.053554412 , 0
0.398835838 , 0.0149468314, -9.76065    , 0.003744394 , 0.003908477 , -0.000559371547, -0.184643388, -0.15990293 , 0.4219361   , -0.004456267, 0.039111454 , 2.3833878   , 3.2         , 3           , 50          , 0           , 0
0.368437737 , 0.0352647752, -9.792438   , 0.0009419407, -0.0006156667, -0.00142709631, -0.1841715  , -0.160172582, 0.4220035   , -0.004447407, 0.0391052328, 2.3833735   , 3.21        , 3           , 11          , 0.007015118 , 0.00701512443
0.354779929 , 0.02822246  , -9.797542   , -0.0004699558, -0.0003436436, 0.0013921276, -0.1841715  , -0.160172582, 0.4220035   , -0.00445156125, 0.0391018651, 2.38338733  , 3.22        , 3           , 12          , 0.054557655 , 0
0.379510134 , 0.05092599  , -9.791836   , 0.00036749235, 0.00135146966, -0.00114415516, -0.184575975, -0.159970343, 0.4219361   , -0.004448337, 0.03911532  , 2.383376    , 3.23        , 3           , 50          , 0           , 0
0.3920502   , 0.03816759  , -9.798573   , -0.000189160462, -0.000341741485, -0.00143193011, -0.184373736, -0.160037756, 0.42207092  , -0.004450788, 0.0391118452, 2.38336158  , 3.24        , 3           , 11          , 0.007015118 , 0.00701512443
0.373768538 , 0.0524513423, -9.822607   , 0.00234824722, 0.000801714 , 0.0005594202, -0.184373736, -0.159970343, 0.42207092  , -0.00442708749, 0.0391198844, 2.3833673   , 3.25        , 3           , 12          , 0.054557655 , 0
0.3639896   , 0.03716789  , -9.806023   , 0.001215915 , 0.001357205 , 0.0008375579, -0.184373736, -0.159970343, 0.42207092  , -0.00441460032, 0.0391335   , 2.38337541  , 3.26        , 3           , 50          , 0           , 0
0.3983754   , 0.034511175 , -9.806675   , 0.004047568 , -0.0003130904, -0.0008471011, -0.184508562, -0.160105169, 0.4219361   , -0.004374457, 0.03913033  , 2.38336682  , 3.27        , 3           , 11          , 0.007015118 , 0.00701512443
0.372303426 , 0.0492563248, -9.806812   , -0.00188118545, -0.0006347609, 0.0005374965, -0.185047865, -0.15990293 , 0.422138333 , -0.004393054, 0.0391239971, 2.38337255  , 3.28        , 3           , 12          , 0.054557655 , 0
0.384960473 , 0.02104462  , -9.781071   , -0.000752382562, -0.000345553563, 0.00139081071, -0.184238911, -0.160037756, 0.42207092  , -0.00440003257, 0.0391206   , 2.38338685  , 3.29        , 3           , 50          , 0           , 0
0.383301944 , 0.0359190963, -9.770626   , -0.000152114764, -0.00148832134, -0.0005849023, -0.184238911, -0.160037756, 0.42207092  , -0.004333983, 0.0390613154, 2.38338351  , 3.3         , 3           , 11          , 0.006926104 , 0.006926111
0.380410433 , 0.05135743  , -9.789114   , -0.00100169377, -0.000930918963, 0.000259627 , -0.184238911, -0.160105169, 0.422138333 , -0.004343897, 0.039052017 , 2.383386    , 3.31        , 3           , 12          , 0.0555707142, 0
0.385126621 , 0.03903321  , -9.763818   , -0.00187242043, 0.00356838736, -0.00171514321, -0.184373736, -0.15990293 , 0.422273159 , -0.00436329748, 0.0390876271, 2.38336873  , 3.32        , 3           , 50          , 0           , 0
0.404357046 , 0.04255372  , -9.803884   , -0.000164987083, 0.00104576279, -0.00114607194, -0.1841715  , -0.160105169, 0.422340572 , -0.004365396, 0.0390980355, 2.38335729  , 3.33        , 3           , 11          , 0.006926104 , 0.006926111
0.4009638   , 0.0299118329, -9.78995    , 0.000119575125, 0.0004845394, -0.00227577286, -0.1841715  , -0.160105169, 0.422340572 , -0.00436509075, 0.03910278  , 2.3833344   , 3.34        , 3           , 12          , 0.0555707142, 0
0.370360374 , 0.0397973619, -9.80505848 , 0.000115793751, 0.00161080807, 0.00083387515, -0.184306324, -0.160105169, 0.421868682 , -0.00436361041, 0.0391189232, 2.383343    , 3.35        , 3           , 50          , 0           , 0
0.387976736 , 0.04044851  , -9.791814   , 0.0009857046, -0.00288850116, 0.001395958 , -0.184575975, -0.1597681  , 0.422273159 , -0.0043532  , 0.0390901044, 2.38335681  , 3.36        , 3           , 11          , 0.006926104 , 0.006926111
0.391633123 , 0.04623618  , -9.781366   , 0.0007055763, -0.00345354388, 0.000546160736, -0.184306324, -0.159835517, 0.4220035   , -0.00434592273, 0.0390555821, 2.38336253  , 3.37        , 3           , 12          , 0.0555707142, 0
0.3738716   , 0.0459137149, -9.758      , -0.00185331947, -9.195419E-05, -2.55595078E-05, -0.184306324, -0.159835517, 0.4220035   , -0.00436446862, 0.0390546657, 2.383362    , 3.38        , 3           , 50          , 0           , 0
0.3831851   , 0.02912915  , -9.763875   , -0.00045233735, 0.00217011617, -1.55033485E-05, -0.184575975, -0.159970343, 0.421666443 , -0.004369   , 0.03907636  , 2.383362    , 3.39        , 3           , 11          , 0.006926104 , 0.006926111
0.3790108   , 0.0459837541, -9.79638    , -0.0004170136, -0.00148233294, -0.00199805084, -0.184441149, -0.159970343, 0.422273159 , -0.004332558, 0.0390792675, 2.38334441  , 3.4         , 3           , 12          , 0.0565928034, 0
0.375062346 , 0.0207663458, -9.797871   , 0.00182911335, 0.00134860026, -0.000853025937, -0.184306324, -0.159835517, 0.422138333 , -0.004314603, 0.0390927121, 2.38333583  , 3.41        , 3           , 50          , 0           , 0
0.373762667 , 0.0270787552, -9.791978   , 0.0009691983, 0.00415852759, 0.00140766241, -0.184238911, -0.15990293 , 0.42207092  , -0.00430436339, 0.03913435  , 2.38334966  , 3.42        , 3           , 11          , 0.00683805067, 0.006838057
0.379602551 , 0.0274184681, -9.779277   , 0.0018210758, 0.00303799286, -0.000285347342, -0.184238911, -0.15990293 , 0.42207092  , -0.00428626873, 0.0391647145, 2.3833468   , 3.43        , 3           , 12          , 0.0565928034, 0
0.37870425  , 0.022078786 , -9.798289   , 0.00437767338, 0.000239535337, 0.001134853 , -0.184441149, -0.160105169, 0.42207092  , -0.00424204674, 0.03916716  , 2.38335824  , 3.44        , 3           , 50          , 0           , 0
0.384724617 , 0.034616217 , -9.790507   , 0.002109242 , 0.001913643 , -3.22892447E-06, -0.184643388, -0.1603074  , 0.422205746 , -0.004220959, 0.03918629  , 2.38335824  , 3.45        , 3           , 11          , 0.00683805067, 0.006838057
0.399659783 , 0.0353279859, -9.78587    , 0.000717439456, -0.002037814, 0.00139679888, -0.184373736, -0.15990293 , 0.42207092  , -0.00421323162, 0.0391659737, 2.383372    , 3.46        , 3           , 12          , 0.0565928034, 0
0.380581975 , 0.03148483  , -9.78422451 , 0.00153971685, 0.002754516 , -0.0008521732, -0.184373736, -0.15990293 , 0.42207092  , -0.00419817539, 0.0391934775, 2.38336349  , 3.47        , 3           , 50          , 0           , 0
0.381630063 , 0.0427484475, -9.782813   , -0.00127939053, 0.00189072569, 0.000828580349, -0.184373736, -0.15990293 , 0.4220035   , -0.00421064766, 0.0392124243, 2.38337159  , 3.48        , 3           , 11          , 0.00683805067, 0.006838057
0.388262153 , 0.06344361  , -9.787649   , 0.000119708035, 0.004434359 , -8.542032E-06, -0.184238911, -0.159970343, 0.422138333 , -0.004209459, 0.0392567627, 2.38337159  , 3.49        , 3           , 12          , 0.0565928034, 0
0.389977634 , 0.0250328928, -9.776948   , 0.00100207573, -0.000630393741, -0.0005770378, -0.184306324, -0.15990293 , 0.42207092  , -0.00417566439, 0.0392450765, 2.38336682  , 3.5         , 3           , 50          , 0           , 0
0.391423255 , 0.02955114  , -9.783696   , 0.000153401386, -0.00035455852, -0.000580554653, -0.184306324, -0.15990293 , 0.42207092  , -0.00417435728, 0.0392415076, 2.383361    , 3.51        , 3           , 11          , 0.00675231963, 0.00675232569
0.3905897   , 0.0439033732, -9.755169   , 0.0009996141, -6.726192E-05, -1.10951951E-05, -0.184508562, -0.15990293 , 0.4219361   , -0.004164363, 0.03924084  , 2.383361    , 3.52        , 3           , 12          , 0.05762318  , 0
0.3684992   , 0.04781235  , -9.767073   , 0.000140692209, 0.00217952626, -0.000859186752, -0.184643388, -0.15990293 , 0.42207092  , -0.004163296, 0.0392625928, 2.38335252  , 3.53        , 3           , 50          , 0           , 0
0.367233753 , 0.04745727  , -9.791039   , -0.00210912758, 0.0001932903, -0.00115529727, -0.184373736, -0.159970343, 0.422205746 , -0.00418484258, 0.0392644778, 2.383341    , 3.54        , 3           , 11          , 0.00675231963, 0.00675232569
0.381051958 , 0.03461792  , -9.778332   , -0.000713469461, 0.00330005074, -0.00312170177, -0.184373736, -0.159970343, 0.422205746 , -0.00419321144, 0.03929735  , 2.3833096   , 3.55        , 3           , 12          , 0.05762318  , 0
0.386597633 , 0.04267939  , -9.779612   , -0.00126028992, -8.254405E-05, -0.0008692428, -0.184373736, -0.15990293 , 0.4220035   , -0.004206155, 0.03929649  , 2.383301    , 3.56        , 3           , 50          , 0           , 0
0.386945039 , 0.06126126  , -9.804843   , -0.00182695256, 0.000476770831, 0.0008242159, -0.184441149, -0.159970343, 0.4220035   , -0.0042241  , 0.0393012874, 2.38330865  , 3.57        , 3           , 11          , 0.00675231963, 0.00675232569
0.352413654 , 0.0535339378, -9.801974   , 0.00126793783, 0.002750298 , -0.000287976145, -0.184306324, -0.160037756, 0.4220035   , -0.004211541, 0.0393287763, 2.38330579  , 3.58        , 3           , 12          , 0.05762318  , 0
0.383361876 , 0.0413238332, -9.767889   , 0.0007153782, 0.0004939629, 0.00168368081, -0.184306324, -0.160037756, 0.4220035   , -0.00420372467, 0.0393337943, 2.383323    , 3.59        , 3           , 50          , 0           , 0
0.391506165 , 0.03586726  , -9.78367    , -0.0021140913, -0.001523607, -0.0003109372, -0.184441149, -0.159835517, 0.421868682 , -0.004258033, 0.0392527878, 2.38331866  , 3.6         , 3           , 11          , 0.006669633 , 0.00666963868
0.3699708   , 0.0420856439, -9.813189   , -0.00324814371, -0.0006865526, -0.000597440638, -0.184575975, -0.159700692, 0.4220035   , -0.004290747, 0.0392458923, 2.38331246  , 3.61        , 3           , 12          , 0.0586611852, 0
0.371244669 , 0.0437866151, -9.786957   , -0.003246913, -0.000968118547, -0.000880412059, -0.1847108  , -0.15990293 , 0.42207092  , -0.004323559, 0.039236173 , 2.38330388  , 3.62        , 3           , 50          , 0           , 0
0.384867162 , 0.0458904579, -9.78910351 , 0.0004165981, 0.000746103236, -0.000295613339, -0.1847108  , -0.15990293 , 0.42207092  , -0.00431951 , 0.03924362  , 2.383301    , 3.63        , 3           , 11          , 0.006669633 , 0.00666963868
0.371688664 , 0.04198879  , -9.790576   , 0.000411185261, 0.0018723642, -1.13403657E-05, -0.184306324, -0.15990293 , 0.422138333 , -0.00431540469, 0.0392623432, 2.383301    , 3.64        , 3           , 12          , 0.0586611852, 0
0.377210945 , 0.04869227  , -9.790506   , 0.00069254433, 0.00215584086, 0.0005554855, -0.184575975, -0.159970343, 0.422138333 , -0.004308263, 0.0392839275, 2.38330626  , 3.65        , 3           , 50          , 0           , 0
0.384892821 , 0.04278683  , -9.805387   , -0.00211736886, -0.000960479432, -0.00115768181, -0.184373736, -0.160105169, 0.42207092  , -0.004329888, 0.0392742641, 2.38329482  , 3.66        , 3           , 11          , 0.006669633 , 0.00666963868
0.375974864 , 0.0577342659, -9.791383   , -0.003237407, -0.00265750336, 0.00109474652, -0.184441149, -0.1603074  , 0.422138333 , -0.00436182739, 0.0392477438, 2.38330579  , 3.67        , 3           , 12          , 0.0586611852, 0
0.366835415 , 0.0479530431, -9.802792   , -0.00184560451, 0.00129395351, -0.000305280933, -0.184441149, -0.1603074  , 0.422138333 , -0.00438040635, 0.0392606631, 2.383303    , 3.68        , 3           , 50          , 0           , 0
0.3726945   , 0.0541108623, -9.776054   , -0.0009908646, -0.000108139466, 0.0005441124, -0.184373736, -0.159970343, 0.42207092  , -0.00439009862, 0.0392596   , 2.38330817  , 3.69        , 3           , 11          , 0.006669633 , 0.00666963868
0.393579036 , 0.0570364967, -9.7795     , -0.00156458362, -0.00240076659, -0.000593035249, -0.184575975, -0.160172582, 0.422205746 , -0.00445363065, 0.0391463526, 2.383301    , 3.7         , 3           , 12          , 0.0597061627, 0
0.394993663 , 0.05751252  , -9.79169    , -0.000995385, -0.003241641, -0.000309165684, -0.184238911, -0.160037756, 0.42207092  , -0.00446370058, 0.03911392  , 2.38329768  , 3.71        , 3           , 50          , 0           , 0
0.379475862 , 0.05000554  , -9.786416   , 0.00377889536, 0.00214056228, -0.00112614559, -0.184238911, -0.160037756, 0.42207092  , -0.00442635641, 0.0391352773, 2.38328671  , 3.72        , 3           , 11          , 0.00658799149, 0.00658799475
0.392914325 , 0.03767708  , -9.78998    , 0.0023768458, 0.000160058553, -0.000570692762, -0.184643388, -0.159970343, 0.422273159 , -0.004402812, 0.0391368568, 2.38328052  , 3.73        , 3           , 12          , 0.0597061627, 0
0.379142225 , 0.0247395579, -9.786072   , -0.00270191371, -0.00100058445, -0.00172628323, -0.184643388, -0.160105169, 0.422340572 , -0.00443050452, 0.0391267762, 2.38326335  , 3.74        , 3           , 50          , 0           , 0
0.378559679 , 0.02330071  , -9.758962   , -0.00496346364, -0.000452730776, -0.0006058009, -0.184238911, -0.159970343, 0.4219361   , -0.004480374, 0.0391222276, 2.38325715  , 3.75        , 3           , 11          , 0.00658799149, 0.00658799475
0.368218333 , 0.0208037514, -9.785267   , -0.002423669, -0.000153979054, -0.00172366458, -0.184238911, -0.159970343, 0.4219361   , -0.00450528227, 0.0391206   , 2.38324     , 3.76        , 3           , 12          , 0.0597061627, 0
0.3674329   , 0.02448255  , -9.802885   , -0.0007260825, -0.00042407657, 0.00110917783, -0.184373736, -0.15990293 , 0.421868682 , -0.00451211 , 0.03911641  , 2.38325143  , 3.77        , 3           , 50          , 0           , 0
0.382014871 , 0.0288511757, -9.81089    , -0.00186078751, 0.0004129749, -0.000307475362, -0.184508562, -0.15990293 , 0.422273159 , -0.004530838, 0.0391205251, 2.38324857  , 3.78        , 3           , 11          , 0.00658799149, 0.00658799475
0.3661682   , 0.0352868177, -9.791098   , 0.000116200215, 0.000426344719, -0.0002982568, -0.184373736, -0.159970343, 0.422273159 , -0.00452979375, 0.0391247757, 2.38324523  , 3.79        , 3           , 12          , 0.0597061627, 0
0.389912158 , 0.0196236223, -9.778327   , -0.001253729, -0.0004552827, -0.000304700254, -0.184373736, -0.159970343, 0.422273159 , -0.0044461675, 0.0390510373, 2.38324666  , 3.8         , 3           , 50          , 0           , 0
0.402235866 , 0.0342894681, -9.754668   , -0.00266897748, 9.829606E-05, -0.000875492, -0.184575975, -0.15990293 , 0.4219361   , -0.0044731996, 0.03905198  , 2.383238    , 3.81        , 3           , 11          , 0.00650830846, 0.00650831033
0.36904636  , 0.0443127267, -9.80143452 , 0.006363268 , 0.00128567615, -0.00054907694, -0.184575975, -0.15990293 , 0.422340572 , -0.00440978538, 0.0390648134, 2.38323236  , 3.82        , 3           , 12          , 0.06075752  , 0
0.3758706   , 0.05541803  , -9.77331352 , 0.00213818112, -0.0009954933, -0.000289764925, -0.184306324, -0.160037756, 0.422205746 , -0.00438851351, 0.0390548445, 2.38322949  , 3.83        , 3           , 50          , 0           , 0
0.3934013   , 0.03591403  , -9.803995   , 0.000441647717, -0.00044381895, 0.00111588859, -0.184306324, -0.160037756, 0.422205746 , -0.00438365759, 0.03905045  , 2.383241    , 3.84        , 3           , 11          , 0.00650830846, 0.00650831033
0.38025105  , 0.04006958  , -9.786451   , -0.00181268028, -0.0015853612, 0.0002560049, -0.184306324, -0.160037756, 0.4220035   , -0.00440168 , 0.0390346125, 2.38324332  , 3.85        , 3           , 12          , 0.06075752  , 0
0.393283576 , 0.0304624233, -9.79272    , 0.00692910049, 0.00128950062, 0.00114878162, -0.184508562, -0.159835517, 0.42207092  , -0.004331941, 0.03904755  , 2.38325477  , 3.86        , 3           , 50          , 0           , 0
0.3833899   , 0.0337585881, -9.79910851 , 0.00269655418, 0.0004161545, 0.00056265085, -0.184441149, -0.15990293 , 0.422205746 , -0.004304756, 0.0390517376, 2.38326     , 3.87        , 3           , 11          , 0.00650830846, 0.00650831033
0.37964204  , 0.0278968345, -9.78741    , 0.00100986753, -0.00128469814, -0.0002954666, -0.184441149, -0.15990293 , 0.422205746 , -0.0042947703, 0.0390388779, 2.38325715  , 3.88        , 3           , 12          , 0.06075752  , 0
0.3934071   , 0.041274935 , -9.788153   , 0.00269130431, 0.00154241628, 0.00112946157, -0.184306324, -0.160105169, 0.4220035   , -0.00426742155, 0.0390543528, 2.38326859  , 3.89        , 3           , 50          , 0           , 0
0.382799983 , 0.0599133149, -9.792225   , 0.000175232824, 0.000687881955, 0.00026966838, -0.184643388, -0.1597681  , 0.422138333 , -0.004208136, 0.03908036  , 2.38327384  , 3.9         , 3           , 11          , 0.00643074932, 0.006430753
0.3756367   , 0.0364817828, -9.777009   , 0.001588761 , 0.000415866729, 0.000275819126, -0.184508562, -0.15990293 , 0.422205746 , -0.00419214275, 0.03908453  , 2.38327622  , 3.91        , 3           , 12          , 0.0618147068, 0
0.409693182 , 0.044642888 , -9.773099   , 0.00158933934, 0.000134297734, -0.001137302, -0.184575975, -0.159835517, 0.422205746 , -0.0041766935, 0.039085824 , 2.38326526  , 3.92        , 3           , 50          , 0           , 0
0.401129723 , 0.0528101772, -9.756859   , 0.00469529256, 0.00043687562, 7.767929E-06, -0.184575975, -0.159835517, 0.422205746 , -0.004129739, 0.03909019  , 2.38326526  , 3.93        , 3           , 11          , 0.00643074932, 0.006430753
0.39867723  , 0.0321518332, -9.777304   , -0.001512195, -0.000731402542, 0.0005421346, -0.184441149, -0.15990293 , 0.422205746 , -0.00414464762, 0.0390829   , 2.3832705   , 3.94        , 3           , 12          , 0.0618147068, 0
0.379047662 , 0.0428892   , -9.815375   , -0.0040548523, -0.000748596154, -0.000882405, -0.184575975, -0.159970343, 0.422407985 , -0.00418554246, 0.0390753821, 2.383262    , 3.95        , 3           , 50          , 0           , 0
0.374374    , 0.03478988  , -9.805953   , -0.00208713277, 0.00123573153, -2.25366966E-05, -0.184508562, -0.159835517, 0.4220035   , -0.004206424, 0.03908774  , 2.38326144  , 3.96        , 3           , 11          , 0.00643074932, 0.006430753
0.398670435 , 0.0254510883, -9.797218   , -0.00179715792, -0.000451752858, -0.00143651047, -0.184508562, -0.159835517, 0.4220035   , -0.004224956, 0.0390831567, 2.38324714  , 3.97        , 3           , 12          , 0.0618147068, 0
0.39927277  , 0.0411891937, -9.783136   , 0.000727050938, 0.00322578521, -0.0005714046, -0.184643388, -0.1597681  , 0.42207092  , -0.004217914, 0.03911539  , 2.38324142  , 3.98        , 3           , 50          , 0           , 0
0.3751312   , 0.033319965 , -9.774315   , 0.000180645671, -0.000438379153, -1.46048251E-05, -0.184575975, -0.160172582, 0.422138333 , -0.004216112, 0.039111007 , 2.38324142  , 3.99        , 3           , 11          , 0.00643074932, 0.006430753
0.3962261   , 0.01595813  , -9.783717   , 0.00329563115, 0.0007265231, 2.33727042E-06, -0.184306324, -0.1597681  , 0.42207092  , -0.004146121, 0.03916531  , 2.38324332  , 4           , 3           , 12          , 0.0628771856, 0
0.3804584   , 0.04559376  , -9.819421   , 0.000212633866, -0.004081093, -1.95258763E-05, -0.184306324, -0.1597681  , 0.42207092  , -0.00414399523, 0.0391245   , 2.38324285  , 4.01        , 3           , 50          , 0           , 0
0.400762767 , 0.0452971123, -9.802092   , 0.001337996 , -0.00322875823, -0.000295493577, -0.184373736, -0.159970343, 0.42207092  , -0.004130726, 0.0390922   , 2.38324     , 4.02        , 3           , 11          , 0.00635595946, 0.006355962
0.373303473 , 0.0310960524, -9.777501   , 0.00189571665, -0.00181711384, -0.000573227531, -0.184508562, -0.15990293 , 0.422138333 , -0.00411198847, 0.0390740037, 2.38323474  , 4.03        , 3           , 12          , 0.0628771856, 0
0.3651393   , 0.0298413038, -9.778473   , 0.00246475241, -0.00265798951, -0.0005718955, -0.184441149, -0.160037756, 0.422138333 , -0.00408756 , 0.0390473977, 2.383229    , 4.04        , 3           , 50          , 0           , 0
0.3842128   , 0.03546638  , -9.773332   , 0.00131446123, 0.00155784842, -5.57946623E-06, -0.184441149, -0.160037756, 0.422138333 , -0.00407442 , 0.03906298  , 2.383229    , 4.05        , 3           , 11          , 0.00635595946, 0.006355962
0.3913149   , 0.0165191554, -9.799119   , 0.00159886  , 0.0009966245, -0.00141781766, -0.184508562, -0.16024    , 0.422138333 , -0.00405898644, 0.03907289  , 2.38321471  , 4.06        , 3           , 12          , 0.0628771856, 0
0.398228317 , 0.027250424 , -9.794051   , 0.00103719509, 0.000711248 , 0.00168702682, -0.184575975, -0.159835517, 0.422273159 , -0.00404795725, 0.03908007  , 2.3832314   , 4.07        , 3           , 50          , 0           , 0
0.379831553 , 0.0396554954, -9.795948   , 0.00387196266, -0.00152217573, 0.000566574745, -0.184373736, -0.15990293 , 0.422138333 , -0.004009013, 0.03906487  , 2.38323712  , 4.08        , 3           , 11          , 0.00635595946, 0.006355962
0.3890177   , 0.0521526933, -9.787237   , 0.00386392535, 0.000167216 , 0.00113425322, -0.184373736, -0.15990293 , 0.422138333 , -0.003969931, 0.03906659  , 2.38324857  , 4.09        , 3           , 12          , 0.0628771856, 0
0.38644588  , 0.03407577  , -9.770157   , 0.00134246424, -0.00208951882, -0.000575749669, -0.184373736, -0.160037756, 0.42207092  , -0.003928749, 0.03908121  , 2.38324475  , 4.1         , 3           , 50          , 0           , 0
0.389978766 , 0.0214629918, -9.7887125  , 0.00163358147, -0.00377699779, -1.19616443E-05, -0.184373736, -0.159835517, 0.422138333 , -0.0039124107, 0.0390434377, 2.38324475  , 4.11        , 3           , 11          , 0.0062826057, 0.006282608
0.398598284 , 0.0512067862, -9.80750751 , -0.0006529718, 0.00155745586, -0.00114440208, -0.184575975, -0.159970343, 0.422273159 , -0.003919391, 0.03905897  , 2.38323331  , 4.12        , 3           , 12          , 0.0639444739, 0
0.392470926 , 0.03768996  , -9.792242   , 0.00161192985, 0.000728046638, 0.00112513127, -0.184575975, -0.159970343, 0.422273159 , -0.00390283228, 0.0390662923, 2.38324475  , 4.13        , 3           , 50          , 0           , 0
0.3972924   , 0.02902182  , -9.780942   , 0.00048730924, -0.000405855884, 0.0002705153, -0.184643388, -0.160037756, 0.422205746 , -0.0038978525, 0.039062243 , 2.38324714  , 4.14        , 3           , 11          , 0.0062826057, 0.006282608
0.35210225  , 0.0331958532, -9.791214   , 0.000480828661, 0.00100197189, 0.00112029747, -0.184575975, -0.15990293 , 0.422138333 , -0.00389260869, 0.03907231  , 2.383258    , 4.15        , 3           , 12          , 0.0639444739, 0
0.3792023   , 0.0279127341, -9.790577   , -0.001212991, 0.0007089438, -1.81880314E-05, -0.184441149, -0.159700692, 0.422205746 , -0.00390474685, 0.0390793979, 2.383258    , 4.16        , 3           , 50          , 0           , 0
0.396701783 , 0.046695374 , -9.801212   , 0.000191520608, 0.00212631584, -0.00113958342, -0.184441149, -0.160037756, 0.42207092  , -0.00390328071, 0.0391006172, 2.38324666  , 4.17        , 3           , 11          , 0.0062826057, 0.006282608
0.389543682 , 0.055331137 , -9.794905   , -0.00148303481, -0.00182705233, -0.000305947615, -0.184441149, -0.160037756, 0.42207092  , -0.003918228, 0.0390823372, 2.3832438   , 4.18        , 3           , 12          , 0.0639444739, 0
0.397887081 , 0.0344877653, -9.798091   , 0.00103789638, 0.00241361326, -0.000287586183, -0.184575975, -0.160105169, 0.422205746 , -0.003907965, 0.03910646  , 2.383241    , 4.19        , 3           , 50          , 0           , 0
0.3733965   , 0.0307250246, -9.801457   , 0.00103007676, 0.00383791351, -0.00198049 , -0.184373736, -0.15990293 , 0.42207092  , -0.00389808835, 0.0391910225, 2.383221    , 4.2         , 3           , 11          , 0.00621212833, 0.006212128
0.3900918   , 0.0255717281, -9.803159   , 0.00302526145, 0.000472509157, 0.0005663587, -0.184508562, -0.15990293 , 0.42207092  , -0.003867615, 0.0391957723, 2.38322663  , 4.21        , 3           , 12          , 0.0650161058, 0
0.383187056 , 0.04914235  , -9.810797   , -0.00121400377, 0.000725417631, -0.00199579867, -0.184508562, -0.15990293 , 0.42207092  , -0.00388053828, 0.0392029472, 2.38320661  , 4.22        , 3           , 50          , 0           , 0
0.364583045 , 0.04843531  , -9.804163   , -0.0006346461, -0.00180483866, 0.00139337964, -0.184373736, -0.15990293 , 0.4220035   , -0.00388633669, 0.039184954 , 2.383221    , 4.23        , 3           , 11          , 0.00621212833, 0.006212128
0.392419338 , 0.0309529249, -9.80131149 , -0.0003662337, 0.0007311499, -0.00114423537, -0.184643388, -0.159700692, 0.42207092  , -0.00389044848, 0.03919223  , 2.38320947  , 4.24        , 3           , 12          , 0.0650161058, 0
0.3845206   , 0.0508916974, -9.799028   , -0.000929693342, 0.000445764861, -0.00114730326, -0.184306324, -0.1603074  , 0.422205746 , -0.00390019687, 0.0391966328, 2.38319755  , 4.25        , 3           , 50          , 0           , 0
0.35647434  , 0.05168905  , -9.804212   , -0.000366723165, 0.000731147535, -0.001991848, -0.184306324, -0.1603074  , 0.422205746 , -0.003904646, 0.0392038673, 2.383178    , 4.26        , 3           , 11          , 0.00621212833, 0.006212128
0.39249742  , 0.0484238565, -9.764175   , 0.001327749 , 0.00102417869, 0.000276787381, -0.184575975, -0.160172582, 0.421868682 , -0.0038912606, 0.0392141268, 2.38318038  , 4.27        , 3           , 12          , 0.0650161058, 0
0.389168024 , 0.0286920443, -9.78869    , 0.00217502983, 0.00102990866, 0.000280738168, -0.184508562, -0.159970343, 0.4220035   , -0.00386940083, 0.03922443  , 2.38318324  , 4.28        , 3           , 50          , 0           , 0
0.380438149 , 0.04602375  , -9.813091   , -0.0006432476, -0.000397021184, -0.00142982556, -0.184306324, -0.159835517, 0.4220035   , -0.003876393, 0.0392204039, 2.383169    , 4.29        , 3           , 11          , 0.00621212833, 0.006212128
0.382081568 , 0.0409566648, -9.788241   , -0.0006604021, 0.0007234721, -0.002558625, -0.184306324, -0.159835517, 0.4220035   , -0.003915477, 0.03921094  , 2.38314271  , 4.3         , 3           , 12          , 0.06609166  , 0
0.36975044  , 0.0365508869, -9.777055   , 0.00101348618, 0.005239981 , 0.0002815942, -0.184575975, -0.15990293 , 0.422205746 , -0.00390523928, 0.03926335  , 2.383145    , 4.31        , 3           , 50          , 0           , 0
0.3745378   , 0.0572401062, -9.773768   , 0.00329906074, -9.447726E-05, -0.000281189772, -0.184441149, -0.160105169, 0.422205746 , -0.00387235824, 0.0392623954, 2.38314271  , 4.32        , 3           , 11          , 0.006143052 , 0.00614305073
0.382736027 , 0.0540589243, -9.795414   , 0.00272883149, 0.00116875011, 0.001272085 , -0.184441149, -0.159970343, 0.422138333 , -0.003844573, 0.03927413  , 2.383155    , 4.33        , 3           , 12          , 0.06609166  , 0
0.399999648 , 0.0539038   , -9.809294   , -8.67022245E-05, -0.000680524448, 0.0006910201, -0.184441149, -0.159970343, 0.422138333 , -0.00384516735, 0.03926735  , 2.38316178  , 4.34        , 3           , 50          , 0           , 0
0.4136541   , 0.0364682749, -9.771295   , -0.000367445929, -0.001104784, -1.72913587E-05, -0.184373736, -0.160037756, 0.42207092  , -0.00384884723, 0.0392563   , 2.38316178  , 4.35        , 3           , 11          , 0.006143052 , 0.00614305073
0.370853543 , 0.04652001  , -9.793276   , 0.00203203317, -0.0008069829, 0.0004181428, -0.1841715  , -0.159970343, 0.422138333 , -0.00382836279, 0.0392482467, 2.383166    , 4.36        , 3           , 12          , 0.06609166  , 0
0.372541457 , 0.036132846 , -9.79647    , 5.21312359E-05, -0.000116437266, 0.00139889016, -0.1847108  , -0.159835517, 0.42207092  , -0.00382728945, 0.0392471366, 2.38318     , 4.37        , 3           , 50          , 0           , 0
0.372127473 , 0.008123672 , -9.78529    , -0.00263173948, -0.000134585876, -2.63080437E-05, -0.1847108  , -0.159835517, 0.42207092  , -0.00385361584, 0.0392457843, 2.38318     , 4.38        , 3           , 11          , 0.006143052 , 0.00614305073
0.371010184 , 0.026635306 , -9.78477    , -0.00207123114, 0.000713928544, -0.0003049099, -0.184441149, -0.160037756, 0.4220035   , -0.00387444836, 0.0392529145, 2.38317657  , 4.39        , 3           , 12          , 0.06609166  , 0
0.37299335  , 0.0374658629, -9.791941   , -0.0002380795, 0.00226115831, -0.0002937491, -0.184508562, -0.159700692, 0.4220035   , -0.00386203686, 0.0392348655, 2.38317466  , 4.4         , 3           , 50          , 0           , 0
0.3857675   , 0.03873398  , -9.810822   , 0.00117893366, 0.00128523051, -0.000288683252, -0.184306324, -0.159970343, 0.422138333 , -0.003850363, 0.0392477065, 2.38317132  , 4.41        , 3           , 11          , 0.00607568072, 0.00607568
0.371913075 , 0.0306396838, -9.771187   , 0.001606467 , 0.0005841845, 0.000418550917, -0.184373736, -0.15990293 , 0.4219361   , -0.00383413327, 0.0392535627, 2.383176    , 4.42        , 3           , 12          , 0.06717071  , 0
0.4081368   , 0.0288760941, -9.775436   , 0.00104362261, 0.000158016483, 0.00027399743, -0.184373736, -0.15990293 , 0.4219361   , -0.0038235893, 0.03925515  , 2.383179    , 4.43        , 3           , 50          , 0           , 0
0.382228374 , 0.0504489839, -9.793625   , -0.0002279136, 0.000290204567, 0.000409557 , -0.184441149, -0.159835517, 0.42207092  , -0.00382570759, 0.03925807  , 2.38318276  , 4.44        , 3           , 11          , 0.00607568072, 0.00607568
0.3836386   , 0.0576166846, -9.783188   , 0.000745617 , 0.00325332163, -0.000146352249, -0.184238911, -0.1597681  , 0.422138333 , -0.003818313, 0.0392905921, 2.38318086  , 4.45        , 3           , 12          , 0.06717071  , 0
0.375244    , 0.039660275 , -9.781519   , 0.002301219 , 0.00284147938, 0.000142777484, -0.184373736, -0.160037756, 0.421868682 , -0.00379524776, 0.0393190123, 2.38318276  , 4.46        , 3           , 50          , 0           , 0
0.375828564 , 0.05404493  , -9.767443   , 0.0009051156, -0.0004060689, 0.000131202527, -0.184373736, -0.160037756, 0.421868682 , -0.003786145, 0.03931496  , 2.38318372  , 4.47        , 3           , 11          , 0.00607568072, 0.00607568
0.368046582 , 0.0455861   , -9.774318   , 0.0006222809, -0.000407980784, -0.000576458056, -0.184306324, -0.1597681  , 0.42207092  , -0.00378015055, 0.0393108577, 2.383178    , 4.48        , 3           , 12          , 0.06717071  , 0
0.372961938 , 0.037886776 , -9.7829     , 0.00118352345, 0.000440537056, 0.000416358729, -0.184575975, -0.160037756, 0.4220035   , -0.00376815163, 0.03931528  , 2.38318181  , 4.49        , 3           , 50          , 0           , 0
0.3713494   , 0.0243062042, -9.764437   , 0.0008878922, -3.20345634E-06, 0.000272526464, -0.184373736, -0.160105169, 0.4219361   , -0.0038051405, 0.0392564274, 2.38318372  , 4.5         , 3           , 11          , 0.006010261 , 0.00601026
0.3833242   , 0.03058088  , -9.793246   , 0.000610715069, -0.0011313752, -0.0002956012, -0.184373736, -0.160105169, 0.4219361   , -0.003799147, 0.0392451   , 2.38318086  , 4.51        , 3           , 12          , 0.0682529   , 0
0.372187853 , 0.0442528427, -9.794631   , 0.000616988051, -0.00239841826, -0.000297553925, -0.184306324, -0.15990293 , 0.4220035   , -0.003793088, 0.0392210968, 2.383178    , 4.52        , 3           , 50          , 0           , 0
0.382941    , 0.04671122  , -9.758379   , 0.0001887136, -0.00141580438, 0.00012579569, -0.184508562, -0.15990293 , 0.42207092  , -0.00379114947, 0.0392069481, 2.383179    , 4.53        , 3           , 11          , 0.006010261 , 0.00601026
0.396380126 , 0.0325978175, -9.767828   , 4.50384978E-05, -0.0008536274, 0.00069108  , -0.184913039, -0.159835517, 0.4220035   , -0.00379042653, 0.0391984358, 2.383186    , 4.54        , 3           , 12          , 0.0682529   , 0
0.3737502   , 0.0604707748, -9.792293   , 0.00145664625, -0.0009848661, -0.00142158347, -0.184913039, -0.159835517, 0.4220035   , -0.003776418, 0.039188534 , 2.38317227  , 4.55        , 3           , 50          , 0           , 0
0.396623433 , 0.0466318838, -9.78223    , 0.00088482257, 0.000419139367, -0.00142204762, -0.184373736, -0.160105169, 0.4219361   , -0.00376812881, 0.0391926765, 2.38315749  , 4.56        , 3           , 11          , 0.006010261 , 0.00601026
0.372493    , 0.0636931658, -9.806751   , -0.00165566953, 0.0002611702, -0.000303967041, -0.184306324, -0.15990293 , 0.422138333 , -0.00378480554, 0.0391952768, 2.38315415  , 4.57        , 3           , 12          , 0.0682529   , 0
0.361541361 , 0.05750311  , -9.806409   , -0.0006681544, 0.000267850439, -0.00199458259, -0.184373736, -0.159970343, 0.4220035   , -0.00379226962, 0.039197877 , 2.3831346   , 4.58        , 3           , 50          , 0           , 0
0.38208437  , 0.0422980264, -9.78462    , 0.00130924117, 0.0002812222, -0.00127902045, -0.184373736, -0.159970343, 0.4220035   , -0.0037796793, 0.03920064  , 2.38312173  , 4.59        , 3           , 11          , 0.006010261 , 0.00601026
0.3851073   , 0.0381248668, -9.762014   , -0.000263382623, -0.00143345841, -0.0008661505, -0.184575975, -0.16024    , 0.421801269 , -0.003868918, 0.0391405523, 2.38311028  , 4.6         , 3           , 12          , 0.06933785  , 0
0.373011649 , 0.0446222946, -9.77338    , -0.00112021354, 0.0003909823, -0.001714893, -0.184441149, -0.159498453, 0.421868682 , -0.00388079067, 0.0391443968, 2.383093    , 4.61        , 3           , 50          , 0           , 0
0.37081778  , 0.038456738 , -9.810484   , -0.0021044882, -0.0003196118, -0.000449168438, -0.184508562, -0.159970343, 0.422205746 , -0.00390200852, 0.03914118  , 2.38308835  , 4.62        , 3           , 11          , 0.00594656635, 0.00594656356
0.35574168  , 0.0336135477, -9.793897   , -0.00210563745, -3.804562E-05, -2.49283185E-05, -0.184508562, -0.159970343, 0.422205746 , -0.003923074, 0.0391407944, 2.38308835  , 4.63        , 3           , 12          , 0.06933785  , 0
0.3621822   , 0.012270744 , -9.776309   , 0.000849923 , 0.00195296365, -0.000290600467, -0.184373736, -0.159835517, 0.4220035   , -0.00391469244, 0.0391603224, 2.38308549  , 4.64        , 3           , 50          , 0           , 0
0.384781241 , 0.043142736 , -9.776913   , 0.00170318736, 0.0008324353, 0.000417958159, -0.184441149, -0.15990293 , 0.422138333 , -0.003897497, 0.0391686559, 2.3830893   , 4.65        , 3           , 11          , 0.00594656635, 0.00594656356
0.394262433 , 0.0363137275, -9.791782   , 0.00128048891, 0.000688789 , 0.000839571934, -0.184575975, -0.159700692, 0.422273159 , -0.00388436369, 0.0391755775, 2.383098    , 4.66        , 3           , 12          , 0.06933785  , 0
0.37759     , 0.0397002138, -9.801388   , 0.00100105768, -1.70359453E-05, -1.04420906E-05, -0.184306324, -0.160037756, 0.422138333 , -0.00387435756, 0.0391754061, 2.383098    , 4.67        , 3           , 50          , 0           , 0
0.368719757 , 0.0511155427, -9.810448   , -0.000700021046, 0.00123854587, -0.0004401972, -0.184306324, -0.160037756, 0.422138333 , -0.0038815313, 0.03918777  , 2.383093    , 4.68        , 3           , 11          , 0.00594656635, 0.00594656356
0.391737044 , 0.055693727 , -9.776354   , -0.001828297, 0.001090127 , 0.0008257368, -0.184441149, -0.16024    , 0.4220035   , -0.00389949069, 0.0391987   , 2.3831017   , 4.69        , 3           , 12          , 0.06933785  , 0
0.401574343 , 0.0492274   , -9.766362   , -1.56433089E-06, 0.00038423654, 0.0008327277, -0.184575975, -0.159835517, 0.4220035   , -0.00393881276, 0.03915707  , 2.38310885  , 4.7         , 3           , 50          , 0           , 0
0.388267219 , 0.0327237323, -9.776928   , 0.000567352632, -0.000597425154, -0.0005788444, -0.1841715  , -0.159835517, 0.4219361   , -0.003933365, 0.0391510762, 2.38310266  , 4.71        , 3           , 11          , 0.005884612 , 0.005884608
0.405572355 , 0.0357266665, -9.790794   , 0.0009947227, -0.0012984717, -0.000154147623, -0.1841715  , -0.159835517, 0.4219361   , -0.00392347574, 0.0391380861, 2.3831017   , 4.72        , 3           , 12          , 0.0704252645, 0
0.378584564 , 0.0491350368, -9.792753   , 0.002405626 , -0.001007356, 0.000135408482, -0.184373736, -0.159633279, 0.4220035   , -0.0038993638, 0.0391280167, 2.38310266  , 4.73        , 3           , 50          , 0           , 0
0.3849883   , 0.0508984849, -9.802641   , 0.001563677 , -0.00213934761, -0.0002940843, -0.184238911, -0.159835517, 0.42207092  , -0.003883838, 0.0391066037, 2.38309979  , 4.74        , 3           , 11          , 0.005884612 , 0.005884608
0.363336831 , 0.0289768912, -9.783463   , -0.0005563706, -0.00173132343, 0.0001204957, -0.184373736, -0.159835517, 0.4220035   , -0.003889352, 0.0390893   , 2.3831017   , 4.75        , 3           , 12          , 0.0704252645, 0
0.366039872 , 0.0280411858, -9.782994   , 0.00028316144, -0.000176986, -1.44354663E-05, -0.184373736, -0.159835517, 0.4220035   , -0.00388652575, 0.03908753  , 2.38310122  , 4.76        , 3           , 50          , 0           , 0
0.393319458 , 0.03629412  , -9.782752   , 0.002820124 , 0.0008256815, -1.0642907E-06, -0.184238911, -0.159970343, 0.4219361   , -0.003858327, 0.03909578  , 2.38310122  , 4.77        , 3           , 11          , 0.005884612 , 0.005884608
0.377606571 , 0.0419453867, -9.798215   , 0.00168857025, 0.00124039047, 0.000418125 , -0.184575975, -0.159565866, 0.422138333 , -0.00384127931, 0.0391082056, 2.38310552  , 4.78        , 3           , 12          , 0.0704252645, 0
0.382688344 , 0.01749373  , -9.790593   , 0.000137231953, 0.000807537639, 0.0002689622, -0.184306324, -0.160037756, 0.4219361   , -0.00383980153, 0.03911629  , 2.38310838  , 4.79        , 3           , 50          , 0           , 0
0.385172725 , 0.033268027 , -9.793673   , -0.0008444884, 0.000232940263, -0.0003013646, -0.184306324, -0.160037756, 0.4219361   , -0.0038343952, 0.03910317  , 2.38310647  , 4.8         , 3           , 11          , 0.005824401 , 0.00582439639
0.371619642 , 0.0343449228, -9.798292   , -0.0008429313, -4.862403E-05, -1.926103E-05, -0.184306324, -0.159970343, 0.4219361   , -0.00384283 , 0.03910268  , 2.383106    , 4.81        , 3           , 12          , 0.0715147853, 0
0.389501959 , 0.0544046462, -9.787677   , 0.000137569208, 0.00150666747, -0.000577340135, -0.184306324, -0.160105169, 0.422138333 , -0.00384168024, 0.03911772  , 2.38309979  , 4.82        , 3           , 50          , 0           , 0
0.3670663   , 0.06777951  , -9.795477   , -0.0008536683, 0.00192232709, -0.00171144842, -0.184373736, -0.160105169, 0.42207092  , -0.00385088846, 0.03913688  , 2.38308263  , 4.83        , 3           , 11          , 0.005824401 , 0.00582439639
0.38586688  , 0.0522050261, -9.791781   , -0.00126221927, -0.00117775507, -0.002142003, -0.184373736, -0.160105169, 0.42207092  , -0.0038643484, 0.0391250178, 2.38306165  , 4.84        , 3           , 12          , 0.0715147853, 0
0.4060276   , 0.03393791  , -9.797127   , 0.000293382443, -0.00158959709, -0.00185287336, -0.184508562, -0.15990293 , 0.421868682 , -0.00386213744, 0.039109055 , 2.383043    , 4.85        , 3           , 50          , 0           , 0
0.4082654   , 0.0338901654, -9.790782   , 5.57988642E-06, -0.000324459979, -0.0002982817, -0.184441149, -0.159633279, 0.4220035   , -0.00386219565, 0.03910579  , 2.38303971  , 4.86        , 3           , 11          , 0.005824401 , 0.00582439639
0.384175628 , 0.0305263977, -9.780133   , 0.0002922703, -0.00116724474, -0.000156997776, -0.184238911, -0.15990293 , 0.422205746 , -0.00385933253, 0.0390941165, 2.38303876  , 4.87        , 3           , 12          , 0.0715147853, 0
0.3569936   , 0.0232453123, -9.801162   , 0.002261717 , 0.00025394783, -0.00113449071, -0.184238911, -0.15990293 , 0.422205746 , -0.00383716053, 0.03909661  , 2.38302732  , 4.88        , 3           , 50          , 0           , 0
0.391129971 , 0.04620067  , -9.769166   , 0.00168792857, 0.00193951547, -0.002123402, -0.184104085, -0.159970343, 0.4219361   , -0.00382111385, 0.03911592  , 2.38300586  , 4.89        , 3           , 11          , 0.005824401 , 0.00582439639
0.383944452 , 0.0454408675, -9.7864     , 0.000839877641, 0.00165461225, -0.00128023454, -0.184508562, -0.159835517, 0.4219361   , -0.00382199441, 0.0391403027, 2.382993    , 4.9         , 3           , 12          , 0.07260615  , 0
0.374231368 , 0.0284253825, -9.791516   , -5.80853339E-06, 0.00150810427, 0.00026955377, -0.184238911, -0.159970343, 0.422340572 , -0.00382194947, 0.0391553976, 2.38299584  , 4.91        , 3           , 50          , 0           , 0
0.376474619 , 0.02570399  , -9.795127   , -0.0008459114, -4.623594E-05, -0.000584395952, -0.184643388, -0.15990293 , 0.4219361   , -0.003830639, 0.0391549245, 2.38298965  , 4.92        , 3           , 11          , 0.005765617 , 0.005765612
0.361211538 , 0.0349183343, -9.798368   , 4.15709565E-06, -0.0006036362, -0.000581313, -0.184643388, -0.15990293 , 0.4219361   , -0.00383082475, 0.03914886  , 2.382984    , 4.93        , 3           , 12          , 0.07260615  , 0
0.3730955   , 0.0496000834, -9.777878   , 0.000284285372, -3.859361E-05, 0.000268484058, -0.1841715  , -0.1597681  , 0.4219361   , -0.00382787874, 0.0391484872, 2.38298631  , 4.94        , 3           , 50          , 0           , 0
0.3817457   , 0.015242558 , -9.788802   , -0.000135706709, -0.00074537046, 0.000547961332, -0.184306324, -0.1597681  , 0.422340572 , -0.00382902054, 0.03914106  , 2.382992    , 4.95        , 3           , 11          , 0.005765617 , 0.005765612
0.374609828 , 0.0288062058, -9.772077   , 0.00212317379, -0.0005893074, 0.0008412512, -0.184373736, -0.159970343, 0.421868682 , -0.00380746112, 0.0391351953, 2.38300061  , 4.96        , 3           , 12          , 0.07260615  , 0
0.335728139 , 0.0293102246, -9.786384   , 0.002965249 , 0.000401898724, 0.000281646 , -0.184373736, -0.159970343, 0.421868682 , -0.00377769885, 0.03913923  , 2.38300347  , 4.97        , 3           , 50          , 0           , 0
0.386584729 , 0.0301711317, -9.816727   , 0.000420501019, 0.0008070527, -0.00114224292, -0.184441149, -0.1603074  , 0.421868682 , -0.003773943, 0.0391472578, 2.382992    , 4.98        , 3           , 11          , 0.005765617 , 0.005765612
0.381600022 , 0.03736789  , -9.792779   , -0.0012730367, 0.0006548119, -0.0005852867, -0.184036672, -0.159835517, 0.4220035   , -0.003786904, 0.03915378  , 2.38298583  , 4.99        , 3           , 12          , 0.07260615  , 0
0.3707955   , 0.0411167778, -9.796463   , 9.953601E-06, 0.000220623639, 0.00111562375, -0.184575975, -0.15990293 , 0.421868682 , -0.003755912, 0.03908709  , 2.38299918  , 5           , 3           , 50          , 0           , 0
0.384154022 , 0.026491737 , -9.787833   , 0.00044077143, -0.0013251215, 0.000267600146, -0.184575975, -0.15990293 , 0.421868682 , -0.0037513962, 0.0390738472, 2.38300157  , 5.01        , 3           , 11          , 0.00570882624, 0.00570882
0.385872543 , 0.0197001882, -9.786944   , -0.001967027, -7.431754E-05, -0.00129559729, -0.184508562, -0.159835517, 0.421868682 , -0.00377157354, 0.0390730575, 2.38298917  , 5.02        , 3           , 12          , 0.0736990646, 0
0.389764845 , 0.0395158753, -9.789092   , -0.0008486793, 0.00232662773, -0.00043902875, -0.184238911, -0.159700692, 0.422340572 , -0.00378023321, 0.0390963033, 2.3829844   , 5.03        , 3           , 50          , 0           , 0
0.379936218 , 0.0450965166, -9.80406    , 0.00141384953, 0.00177877874, 0.0001357139, -0.184508562, -0.160037756, 0.42207092  , -0.00376604358, 0.0391141   , 2.38298583  , 5.04        , 3           , 11          , 0.00570882624, 0.00570882
0.361563921 , 0.02769006  , -9.79704    , 0.000150514374, 0.000221575538, -1.38676114E-05, -0.184508562, -0.160037756, 0.42207092  , -0.00376454135, 0.0391163044, 2.38298535  , 5.05        , 3           , 12          , 0.0736990646, 0
0.394144416 , 0.0330936871, -9.773267   , -0.0008313802, -0.00105215074, 0.0005446453, -0.184441149, -0.160037756, 0.4220035   , -0.003772641, 0.0391058065, 2.382991    , 5.06        , 3           , 50          , 0           , 0
0.37708196  , 0.0329654738, -9.809556   , 0.00255667348, -0.0007476644, 0.00112595735, -0.184441149, -0.159835517, 0.421868682 , -0.00374663342, 0.03909838  , 2.38300252  , 5.07        , 3           , 11          , 0.00570882624, 0.00570882
0.370155334 , 0.02713338  , -9.795621   , 0.004668972 , 0.0003929191, 0.0005724953, -0.184238911, -0.159970343, 0.422138333 , -0.00369972317, 0.03910233  , 2.38300824  , 5.08        , 3           , 12          , 0.0736990646, 0
0.381480753 , 0.02477346  , -9.804132   , 0.000854163955, 0.0006486965, -0.000574999256, -0.184238911, -0.159970343, 0.422138333 , -0.00369140739, 0.0391087942, 2.38300252  , 5.09        , 3           , 50          , 0           , 0
