Acc X       , Acc Y       , Acc Z       , Gyro X      , Gyro Y      , Gyro Z      , Magn X      , Magn Y      , Magn Z      , Euler X     , Euler Y     , Euler Z     , Time        , Status      , LowRate X   , LowRate Y   , LowRate Z    
-0.008325835, 0.0325082764, -9.80708    , 0.0012245815, 0.00206958246, 0.000403955753, 0.401442617 , 0.160105169 , 0.335041136 , -0.00428949855, 0.0005666741, -0.382421732, 0           , 3           , 11          , 0.0346410163, 0.0346410163
0.0130648958, 0.0421671458, -9.801906   , 0.00209646486, -0.002992862, -0.000447516475, 0.4013752   , 0.160105169 , 0.335041136 , -0.00426853634, 0.0005367264, -0.382426262, 0.01        , 3           , 12          , 0.0346410163, 0
0.0226540118, 0.05283325  , -9.786873   , 0.00150979613, 0.00150836213, 0.000404404826, 0.401173    , 0.160105169 , 0.334704071 , -0.00425343635, 0.0005518272, -0.3824222  , 0.02        , 3           , 14          , 0.0005342362, 0.0006388883
0.0211888775, 0.0496382266, -9.771078   , 0.001247627 , -0.00271702721, -0.0007335708, 0.401105583 , 0.1603074   , 0.33443442  , -0.00424096454, 0.000524625939, -0.3824296  , 0.03        , 3           , 15          , 0           , 0.000155611255
0.00259813247, 0.0467102043, -9.774848   , 0.000671695452, -0.000186754711, 0.00181053788, 0.401307821 , 0.159835517 , 0.3349063   , -0.004234237, 0.000522835 , -0.38241148 , 0.04        , 3           , 50          , 0           , 0
-0.004339249, 0.0364058949, -9.772683   , -0.00131823891, 0.00205238769, -0.00130312121, 0.401307821 , 0.159835517 , 0.3349063   , -0.00424742652, 0.0005433035, -0.3824246  , 0.05        , 3           , 11          , 0.0346410163, 0.0346410163
-0.00196117535, 0.0369181633, -9.798878   , 0.00122409209, 0.00206958  , -0.000443656434, 0.401105583 , 0.160105169 , 0.334636658 , -0.00423518848, 0.0005639805, -0.382428885, 0.06        , 3           , 12          , 0.0346410163, 0
0.0172808524, 0.0511604622, -9.80726    , -0.002426873, -0.00217872788, -0.0010323606, 0.4012404   , 0.160577059 , 0.33443442  , -0.00425946247, 0.000542149355, -0.382439137, 0.07        , 3           , 14          , 0.0005342362, 0.0006388883
0.0102428151, 0.04345271  , -9.772091   , 0.00207465  , 0.001512182 , 0.000407038722, 0.40151003  , 0.15990293  , 0.3348389   , -0.004238713, 0.0005572884, -0.382435322, 0.08        , 3           , 15          , 0           , 0.000155611255
0.00169037329, 0.0462726951, -9.775761   , 0.000668418 , 0.000376373 , 0.0009637933, 0.40151003  , 0.15990293  , 0.3348389   , -0.004232024, 0.0005610931, -0.382425547, 0.09        , 3           , 50          , 0           , 0
0.00139998179, 0.05667566  , -9.782046   , 0.000940434169, 0.00234923582, -0.000162001583, 0.400903344 , 0.160105169 , 0.334569246 , -0.004222627, 0.000584582041, -0.382427454, 0.1         , 3           , 11          , 0.0346410163, 0.0346410163
0.000166508369, 0.0617026538, -9.7965     , 0.001504057 , 0.00263462146, 0.000123603459, 0.401173    , 0.160105169 , 0.334232181 , -0.00420758547, 0.0006109333, -0.382426262, 0.11        , 3           , 12          , 0.0346410163, 0
-0.007402518, 0.04143903  , -9.78263    , 0.0014915996, 0.004887136 , -0.00213322486, 0.4013752   , 0.159700692 , 0.3348389   , -0.004192683, 0.0006597148, -0.38244772 , 0.12        , 3           , 14          , 0.0005342363, 0.0006388882
0.03446106  , 0.0215527341, -9.784652   , 0.00234543532, 0.00376661029, -0.00043578475, 0.4013752   , 0.159700692 , 0.3348389   , -0.00416923175, 0.0006973621, -0.38245225 , 0.13        , 3           , 15          , 0           , 0.000155610891
0.0046876194, 0.0300273169, -9.785749   , 0.000664814143, 0.0009394993, -0.0004480257, 0.400903344 , 0.160037756 , 0.334569246 , -0.00416258629, 0.0007067385, -0.382456779, 0.14        , 3           , 50          , 0           , 0
0.0161635876, 0.04475066  , -9.776108   , 0.002086128 , -0.0007403373, 0.0009686426, 0.4012404   , 0.160105169 , 0.33443442  , -0.004141718, 0.000699375465, -0.382447   , 0.15        , 3           , 11          , 0.0346410163, 0.0346410163
0.02479404  , 0.04913548  , -9.768339   , -0.00157287449, -0.0032992526, 0.000947617 , 0.4013752   , 0.16037482  , 0.335108548 , -0.00415744027, 0.000666422537, -0.382437468, 0.16        , 3           , 12          , 0.0346410163, 0
-0.006451415, 0.0450361   , -9.782155   , -0.00102679548, 0.000364910229, -0.000174257657, 0.4013752   , 0.16037482  , 0.335108548 , -0.0041677095, 0.0006700645, -0.382439137, 0.17        , 3           , 14          , 0.0005342363, 0.0006388882
-0.00559792854, 0.0324854553, -9.80977249 , -0.00216396246, 0.00176509353, -0.00102496822, 0.400835931 , 0.159970343 , 0.334704071 , -0.004189356, 0.0006876724, -0.3824494  , 0.18        , 3           , 15          , 0           , 0.000155610891
0.00175557751, 0.04364744  , -9.800178   , -0.002154694, -0.000205864519, -0.00187561824, 0.401173    , 0.1603074   , 0.334636658 , -0.00421091542, 0.000685535 , -0.382468224, 0.19        , 3           , 50          , 0           , 0
0.00543350633, 0.0432036519, -9.815067   , -0.0001773054, 8.90787342E-05, 0.00124194578, 0.40151003  , 0.160037756 , 0.334771484 , -0.004212681, 0.0006864749, -0.382455826, 0.2         , 3           , 11          , 0.0346694328, 0.03466943
0.0121462662, 0.04216719  , -9.798748   , -0.00186898932, -0.0007670825, -0.00102755742, 0.40151003  , 0.160037756 , 0.334771484 , -0.004231378, 0.0006787609, -0.382466078, 0.21        , 3           , 12          , 0.0346692465, 0
0.0134928692, 0.0439271219, -9.790144   , 0.002080552 , 0.000385922845, 0.000970377645, 0.401307821 , 0.159835517 , 0.334704071 , -0.004210566, 0.000682660844, -0.382456541, 0.22        , 3           , 14          , 0.0005342364, 0.000638888334
-0.0172024816, 0.04793559  , -9.801661   , 0.0006507998, 0.00347357779, -0.00298695848, 0.401173    , 0.160577059 , 0.334501833 , -0.004204079, 0.0007172709, -0.382486343, 0.23        , 3           , 15          , 0           , 0.000155611589
-0.00026735384, 0.03457008  , -9.777632   , -0.00244106515, 0.0009184934, 0.0009501744, 0.401577443 , 0.160037756 , 0.334973723 , -0.00422848342, 0.0007264957, -0.382477045, 0.24        , 3           , 50          , 0           , 0
0.0273738522, 0.0302459411, -9.795517   , 0.00123647461, -0.000464506971, -0.0007300997, 0.401577443 , 0.160037756 , 0.334973723 , -0.00421612337, 0.000721819757, -0.3824842  , 0.25        , 3           , 11          , 0.0346694328, 0.03466943
0.0330689549, 0.0513726547, -9.791319   , 0.00180263387, -0.000460680778, 0.001532834 , 0.4013752   , 0.160105169 , 0.334636658 , -0.004198087, 0.0007172776, -0.382468939, 0.26        , 3           , 12          , 0.0346692465, 0
0.0113590648, 0.05611059  , -9.782879   , 0.00179821427, 0.000102441474, -0.00129167282, 0.401105583 , 0.16024     , 0.334501833 , -0.00418011472, 0.000718247844, -0.3824818  , 0.27        , 3           , 14          , 0.0005342364, 0.000638888334
0.0201315135, 0.06596668  , -9.792261   , -0.0047001536, 0.0009032153, 0.00150471414, 0.401442617 , 0.160037756 , 0.334973723 , -0.004227105, 0.000727342966, -0.3824668  , 0.28        , 3           , 15          , 0           , 0.000155611589
0.0059269825, 0.05037291  , -9.801926   , -0.000176237692, -0.000192487787, 0.0006764368, 0.401442617 , 0.160037756 , 0.334973723 , -0.0042288634, 0.0007254466, -0.382460117, 0.29        , 3           , 50          , 0           , 0
0.010875145 , 0.0467173234, -9.805519   , 0.00294407038, -0.00298712985, 0.0001215093, 0.400970757 , 0.160172582 , 0.334704071 , -0.00419944152, 0.0006955937, -0.3824587  , 0.3         , 3           , 11          , 0.03475512  , 0.0347551219
-0.0136928027, 0.0469091237, -9.777231   , -0.00103376666, 0.0017727362, -0.000172088126, 0.40103817  , 0.16037482  , 0.334569246 , -0.0042097806, 0.0007133137, -0.3824606  , 0.31        , 3           , 12          , 0.03475475  , 0
-0.008018486, 0.03506322  , -9.763226   , -0.00300468877, 0.0006331084, 0.000664569845, 0.4013752   , 0.159835517 , 0.3349063   , -0.004239822, 0.0007196727, -0.382453918, 0.32        , 3           , 14          , 0.000534237362, 0.0006388877
0.00881820451, 0.0344879627, -9.784795   , -0.001595254, 0.000924217 , -0.00158871117, 0.4013752   , 0.159835517 , 0.3349063   , -0.00425578561, 0.000728847459, -0.3824699  , 0.33        , 3           , 15          , 0           , 0.000155611022
0.0122468611, 0.0547465049, -9.782877   , 0.002362815 , 0.0003878327, 0.0006891577, 0.40103817  , 0.15990293  , 0.334569246 , -0.00423215376, 0.0007327551, -0.382462978, 0.34        , 3           , 50          , 0           , 0
-0.0104520768, 0.047375977 , -9.793024   , 0.000399277516, -0.00244119018, -0.000172012456, 0.401105583 , 0.1603074   , 0.334704071 , -0.004228162, 0.000708336069, -0.382464647, 0.35        , 3           , 11          , 0.03475512  , 0.0347551219
0.0113274753, 0.0511751473, -9.791034   , 0.00123614736, -0.000464507873, -0.001295174, 0.40151003  , 0.1603074   , 0.3349063   , -0.004215809, 0.0007036365, -0.382477522, 0.36        , 3           , 12          , 0.03475475  , 0
0.0136681963, 0.0592451   , -9.783751   , 0.00152020575, -0.000462590076, 0.0015315176, 0.40151003  , 0.1603074   , 0.3349063   , -0.00420059729, 0.000699075 , -0.382462263, 0.37        , 3           , 14          , 0.000534237362, 0.0006388877
-0.00209686346, 0.0599442832, -9.802401   , 0.000946335553, 0.00122297718, 0.000401337282, 0.400903344 , 0.160037756 , 0.334636658 , -0.004191131, 0.0007113216, -0.382458448, 0.38        , 3           , 15          , 0           , 0.000155611022
-0.00245226081, 0.03555339  , -9.793916   , 0.00319132046, 0.00405390561, -0.000431400142, 0.401173    , 0.160172582 , 0.334569246 , -0.00415922 , 0.0007518422, -0.38246274 , 0.39        , 3           , 50          , 0           , 0
-0.0141120041, 0.0469416566, -9.78537    , -0.000177634065, 8.907716E-05, 0.00067687087, 0.401577443 , 0.15990293  , 0.334973723 , -0.00416101329, 0.000752750842, -0.382456064, 0.4         , 3           , 11          , 0.0348972343, 0.0348972343
0.0223313477, 0.06499545  , -9.77959251 , -0.00102105876, -0.000761349453, 0.000106543252, 0.401577443 , 0.15990293  , 0.334973723 , -0.004171224, 0.000745141937, -0.382454872, 0.41        , 3           , 12          , 0.0348966755, 0
0.0235906467, 0.05195508  , -9.797264   , 0.00237691659, -0.002427818, 0.0009673552, 0.40103817  , 0.1603074   , 0.334569246 , -0.004147447, 0.0007209043, -0.3824451  , 0.42        , 3           , 14          , 0.000534238759, 0.000638888334
0.0118144993, 0.05209027  , -9.79645    , 0.000950516143, 0.000378281344, 0.000400035031, 0.401173    , 0.16037482  , 0.334501833 , -0.004137939, 0.0007247035, -0.382441282, 0.43        , 3           , 15          , 0           , 0.000155611488
0.0077516106, 0.0534870252, -9.795119   , -0.00101827085, -0.00132447947, 0.000105675361, 0.4013752   , 0.159970343 , 0.335041136 , -0.00414812146, 0.0007114632, -0.3824401  , 0.44        , 3           , 50          , 0           , 0
0.008977853 , 0.04622243  , -9.7861     , -0.00016394601, -0.002445003, 0.00265072775, 0.4013752   , 0.159970343 , 0.335041136 , -0.00414974242, 0.000687123451, -0.382413626, 0.45        , 3           , 11          , 0.0348972343, 0.0348972343
0.007864154 , 0.0268713515, -9.797489   , 0.00153061491, -0.002433543, 0.00265862932, 0.400768518 , 0.159835517 , 0.334569246 , -0.00413441844, 0.000662898354, -0.382386923, 0.46        , 3           , 12          , 0.0348966755, 0
-0.00771078374, 0.0478103533, -9.797522   , -0.00243565487, -0.00020776756, 0.000665901462, 0.401173    , 0.16037482  , 0.334501833 , -0.00415877067, 0.000660848338, -0.382380247, 0.47        , 3           , 14          , 0.000534238759, 0.000638888334
-0.0228995457, 0.066904664 , -9.787163   , -0.000452601467, -0.00132065569, 0.00152099668, 0.401442617 , 0.160037756 , 0.335108548 , -0.00416328525, 0.000647705165, -0.382365   , 0.48        , 3           , 15          , 0           , 0.000155611488
0.000947427936, 0.054449413 , -9.789291   , 0.00151857291, -0.000462598517, -0.00129385758, 0.401442617 , 0.160037756 , 0.335108548 , -0.004148109, 0.0006430255, -0.382377863, 0.49        , 3           , 50          , 0           , 0
0.028792996 , 0.0342964   , -9.79729748 , -0.0007538054, 0.00233777636, 0.000395171635, 0.40103817  , 0.160172582 , 0.334636658 , -0.00415567541, 0.0006664035, -0.382374048, 0.5         , 3           , 11          , 0.0350946561, 0.03509466
0.008932117 , 0.0372583643, -9.803765   , 0.0006552144, 0.00291045429, -0.000162450538, 0.401307821 , 0.16037482  , 0.334704071 , -0.00414912449, 0.00069550093, -0.382375717, 0.51        , 3           , 12          , 0.03509391  , 0
-0.031209752, 0.0521410778, -9.795875   , 0.0009476513, 0.000659838261, -0.00214236742, 0.401307821 , 0.15990293  , 0.3348389   , -0.00413966225, 0.0007020106, -0.382397175, 0.52        , 3           , 14          , 0.0005342412, 0.000638889556
-0.0127740428, 0.0419993252, -9.796228   , -0.0004533308, -0.00160223234, -0.00215242361, 0.401307821 , 0.15990293  , 0.3348389   , -0.004144211, 0.000685899169, -0.382418633, 0.53        , 3           , 15          , 0           , 0.000155610775
0.0215998925, 0.038440302 , -9.796884   , 0.000100534 , 0.0006541091, -0.001863781, 0.4012404   , 0.160442233 , 0.334636658 , -0.00414321758, 0.000692363 , -0.382437229, 0.54        , 3           , 50          , 0           , 0
0.0217968244, 0.05779294  , -9.78279    , 0.002634501 , 0.002360692 , -0.0010017124, 0.4012404   , 0.160711884 , 0.3342996   , -0.00411688024, 0.00071592856, -0.382447481, 0.55        , 3           , 11          , 0.0350946561, 0.03509466
0.00885454  , 0.0331783555, -9.797907   , -0.0007300185, -0.00273040147, -0.00187293882, 0.40151003  , 0.160037756 , 0.335108548 , -0.00412419345, 0.00068854756, -0.382466078, 0.56        , 3           , 12          , 0.03509391  , 0
-0.0007044291, 0.0305709764, -9.794375   , 0.00292078359, 0.00151790492, -0.00156677223, 0.40151003  , 0.160037756 , 0.335108548 , -0.004094997, 0.000703661935, -0.3824818  , 0.57        , 3           , 14          , 0.0005342412, 0.000638889556
0.008889631 , 0.04034839  , -9.783413   , 0.0009613394, -0.001874242, -0.00016851048, 0.400970757 , 0.159970343 , 0.334501833 , -0.00408538431, 0.00068491284, -0.382483482, 0.58        , 3           , 15          , 0           , 0.000155610775
0.011571873 , 0.041627612 , -9.770732   , 0.0009489566, 0.000659844431, 0.00011793217, 0.401173    , 0.1603074   , 0.334636658 , -0.004075894, 0.000691516 , -0.3824823  , 0.59        , 3           , 50          , 0           , 0
0.006823421 , 0.05571109  , -9.782461   , -0.000731665059, -0.00216726633, 0.000105689673, 0.401712269 , 0.16024     , 0.335041136 , -0.004083217, 0.000669846 , -0.3824811  , 0.6         , 3           , 11          , 0.0353460424, 0.0353460424
0.0144017441, 0.04079472  , -9.800997   , -0.000453257118, -0.00132066023, 0.000390845933, 0.401712269 , 0.16024     , 0.335041136 , -0.00408774661, 0.00065665564, -0.382477283, 0.61        , 3           , 12          , 0.0353451036, 0
-0.00426955335, 0.0373550728, -9.786691   , 0.00152914342, -0.00243355148, 0.000115791205, 0.4012404   , 0.160442233 , 0.334569246 , -0.004072455, 0.000632324954, -0.3824761  , 0.62        , 3           , 14          , 0.000534241844, 0.000638889731
-0.0173472334, 0.04380115  , -9.77953148 , 0.00179705222, 0.0006655782, 0.001534569 , 0.401173    , 0.16037482  , 0.33443442  , -0.004054474, 0.00063904305, -0.382460833, 0.63        , 3           , 15          , 0           , 0.000155612317
0.010584794 , 0.0321988463, -9.781175   , 0.00152003812, -0.000462592929, 0.00124897866, 0.401577443 , 0.1603074   , 0.335108548 , -0.004039266, 0.000634467753, -0.3824482  , 0.64        , 3           , 50          , 0           , 0
0.00406720024, 0.0124891354, -9.801193   , -0.0007410968, -0.00019630912, 0.0006738023, 0.401577443 , 0.1603074   , 0.335108548 , -0.004046673, 0.0006325319, -0.382441521, 0.65        , 3           , 11          , 0.0353460424, 0.0353460424
0.0233035013, 0.0316366553, -9.792378   , 0.002356745 , 0.001514089 , -0.00015672014, 0.400970757 , 0.1603074   , 0.334636658 , -0.0040231063, 0.000647666166, -0.382442951, 0.66        , 3           , 12          , 0.0353451036, 0
0.00287902821, 0.023355389 , -9.807938   , 0.0006694801, 9.480491E-05, 0.0003982833, 0.4012404   , 0.160711884 , 0.33443442  , -0.004016409, 0.0006486302, -0.382439137, 0.67        , 3           , 14          , 0.000534241844, 0.000638889731
0.011952607 , 0.0272807125, -9.799264   , -0.002139454, -0.00302151032, 0.000380340731, 0.40151003  , 0.160172582 , 0.335041136 , -0.004037801, 0.000618430669, -0.382435083, 0.68        , 3           , 15          , 0           , 0.000155612317
0.00126347784, 0.04853075  , -9.774851   , -0.00187006267, -0.000485517259, -0.000462049182, 0.40151003  , 0.160172582 , 0.335041136 , -0.00405650446, 0.000613557 , -0.3824396  , 0.69        , 3           , 50          , 0           , 0
0.003880025 , 0.03904434  , -9.78074551 , 0.0012285962, 0.00122488441, 0.000120115947, 0.401173    , 0.159970343 , 0.334704071 , -0.00404420355, 0.0006258108, -0.38243866 , 0.7         , 3           , 11          , 0.0356498361, 0.0356498361
-0.00923078 , 0.0410000719, -9.779934   , 0.00209325738, -0.0021481635, 0.00124900951, 0.4012404   , 0.1603074   , 0.334704071 , -0.004023263, 0.0006043796, -0.382426023, 0.71        , 3           , 12          , 0.0356486924, 0
-0.0110018877, 0.04730268  , -9.769526   , 0.0009538807, -0.0004664191, -0.0010139544, 0.401644856 , 0.160037756 , 0.334973723 , -0.00401373068, 0.0005996747, -0.382436037, 0.72        , 3           , 14          , 0.0005342404, 0.000638889731
0.00300627016, 0.0417588539, -9.779837   , -0.00159074867, 7.952127E-05, -0.00102493889, 0.401644856 , 0.160037756 , 0.334973723 , -0.00402964465, 0.0006004287, -0.3824463  , 0.73        , 3           , 15          , 0           , 0.0001556118
0.008085994 , 0.0471368656, -9.786554   , -0.00271381228, -0.00133594545, -0.00159745128, 0.4012404   , 0.160442233 , 0.334569246 , -0.004056792, 0.0005870049, -0.382462263, 0.74        , 3           , 50          , 0           , 0
0.00136763975, 0.0481688   , -9.80151749 , 0.000671201851, -0.0001867585, 0.0009629249, 0.4013752   , 0.160644472 , 0.3342996   , -0.00405007461, 0.000585176342, -0.382452726, 0.75        , 3           , 11          , 0.0356498361, 0.0356498361
0.00351974578, 0.04314176  , -9.790223   , 0.00067366357, -0.0007498902, 0.000396982068, 0.401577443 , 0.159835517 , 0.3349063   , -0.00404333556, 0.0005776936, -0.382448673, 0.76        , 3           , 12          , 0.0356486924, 0
-0.0001661731, 0.0377765261, -9.792081   , -0.00300664967, 0.0006330969, -0.00272588083, 0.401577443 , 0.159835517 , 0.3349063   , -0.00407341775, 0.0005839138, -0.382475853, 0.77        , 3           , 14          , 0.0005342404, 0.000638889731
0.002544389 , 0.0395250432, -9.784822   , -0.000452677428, -0.0016022292, -0.00102227472, 0.400768518 , 0.159970343 , 0.334569246 , -0.00407795 , 0.000567849958, -0.3824861  , 0.78        , 3           , 15          , 0           , 0.0001556118
-0.0173343681, 0.0384553671, -9.799893   , 0.00095355435, -0.0004664207, -0.00157902925, 0.4012404   , 0.16037482  , 0.334771484 , -0.00406842353, 0.0005631215, -0.382501841, 0.79        , 3           , 50          , 0           , 0
-0.008994863, 0.0550280847, -9.792529   , -0.00129848975, -0.0016079545, 0.0015166091, 0.40151003  , 0.1597681   , 0.334973723 , -0.004081402, 0.0005470826, -0.382486582, 0.8         , 3           , 11          , 0.0360042974, 0.0360042974
0.009041814 , 0.0520768054, -9.782912   , 0.00122474018, 0.0020695792, 0.0006864901, 0.40151003  , 0.1597681   , 0.334973723 , -0.004069151, 0.000567806361, -0.3824799  , 0.81        , 3           , 12          , 0.03600295  , 0
-0.008696257, 0.0482025929, -9.776735   , 0.00179124007, 0.00151026319, -0.00128950609, 0.40103817  , 0.16037482  , 0.334636658 , -0.00405124668, 0.0005828564, -0.382492781, 0.82        , 3           , 14          , 0.0005342406, 0.0006388922
-0.02303873 , 0.0275872052, -9.768795   , -0.000468753133, 0.00177655264, 0.000113079572, 0.401173    , 0.160644472 , 0.33443442  , -0.00405593356, 0.000600626459, -0.382491827, 0.83        , 3           , 15          , 0           , 0.000155614442
-0.0101400856, 0.04100768  , -9.77903652 , 0.0009481413, 0.00065983797, -0.00129475875, 0.4012404   , 0.160105169 , 0.335108548 , -0.00404646 , 0.0006071723, -0.3825047  , 0.84        , 3           , 50          , 0           , 0
0.0136451507, 0.05833372  , -9.781042   , 0.00038787027, 9.28964E-05 , 0.00180965161, 0.4012404   , 0.160105169 , 0.335108548 , -0.00404257 , 0.0006081744, -0.382486582, 0.85        , 3           , 11          , 0.0360042974, 0.0360042974
0.00343339238, 0.0372692421, -9.787988   , -0.00355535373, -0.0024679373, -0.001320603, 0.4012404   , 0.1603074   , 0.334636658 , -0.00407813257, 0.000583441753, -0.3824997  , 0.86        , 3           , 12          , 0.03600295  , 0
0.0144834183, 0.020402927 , -9.775769   , 0.00151306926, 0.00094523  , 0.00125114631, 0.4013752   , 0.16037482  , 0.334704071 , -0.004062994, 0.0005929447, -0.3824873  , 0.87        , 3           , 14          , 0.0005342406, 0.0006388922
0.0111018009, 0.028228417 , -9.809662   , -0.000752247637, 0.00205620937, 0.0006772716, 0.40151003  , 0.159835517 , 0.335041136 , -0.00407051248, 0.0006135341, -0.382480621, 0.88        , 3           , 15          , 0           , 0.000155614442
0.0241687726, 0.05249768  , -9.826185   , 0.00179763162, 0.00038400662, 0.000121445373, 0.40151003  , 0.159835517 , 0.335041136 , -0.004052535, 0.0006173791, -0.382479429, 0.89        , 3           , 50          , 0           , 0
0.00455291569, 0.05439328  , -9.785196   , 0.00292701251, 0.0003916449, -0.000438356539, 0.400970757 , 0.160172582 , 0.334569246 , -0.00402327 , 0.000621277 , -0.382483721, 0.9         , 3           , 11          , 0.03640755  , 0.03640755
-0.00329059549, 0.04588456  , -9.777157   , 0.00349874678, -0.0007307892, 0.00182284135, 0.401105583 , 0.160442233 , 0.334636658 , -0.003988271, 0.000614042161, -0.3824656  , 0.91        , 3           , 12          , 0.0364059843, 0
0.0155386841, 0.0236380417, -9.801964   , 9.217032E-05, 0.00234349724, -0.00186117576, 0.40151003  , 0.159970343 , 0.334973723 , -0.00398736075, 0.000637402758, -0.3824842  , 0.92        , 3           , 14          , 0.000534240855, 0.0006388923
0.01648534  , 0.0415147245, -9.754424   , -0.00187456992, 0.000359173748, -0.00102581945, 0.40151003  , 0.159970343 , 0.334973723 , -0.00400611246, 0.0006409535, -0.38249445 , 0.93        , 3           , 15          , 0           , 0.000155609348
-0.0105075277, 0.0531336032, -9.76091    , 0.000110366673, -0.001035277, 0.0006764542, 0.4012404   , 0.16024     , 0.334704071 , -0.00400500465, 0.000630627852, -0.382487774, 0.94        , 3           , 50          , 0           , 0
-0.0357901752, 0.0517052971, -9.784613   , -0.0015911645, 0.000361088547, 0.0006707223, 0.401173    , 0.160172582 , 0.334636658 , -0.00402091164, 0.0006342657, -0.3824811  , 0.95        , 3           , 11          , 0.03640755  , 0.03640755
0.03265951  , 0.0545375422, -9.79176    , -0.00329711474, 0.00232057646, -0.00215951656, 0.401644856 , 0.159970343 , 0.335175961 , -0.00405389676, 0.000657384051, -0.3825028  , 0.96        , 3           , 12          , 0.0364059843, 0
0.00706139766, 0.0323215   , -9.805156   , 0.0012276168, 0.0012248772, -0.00157510629, 0.401644856 , 0.159970343 , 0.335175961 , -0.00404163171, 0.000669569068, -0.38251853 , 0.97        , 3           , 14          , 0.000534240855, 0.0006388923
-0.00416719448, 0.047257714 , -9.779869   , 0.0003977169, -0.00215963065, -0.000454114343, 0.401105583 , 0.159835517 , 0.33443442  , -0.00403765729, 0.0006479546, -0.382522821, 0.98        , 3           , 15          , 0           , 0.000155609348
0.0233621933, 0.03793311  , -9.786476   , 0.00179689  , 0.0006655748, 0.00125203445, 0.401105583 , 0.160577059 , 0.334501833 , -0.004019681, 0.000654660631, -0.382510424, 0.99        , 3           , 50          , 0           , 0
0.0254102033, 0.0180921629, -9.79739    , 0.000388936 , -0.000188670354, 0.00124414172, 0.401779681 , 0.160105169 , 0.335175961 , -0.00401579542, 0.0006528233, -0.382498026, 1           , 3           , 11          , 0.0368575938, 0.0368575938
0.0217490979, 0.05373711  , -9.784163   , 0.00348891271, 0.0009585941, -0.000717398361, 0.401779681 , 0.160105169 , 0.335175961 , -0.003980911, 0.0006623804, -0.382505178, 1.01        , 3           , 12          , 0.0368558019, 0
0.00385010336, 0.0287540387, -9.806551   , 0.00404359354, 0.0032149395, 0.0009839316, 0.401105583 , 0.16037482  , 0.334636658 , -0.003940468, 0.0006945685, -0.3824954  , 1.02        , 3           , 14          , 0.0005342426, 0.0006388924
0.00265948  , 0.04899166  , -9.782521   , 0.00292020384, 0.00179947109, -0.000153655492, 0.4012404   , 0.16037482  , 0.334569246 , -0.0039112675, 0.000712557 , -0.382497072, 1.03        , 3           , 15          , 0           , 0.000155615475
-0.02571587 , 0.05569709  , -9.798982   , -0.000168947619, -0.00160031579, 0.00123933819, 0.4013752   , 0.159970343 , 0.334973723 , -0.00391294854, 0.000696602568, -0.382484674, 1.04        , 3           , 50          , 0           , 0
0.00228221063, 0.04771911  , -9.805128   , -0.000164513622, -0.00272658141, -0.000740159652, 0.4013752   , 0.159970343 , 0.334973723 , -0.003914598, 0.000669307949, -0.382491827, 1.05        , 3           , 11          , 0.0368575938, 0.0368575938
0.014760254 , 0.03937396  , -9.782469   , 0.00491424557, -0.00156593858, 0.00041543055, 0.40103817  , 0.160037756 , 0.33443442  , -0.00386545272, 0.000653664931, -0.382487774, 1.06        , 3           , 12          , 0.0368558019, 0
0.003176031 , 0.0494843721, -9.796528   , 0.000103231752, 0.000372547423, 0.000396080228, 0.401307821 , 0.16037482  , 0.334704071 , -0.003864418, 0.0006574057, -0.382483721, 1.07        , 3           , 14          , 0.0005342426, 0.0006388924
-0.001915644, 0.04052586  , -9.798411   , -0.0007423284, 8.525397E-05, 0.0009567703, 0.401577443 , 0.160037756 , 0.334973723 , -0.003871835, 0.0006582951, -0.382474184, 1.08        , 3           , 15          , 0           , 0.000155615475
-0.00663738139, 0.0279240981, -9.79171848 , 0.000951906259, 9.67122E-05 , 0.000399597047, 0.401577443 , 0.160037756 , 0.334973723 , -0.003862313, 0.000659277663, -0.382470369, 1.09        , 3           , 50          , 0           , 0
0.0108438535, 0.0498164222, -9.787879   , 0.00152438064, -0.00130729226, 0.00153021573, 0.40103817  , 0.1603074   , 0.334501833 , -0.0038470712, 0.0006462485, -0.382454872, 1.1         , 3           , 11          , 0.03735235  , 0.03735235
-0.00235353038, 0.0481311977, -9.777593   , 0.002081775 , 0.000104350562, 0.000687406864, 0.401173    , 0.16037482  , 0.334704071 , -0.003826249, 0.0006473183, -0.382447958, 1.11        , 3           , 12          , 0.0373503268, 0
0.0192665048, 0.0352861471, -9.790134   , -0.00241893227, -0.003586555, 0.0006606948, 0.401442617 , 0.159970343 , 0.3348389   , -0.00385043374, 0.000611478463, -0.382441282, 1.12        , 3           , 14          , 0.0005342443, 0.0006388947
0.00503391447, 0.0521790758, -9.799214   , 0.0003865614, 9.288767E-05, -0.000450644438, 0.401442617 , 0.159970343 , 0.3348389   , -0.00384657132, 0.000612390053, -0.3824458  , 1.13        , 3           , 15          , 0           , 0.000155610935
-0.00575953536, 0.06084678  , -9.789769   , 0.0003877922, -0.0001886781, -0.000733615831, 0.400835931 , 0.160037756 , 0.334704071 , -0.00384269771, 0.000610475 , -0.3824532  , 1.14        , 3           , 50          , 0           , 0
-0.00402277149, 0.05094554  , -9.803356   , -0.00158280367, -0.00132830429, 0.0006681171, 0.4013752   , 0.159970343 , 0.334569246 , -0.00385852181, 0.000597217761, -0.3824463  , 1.15        , 3           , 11          , 0.03735235  , 0.03735235
-0.000190198421, 0.0355253   , -9.793446   , 0.000663827232, 0.000939488236, -0.00214325078, 0.40151003  , 0.160172582 , 0.335041136 , -0.00385189615, 0.0006065298, -0.382468   , 1.16        , 3           , 12          , 0.0373503268, 0
-0.005701433, 0.033740636 , -9.780389   , 0.00122998632, 0.0009433144, 0.000119682867, 0.40151003  , 0.160172582 , 0.335041136 , -0.003839596, 0.000615967554, -0.3824668  , 1.17        , 3           , 14          , 0.0005342443, 0.0006388947
-0.0283852145, 0.02415064  , -9.80139351 , -0.0007439616, 8.52439E-05 , -0.00186859979, 0.40103817  , 0.1603074   , 0.334636658 , -0.003847047, 0.000616748235, -0.3824854  , 1.18        , 3           , 15          , 0           , 0.000155610935
-0.001119799, 0.0332847051, -9.794819   , 0.0003783605, 0.00178227911, -0.00016550337, 0.401105583 , 0.160442233 , 0.334636658 , -0.003843265, 0.0006345645, -0.382487059, 1.19        , 3           , 50          , 0           , 0
0.0205794238, 0.0343406871, -9.781993   , -0.00159641844, 0.00148734287, 0.00123752677, 0.40151003  , 0.15990293  , 0.334973723 , -0.00385922682, 0.0006494502, -0.382474661, 1.2         , 3           , 11          , 0.0378896855, 0.03788968
-0.000895759964, 0.05399836  , -9.782979   , -0.00244549359, 0.0014816043, -0.00187433616, 0.40151003  , 0.15990293  , 0.334973723 , -0.003883694, 0.000664193532, -0.3824935  , 1.21        , 3           , 12          , 0.0378874168, 0
-0.00669604354, 0.05681519  , -9.795216   , 0.00151438429, 0.000382084923, -0.00129255978, 0.4012404   , 0.1603074   , 0.334501833 , -0.00386855938, 0.0006679643, -0.3825066  , 1.22        , 3           , 14          , 0.0005342452, 0.00063890015
0.00635963725, 0.0610636957, -9.762556   , 0.00206062663, 0.00404624827, -0.00213189726, 0.401105583 , 0.1603074   , 0.334771484 , -0.00384796783, 0.0007083441, -0.382528067, 1.23        , 3           , 15          , 0           , 0.00015561546
-0.00106441136, 0.0427029431, -9.778057   , 0.00153225451, -0.00299669034, 0.0006799952, 0.401173    , 0.1597681   , 0.335041136 , -0.00383264013, 0.0006784035, -0.382521152, 1.24        , 3           , 50          , 0           , 0
-0.000196911409, 0.0390906669, -9.780324   , -0.001013932, -0.002169186, 0.00038690705, 0.401173    , 0.1597681   , 0.335041136 , -0.003842777, 0.0006567268, -0.3825171  , 1.25        , 3           , 11          , 0.0378896855, 0.03788968
-0.004293223, 0.0279625338, -9.811137   , -0.0007379859, -0.000759448158, 0.00123800617, 0.400835931 , 0.160037756 , 0.33443442  , -0.003850148, 0.0006491801, -0.3825047  , 1.26        , 3           , 12          , 0.0378874168, 0
0.001298734 , 0.04320311  , -9.800635   , -0.00242172112, -0.00302343 , 0.0006615582, 0.401173    , 0.16037482  , 0.334569246 , -0.00387436128, 0.0006189716, -0.382498026, 1.27        , 3           , 14          , 0.0005342452, 0.00063890015
-0.008568526, 0.0545550026, -9.787557   , 0.00236494257, -0.000175313035, -0.000441864366, 0.4013752   , 0.160172582 , 0.334973723 , -0.0038507143, 0.0006172013, -0.382502317, 1.28        , 3           , 15          , 0           , 0.00015561546
0.006077891 , 0.03539343  , -9.776224   , -0.00214954186, -0.001050567, -0.000181699637, 0.4013752   , 0.160172582 , 0.334973723 , -0.003872211, 0.000606688671, -0.382504225, 1.29        , 3           , 50          , 0           , 0
0.005502223 , 0.0254794676, -9.778078   , -0.00101393508, -0.00216919 , 0.0003869087, 0.40103817  , 0.160037756 , 0.334636658 , -0.00388236647, 0.000584987865, -0.3825004  , 1.3         , 3           , 11          , 0.0384674445, 0.038467437
0.00437814556, 0.0372903571, -9.797473   , -0.002719648, 7.187098E-05, 0.000382478553, 0.4012404   , 0.16024     , 0.334636658 , -0.003909561, 0.000585721631, -0.382496357, 1.31        , 3           , 12          , 0.03846491  , 0
0.00745349843, 0.03092796  , -9.794764   , -0.000735112, -0.00160415354, -0.00102359371, 0.4012404   , 0.160037756 , 0.334973723 , -0.003916918, 0.00056964  , -0.3825066  , 1.32        , 3           , 14          , 0.000534248131, 0.00063890405
-0.0137804337, 0.0316622071, -9.804866   , -0.000447272323, -0.00272850459, -0.00130655 , 0.4012404   , 0.160037756 , 0.334973723 , -0.003921398, 0.000542303955, -0.382519484, 1.33        , 3           , 15          , 0           , 0.000155613845
-0.0241477825, 0.0420883745, -9.783208   , 0.00180245878, -0.00046069728, 0.00125029415, 0.40103817  , 0.159970343 , 0.33443442  , -0.00390336616, 0.0005377459, -0.3825071  , 1.34        , 3           , 50          , 0           , 0
-0.0119259842, 0.04238844  , -9.780852   , -0.00102450873, -0.000198238078, -0.001022741, 0.401442617 , 0.16037482  , 0.334367    , -0.003913617, 0.0005357235, -0.382517338, 1.35        , 3           , 11          , 0.0384674445, 0.038467437
0.00500769727, 0.04947973  , -9.801485   , 0.000667753455, 0.0003763542, -0.000166359008, 0.4013752   , 0.15990293  , 0.335041136 , -0.00390694 , 0.0005394805, -0.382519   , 1.36        , 3           , 12          , 0.03846491  , 0
-0.0173204225, 0.037127614 , -9.807582   , -0.00216381112, 0.0017650784, -0.0007424337, 0.4013752   , 0.15990293  , 0.335041136 , -0.003928582, 0.0005571021, -0.3825264  , 1.37        , 3           , 14          , 0.000534248131, 0.00063890405
-0.008858949, 0.0297704041, -9.796249   , -0.00131497346, 0.00148924394, -0.000456379319, 0.400970757 , 0.159970343 , 0.334569246 , -0.003941735, 0.000571976532, -0.382530928, 1.38        , 3           , 15          , 0           , 0.000155613845
0.00324523356, 0.0624845922, -9.771613   , -0.000458676252, -0.000194413471, 0.0006751176, 0.4012404   , 0.16024     , 0.334704071 , -0.003946317, 0.0005700591, -0.382524252, 1.39        , 3           , 50          , 0           , 0
0.00127028953, 0.0476435721, -9.779374   , -0.0024321368, -0.00105248846, -0.000465553283, 0.401442617 , 0.160037756 , 0.3353108   , -0.00397065468, 0.0005594755, -0.382528782, 1.4         , 3           , 11          , 0.03908346  , 0.0390834548
0.00185427442, 0.0210376959, -9.786259   , -0.0010144267, -0.002169199, -0.000460704381, 0.401442617 , 0.160037756 , 0.3353108   , -0.00398080144, 0.0005377653, -0.3825333  , 1.41        , 3           , 12          , 0.0390806571, 0
0.0163930915, 0.0276031159, -9.776629   , 0.00123014324, 0.000943299 , 0.000402216625, 0.40103817  , 0.160037756 , 0.33443442  , -0.00396849774, 0.0005472142, -0.3825295  , 1.42        , 3           , 14          , 0.000534250343, 0.00063891086
0.008005895 , 0.0421621129, -9.782961   , 0.00123990141, -0.00102765649, 0.000399179058, 0.401442617 , 0.16024     , 0.334636658 , -0.003956097, 0.0005369535, -0.3825252  , 1.43        , 3           , 15          , 0           , 0.000155614689
0.00441981666, 0.0458047763, -9.780262   , -0.002144386, -0.00189526821, 0.00151222409, 0.401644856 , 0.159835517 , 0.3349063   , -0.0039775325, 0.00051806093, -0.3825102  , 1.44        , 3           , 50          , 0           , 0
0.003996687 , 0.04047792  , -9.804693   , 0.00234485744, 0.00348501327, -0.00382667221, 0.401644856 , 0.159835517 , 0.3349063   , -0.00395410461, 0.000552759 , -0.382548571, 1.45        , 3           , 11          , 0.03908346  , 0.0390834548
0.009303918 , 0.0336166248, -9.795642   , 0.00235427474, 0.00207719975, 0.000409220054, 0.401173    , 0.160105169 , 0.33443442  , -0.00393055938, 0.000573547033, -0.382544518, 1.46        , 3           , 12          , 0.0390806571, 0
-0.007459573, 0.03737565  , -9.781743   , -0.002151356, -0.000487442885, 0.00151439372, 0.4013752   , 0.16037482  , 0.334501833 , -0.00395206455, 0.0005687325, -0.3825295  , 1.47        , 3           , 14          , 0.000534250343, 0.00063891086
0.00530807  , 0.03997756  , -9.794742   , -0.000743641343, 8.522923E-05, -0.00130352844, 0.401442617 , 0.15990293  , 0.334973723 , -0.00395950861, 0.0005695331, -0.382542372, 1.48        , 3           , 15          , 0           , 0.000155614689
-0.009663599, 0.0428069681, -9.779026   , -0.00469196634, -0.0007861984, 0.00121956994, 0.401442617 , 0.15990293  , 0.334973723 , -0.004006421, 0.0005617197, -0.3825302  , 1.49        , 3           , 50          , 0           , 0
0.002421924 , 0.032730557 , -9.776715   , -0.00555711752, 0.00258684345, -0.0007569288, 0.400835931 , 0.160105169 , 0.334232181 , -0.0040619974, 0.000587536662, -0.382537842, 1.5         , 3           , 11          , 0.0397356   , 0.0397355966
0.007499814 , 0.0305191353, -9.80742    , -0.000168629165, -0.0016003364, 0.00180442119, 0.401307821 , 0.1603074   , 0.334569246 , -0.004063673, 0.000571606855, -0.382519722, 1.51        , 3           , 12          , 0.03973251  , 0
-0.0157489963, 0.055584684 , -9.800262   , 0.000388112356, -0.000188696344, -0.000168537532, 0.401307821 , 0.160105169 , 0.334973723 , -0.00405979343, 0.000569713069, -0.3825214  , 1.52        , 3           , 14          , 0.000534250459, 0.000638914469
-0.00524435937, 0.0319533944, -9.787173   , -0.00243083178, -0.00105248578, 0.00179475336, 0.401307821 , 0.160105169 , 0.334973723 , -0.004084091, 0.0005592614, -0.382503271, 1.53        , 3           , 15          , 0           , 0.000155607559
-0.0272741411, 0.0399287827, -9.800866   , 0.00152683631, -0.0018704437, 0.0009642762, 0.40103817  , 0.160105169 , 0.334367    , -0.004068818, 0.0005405963, -0.382493734, 1.54        , 3           , 50          , 0           , 0
0.00487852562, 0.04625061  , -9.780255   , 0.0006625015, 0.00150260585, 0.000400457764, 0.401577443 , 0.160172582 , 0.334704071 , -0.004062191, 0.0005556386, -0.38248992 , 1.55        , 3           , 11          , 0.0397356   , 0.0397355966
0.0220644921, 0.04692522  , -9.772437   , -0.00272046612, 7.185666E-05, -0.00103020237, 0.4013752   , 0.1597681   , 0.335108548 , -0.00408940157, 0.000556315 , -0.382500172, 1.56        , 3           , 12          , 0.03973251  , 0
-0.00381074473, 0.0404790826, -9.778086   , 0.0020717734, 0.00179371354, -0.00213536085, 0.4013752   , 0.1597681   , 0.335108548 , -0.00406869641, 0.000574164966, -0.3825214  , 1.57        , 3           , 14          , 0.000534250459, 0.000638914469
-0.0145093687, 0.0487772748, -9.793049   , 0.000112329319, -0.00159843336, -0.0007370991, 0.400903344 , 0.1603074   , 0.334501833 , -0.004067577, 0.0005581508, -0.382528782, 1.58        , 3           , 15          , 0           , 0.000155607559
-0.00130268559, 0.0580579862, -9.781158   , -0.00102271652, -0.000198239926, 0.00208517746, 0.40103817  , 0.160105169 , 0.334569246 , -0.004077792, 0.000556253246, -0.3825078  , 1.59        , 3           , 50          , 0           , 0
0.018416645 , 0.04516163  , -9.77202    , 0.000661682163, 0.00150259607, -0.00101223029, 0.40151003  , 0.159970343 , 0.3349063   , -0.00407120166, 0.000571205048, -0.382518053, 1.6         , 3           , 11          , 0.04042177  , 0.0404217653
-0.00225365814, 0.04955117  , -9.797472   , 0.000666353561, 0.000657903031, -0.0001659196, 0.40151003  , 0.159970343 , 0.3349063   , -0.004064539, 0.000577777158, -0.382519722, 1.61        , 3           , 12          , 0.0404183753, 0
-1.14673749E-05, 0.0503996871, -9.789316   , -0.00187745993, 0.00120384723, 0.0012357831, 0.401173    , 0.1603074   , 0.334232181 , -0.004083306, 0.0005898659, -0.382507563, 1.62        , 3           , 14          , 0.000534254068, 0.000638920348
0.00578389876, 0.04088362  , -9.797447   , 0.00124219619, -0.00159079849, -0.000449294661, 0.401307821 , 0.160037756 , 0.334704071 , -0.00407088734, 0.00057393976, -0.382511854, 1.63        , 3           , 15          , 0           , 0.000155608359
0.00220447127, 0.0133612938, -9.785837   , -0.001030254, 0.000928005145, -0.00130353728, 0.4013752   , 0.1597681   , 0.334973723 , -0.00408119662, 0.0005831666, -0.382524967, 1.64        , 3           , 50          , 0           , 0
0.005190125 , 0.0291695818, -9.800663   , 0.00238198787, -0.00355411251, 0.000118010263, 0.4013752   , 0.1597681   , 0.334973723 , -0.004057376, 0.0005476306, -0.382523775, 1.65        , 3           , 11          , 0.04042177  , 0.0404217653
-0.0190950632, 0.0487835668, -9.779073   , 0.005186903 , 0.000406898878, 0.000419792166, 0.400970757 , 0.16037482  , 0.334367    , -0.004005505, 0.000551716366, -0.382519484, 1.66        , 3           , 12          , 0.0404183753, 0
-0.00135830231, 0.0508713126, -9.790681   , -0.00243016845, -0.00161563209, -0.00187910255, 0.401442617 , 0.160172582 , 0.334569246 , -0.004029817, 0.0005354845, -0.38253808 , 1.67        , 3           , 14          , 0.000534254068, 0.000638920348
0.01158572  , 0.03762168  , -9.787021   , -0.00495987851, -0.00388533738, -0.000199201211, 0.401173    , 0.1597681   , 0.3349063   , -0.004079417, 0.0004966234, -0.38254    , 1.68        , 3           , 15          , 0           , 0.000155608359
0.0169621836, 0.036172688 , -9.777493   , -0.001309077, 0.000362968771, 0.000106965177, 0.401173    , 0.1597681   , 0.3349063   , -0.004092507, 0.0005002575, -0.382539034, 1.69        , 3           , 50          , 0           , 0
0.03928405  , 0.04762704  , -9.772756   , 0.00151223992, 0.000945196662, -0.000161527074, 0.40103817  , 0.160105169 , 0.334367    , -0.00407738658, 0.0005096955, -0.3825407  , 1.7         , 3           , 11          , 0.04113991  , 0.04113991
0.01066401  , 0.0385119356, -9.780244   , 0.0009468967, 0.000941374165, -0.00101177348, 0.4012404   , 0.16024     , 0.334771484 , -0.004067923, 0.000519068 , -0.382550716, 1.71        , 3           , 12          , 0.0411362   , 0
0.0005431203, 0.06208197  , -9.77660751 , -0.000460892217, 8.712994E-05, -0.0007371224, 0.4013752   , 0.160172582 , 0.335041136 , -0.00407253625, 0.0005199093, -0.3825581  , 1.72        , 3           , 14          , 0.000534254359, 0.0006389217
0.00135585479, 0.0575326122, -9.768484   , -0.0004545005, -0.00103912642, 0.0006738291, 0.4013752   , 0.160172582 , 0.335041136 , -0.00407707738, 0.0005095456, -0.382551432, 1.73        , 3           , 15          , 0           , 0.000155600574
0.008991235 , 0.0466796234, -9.787907   , -0.000444001053, -0.00329165021, -0.0004597921, 0.400970757 , 0.159970343 , 0.33443442  , -0.00408151932, 0.000476610876, -0.382555723, 1.74        , 3           , 50          , 0           , 0
-0.0131466268, 0.049657587 , -9.791226   , 0.00010937429, -0.00103531114, -0.00101876177, 0.400903344 , 0.1603074   , 0.3349063   , -0.0040804306, 0.0004662162, -0.382565975, 1.75        , 3           , 11          , 0.04113991  , 0.04113991
-0.0107202362, 0.0275192764, -9.791301   , -0.001577816, -0.00217302283, 0.00207951316, 0.401307821 , 0.159970343 , 0.335041136 , -0.00409619929, 0.000444571167, -0.382545   , 1.76        , 3           , 12          , 0.0411362   , 0
-0.003051008, 0.03231598  , -9.768623   , -0.00300633744, 0.0006330666, -0.00216079433, 0.401307821 , 0.159970343 , 0.335041136 , -0.0041262717, 0.000450813124, -0.3825667  , 1.77        , 3           , 14          , 0.000534254359, 0.0006389217
-0.006024722, 0.03742169  , -9.800263   , -0.00242705434, -0.002178762, -0.00131488743, 0.400970757 , 0.159970343 , 0.334232181 , -0.00415054755, 0.000428971252, -0.3825798  , 1.78        , 3           , 15          , 0           , 0.000155600574
-0.0156834  , 0.0208966546, -9.817129   , -0.00101968041, -0.00104294787, 0.00010612022, 0.40103817  , 0.1603074   , 0.334771484 , -0.00416074367, 0.000418546377, -0.3825786  , 1.79        , 3           , 50          , 0           , 0
0.00911739748, 0.01828958  , -9.799322   , -0.000461142074, 0.000368694949, 0.00124106754, 0.401307821 , 0.159835517 , 0.334973723 , -0.004165338, 0.0004222549, -0.3825662  , 1.8         , 3           , 11          , 0.04188806  , 0.04188806
0.0437482633, 0.0421661139, -9.774551   , 0.00151075888, 0.00150832767, 0.00209963415, 0.401307821 , 0.159835517 , 0.334973723 , -0.004150221, 0.000437425333, -0.382545233, 1.81        , 3           , 12          , 0.041884    , 0
0.005690606 , 0.0408080257, -9.774849   , 0.0026366997, 0.00207909313, 0.000410544861, 0.400903344 , 0.16037482  , 0.3342996   , -0.00412385259, 0.0004582331, -0.382541418, 1.82        , 3           , 14          , 0.0005342522, 0.0006389273
0.00627024  , 0.0484934449, -9.78114    , 0.00151642389, 0.0001004957, -0.000162835116, 0.401173    , 0.160442233 , 0.334771484 , -0.00410868926, 0.0004592313, -0.382542849, 1.83        , 3           , 15          , 0           , 0.000155606816
0.0107520316, 0.0390296131, -9.800129   , -0.00103008887, 0.000927998859, -0.00102099823, 0.401442617 , 0.15990293  , 0.335108548 , -0.004118995, 0.000468469079, -0.3825531  , 1.84        , 3           , 50          , 0           , 0
0.007312382 , 0.0241183564, -9.782137   , -0.0024454263, 0.00176314916, 0.0006689437, 0.401442617 , 0.15990293  , 0.335108548 , -0.00414344529, 0.000486128178, -0.382546425, 1.85        , 3           , 11          , 0.04188806  , 0.04188806
0.00413947739, 0.0245991554, -9.7799     , -0.00526009966, -0.000226906966, 0.000370199268, 0.40103817  , 0.160105169 , 0.3342996   , -0.004196045, 0.0004838746, -0.382542849, 1.86        , 3           , 12          , 0.041884    , 0
0.00933937  , 0.0336453542, -9.804229   , -0.00103287678, 0.00149112917, -0.00102013035, 0.401307821 , 0.160172582 , 0.334771484 , -0.004206378, 0.0004987429, -0.3825531  , 1.87        , 3           , 14          , 0.0005342522, 0.0006389273
-0.03131048 , 0.0444715135, -9.795908   , -0.00128751248, -0.00386051112, 0.00123060774, 0.4012404   , 0.159970343 , 0.335108548 , -0.00421924749, 0.0004601899, -0.382540464, 1.88        , 3           , 15          , 0           , 0.000155606816
0.0170780644, 0.04162279  , -9.788318   , -0.00103173475, 0.00149113452, 0.0009576318, 0.4012404   , 0.159970343 , 0.335108548 , -0.00422956 , 0.000475141656, -0.382531166, 1.89        , 3           , 50          , 0           , 0
0.0166279953, 0.04787922  , -9.768861   , -0.00102648116, 0.000364871637, 0.000390824163, 0.400970757 , 0.16024     , 0.334367    , -0.00423980132, 0.000478801579, -0.3825271  , 1.9         , 3           , 11          , 0.0426642932, 0.0426642932
-0.0124851242, 0.042307578 , -9.755094   , 0.000390902569, -0.000751840358, -0.000169401625, 0.40151003  , 0.16037482  , 0.334636658 , -0.004235893, 0.00047127626, -0.382528782, 1.91        , 3           , 12          , 0.04265988  , 0
-0.0188959688, 0.033396773 , -9.76647949 , 0.002947752 , -0.00383186783, -0.0007273975, 0.4012404   , 0.160037756 , 0.3349063   , -0.004206419, 0.0004329271, -0.382535934, 1.92        , 3           , 14          , 0.0005342483, 0.0006389283
0.00540545769, 0.0583568327, -9.759411   , 0.00123105  , 0.0006617142, -0.000445818616, 0.4012404   , 0.160037756 , 0.3349063   , -0.00419411063, 0.000439525349, -0.382540464, 1.93        , 3           , 15          , 0           , 0.00015560379
0.006204411 , 0.0426375456, -9.783877   , -0.003003217, 6.99312659E-05, -0.0015965905, 0.401173    , 0.1603074   , 0.334232181 , -0.00422415 , 0.000440157542, -0.382556438, 1.94        , 3           , 50          , 0           , 0
0.0234679263, 0.0549801   , -9.757479   , -0.0008852678, 0.000365826621, 0.000391482637, 0.4013752   , 0.16037482  , 0.334636658 , -0.00423300033, 0.000443832454, -0.3825524  , 1.95        , 3           , 11          , 0.0426642932, 0.0426642932
4.23816964E-05, 0.0602630265, -9.770743   , 0.00137066178, 0.00108501909, 0.000403102982, 0.4013752   , 0.1597681   , 0.335041136 , -0.004219292, 0.00045469965, -0.382548571, 1.96        , 3           , 12          , 0.04265988  , 0
-0.009031722, 0.05053473  , -9.797972   , 0.001940394 , 0.000103361213, 0.000404218066, 0.4013752   , 0.1597681   , 0.335041136 , -0.004199887, 0.000455750182, -0.382544518, 1.97        , 3           , 14          , 0.0005342483, 0.0006389283
0.00375929568, 0.05449462  , -9.812321   , 0.00208616024, -0.000881163171, -0.0001617171, 0.401105583 , 0.160172582 , 0.33443442  , -0.00417902647, 0.000446931954, -0.3825462  , 1.98        , 3           , 15          , 0           , 0.00015560379
0.0136695076, 0.06103156  , -9.778319   , 0.0001018765, 0.000513291161, -0.0007338408, 0.401307821 , 0.160172582 , 0.3348389   , -0.004178011, 0.0004520341, -0.382553339, 1.99        , 3           , 50          , 0           , 0
0.04694267  , 0.04304179  , -9.777687   , -0.000747503538, 0.0009299084, -0.0007371418, 0.4013752   , 0.160037756 , 0.3348389   , -0.004185534, 0.000461300224, -0.382560968, 2           , 3           , 11          , 0.0434668   , 0.0434668027
0.00715574436, 0.04400305  , -9.790644   , -0.00116384751, -0.000480780465, -0.000176211892, 0.4013752   , 0.160037756 , 0.3348389   , -0.00419717375, 0.000456485053, -0.382562637, 2.01        , 3           , 12          , 0.0434619971, 0
-0.0222945139, 0.0461184   , -9.780464   , -0.000452285982, -0.00160226633, -0.00031592403, 0.401307821 , 0.1603074   , 0.3342996   , -0.00420169858, 0.000440449163, -0.382565737, 2.02        , 3           , 14          , 0.0005342568, 0.0006389287
0.00367215485, 0.05263862  , -9.796962   , 0.0015251541, -0.00172968011, -0.000730728556, 0.401173    , 0.160172582 , 0.3348389   , -0.00418645 , 0.0004231218, -0.3825729  , 2.03        , 3           , 15          , 0           , 0.000155604735
0.0158780441, 0.0515867434, -9.795065   , 0.00180396985, -0.000883072265, 0.000260771223, 0.401577443 , 0.160105169 , 0.334973723 , -0.00416840939, 0.000414302 , -0.382570267, 2.04        , 3           , 50          , 0           , 0
0.0044354964, 0.0493882857, -9.772562   , 0.00095562177, -0.0006072355, 0.0008223292, 0.401577443 , 0.160105169 , 0.334973723 , -0.00415885029, 0.000408263935, -0.38256216 , 2.05        , 3           , 11          , 0.0434668   , 0.0434668027
0.0203055982, 0.0469888151, -9.785107   , 0.000243733928, 0.000514248852, 0.000396966439, 0.401105583 , 0.159835517 , 0.334164768 , -0.00415641069, 0.000413422938, -0.3825581  , 2.06        , 3           , 12          , 0.0434619971, 0
0.0176066626, 0.04837416  , -9.785122   , 0.000809736957, 0.000236502558, -2.46397813E-05, 0.401173    , 0.160442233 , 0.334771484 , -0.00414831331, 0.0004157871, -0.382558346, 2.07        , 3           , 14          , 0.0005342568, 0.0006389287
-0.00422634557, 0.0454243869, -9.771289   , 0.00165537861, 0.0005237963, -0.000444061152, 0.401442617 , 0.160037756 , 0.334973723 , -0.00413176138, 0.000421006582, -0.382562876, 2.08        , 3           , 15          , 0           , 0.000155604735
-0.006936572, 0.04412248  , -9.777191   , 0.000522431044, 0.00122007017, -2.44379644E-05, 0.401442617 , 0.160037756 , 0.334973723 , -0.00412653666, 0.0004332062, -0.3825631  , 2.09        , 3           , 50          , 0           , 0
-0.00779536925, 0.0392611548, -9.804337   , -0.000457705726, -0.000476004148, -3.164605E-05, 0.400903344 , 0.160442233 , 0.334097356 , -0.00413115 , 0.000428450643, -0.382563353, 2.1         , 3           , 11          , 0.04429383  , 0.044293832
0.0112108439, 0.04215363  , -9.791524   , 0.000110099063, -0.00103531359, 0.000252657424, 0.401307821 , 0.16037482  , 0.3349063   , -0.004130048, 0.000418108015, -0.382560968, 2.11        , 3           , 12          , 0.0442886129, 0
0.002051563 , 0.0332490131, -9.795247   , 0.001099987 , -0.00131019368, 0.000256832747, 0.401307821 , 0.159835517 , 0.335108548 , -0.004119047, 0.0004050167, -0.382558346, 2.12        , 3           , 14          , 0.0005342637, 0.0006389276
-6.708782E-05, 0.04321301  , -9.798838   , 0.000108868269, -0.0007537477, 0.000535628933, 0.401307821 , 0.159835517 , 0.335108548 , -0.00411795639, 0.000397501455, -0.382552862, 2.13        , 3           , 15          , 0           , 0.000155599948
0.0133718513, 0.03400936  , -9.792445   , -0.000462547556, 0.0006502596, 0.00124150829, 0.401173    , 0.16037482  , 0.33443442  , -0.00412257668, 0.000404055347, -0.382540464, 2.14        , 3           , 50          , 0           , 0
0.0334603935, 0.04908588  , -9.783642   , -0.00130227965, -0.00104486453, -0.000177733411, 0.401307821 , 0.16037482  , 0.3348389   , -0.00413560029, 0.00039359933, -0.382542133, 2.15        , 3           , 11          , 0.04429383  , 0.044293832
0.0139900763, 0.0510994047, -9.777905   , -0.00143992645, -0.00174973183, -3.820792E-05, 0.4013752   , 0.159835517 , 0.335041136 , -0.004149999, 0.0003761007, -0.3825426  , 2.16        , 3           , 12          , 0.0442886129, 0
-0.00458737556, 0.0459503978, -9.79208    , -0.00129457552, -0.00245268643, 0.00109151553, 0.4013752   , 0.159835517 , 0.335041136 , -0.00416294066, 0.000351619266, -0.3825314  , 2.17        , 3           , 14          , 0.0005342637, 0.0006389276
0.00295887049, 0.03814964  , -9.779852   , -0.00241702376, -0.00400893576, 0.000377517455, 0.401173    , 0.160037756 , 0.33443442  , -0.004187109, 0.0003115462, -0.3825276  , 2.18        , 3           , 15          , 0           , 0.000155599948
-0.00396139175, 0.02830556  , -9.780398   , -0.00186561339, -0.00147103472, -0.00116989948, 0.400903344 , 0.160509646 , 0.334704071 , -0.004205769, 0.000296786835, -0.382539272, 2.19        , 3           , 50          , 0           , 0
0.0125863189, 0.0425979048, -9.794224   , -4.38606548E-05, 0.001357033 , -0.00129828509, 0.4013752   , 0.159835517 , 0.3353782   , -0.00420621224, 0.000310315 , -0.3825524  , 2.2         , 3           , 11          , 0.0451437347, 0.04514374
0.0103830807, 0.0440127142, -9.80463    , -0.000465372723, 0.00107260665, -2.92757941E-05, 0.4013752   , 0.159835517 , 0.3353782   , -0.00421086559, 0.00032104  , -0.382552624, 2.21        , 3           , 12          , 0.0451380759, 0
-0.00475284737, 0.0364429578, -9.782178   , -0.00130195345, -0.00104486058, 0.000387325068, 0.400768518 , 0.160442233 , 0.334232181 , -0.00422388362, 0.0003106079, -0.3825488  , 2.22        , 3           , 14          , 0.000534263731, 0.0006389251
-0.007501279, 0.03644915  , -9.774515   , 0.0006729433, -0.000609143055, 0.000397194439, 0.4013752   , 0.16024     , 0.3349063   , -0.004217153, 0.000304533227, -0.382544756, 2.23        , 3           , 15          , 0           , 0.000155616319
-0.00259789545, 0.032757286 , -9.767261   , 0.0005251306, 0.000656943244, -0.000166586164, 0.401307821 , 0.159970343 , 0.335175961 , -0.00421190262, 0.000311095675, -0.382546425, 2.24        , 3           , 50          , 0           , 0
-0.00637966 , 0.0513431467, -9.779417   , 0.00038933  , -0.000470272877, -0.0004515177, 0.401307821 , 0.159970343 , 0.335175961 , -0.00420801062, 0.000306374 , -0.382550955, 2.25        , 3           , 11          , 0.0451437347, 0.04514374
-0.0120529281, 0.03201953  , -9.783156   , -0.000310382457, -0.00174209021, -0.000315494, 0.401105583 , 0.160172582 , 0.334232181 , -0.004211115, 0.000288940035, -0.382554054, 2.26        , 3           , 12          , 0.0451380759, 0
-0.00157726556, 0.06713471  , -9.795587   , -0.00144333 , -0.00104581635, 0.000104129234, 0.401105583 , 0.1603074   , 0.3348389   , -0.00422554743, 0.0002784863, -0.382552862, 2.27        , 3           , 14          , 0.000534263731, 0.0006389251
0.00269987434, 0.0481316857, -9.79518    , -0.0001759759, -0.0003333091, -3.012849E-05, 0.40151003  , 0.160105169 , 0.334973723 , -0.00422730763, 0.000275151979, -0.3825531  , 2.28        , 3           , 15          , 0           , 0.000155616319
0.0121943187, 0.0466696322, -9.796018   , 0.00109670951, -0.0007470634, -0.000589928066, 0.40151003  , 0.160105169 , 0.334973723 , -0.004216342, 0.000267656462, -0.382559061, 2.29        , 3           , 50          , 0           , 0
0.009300059 , 0.0385233574, -9.778898   , 0.000256395258, -0.00216062 , -0.0005960462, 0.400970757 , 0.16024     , 0.3342996   , -0.00421379926, 0.000246019 , -0.382565022, 2.3         , 3           , 11          , 0.04601494  , 0.04601494
0.0184950121, 0.0452251248, -9.791003   , -0.00242272229, -0.003023461, -0.00103366515, 0.40151003  , 0.159970343 , 0.334771484 , -0.00423802854, 0.000215740991, -0.382575035, 2.31        , 3           , 12          , 0.04600881  , 0
0.0135522485, 0.04352888  , -9.80596352 , -0.00257545849, -0.0006311112, -0.0004655603, 0.40151003  , 0.160172582 , 0.335041136 , -0.00426378474, 0.000209410209, -0.3825798  , 2.32        , 3           , 14          , 0.0005342675, 0.000638926344
0.0160347484, 0.0419681631, -9.753521   , -0.002017864, 0.00092131854, 0.000245803822, 0.40151003  , 0.160172582 , 0.335041136 , -0.004283962, 0.000218633912, -0.382577181, 2.33        , 3           , 15          , 0           , 0.000155614
0.009892978 , 0.04398779  , -9.795593   , -0.00285801128, -0.000492235937, 0.0005222208, 0.40103817  , 0.16037482  , 0.33443442  , -0.004312542, 0.000213734165, -0.382571936, 2.34        , 3           , 50          , 0           , 0
0.000293320045, 0.0342058428, -9.8052     , -0.00116254576, -0.0007623436, -0.000317923783, 0.4013752   , 0.160442233 , 0.3349063   , -0.0043241675, 0.000206096855, -0.382575274, 2.35        , 3           , 11          , 0.04601494  , 0.04601494
0.0100557376, 0.02991061  , -9.769889   , -0.000181348179, 0.0006521651, -0.000876219652, 0.401644856 , 0.15990293  , 0.334973723 , -0.00432598265, 0.00021258078, -0.382583857, 2.36        , 3           , 12          , 0.04600881  , 0
0.00729224645, 0.05214796  , -9.79784    , -4.29671672E-05, 0.00135703583, 0.000255673425, 0.401644856 , 0.15990293  , 0.334973723 , -0.00432641152, 0.000226162025, -0.382581472, 2.37        , 3           , 14          , 0.0005342675, 0.000638926344
0.0129999509, 0.0349729061, -9.809167   , 0.00108891272, 0.0009423286, 0.000401558849, 0.40103817  , 0.160442233 , 0.33443442  , -0.004315521, 0.000235602551, -0.382577419, 2.38        , 3           , 15          , 0           , 0.000155614
-0.009260932, 0.0329413377, -9.798498   , 0.0010895282, 0.0008015455, 0.0002600731, 0.401307821 , 0.16024     , 0.3349063   , -0.00430462556, 0.000243629154, -0.3825748  , 2.39        , 3           , 50          , 0           , 0
-0.0033275506, 0.03871301  , -9.791198   , 0.001363757 , 0.00249285041, 0.0005465263, 0.401712269 , 0.16024     , 0.335041136 , -0.004290973, 0.0002685986, -0.382569551, 2.4         , 3           , 11          , 0.04690597  , 0.04690597
0.01320428  , 0.0267319717, -9.774849   , 0.0006589207, 0.0022065097, 0.000260262634, 0.401712269 , 0.16024     , 0.335041136 , -0.00428438326, 0.000290674681, -0.382567167, 2.41        , 3           , 12          , 0.0468993373, 0
0.0195595734, 0.0560557321, -9.795019   , -0.000181797877, 0.000792952254, -0.000452201464, 0.40103817  , 0.16037482  , 0.334367    , -0.004286202, 0.0002985848, -0.3825717  , 2.42        , 3           , 14          , 0.000534264953, 0.0006389229
0.01578632  , 0.0434781164, -9.798715   , -0.001171567, 0.00120861887, 0.0009565274, 0.401105583 , 0.160172582 , 0.3349063   , -0.004297915, 0.0003107119, -0.38256216 , 2.43        , 3           , 15          , 0           , 0.000155618909
-0.00105812587, 0.03601279  , -9.801135   , -0.00144399109, -0.000764245342, 0.00137597916, 0.4013752   , 0.159970343 , 0.335243374 , -0.004312351, 0.000303128734, -0.382548332, 2.44        , 3           , 50          , 0           , 0
0.011726182 , 0.0435380526, -9.80236149 , 0.00152231345, -0.00102575857, 0.000400491816, 0.4013752   , 0.159970343 , 0.335243374 , -0.00429712655, 0.000292888377, -0.382544279, 2.45        , 3           , 11          , 0.04690597  , 0.04690597
0.007583615 , 0.0430848449, -9.787479   , 0.00293075526, -0.000171511158, 0.00125599082, 0.400970757 , 0.16024     , 0.334164768 , -0.004267815, 0.000291226956, -0.382531881, 2.46        , 3           , 12          , 0.0468993373, 0
-0.006959847, 0.045442678 , -9.767242   , 0.000817433058, -0.00117131369, 0.00124459493, 0.400903344 , 0.16024     , 0.334771484 , -0.004259637, 0.00027956703, -0.382519245, 2.47        , 3           , 14          , 0.000534264953, 0.0006389229
0.0140883774, 0.06055241  , -9.771538   , 0.000106612861, -0.0003313961, 0.000253723381, 0.4013752   , 0.159835517 , 0.335175961 , -0.00425857 , 0.00027626392, -0.382516623, 2.48        , 3           , 15          , 0           , 0.000155618909
0.00775897456, 0.0508149   , -9.805526   , -3.2672735E-05, -0.0007546995, -3.01235232E-05, 0.4013752   , 0.159835517 , 0.335175961 , -0.004258896, 0.000268715841, -0.382516861, 2.49        , 3           , 50          , 0           , 0
0.0196047481, 0.0240292642, -9.798314   , -0.00186381734, -0.00175258832, -0.0004640002, 0.400970757 , 0.1603074   , 0.334232181 , -0.0042775576, 0.000251196616, -0.3825214  , 2.5         , 3           , 11          , 0.04781542  , 0.0478154272
0.009377539 , 0.0399251878, -9.793355   , -0.0018645142, -0.00161180587, -0.000463783246, 0.4013752   , 0.160105169 , 0.334704071 , -0.004296204, 0.000235058833, -0.382525921, 2.51        , 3           , 12          , 0.047808256 , 0
-0.002370948, 0.0396364331, -9.800678   , -0.0007334573, -0.00174494553, 0.0006714174, 0.4013752   , 0.159835517 , 0.3348389   , -0.00430353638, 0.000217638561, -0.382519245, 2.52        , 3           , 14          , 0.000534269435, 0.000638917962
0.009869835 , 0.0403982326, -9.801485   , -0.00102170487, -0.0006205963, 0.0002480301, 0.4013752   , 0.159835517 , 0.3348389   , -0.004313753, 0.000211443286, -0.382516623, 2.53        , 3           , 15          , 0           , 0.000155610513
-0.006531746, 0.0422929041, -9.771319   , -0.000320761668, 0.000369655318, -0.000170965068, 0.400970757 , 0.160105169 , 0.334097356 , -0.004316961, 0.000215132313, -0.38251853 , 2.54        , 3           , 50          , 0           , 0
-0.0103653986, 0.05369512  , -9.79390049 , 0.000530041 , -0.000187741374, 0.00110353646, 0.401173    , 0.16024     , 0.3348389   , -0.004311659, 0.000213302672, -0.382507324, 2.55        , 3           , 11          , 0.04781542  , 0.0478154272
0.0281872787, 0.06177737  , -9.782273   , 0.00066838495, 0.0003763435, 0.0009637941, 0.401442617 , 0.159700692 , 0.335041136 , -0.00430497248, 0.00021710759, -0.3824978  , 2.56        , 3           , 12          , 0.047808256 , 0
0.0125488034, 0.0372113064, -9.80238152 , 0.00122725475, 0.001506422 , 0.000261819921, 0.401442617 , 0.159700692 , 0.335041136 , -0.00429269858, 0.000232182909, -0.382495165, 2.57        , 3           , 14          , 0.000534269435, 0.000638917962
0.010646007 , 0.03939005  , -9.773008   , -0.0007461221, 0.0006483541, -0.0007375815, 0.401105583 , 0.160105169 , 0.3342996   , -0.00430016126, 0.000238634762, -0.382502556, 2.58        , 3           , 15          , 0           , 0.000155610513
0.00414360035, 0.0526484177, -9.801478   , -0.002017777, 0.00063975557, -0.0020149264, 0.40103817  , 0.160037756 , 0.3349063   , -0.004320344, 0.000244945521, -0.382522821, 2.59        , 3           , 50          , 0           , 0
0.0152731752, 0.04254182  , -9.786972   , 0.000658178236, 0.002206517 , -0.00101115124, 0.401105583 , 0.1597681   , 0.335041136 , -0.004313783, 0.0002669983, -0.382533073, 2.6         , 3           , 11          , 0.048742    , 0.0487420037
-0.005813189, 0.0563398   , -9.791143   , 0.00136924314, 0.00136660063, 0.0004035267, 0.401105583 , 0.1597681   , 0.335041136 , -0.00430008955, 0.000280681532, -0.38252902 , 2.61        , 3           , 12          , 0.04873426  , 0
0.0207609031, 0.047878243 , -9.782839   , 0.000106152496, -0.0001906014, 0.0006777514, 0.400970757 , 0.1603074   , 0.334232181 , -0.004299025, 0.000278804626, -0.382522345, 2.62        , 3           , 14          , 0.000534273044, 0.0006389119
-0.0006342111, 0.0373231247, -9.789826   , 0.000102830643, 0.0005133121, 0.0009613737, 0.4013752   , 0.1603074   , 0.334704071 , -0.004297995, 0.000283978879, -0.3825128  , 2.63        , 3           , 15          , 0           , 0.000155613991
0.003149582 , 0.0490165837, -9.791557   , -0.0001788992, 0.000370619557, 0.0009598398, 0.401173    , 0.159970343 , 0.334973723 , -0.00429978129, 0.000287726172, -0.382503033, 2.64        , 3           , 50          , 0           , 0
-0.0046333354, 0.03921791  , -9.802505   , 0.000391122565, -0.0007518228, 0.0002543943, 0.401173    , 0.159970343 , 0.334973723 , -0.00429586926, 0.000280218956, -0.3825004  , 2.65        , 3           , 11          , 0.048742    , 0.0487420037
-0.0063405754, 0.04869671  , -9.797507   , 0.00010582617, -0.000190603008, 0.000112676462, 0.400768518 , 0.160105169 , 0.334232181 , -0.004294811, 0.000278317835, -0.382499456, 2.66        , 3           , 12          , 0.04873426  , 0
0.0171791166, 0.0497389846, -9.786927   , 0.000101399477, 0.000654091069, -0.00030982797, 0.40151003  , 0.1603074   , 0.3349063   , -0.004293798, 0.000284845184, -0.382502556, 2.67        , 3           , 14          , 0.000534273044, 0.0006389119
0.0125853056, 0.04884599  , -9.773859   , 0.00108890724, 0.0009423429, 0.000401558966, 0.401307821 , 0.159970343 , 0.334771484 , -0.00428290758, 0.000294285826, -0.3824985  , 2.68        , 3           , 15          , 0           , 0.000155613991
0.0107664037, 0.0408266559, -9.797861   , 0.00137391477, 0.0005219077, 0.00124983734, 0.401307821 , 0.159970343 , 0.334771484 , -0.00426916452, 0.000299558218, -0.3824861  , 2.69        , 3           , 50          , 0           , 0
0.00667893  , 0.041757144 , -9.792012   , 0.00151385542, 0.000663647661, 0.000261834968, 0.401173    , 0.160442233 , 0.3342996   , -0.00425404962, 0.000306232367, -0.382483482, 2.7         , 3           , 11          , 0.04968445  , 0.0496844575
0.007134335 , 0.0453247577, -9.781147   , 0.00165351166, 0.0009461669, -1.96101664E-05, 0.4013752   , 0.160442233 , 0.334636658 , -0.00423751445, 0.0003156931, -0.382483721, 2.71        , 3           , 12          , 0.04967611  , 0
0.0101886364, 0.0331427455, -9.792021   , 0.000665017636, 0.000939482 , -2.42194346E-05, 0.401307821 , 0.159835517 , 0.335041136 , -0.00423086435, 0.000325086934, -0.382483959, 2.72        , 3           , 14          , 0.0005342777, 0.0006389069
0.0116762277, 0.0466220342, -9.780203   , -0.00229164772, -0.000910746749, -0.00046467394, 0.401307821 , 0.159835517 , 0.335041136 , -0.0042537814, 0.00031595974, -0.3824885  , 2.73        , 3           , 15          , 0           , 0.00015561076
-0.005600024, 0.03471551  , -9.802078   , -0.000730796135, -0.00244885078, -0.000742354954, 0.400835931 , 0.16024     , 0.3342996   , -0.00426109228, 0.000291439646, -0.38249588 , 2.74        , 3           , 50          , 0           , 0
-0.006872612, 0.04997686  , -9.774003   , 0.00110042549, -0.00145095668, -0.000167201273, 0.401173    , 0.160105169 , 0.3348389   , -0.00425008871, 0.000276923121, -0.382497549, 2.75        , 3           , 11          , 0.04968445  , 0.0496844575
0.006161658 , 0.07288058  , -9.786916   , -0.000172831191, -0.0010372051, -0.000596282771, 0.4012404   , 0.160172582 , 0.334973723 , -0.004251818, 0.000266525778, -0.3825035  , 2.76        , 3           , 12          , 0.04967611  , 0
0.0037975926, 0.0558647178, -9.81728649 , 0.0009548669, -0.000607217255, -0.0004490953, 0.4012404   , 0.160172582 , 0.334973723 , -0.00424227072, 0.000260434579, -0.382508039, 2.77        , 3           , 14          , 0.0005342777, 0.0006389069
-0.00227977987, 0.0495300069, -9.791144   , 0.00151742192, -4.0264873E-05, 0.000402018719, 0.401105583 , 0.16037482  , 0.334367    , -0.00422709575, 0.000260049 , -0.382504   , 2.78        , 3           , 15          , 0           , 0.00015561076
0.0246013254, 0.06051029  , -9.795413   , -0.000315401354, -0.000615809055, 0.000675128249, 0.4012404   , 0.16037482  , 0.334973723 , -0.004230248, 0.00025391957, -0.3824973  , 2.79        , 3           , 50          , 0           , 0
0.003978785 , 0.0440342128, -9.788859   , -0.00158338307, -0.00118752813, 0.00095086  , 0.401105583 , 0.160037756 , 0.334973723 , -0.004246142, 0.000242111331, -0.382487774, 2.8         , 3           , 11          , 0.0506416447, 0.05064165
0.00130835548, 0.0512452126, -9.777099   , -0.00116178941, -0.0009031012, -0.0001768805, 0.401105583 , 0.160037756 , 0.334973723 , -0.00425776048, 0.0002330729, -0.382489443, 2.81        , 3           , 12          , 0.0506326519, 0
0.00497312751, 0.0481126681, -9.797422   , -0.00200906978, -0.000908831134, -0.0001808313, 0.401105583 , 0.160172582 , 0.334367    , -0.004277852, 0.000223976967, -0.3824911  , 2.82        , 3           , 14          , 0.000534289749, 0.0006389018
0.00416991953, 0.0580259562, -9.790607   , -0.002712104, -0.001476735, 0.000238814755, 0.401105583 , 0.160172582 , 0.334704071 , -0.004304972, 0.000209220161, -0.382488728, 2.83        , 3           , 15          , 0           , 0.000155622445
-0.004026206, 0.0589770675, -9.776655   , 0.0005360117, -0.00159555511, -0.00059386983, 0.401307821 , 0.160105169 , 0.334771484 , -0.00429961272, 0.000193239073, -0.3824947  , 2.84        , 3           , 50          , 0           , 0
0.00617609266, 0.0421682559, -9.778455   , 0.00179242133, 0.00122868759, -0.00157248543, 0.401307821 , 0.160105169 , 0.334771484 , -0.00428169174, 0.000205458433, -0.382510424, 2.85        , 3           , 11          , 0.0506416447, 0.05064165
-0.00597814 , 0.0526353456, -9.762685   , -0.00145872717, 0.0019106369, -0.00116273912, 0.400835931 , 0.160105169 , 0.334232181 , -0.00429628137, 0.000224514748, -0.3825221  , 2.86        , 3           , 12          , 0.0506326519, 0
0.002512569 , 0.0368211567, -9.785737   , -0.00187179365, -6.31797E-05, 0.000244935218, 0.400903344 , 0.160105169 , 0.3348389   , -0.004314998, 0.000223893614, -0.382519722, 2.87        , 3           , 14          , 0.000534289749, 0.0006389018
-0.00632479927, 0.0549584068, -9.78121    , -0.00102238508, -0.000339011371, 0.00151987071, 0.401307821 , 0.160037756 , 0.3349063   , -0.0043252185, 0.000220569258, -0.382504463, 2.88        , 3           , 15          , 0           , 0.000155622445
-0.0178320687, 0.04333414  , -9.77321    , 0.000250871381, -0.00075276295, 0.00194895244, 0.401307821 , 0.160037756 , 0.3349063   , -0.004322706, 0.000213126128, -0.3824849  , 2.89        , 3           , 50          , 0           , 0
-0.0131099317, 0.02387315  , -9.77235    , 0.000815724 , -0.00103051972, -0.000450416439, 0.400970757 , 0.160105169 , 0.334029943 , -0.004314594, 0.000202774652, -0.382489443, 2.9         , 3           , 11          , 0.0516124852, 0.0516124852
0.0132943681, 0.03260752  , -9.77798748 , -0.00116523833, -0.000339979277, -0.00130616245, 0.401173    , 0.1603074   , 0.335041136 , -0.00432624854, 0.000199318689, -0.382502317, 2.91        , 3           , 12          , 0.0516027957, 0
-0.0004851725, 0.03967564  , -9.818743   , -0.00103423512, 0.00177271466, -0.0008784433, 0.40151003  , 0.159970343 , 0.3349063   , -0.00433659367, 0.000217007473, -0.382511139, 2.92        , 3           , 14          , 0.0005342981, 0.000638906844
-0.0137439026, 0.0357089527, -9.800781   , -0.0008876089, 0.000647408655, -0.00116205809, 0.40151003  , 0.159970343 , 0.3349063   , -0.004345472, 0.000223431154, -0.382522821, 2.93        , 3           , 15          , 0           , 0.0001556225
0.0139087634, 0.0470163673, -9.771144   , -0.00115203974, -0.002874062, -0.00017991809, 0.400970757 , 0.160172582 , 0.334164768 , -0.00435699336, 0.000194682973, -0.382524729, 2.94        , 3           , 50          , 0           , 0
-0.00269639585, 0.06072339  , -9.763983   , 0.0005252594, 0.0006569628, 0.000115945164, 0.4013752   , 0.160105169 , 0.335041136 , -0.0043517407, 0.000201257644, -0.3825233  , 2.95        , 3           , 11          , 0.0516124852, 0.0516124852
0.007906348 , 0.04118875  , -9.761723   , 0.000942381856, 0.00192686939, -0.000303932815, 0.401105583 , 0.1597681   , 0.335041136 , -0.004342317, 0.000220512913, -0.382526636, 2.96        , 3           , 12          , 0.0516027957, 0
-0.000341533683, 0.0300464723, -9.774035   , 0.000535632833, -0.00145477627, -2.85780516E-05, 0.401105583 , 0.1597681   , 0.335041136 , -0.00433696155, 0.000205964025, -0.382526875, 2.97        , 3           , 14          , 0.0005342981, 0.000638906844
0.0142336218, 0.0353022777, -9.777518   , -0.0008758859, -0.00160510908, -0.000176648435, 0.400970757 , 0.160509646 , 0.334367    , -0.00434572 , 0.000189905462, -0.382528543, 2.98        , 3           , 15          , 0           , 0.0001556225
0.0007949807, 0.05254049  , -9.758114   , -0.000457614136, -0.000616768666, -0.00102076656, 0.4012404   , 0.16024     , 0.3348389   , -0.004350298, 0.000183693424, -0.382538557, 2.99        , 3           , 50          , 0           , 0
-0.00135984272, 0.05131642  , -9.78887    , 0.000241645583, 0.0007958334, -0.000732775836, 0.4013752   , 0.160037756 , 0.334973723 , -0.00434788642, 0.000191624044, -0.3825462  , 3           , 3           , 11          , 0.0525959544, 0.05259596
-0.008957152, 0.0229955744, -9.794018   , -0.00201920746, 0.0012029045, 0.00038748933, 0.4013752   , 0.160037756 , 0.334973723 , -0.004368077, 0.000203669944, -0.382542372, 3.01        , 3           , 12          , 0.0525855348, 0
0.0248546973, 0.015336155 , -9.781135   , -0.00215956056, 0.00106116757, 0.000669151254, 0.40103817  , 0.160442233 , 0.334164768 , -0.00438967068, 0.000214310945, -0.3825357  , 3.02        , 3           , 14          , 0.0005342986, 0.000638905971
0.03757059  , 0.0486201532, -9.793555   , -3.922403E-05, 0.00051235914, -0.0004519894, 0.4012404   , 0.16024     , 0.3348389   , -0.0043900637, 0.000219414767, -0.38254    , 3.03        , 3           , 15          , 0           , 0.000155631278
0.0220776871, 0.0420260578, -9.791442   , 0.000802235736, 0.00164434826, -0.000870108954, 0.401173    , 0.1603074   , 0.334771484 , -0.004382044, 0.0002358199, -0.3825488  , 3.04        , 3           , 50          , 0           , 0
0.0285104364, 0.0202305913, -9.773403   , -0.0006065395, 0.00107167091, 0.000111319561, 0.401173    , 0.1603074   , 0.334771484 , -0.00438810932, 0.000246541284, -0.382547855, 3.05        , 3           , 11          , 0.0525959544, 0.05259596
0.009867545 , 0.0372719243, -9.810989   , -0.00130903989, 0.0003629838, 0.000248211174, 0.400903344 , 0.16024     , 0.334164768 , -0.00440119859, 0.000250182056, -0.382545233, 3.06        , 3           , 12          , 0.0525855348, 0
-0.0126582906, 0.05235918  , -9.791212   , -0.00144910417, 8.04625452E-05, -0.000176687376, 0.401307821 , 0.160509646 , 0.334973723 , -0.004415691, 0.000250978861, -0.38254714 , 3.07        , 3           , 14          , 0.0005342986, 0.000638905971
-0.00627435371, 0.0224898513, -9.787219   , -0.0008786745, -0.0010419779, -0.000175789261, 0.401442617 , 0.15990293  , 0.334704071 , -0.00442447746, 0.000240551308, -0.3825488  , 3.08        , 3           , 15          , 0           , 0.000155631278
0.0116611049, 0.04125357  , -9.793784   , 0.000106008149, -0.000331381918, -0.00073517015, 0.401442617 , 0.15990293  , 0.334704071 , -0.00442341948, 0.000237205066, -0.3825562  , 3.09        , 3           , 50          , 0           , 0
0.0134714618, 0.04524882  , -9.780646   , 0.0009501383, 0.000378269353, -0.0001650527, 0.401105583 , 0.160105169 , 0.334232181 , -0.004413874, 0.000241018832, -0.382557869, 3.1         , 3           , 11          , 0.05359112  , 0.05359112
0.0114994626, 0.0344273336, -9.776187   , 0.000670455047, -4.59851E-05, 0.0009631293, 0.401173    , 0.16037482  , 0.334636658 , -0.00440716743, 0.000240601366, -0.3825481  , 3.11        , 3           , 12          , 0.0535799153, 0
-0.0101288883, 0.0410167538, -9.781748   , 0.00101549167, 0.00164579472, 0.00160308846, 0.4013752   , 0.16024     , 0.3348389   , -0.004397008, 0.000257129665, -0.382532358, 3.12        , 3           , 14          , 0.0005342902, 0.00063889887
-0.00208667852, 0.06620143  , -9.784746   , 0.00123649521, -0.000182945369, 0.00181315886, 0.4013752   , 0.16024     , 0.3348389   , -0.004384639, 0.000255379768, -0.382514238, 3.13        , 3           , 15          , 0           , 0.0001556243
-0.00674870936, 0.05364807  , -9.792518   , -0.0006716656, 1.53325345E-05, 0.0005331763, 0.400835931 , 0.160172582 , 0.334164768 , -0.004391354, 0.000255556544, -0.382508755, 3.14        , 3           , 50          , 0           , 0
0.00663886266, 0.04306373  , -9.777995   , -0.00108997454, -0.00111379393, 0.000105658779, 0.4012404   , 0.1603074   , 0.334771484 , -0.00440225331, 0.00024442334, -0.382507563, 3.15        , 3           , 11          , 0.05359112  , 0.05359112
0.00576547161, 0.03863693  , -9.800167   , 4.53087778E-05, -0.0022324142, 0.000109190776, 0.4013752   , 0.15990293  , 0.334973723 , -0.0044018  , 0.000222104136, -0.382506371, 3.16        , 3           , 12          , 0.0535799153, 0
0.008349639 , 0.0282315835, -9.801096   , 0.000169794192, 0.00114732166, 0.000115056471, 0.4013752   , 0.15990293  , 0.334973723 , -0.004400102, 0.0002335824, -0.382505178, 3.17        , 3           , 14          , 0.0005342902, 0.00063889887
0.006043881 , 0.0322414227, -9.778046   , -0.000755986141, 0.002760114 , 0.000325174682, 0.400768518 , 0.160172582 , 0.3338277   , -0.004407661, 0.000261197565, -0.382502317, 3.18        , 3           , 15          , 0           , 0.0001556243
0.008837617 , 0.03807449  , -9.778      , 0.002148565 , 0.000808735145, 0.000194366963, 0.401173    , 0.16037482  , 0.334704071 , -0.00438617542, 0.000269293378, -0.3825004  , 3.19        , 3           , 50          , 0           , 0
7.697847E-05, 0.05404216  , -9.799243   , 0.0010911898, 0.0005200133, 0.000754053239, 0.401105583 , 0.15990293  , 0.335041136 , -0.00437523425, 0.000274547783, -0.382492781, 3.2         , 3           , 11          , 0.0545970872, 0.0545970947
-0.0109932125, 0.0464170054, -9.774501   , 0.00143233745, 0.002774918 , -0.000512247556, 0.401105583 , 0.15990293  , 0.335041136 , -0.004360913, 0.000302274362, -0.382498026, 3.21        , 3           , 12          , 0.05458505  , 0
0.0152555965, 0.04654473  , -9.769778   , -0.0003210407, 0.000299284322, -0.001230619, 0.400768518 , 0.160442233 , 0.334097356 , -0.00436412636, 0.000305213442, -0.382510424, 3.22        , 3           , 14          , 0.0005342852, 0.0006388949
0.0157310031, 0.04432599  , -9.782441   , -0.000387016742, -0.000545886345, -0.000455271947, 0.4012404   , 0.160172582 , 0.334704071 , -0.00436799834, 0.000299734646, -0.382514954, 3.23        , 3           , 15          , 0           , 0.000155640519
0.009712642 , 0.0620678775, -9.804109   , 0.001093937 , -4.311705E-05, 0.000682551065, 0.4013752   , 0.160037756 , 0.334771484 , -0.004357057, 0.000299333245, -0.382508039, 3.24        , 3           , 50          , 0           , 0
0.0141850738, 0.06018442  , -9.796399   , 0.00151390687, 0.0007340526, 0.000968257256, 0.4013752   , 0.160037756 , 0.334771484 , -0.00434191432, 0.00030671584, -0.3824985  , 3.25        , 3           , 11          , 0.0545970872, 0.0545970947
0.009093829 , 0.05435071  , -9.788327   , -0.000187171681, 0.001989635 , 0.0005385021, 0.400970757 , 0.1603074   , 0.334164768 , -0.004343784, 0.000326635432, -0.382493258, 3.26        , 3           , 12          , 0.05458505  , 0
0.0147016617, 0.0357556753, -9.779773   , -0.0007446846, 0.0004372053, -3.15931975E-05, 0.401307821 , 0.1603074   , 0.334636658 , -0.00435123034, 0.000331006071, -0.3824935  , 3.27        , 3           , 14          , 0.0005342852, 0.0006388949
0.013491231 , 0.0416940451, -9.796932   , -0.000319958024, 0.0002288964, 4.0691004E-05, 0.4012404   , 0.160037756 , 0.334704071 , -0.00435443036, 0.000333296717, -0.382493258, 3.28        , 3           , 15          , 0           , 0.000155640519
0.018834766 , 0.0411110669, -9.776555   , 0.00150735222, 0.00186030846, -0.0007252318, 0.4012404   , 0.160037756 , 0.334704071 , -0.004339359, 0.0003518681, -0.3825004  , 3.29        , 3           , 50          , 0           , 0
0.004375168 , 0.04085875  , -9.78525448 , 0.0008046398, 0.001292417 , 0.000259488384, 0.400903344 , 0.16024     , 0.3338277   , -0.00433133636, 0.00036486407, -0.382498026, 3.3         , 3           , 11          , 0.0556130372, 0.05561304
0.029274296 , 0.040116746 , -9.785519   , 0.000808228564, 0.000518111861, -0.000165511083, 0.401307821 , 0.160172582 , 0.3348389   , -0.00432325434, 0.000370037975, -0.3824997  , 3.31        , 3           , 12          , 0.0556001179, 0
0.0288864858, 0.03972836  , -9.802698   , 0.00222262065, -3.547095E-05, -0.00107804115, 0.401105583 , 0.16024     , 0.334973723 , -0.00430103252, 0.000369636749, -0.382510424, 3.32        , 3           , 14          , 0.0005342896, 0.000638883852
-0.0123441713, 0.03617289  , -9.809356   , 0.001166675 , -0.000605761656, -0.000448138162, 0.401105583 , 0.16024     , 0.334973723 , -0.004289368, 0.00036355987, -0.382514954, 3.33        , 3           , 15          , 0           , 0.00015564129
-0.00434811972, 0.0319352075, -9.784905   , -0.00123997778, 0.000504261639, -0.00123457448, 0.400903344 , 0.16024     , 0.334029943 , -0.004301772, 0.000368549256, -0.382527351, 3.34        , 3           , 50          , 0           , 0
-0.0283914953, 0.0308408029, -9.778314   , 0.0008767294, 0.0007297581, -0.00200135 , 0.401442617 , 0.160105169 , 0.3349063   , -0.004293012, 0.000375760777, -0.382547379, 3.35        , 3           , 11          , 0.0556130372, 0.05561304
-0.0100801773, 0.04641242  , -9.776302   , -0.0003280558, 0.00170712091, -0.00129908451, 0.401105583 , 0.160105169 , 0.334636658 , -0.004296298, 0.000392775983, -0.3825605  , 3.36        , 3           , 12          , 0.0556001179, 0
-0.00160443131, 0.03817407  , -9.771299   , -0.002929971, -0.000281498447, 2.77491963E-05, 0.401105583 , 0.160105169 , 0.334636658 , -0.004325598, 0.000389962224, -0.382560253, 3.37        , 3           , 14          , 0.0005342896, 0.000638883852
0.00333332177, 0.0304928981, -9.785305   , -0.00269996584, -0.004010805, -0.000471453182, 0.401105583 , 0.160442233 , 0.334164768 , -0.0043526  , 0.000349834037, -0.382564783, 3.38        , 3           , 15          , 0           , 0.00015564129
-0.00153385464, 0.03778491  , -9.789832   , -0.0007307525, -0.0022376487, 0.00116506778, 0.400970757 , 0.16037482  , 0.3348389   , -0.004359903, 0.0003275086, -0.382552862, 3.39        , 3           , 50          , 0           , 0
0.0186338089, 0.056496352 , -9.788696   , -0.0001773078, -5.17063054E-05, 0.000111530564, 0.401173    , 0.15990293  , 0.3348389   , -0.00436163973, 0.00032697455, -0.3825519  , 3.4         , 3           , 11          , 0.0566381924, 0.0566381961
0.0306319632, 0.06412901  , -9.818855   , 0.00215705857, -0.000880643551, 0.0004036309, 0.401173    , 0.15990293  , 0.3348389   , -0.004340068, 0.000318185834, -0.382547855, 3.41        , 3           , 12          , 0.056624338 , 0
0.0254838523, 0.0595882833, -9.792698   , 0.0022890924, 0.000809698133, -0.0010057945, 0.401173    , 0.160509646 , 0.3342996   , -0.00431717932, 0.000326239271, -0.382557869, 3.42        , 3           , 14          , 0.0005342832, 0.000638887752
0.0230294466, 0.04651636  , -9.788252   , 0.000387998123, -0.00018866999, -0.0003098589, 0.401307821 , 0.160172582 , 0.334704071 , -0.00431330176, 0.0003243392, -0.382560968, 3.43        , 3           , 15          , 0           , 0.00015565996
0.00700542331, 0.0322761424, -9.791596   , -0.0010175996, -0.0013948686, 0.000741227763, 0.4013752   , 0.1597681   , 0.3348389   , -0.004323474, 0.0003104225, -0.382553577, 3.44        , 3           , 50          , 0           , 0
-0.00688547455, 0.0125471633, -9.780486   , -0.0008866522, 0.0005066466, -0.0007385064, 0.4013752   , 0.1597681   , 0.3348389   , -0.004332344, 0.000315456942, -0.382560968, 3.45        , 3           , 11          , 0.0566381924, 0.0566381961
0.009035233 , 0.0507324263, -9.785629   , -0.0003275786, 0.001636726 , -0.00108730851, 0.400768518 , 0.16037482  , 0.334164768 , -0.0043356223, 0.0003317771, -0.382571936, 3.46        , 3           , 12          , 0.056624338 , 0
-0.0014963448, 0.04317151  , -9.781673   , 0.000454155874, 0.0007268943, -0.0001668506, 0.40103817  , 0.16024     , 0.334704071 , -0.00433108164, 0.0003390386, -0.3825736  , 3.47        , 3           , 14          , 0.0005342832, 0.000638887752
-0.017575752, 0.0195130613, -9.801782   , 0.002577154 , -0.000244259048, -0.000299760984, 0.401105583 , 0.160105169 , 0.334704071 , -0.00430531148, 0.000336583122, -0.3825767  , 3.48        , 3           , 15          , 0           , 0.00015565996
0.009708649 , 0.0291088745, -9.798369   , 0.00194185728, -0.000248555676, -2.01867333E-05, 0.401105583 , 0.160105169 , 0.334704071 , -0.0042858934, 0.000334096781, -0.3825767  , 3.49        , 3           , 50          , 0           , 0
0.0212188624, 0.0447526649, -9.794148   , -0.0010361179, 0.002124691 , -0.00116047985, 0.400903344 , 0.160577059 , 0.334232181 , -0.004296214, 0.000355301716, -0.382588625, 3.5         , 3           , 11          , 0.0576718338, 0.05767183
0.00548725668, 0.050388813 , -9.805094   , 0.000246774085, -0.000260016619, -0.0009463387, 0.401173    , 0.160172582 , 0.3348389   , -0.00429374957, 0.000352660776, -0.382598162, 3.51        , 3           , 12          , 0.05765698  , 0
0.003638899 , 0.0530580133, -9.787469   , 0.00012105416, -0.003217401, 0.0005317682, 0.401105583 , 0.159970343 , 0.3348389   , -0.004292537, 0.0003205099, -0.382592678, 3.52        , 3           , 14          , 0.0005342753, 0.0006388863
0.013001685 , 0.0398841724, -9.793779   , 0.000458838767, -0.000258583081, -0.000521544949, 0.401105583 , 0.159970343 , 0.3348389   , -0.00428795069, 0.000317901664, -0.382597685, 3.53        , 3           , 15          , 0           , 0.000155663729
-0.00543477666, 0.04645452  , -9.80474    , -0.00103540625, 0.00219508773, 0.0006761223, 0.400835931 , 0.159970343 , 0.334097356 , -0.004298302, 0.000339881517, -0.382591   , 3.54        , 3           , 50          , 0           , 0
-0.007426973, 0.0360630155, -9.793951   , -0.00180234411, 0.0002892724, 0.00123464677, 0.4012404   , 0.160442233 , 0.334636658 , -0.00431632157, 0.0003428274, -0.38257885 , 3.55        , 3           , 11          , 0.0576718338, 0.05767183
0.00441961829, 0.0404484123, -9.797459   , -0.00187483418, 0.0005703575, 0.0003871389, 0.401442617 , 0.160105169 , 0.334704071 , -0.004335068, 0.000348547648, -0.3825748  , 3.56        , 3           , 12          , 0.05765698  , 0
0.00637908047, 0.0570622943, -9.7802     , -0.002517361, 0.00176270632, -0.00159174239, 0.401442617 , 0.160105169 , 0.334704071 , -0.004360247, 0.0003661053, -0.382591   , 3.57        , 3           , 14          , 0.0005342753, 0.0006388863
0.00618709158, 0.036820963 , -9.798364   , -0.000176458445, -0.000262879563, -0.000241970571, 0.40103817  , 0.160577059 , 0.3342996   , -0.004362012, 0.000363466039, -0.3825934  , 3.58        , 3           , 15          , 0           , 0.000155663729
-0.000104403131, 0.0431827754, -9.789798   , 0.00361886  , 0.00321207568, -0.000854585436, 0.4012404   , 0.1603074   , 0.334771484 , -0.004325826, 0.000395549345, -0.382601976, 3.59        , 3           , 50          , 0           , 0
0.0208960325, 0.02663707  , -9.773435   , 0.00185262784, 0.00334091834, -0.00149831909, 0.4012404   , 0.160172582 , 0.334771484 , -0.00430730963, 0.0004288911, -0.382617235, 3.6         , 3           , 11          , 0.05871328  , 0.05871328
-0.0128985951, 0.0374349   , -9.780429   , -0.000958278659, 0.000787736848, -0.000102706523, 0.4012404   , 0.160172582 , 0.334771484 , -0.004316892, 0.0004367642, -0.3826182  , 3.61        , 3           , 12          , 0.05869738  , 0
-0.0276620761, 0.04445015  , -9.802208   , -0.00286285812, 0.000493281637, 0.000594313955, 0.4012404   , 0.1603074   , 0.334097356 , -0.00434551761, 0.000441722572, -0.382612228, 3.62        , 3           , 14          , 0.000534275954, 0.0006388867
-0.0185268242, 0.0511035435, -9.79984951 , 0.00179616117, 0.0006655771, 5.11855324E-05, 0.4012404   , 0.160105169 , 0.334973723 , -0.00432755658, 0.000448380451, -0.382611752, 3.63        , 3           , 15          , 0           , 0.000155674032
0.009730354 , 0.0358217061, -9.782069   , 0.0026310184, 0.003205393 , 0.000270944729, 0.4012404   , 0.160105169 , 0.3348389   , -0.004301245, 0.000480445771, -0.382609367, 3.64        , 3           , 50          , 0           , 0
0.02518155  , 0.04148931  , -9.776957   , -0.00103306375, 0.001491169 , -0.00130273518, 0.4012404   , 0.160105169 , 0.3348389   , -0.00431158254, 0.0004953014, -0.38262248 , 3.65        , 3           , 11          , 0.05871328  , 0.05871328
0.0124654965, 0.0380365029, -9.779327   , -0.00237688632, 0.00190444337, -0.00166151149, 0.40103817  , 0.160172582 , 0.334029943 , -0.004335359, 0.000514273648, -0.38263917 , 3.66        , 3           , 12          , 0.05869738  , 0
0.0057321135, 0.0363781527, -9.79927349 , -0.00285375258, -0.00147767679, -0.00053887337, 0.40103817  , 0.16024     , 0.334973723 , -0.0043639  , 0.000499473535, -0.382644415, 3.67        , 3           , 14          , 0.000534275954, 0.0006388867
0.01306431  , 0.05154003  , -9.771584   , -0.0013101  , 0.000433390873, -0.00102314178, 0.401307821 , 0.160037756 , 0.334771484 , -0.004377006, 0.000503762567, -0.382654667, 3.68        , 3           , 15          , 0           , 0.000155674032
-0.0200806055, 0.03890969  , -9.791325   , 0.00201003184, 0.000244661758, -1.91121453E-05, 0.401307821 , 0.160037756 , 0.334771484 , -0.00435690535, 0.000506208336, -0.3826549  , 3.69        , 3           , 50          , 0           , 0
0.0156531539, 0.06739899  , -9.799973   , 0.0005886126, 0.00213567121, 0.000189139668, 0.401105583 , 0.1603074   , 0.33396253  , -0.00435100775, 0.0005275419, -0.382653   , 3.7         , 3           , 11          , 0.05976191  , 0.05976191
0.0217317771, 0.0479205251, -9.798651   , 0.00172397739, 0.00101705117, 0.000333940465, 0.40151003  , 0.160172582 , 0.3349063   , -0.004333766, 0.0005377268, -0.38264966 , 3.71        , 3           , 12          , 0.05974489  , 0
0.018905472 , 0.0358121619, -9.810927   , 0.00299432687, 0.00102564343, -0.000649014546, 0.401173    , 0.159970343 , 0.3349063   , -0.004303826, 0.000547955162, -0.382656336, 3.72        , 3           , 14          , 0.000534274 , 0.0006388922
-0.005889985, 0.0482432656, -9.798409   , -0.000174136367, -0.0008964107, -0.0016556402, 0.401173    , 0.159970343 , 0.3349063   , -0.004305576, 0.000538920169, -0.3826728  , 3.73        , 3           , 15          , 0           , 0.000155669652
0.02547816  , 0.0569055639, -9.799941   , -0.00129495282, -0.00245265267, 0.000455736474, 0.400970757 , 0.16037482  , 0.334367    , -0.004318523, 0.0005144135, -0.382668018, 3.74        , 3           , 50          , 0           , 0
0.00348730432, 0.0747322   , -9.791449   , -0.0010959272, 0.000223650146, 0.00123782456, 0.4013752   , 0.160037756 , 0.335041136 , -0.004329476, 0.0005167035, -0.382655621, 3.75        , 3           , 11          , 0.05976191  , 0.05976191
-0.0230626985, 0.0529356077, -9.792193   , -0.00101784244, -0.00111330242, 0.00271941442, 0.4012404   , 0.159970343 , 0.3348389   , -0.00433964 , 0.000505688542, -0.382628441, 3.76        , 3           , 12          , 0.05974489  , 0
-0.00304855313, 0.0229446143, -9.79939651 , 0.003202447 , 0.00215334515, 0.00260289013, 0.4012404   , 0.159970343 , 0.3348389   , -0.004307602, 0.0005273346, -0.382602453, 3.77        , 3           , 14          , 0.000534274 , 0.0006388922
0.00404372672, 0.05122845  , -9.781598   , 0.00143699779, 0.002000621 , 0.000899217266, 0.400903344 , 0.1603074   , 0.334164768 , -0.004293227, 0.000547379255, -0.382593632, 3.78        , 3           , 15          , 0           , 0.000155669652
-0.0194078423, 0.0591683872, -9.779937   , 0.000388659915, -0.000188671227, 0.0008202813, 0.401105583 , 0.16024     , 0.334636658 , -0.0042893365, 0.0005455277, -0.3825853  , 3.79        , 3           , 50          , 0           , 0
0.008606476 , 0.05298896  , -9.784267   , -0.00279119029, 7.139119E-05, -0.0011718712, 0.40103817  , 0.160037756 , 0.334771484 , -0.004317325, 0.0005461332, -0.3825972  , 3.8         , 3           , 11          , 0.0608171374, 0.0608171374
0.008684939 , 0.05573065  , -9.794651   , -0.00278666313, -0.0007029094, 2.771974E-05, 0.40103817  , 0.160037756 , 0.334771484 , -0.004345191, 0.0005391055, -0.38259697 , 3.81        , 3           , 12          , 0.0607989319, 0
0.01005793  , 0.03035874  , -9.768982   , -0.000108261112, 0.00023032121, -0.0001702621, 0.400903344 , 0.160509646 , 0.334097356 , -0.00434627524, 0.0005414013, -0.382598639, 3.82        , 3           , 14          , 0.000534286 , 0.0006389021
0.0263265111, 0.0225537457, -9.785614   , -0.00166410743, 0.000642162 , -0.000883198052, 0.4012404   , 0.160442233 , 0.3348389   , -0.00436292076, 0.0005477845, -0.38260746 , 3.83        , 3           , 15          , 0           , 0.000155678339
-0.007099399, 0.03060004  , -9.780864   , -0.00307897036, 0.0012661356, -0.000182462783, 0.401173    , 0.159700692 , 0.334569246 , -0.00439371075, 0.000560437737, -0.382609367, 3.84        , 3           , 50          , 0           , 0
0.006970956 , 0.0335872658, -9.778936   , -0.00243510515, -0.000418957236, -0.000111468784, 0.401173    , 0.159700692 , 0.334569246 , -0.004418063, 0.0005562432, -0.382610321, 3.85        , 3           , 11          , 0.0608171374, 0.0608171374
0.009160999 , 0.05440513  , -9.804596   , -0.004061491, -0.0002187725, -0.00252028438, 0.40103817  , 0.16024     , 0.33396253  , -0.00445869239, 0.0005539437, -0.3826356  , 3.86        , 3           , 12          , 0.0607989319, 0
0.0129943211, 0.0425563119, -9.783374   , -0.000249715435, 8.857908E-05, -0.001795728, 0.40151003  , 0.15990293  , 0.3348389   , -0.004461199, 0.0005547492, -0.382653475, 3.87        , 3           , 14          , 0.000534286 , 0.0006389021
-0.008798947, 0.03785333  , -9.784916   , 0.00122697128, 0.00157682959, 0.0004031293, 0.401307821 , 0.15990293  , 0.334704071 , -0.004448928, 0.0005705352, -0.38264966 , 3.88        , 3           , 15          , 0           , 0.000155678339
-0.0003424799, 0.06389418  , -9.775702   , 0.0008178233, -0.00131207658, 0.000749877945, 0.401307821 , 0.15990293  , 0.334704071 , -0.00444074534, 0.000557447842, -0.382642031, 3.89        , 3           , 50          , 0           , 0
0.0256583951, 0.03614729  , -9.800027   , -0.00229416159, -0.000347613648, 3.05768226E-05, 0.400903344 , 0.160509646 , 0.334232181 , -0.004463705, 0.000553955266, -0.382641554, 3.9         , 3           , 11          , 0.0618784   , 0.0618784055
0.007097606 , 0.03592164  , -9.802429   , -0.000529220037, -0.000265284529, 0.000250819139, 0.400903344 , 0.160105169 , 0.3349063   , -0.00446899561, 0.000551313569, -0.38263917 , 3.91        , 3           , 12          , 0.061858952 , 0
0.00561774429, 0.03807088  , -9.7658205  , 0.000177851631, -0.0004716836, 0.000183151555, 0.401442617 , 0.159835517 , 0.334704071 , -0.004467216, 0.000546605152, -0.382637262, 3.92        , 3           , 14          , 0.0005342891, 0.000638905156
0.008384373 , 0.0425429419, -9.763521   , -0.00010959879, 0.0005822763, 0.00053663383, 0.401442617 , 0.159835517 , 0.334704071 , -0.00446830876, 0.0005524518, -0.382632017, 3.93        , 3           , 15          , 0           , 0.000155668444
0.018364206 , 0.0397629254, -9.776564   , 0.000244231836, 0.0005142747, 0.0013151496, 0.401105583 , 0.160105169 , 0.334097356 , -0.004465859, 0.000557653257, -0.3826189  , 3.94        , 3           , 50          , 0           , 0
-0.00288059376, 0.0409347229, -9.782598   , -0.000244702358, -0.00068572216, 0.0002514853, 0.4012404   , 0.159970343 , 0.335041136 , -0.00446830457, 0.0005508074, -0.382616282, 3.95        , 3           , 11          , 0.0618784   , 0.0618784055
0.02638373  , 0.0568949357, -9.799934   , -0.000455147034, -0.00103911269, -0.000385754131, 0.400903344 , 0.1597681   , 0.334973723 , -0.004472858, 0.0005403991, -0.3826201  , 3.96        , 3           , 12          , 0.061858952 , 0
0.0252784435, 0.04647768  , -9.784618   , -0.00194500247, 0.000429077452, -3.72181967E-05, 0.400903344 , 0.1597681   , 0.334973723 , -0.00449230848, 0.0005446882, -0.382620573, 3.97        , 3           , 14          , 0.0005342891, 0.000638905156
-0.000734609552, 0.0301001724, -9.788502   , -0.000955541, 8.380236E-05, -0.00137520453, 0.401105583 , 0.160172582 , 0.3338277   , -0.00450187176, 0.000545464165, -0.382634163, 3.98        , 3           , 15          , 0           , 0.000155668444
-0.0007952004, 0.03139013  , -9.769513   , -0.00131626369, 0.00170041586, -0.000809280435, 0.40151003  , 0.160105169 , 0.335041136 , -0.00451503834, 0.0005624318, -0.3826425  , 3.99        , 3           , 50          , 0           , 0
0.0057646893, 0.0426534526, -9.787044   , -0.00201492454, 0.00021742977, -0.000673579343, 0.401105583 , 0.159970343 , 0.334704071 , -0.00453515444, 0.0005646069, -0.382649183, 4           , 3           , 11          , 0.0629451945, 0.0629451945
0.0009275563, 0.0553260148, -9.781605   , -3.658347E-05, -5.07658478E-05, -0.0007354292, 0.401105583 , 0.159970343 , 0.334704071 , -0.004535524, 0.000564065936, -0.382656574, 4.01        , 3           , 12          , 0.06292442  , 0
-0.00521659944, 0.0342076421, -9.786711   , -0.00101698749, -0.00139487768, 0.00180073734, 0.400970757 , 0.160644472 , 0.334164768 , -0.00454568351, 0.000550198951, -0.382638454, 4.02        , 3           , 14          , 0.000534282764, 0.0006388999
-0.00610868167, 0.03735365  , -9.779924   , -0.002012329, 6.263417E-06, 0.002010201 , 0.401307821 , 0.160172582 , 0.334973723 , -0.00456579542, 0.0005503532, -0.3826182  , 4.03        , 3           , 15          , 0           , 0.000155665737
0.0103819687, 0.0475826152, -9.792864   , -0.00109904667, 0.0006459851, -0.000527379743, 0.401105583 , 0.1603074   , 0.334569246 , -0.00457678828, 0.000556789 , -0.382623672, 4.04        , 3           , 50          , 0           , 0
0.0141882794, 0.0543844625, -9.815857   , -0.000114449256, 0.00149736681, -2.70282053E-05, 0.401105583 , 0.1603074   , 0.334569246 , -0.004577933, 0.000571761339, -0.3826239  , 4.05        , 3           , 11          , 0.0629451945, 0.0629451945
0.0419753268, 0.04087928  , -9.78813    , 0.000106676591, -0.000331372663, 0.00039494512, 0.40103817  , 0.160577059 , 0.333895117 , -0.00457686372, 0.000568465737, -0.3826201  , 4.06        , 3           , 12          , 0.06292442  , 0
0.0173075981, 0.0596628   , -9.786433   , -0.002652665, 0.0008466579, 0.000807755452, 0.4013752   , 0.16024     , 0.3349063   , -0.00460338639, 0.000576969236, -0.382612   , 4.07        , 3           , 14          , 0.000534282764, 0.0006388999
-0.0162497386, 0.05376573  , -9.794397   , -0.00103096489, 0.001279987 , 0.0005334412, 0.401173    , 0.15990293  , 0.334636658 , -0.004613693, 0.0005897936, -0.382606745, 4.08        , 3           , 15          , 0           , 0.000155665737
0.0183019452, 0.06374125  , -9.794995   , -0.0008187552, 0.00121102843, 0.0006049549, 0.401173    , 0.15990293  , 0.334636658 , -0.004621876, 0.000601931533, -0.382600546, 4.09        , 3           , 50          , 0           , 0
0.01740983  , 0.031699717 , -9.790616   , -0.0006202382, 0.00353537081, -0.00249838526, 0.401105583 , 0.16037482  , 0.33396253  , -0.00462814234, 0.00063720817, -0.382625818, 4.1         , 3           , 11          , 0.06401703  , 0.0640170351
0.0319498628, 0.0373734124, -9.784154   , 0.0007979614, 0.00241866265, -0.00164592429, 0.4013752   , 0.16037482  , 0.334771484 , -0.004620174, 0.0006613182, -0.382642269, 4.11        , 3           , 12          , 0.06399488  , 0
0.0149465809, 0.049344644 , -9.795986   , 0.00165139243, 0.001157349 , -0.00185582926, 0.4012404   , 0.159970343 , 0.334704071 , -0.004603672, 0.000672806171, -0.382660866, 4.12        , 3           , 14          , 0.0005342907, 0.000638893456
-0.00107891392, 0.04581565  , -9.764483   , 0.00179896073, -0.000108738539, -0.00171585474, 0.4012404   , 0.159970343 , 0.334704071 , -0.00458569452, 0.0006716398, -0.382678032, 4.13        , 3           , 15          , 0           , 0.000155661735
0.00618771371, 0.0453021266, -9.77121    , -0.000759264047, 0.003323248 , -0.0005216071, 0.400903344 , 0.160105169 , 0.333895117 , -0.00459329039, 0.000704848033, -0.382683516, 4.14        , 3           , 50          , 0           , 0
0.0044349744, 0.0435853079, -9.791119   , -0.0007534655, 0.00226738118, 0.0004656467, 0.401442617 , 0.160442233 , 0.3349063   , -0.004600821, 0.000727543 , -0.382679   , 4.15        , 3           , 11          , 0.06401703  , 0.0640170351
0.00113326218, 0.03369568  , -9.790732   , -0.00109756039, 0.000434819958, 0.000249276723, 0.40103817  , 0.159970343 , 0.334704071 , -0.0046117953, 0.000731902663, -0.382676363, 4.16        , 3           , 12          , 0.06399488  , 0
-0.000141134486, 0.03377965  , -9.811081   , -0.00173554185, 0.0009232608, 0.000105804269, 0.40103817  , 0.159970343 , 0.334704071 , -0.004629149, 0.00074114016, -0.3826754  , 4.17        , 3           , 14          , 0.0005342907, 0.000638893456
0.004104384 , 0.0174291171, -9.794393   , 0.000667507 , 0.0003763637, -0.0005195788, 0.401105583 , 0.160442233 , 0.334029943 , -0.00462247757, 0.0007448796, -0.382680655, 4.18        , 3           , 15          , 0           , 0.000155661735
0.0103254681, 0.04173428  , -9.797861   , -0.00060411077, 0.0005085514, -0.000525287935, 0.40151003  , 0.160037756 , 0.3349063   , -0.00462852232, 0.000749941042, -0.3826859  , 4.19        , 3           , 50          , 0           , 0
0.00061941985, 0.0567875877, -9.812336   , -3.08034723E-05, -0.0010362328, 0.000817018736, 0.4012404   , 0.159970343 , 0.334704071 , -0.00462875376, 0.000739615934, -0.382677555, 4.2         , 3           , 11          , 0.0650934651, 0.0650934651
0.0008903705, 0.05038603  , -9.788405   , 0.00165424414, 0.0009461838, 0.001251764 , 0.4012404   , 0.159970343 , 0.334704071 , -0.00461220276, 0.0007491355, -0.382665157, 4.21        , 3           , 12          , 0.06506985  , 0
0.0148231387, 0.0412103124, -9.791952   , -0.0008901776, 0.00135133916, 0.00039295014, 0.401173    , 0.159970343 , 0.334232181 , -0.00462110061, 0.0007626668, -0.382661343, 4.22        , 3           , 14          , 0.000534279156, 0.0006388936
0.004577565 , 0.02235018  , -9.783522   , 0.00236392557, -3.45252956E-05, -0.000936127733, 0.401173    , 0.16037482  , 0.334973723 , -0.00459746923, 0.0007622784, -0.382670641, 4.23        , 3           , 15          , 0           , 0.000155655071
0.0176193975, 0.0479381271, -9.789643   , 0.00314389914, -0.0006627935, -0.000650944945, 0.40151003  , 0.159970343 , 0.334569246 , -0.00456603523, 0.0007556206, -0.382677078, 4.24        , 3           , 50          , 0           , 0
0.0316420235, 0.04686953  , -9.789088   , -0.000668147055, -0.0007589676, -3.31228366E-05, 0.40151003  , 0.159970343 , 0.334569246 , -0.004572717, 0.000748029444, -0.382677317, 4.25        , 3           , 11          , 0.0650934651, 0.0650934651
0.0166600421, 0.0483515374, -9.775185   , 0.000233582919, 0.00262602372, 0.0009652456, 0.401173    , 0.16024     , 0.334029943 , -0.00457037427, 0.000774333545, -0.38266778 , 4.26        , 3           , 12          , 0.06506985  , 0
0.00372135919, 0.0286497157, -9.775366   , 0.00200631749, 0.00101895933, 0.000194003369, 0.401173    , 0.160105169 , 0.334973723 , -0.00455031 , 0.0007845321, -0.382665873, 4.27        , 3           , 14          , 0.000534279156, 0.0006388936
0.0011015404, 0.03366998  , -9.783049   , 0.0035096975, -0.00298331166, 0.00153678667, 0.4012404   , 0.159835517 , 0.33443442  , -0.0045152  , 0.0007547689, -0.382650375, 4.28        , 3           , 15          , 0           , 0.000155655071
0.005999163 , 0.05980476  , -9.789231   , 0.00208354928, -0.000458783063, -0.00100872992, 0.4012404   , 0.159835517 , 0.33443442  , -0.00449437229, 0.00075013563, -0.382660627, 4.29        , 3           , 50          , 0           , 0
-0.00278523564, 0.0463681966, -9.788449   , -0.00215596519, 7.56990048E-05, -0.00159267767, 0.4013752   , 0.160037756 , 0.334029943 , -0.00451592868, 0.000750840467, -0.382676363, 4.3         , 3           , 11          , 0.066174075 , 0.06617408
-0.00604668353, 0.04052834  , -9.7848835  , -0.00159726571, 0.00148734846, -0.000175186637, 0.401173    , 0.159970343 , 0.3349063   , -0.004531903, 0.0007657058, -0.38267827 , 4.31        , 3           , 12          , 0.06614891  , 0
0.00539782736, 0.0454064868, -9.799239   , -0.00187690463, 0.0009223081, -0.000177371447, 0.400835931 , 0.160037756 , 0.334704071 , -0.00455067446, 0.0007749208, -0.382679939, 4.32        , 3           , 14          , 0.0005342769, 0.0006388905
-0.0179566536, 0.0636911541, -9.788042   , -0.000453129, -0.00132066023, 0.000673354 , 0.400835931 , 0.160037756 , 0.334704071 , -0.0045551993, 0.0007617451, -0.382673025, 4.33        , 3           , 15          , 0           , 0.000155641741
-0.00285869464, 0.07033743  , -9.80417    , 0.002077323 , 0.0006674773, -0.00213713059, 0.400903344 , 0.160105169 , 0.33396253  , -0.004534442, 0.0007683227, -0.382694483, 4.34        , 3           , 50          , 0           , 0
0.02529589  , 0.0473845229, -9.785971   , 0.00124307792, -0.001872336, -0.00129737437, 0.401105583 , 0.159970343 , 0.3348389   , -0.00452202139, 0.0007495409, -0.3827076  , 4.35        , 3           , 11          , 0.066174075 , 0.06617408
0.00356711354, 0.0543389022, -9.765768   , 0.00123413582, 9.86233354E-05, 0.000118350275, 0.401105583 , 0.159700692 , 0.334569246 , -0.004509679, 0.0007505324, -0.3827064  , 4.36        , 3           , 12          , 0.06614891  , 0
-0.007814159, 0.04415579  , -9.78397751 , 0.00180349778, -0.000742250355, 0.000684757368, 0.401105583 , 0.159700692 , 0.334569246 , -0.004491639, 0.0007431407, -0.3826995  , 4.37        , 3           , 14          , 0.0005342769, 0.0006388905
0.0022943886, 0.0490680337, -9.803767   , -0.00129934179, -0.00160795683, 0.000103894257, 0.400970757 , 0.160442233 , 0.333895117 , -0.00450463127, 0.0007270661, -0.3826983  , 4.38        , 3           , 15          , 0           , 0.000155641741
0.0302918851, 0.0504629351, -9.779592   , -0.005264054, 0.000336254423, -0.00160672993, 0.4013752   , 0.16037482  , 0.334771484 , -0.0045572836, 0.0007303557, -0.382714272, 4.39        , 3           , 50          , 0           , 0
0.0090608   , 0.05253854  , -9.786074   , -0.00328732748, 0.000631194445, 0.0003806727, 0.401173    , 0.159970343 , 0.334569246 , -0.004590212, 0.000736682268, -0.3827107  , 4.4         , 3           , 11          , 0.06725846  , 0.06725848
0.004354547 , 0.03816393  , -9.788881   , 0.00124560483, -0.00215389626, 0.0006799418, 0.401173    , 0.159970343 , 0.334569246 , -0.00457775034, 0.000715174654, -0.382703781, 4.41        , 3           , 12          , 0.06723167  , 0
0.00764450524, 0.0498294421, -9.780672   , 0.00377006526, 0.00124207151, -0.000433148351, 0.400970757 , 0.160105169 , 0.334029943 , -0.004540052, 0.0007275755, -0.382708073, 4.42        , 3           , 14          , 0.000534286 , 0.0006388909
0.0204498935, 0.05558639  , -9.792754   , 0.00461611524, 0.00152936752, -0.000146226113, 0.4013752   , 0.16037482  , 0.334771484 , -0.00449389173, 0.0007428625, -0.382709742, 4.43        , 3           , 15          , 0           , 0.000155653761
0.0215937085, 0.0478086472, -9.765206   , -0.003297738, 0.002602147 , -0.0007464395, 0.400970757 , 0.15990293  , 0.33443442  , -0.004526875, 0.000768849859, -0.382717371, 4.44        , 3           , 50          , 0           , 0
0.00324749388, 0.0304233488, -9.764515   , -0.00159497629, 0.000924215245, -0.001023679, 0.400970757 , 0.15990293  , 0.33443442  , -0.004542833, 0.0007780455, -0.382727385, 4.45        , 3           , 11          , 0.06725846  , 0.06725848
0.0189491082, 0.0470062755, -9.785568   , -0.000182931079, 0.0012153365, 0.00124363927, 0.401105583 , 0.160509646 , 0.334097356 , -0.004544653, 0.0007902553, -0.382715225, 4.46        , 3           , 12          , 0.06723167  , 0
-0.00404264126, 0.05182214  , -9.795669   , -0.004392269, -0.00444461824, -0.000197480607, 0.4013752   , 0.15990293  , 0.334771484 , -0.0045885765, 0.0007458007, -0.3827169  , 4.47        , 3           , 14          , 0.000534286 , 0.0006388909
0.02652763  , 0.0374462679, -9.786907   , -0.00187150075, -0.000203953328, -0.0004616567, 0.401173    , 0.160037756 , 0.334704071 , -0.004607294, 0.00074374  , -0.382721424, 4.48        , 3           , 15          , 0           , 0.000155653761
0.0147168189, 0.03353621  , -9.790629   , -0.00157768454, -0.00217299117, 0.0023619975, 0.401173    , 0.160037756 , 0.334704071 , -0.004623053, 0.000722119468, -0.382697821, 4.49        , 3           , 50          , 0           , 0
-0.004662077, 0.0356238149, -9.807039   , -0.00157873519, -0.00245455862, -0.00187649787, 0.40103817  , 0.160442233 , 0.334029943 , -0.00463883765, 0.0006975467, -0.382716417, 4.5         , 3           , 11          , 0.06834626  , 0.06834628
-0.00440926943, 0.0523436256, -9.81510448 , 0.000947357155, 0.000941416831, -0.0001642133, 0.401307821 , 0.159970343 , 0.334771484 , -0.00462936563, 0.000706953229, -0.3827181  , 4.51        , 3           , 12          , 0.0683177561, 0
0.0103772236, 0.053827662 , -9.771594   , 0.000947105233, 0.00122298743, 0.00181398285, 0.4012404   , 0.16024     , 0.334501833 , -0.00461988058, 0.0007192668, -0.382699966, 4.52        , 3           , 14          , 0.000534283346, 0.0006388815
-9.893626E-05, 0.04809706  , -9.775314   , -0.004400794, -0.00275521935, -0.0004774137, 0.4012404   , 0.16024     , 0.334501833 , -0.004663892, 0.000691692869, -0.382704735, 4.53        , 3           , 15          , 0           , 0.000155652931
-0.008265402, 0.043716006 , -9.785791   , -0.0055437  , -0.00022877664, -0.00160892622, 0.400970757 , 0.16024     , 0.33396253  , -0.00471934024, 0.0006893298, -0.3827207  , 4.54        , 3           , 50          , 0           , 0
-0.0115158865, 0.04011679  , -9.777695   , -0.00130615511, -0.000200121678, 0.0003885902, 0.401307821 , 0.15990293  , 0.3349063   , -0.004732399, 0.000687347 , -0.3827169  , 4.55        , 3           , 11          , 0.06834626  , 0.06834628
0.0145911835, 0.0249537528, -9.787502   , -0.000173911772, -0.0004740414, 0.00237118662, 0.400903344 , 0.160172582 , 0.334569246 , -0.00473412173, 0.000682719 , -0.382693052, 4.56        , 3           , 12          , 0.0683177561, 0
0.0128782121, 0.0393377654, -9.765307   , -0.00130418281, -0.0007632558, -0.001024965, 0.400903344 , 0.160172582 , 0.334569246 , -0.00474716956, 0.000675038 , -0.3827033  , 4.57        , 3           , 14          , 0.000534283346, 0.0006388815
0.00282456353, 0.0304528512, -9.7717495  , -0.00243741949, 7.38027156E-05, 0.000101218931, 0.4012404   , 0.16037482  , 0.3338277   , -0.00477154274, 0.0006757808, -0.382702351, 4.58        , 3           , 15          , 0           , 0.000155652931
-0.00512075331, 0.0102565382, -9.776415   , 0.000383156119, 0.000937599863, 0.0009633025, 0.4013752   , 0.160105169 , 0.335041136 , -0.004767705, 0.0006852026, -0.382692575, 4.59        , 3           , 50          , 0           , 0
0.00763167348, 0.04758729  , -9.78475    , -0.00103149179, 0.00120960316, -0.00102061231, 0.401173    , 0.160105169 , 0.334704071 , -0.004777884, 0.000697207637, -0.382702827, 4.6         , 3           , 11          , 0.0694371238, 0.06943714
0.0200370457, 0.0591948628, -9.790934   , -0.00554277329, -0.0005103507, -0.00245697447, 0.401173    , 0.160105169 , 0.334704071 , -0.00483332854, 0.0006919862, -0.382727623, 4.61        , 3           , 12          , 0.06940683  , 0
0.0198958255, 0.0497070774, -9.786906   , -0.00102542643, 8.334516E-05, -0.000174735571, 0.400835931 , 0.160105169 , 0.334232181 , -0.00484358473, 0.000692811154, -0.3827293  , 4.62        , 3           , 14          , 0.000534261169, 0.0006388881
0.00340235839, 0.030548837 , -9.802028   , -0.0013129398, 0.0012076979, 0.0006732955, 0.4013752   , 0.16024     , 0.334973723 , -0.00485670846, 0.000704920734, -0.382722616, 4.63        , 3           , 15          , 0           , 0.000155654867
-0.00285018235, 0.03917396  , -9.79571152 , -0.001586098, -0.0007651699, -0.000178671238, 0.40103817  , 0.160037756 , 0.334704071 , -0.00487257075, 0.0006972605, -0.3827243  , 4.64        , 3           , 50          , 0           , 0
-0.0129712038, 0.06765373  , -9.776236   , 0.00348782679, 0.00124016509, -0.000151928893, 0.40103817  , 0.160037756 , 0.334704071 , -0.004837693, 0.000709654531, -0.382725954, 4.65        , 3           , 11          , 0.0694371238, 0.06943714
-0.001565678, 0.03508102  , -9.790747   , 0.00036719162, 0.004034806 , -0.000162075827, 0.40103817  , 0.16024     , 0.33396253  , -0.004834023, 0.0007499942, -0.382727623, 4.66        , 3           , 12          , 0.06940683  , 0
0.0117015   , 0.0403936   , -9.806442   , -0.00158921233, -0.000202041323, -0.000742878357, 0.401307821 , 0.16037482  , 0.334973723 , -0.00484992 , 0.0007479379, -0.382735   , 4.67        , 3           , 14          , 0.000534261169, 0.0006388881
0.0164733231, 0.0276681222, -9.796064   , -0.0007605434, 0.00346403173, -0.00158089877, 0.400970757 , 0.160172582 , 0.334704071 , -0.00485753734, 0.0007825012, -0.382751   , 4.68        , 3           , 15          , 0           , 0.000155654867
0.00632182648, 0.0476425476, -9.79651    , -0.00356283388, -0.00106011028, -0.00216608634, 0.400970757 , 0.160172582 , 0.334704071 , -0.00489318231, 0.000771794759, -0.382772684, 4.69        , 3           , 50          , 0           , 0
0.00662890961, 0.0345750079, -9.80289    , -0.002706435, -0.003025342, -0.00329533778, 0.401173    , 0.160577059 , 0.334029943 , -0.004920189, 0.0007413592, -0.3828056  , 4.7         , 3           , 11          , 0.07053073  , 0.07053074
0.0185195953, 0.0456913933, -9.795521   , -0.00159100874, 0.0003610903, 0.0009531991, 0.401712269 , 0.160172582 , 0.335041136 , -0.004936092, 0.0007450169, -0.382796049, 4.71        , 3           , 12          , 0.07049854  , 0
0.00238774717, 0.059409745 , -9.793328   , 9.40461759E-05, 0.00206193537, -0.0010140579, 0.401105583 , 0.160105169 , 0.334569246 , -0.00493515935, 0.000765586 , -0.3828063  , 4.72        , 3           , 14          , 0.0005342485, 0.000638891244
0.008713484 , 0.05396837  , -9.807314   , 0.002068083 , 0.00263843429, -0.001286509, 0.401105583 , 0.160105169 , 0.334569246 , -0.00491448864, 0.00079190667, -0.3828194  , 4.73        , 3           , 15          , 0           , 0.000155669928
0.0143971294, 0.04213003  , -9.79556751 , -0.0004692504, 0.00177655113, -0.000734588131, 0.400903344 , 0.160442233 , 0.334164768 , -0.004919187, 0.0008096359, -0.3828268  , 4.74        , 3           , 50          , 0           , 0
0.0106091462, 0.0348966867, -9.778451   , 0.00038179697, 0.00121915527, 0.0009637195, 0.401173    , 0.16024     , 0.334973723 , -0.00491536129, 0.000821874535, -0.382817268, 4.75        , 3           , 11          , 0.07053073  , 0.07053074
0.0099202795, 0.0507051647, -9.780651   , -0.000187238707, 0.00206003082, 0.000962387363, 0.400970757 , 0.160037756 , 0.334569246 , -0.00491722533, 0.000842521957, -0.382807732, 4.76        , 3           , 12          , 0.07049854  , 0
0.0214113761, 0.0280214921, -9.784274   , -0.00271907 , -0.000209685124, -0.00103069865, 0.400970757 , 0.160037756 , 0.334569246 , -0.004944425, 0.000840374269, -0.382817984, 4.77        , 3           , 14          , 0.0005342485, 0.000638891244
0.01889919  , 0.042502325 , -9.78784752 , 0.000387209817, 9.289419E-05, 0.0006794463, 0.401173    , 0.160172582 , 0.33396253  , -0.00494054751, 0.000841336849, -0.3828113  , 4.78        , 3           , 15          , 0           , 0.000155669928
0.0147505011, 0.03624161  , -9.790166   , 0.0006685688, 0.000376370852, 0.00124627212, 0.40151003  , 0.160172582 , 0.334973723 , -0.004933851, 0.0008451624, -0.382798672, 4.79        , 3           , 50          , 0           , 0
0.0150899263, 0.0316809341, -9.777075   , -0.0004558746, -0.000757522357, 0.000674192 , 0.401307821 , 0.159835517 , 0.334367    , -0.00493831048, 0.0008376767, -0.382792   , 4.8         , 3           , 11          , 0.07162675  , 0.071626775
0.00100745913, 0.05494441  , -9.802397   , 0.000945433858, 0.00150454987, 0.00124932313, 0.401307821 , 0.159835517 , 0.334367    , -0.004928846, 0.0008527835, -0.3827796  , 4.81        , 3           , 12          , 0.07159259  , 0
0.00739738625, 0.05312586  , -9.820435   , 0.00349482335, -0.000167654973, -0.000154115347, 0.401105583 , 0.160509646 , 0.334164768 , -0.004893899, 0.0008510995, -0.382781029, 4.82        , 3           , 14          , 0.000534234452, 0.000638882746
0.006556372 , 0.0322844833, -9.792504   , 0.00124008034, -0.00102762762, 0.0006816596, 0.40151003  , 0.159835517 , 0.334973723 , -0.004881493, 0.0008408565, -0.3827741  , 4.83        , 3           , 15          , 0           , 0.00015567166
0.0041105086, 0.02323663  , -9.777194   , 0.000676872558, -0.00159458327, -0.00129960431, 0.4012404   , 0.160105169 , 0.334636658 , -0.00487473467, 0.000824847433, -0.382787   , 4.84        , 3           , 50          , 0           , 0
-0.00309245 , 0.0215699971, -9.793075   , 0.00122639234, 0.0015064528, -0.00129219715, 0.4012404   , 0.160105169 , 0.334636658 , -0.00486248173, 0.000839849 , -0.3828001  , 4.85        , 3           , 11          , 0.07162675  , 0.071626775
0.00243387558, 0.03631105  , -9.768112   , -0.002720613, 7.188757E-05, -0.00131280383, 0.400768518 , 0.16037482  , 0.3342996   , -0.00488969823, 0.0008405038, -0.382813215, 4.86        , 3           , 12          , 0.07159259  , 0
-0.021123562, 0.0321137458, -9.779609   , 0.0006731801, -0.00074988557, -0.000450690073, 0.401442617 , 0.160105169 , 0.334973723 , -0.004882971, 0.0008329829, -0.382817745, 4.87        , 3           , 14          , 0.000534234452, 0.000638882746
-0.0131396241, 0.0541267656, -9.778553   , -0.00156548759, -0.004988642, -0.000750272, 0.400970757 , 0.159835517 , 0.334569246 , -0.004898632, 0.0007830601, -0.382825136, 4.88        , 3           , 15          , 0           , 0.00015567166
-0.0074220323, 0.0351743139, -9.798023   , -0.000460872339, 8.716888E-05, -0.0007371935, 0.400970757 , 0.159835517 , 0.334569246 , -0.00490324665, 0.0007838958, -0.3828323  , 4.89        , 3           , 50          , 0           , 0
0.006338987 , 0.0231813323, -9.768589   , 0.00348680513, 0.00152171915, 0.000413568632, 0.4012404   , 0.1603074   , 0.334097356 , -0.00486824056, 0.000799010566, -0.382828236, 4.9         , 3           , 11          , 0.07272494  , 0.07272496
-0.0031102933, 0.0527259074, -9.79927349 , 0.0060293   , 0.00153891183, 0.001555571 , 0.4013752   , 0.15990293  , 0.335041136 , -0.004807935, 0.0008144748, -0.382812738, 4.91        , 3           , 12          , 0.07268869  , 0
0.009793663 , 0.04078286  , -9.781596   , -0.000733610068, -0.00160414353, 0.00151919131, 0.4012404   , 0.160105169 , 0.334501833 , -0.00481525855, 0.0007985067, -0.38279748 , 4.92        , 3           , 14          , 0.000534214545, 0.0006389011
0.0116097471, 0.0398729071, -9.785655   , -0.00102103455, -0.0007613622, 0.000106488689, 0.4012404   , 0.160105169 , 0.334501833 , -0.004825468, 0.0007908984, -0.382796526, 4.93        , 3           , 15          , 0           , 0.000155666043
0.008022816 , 0.037265975 , -9.802869   , 0.003772183 , 0.000960499339, 0.0006965552, 0.401307821 , 0.160442233 , 0.334164768 , -0.00478773937, 0.000800536771, -0.382789373, 4.94        , 3           , 50          , 0           , 0
0.003956752 , 0.0368747562, -9.806518   , -0.000471188716, 0.00233967556, 0.0006789709, 0.40151003  , 0.15990293  , 0.3349063   , -0.00479244627, 0.000823965936, -0.3827827  , 4.95        , 3           , 11          , 0.07272494  , 0.07272496
0.02027928  , 0.041611284 , -9.795977   , -0.003568037, 6.613857E-05, -0.00159928657, 0.4013752   , 0.160172582 , 0.334636658 , -0.00482814 , 0.000824550167, -0.3827989  , 4.96        , 3           , 12          , 0.07268869  , 0
0.00285689812, 0.05629323  , -9.807348   , -0.000175800757, -0.000474070344, -0.00101927633, 0.4013752   , 0.160172582 , 0.334636658 , -0.004829907, 0.0008197604, -0.382808924, 4.97        , 3           , 14          , 0.000534214545, 0.0006389011
0.00336585962, 0.0616896376, -9.803706   , -0.001305345, -0.00048170943, -0.0007420065, 0.4013752   , 0.160037756 , 0.334232181 , -0.004842967, 0.0008149075, -0.3828163  , 4.98        , 3           , 15          , 0           , 0.000155666043
