Acc X       , Acc Y       , Acc Z       , Gyro X      , Gyro Y      , Gyro Z      , Magn X      , Magn Y      , Magn Z      , Euler X     , Euler Y     , Euler Z     , Time        , Status      , LowRate X   , LowRate Y   , LowRate Z    
0.3933058   , 0.0353903063, -9.782303   , -0.0016138067, -0.00103021378, 0.000265647221, -0.184575975, -0.159700692, 0.4213968   , -0.003888374, 0.03903541  , 2.386535    , 0           , 3           , 11          , 0.0346410163, 0.0346410163
0.35716337  , 0.0309708267, -9.817852   , -0.00134642469, 0.00192812749, -0.00043482316, -0.184238911, -0.160037756, 0.4213968   , -0.00390201085, 0.03905467  , 2.38653016  , 0.01        , 3           , 12          , 0.0346410163, 0
0.3748405   , 0.0432763062, -9.78196    , -0.000365227344, 0.0033426364, -0.0009931191, -0.183969259, -0.159835517, 0.421329379 , -0.00390605628, 0.0390880555, 2.38652015  , 0.02        , 3           , 50          , 0           , 0
0.3919663   , 0.0407777354, -9.769635   , -0.00161970919, 9.604519E-05, -0.0002976919, -0.184238911, -0.159835517, 0.421666443 , -0.00392237073, 0.039088998 , 2.38651729  , 0.03        , 3           , 11          , 0.0346410163, 0.0346410163
0.3840888   , 0.0215290766, -9.787854   , -0.0006246973, -0.00116431166, 0.0001287708, -0.184036672, -0.159835517, 0.4213968   , -0.003928564, 0.0390773639, 2.38651872  , 0.04        , 3           , 12          , 0.0346410163, 0
0.373139232 , 0.0206968989, -9.770766   , -0.000352436473, 0.0008085516, -0.000573218334, -0.184036672, -0.159835517, 0.4213968   , -0.00393231353, 0.0390854254, 2.386513    , 0.05        , 3           , 50          , 0           , 0
0.3632268   , 0.028887691 , -9.756796   , -0.00119832309, 0.0005212567, -0.000577603059, -0.1841715  , -0.160037756, 0.4213968   , -0.00394452224, 0.0390906073, 2.38650727  , 0.06        , 3           , 11          , 0.0346410163, 0.0346410163
0.369859129 , 0.0321754366, -9.81775    , -0.0006284716, -0.000319614541, 0.0008364164, -0.184238911, -0.160037756, 0.4214642   , -0.00395048037, 0.03908745  , 2.38651538  , 0.07        , 3           , 12          , 0.0346410163, 0
0.370459318 , 0.0501436032, -9.795976   , 0.0006388827, 0.000392892573, 0.0007021588, -0.184373736, -0.160105169, 0.421666443 , -0.00394381769, 0.0390914045, 2.38652253  , 0.08        , 3           , 50          , 0           , 0
0.372867763 , 0.06407096  , -9.786408   , 0.00275032152, 0.00167425768, -0.0001336239, -0.184373736, -0.160105169, 0.421666443 , -0.003916369, 0.0391081423, 2.38652062  , 0.09        , 3           , 11          , 0.0346410163, 0.0346410163
0.400744021 , 0.0501917377, -9.781733   , 0.00260718  , 0.00209565158, 0.000148903884, -0.1841715  , -0.159970343, 0.4213968   , -0.00389024173, 0.0391291   , 2.38652253  , 0.1         , 3           , 12          , 0.0346410163, 0
0.384541929 , 0.054479748 , -9.79268551 , 0.00133240374, 0.00293175341, 0.0007093543, -0.184441149, -0.159835517, 0.421733856 , -0.003876642, 0.0391584449, 2.38652921  , 0.11        , 3           , 50          , 0           , 0
0.384848922 , 0.04900014  , -9.774628   , 0.002326147 , 0.00181217608, 0.000147152969, -0.184373736, -0.15990293 , 0.421531618 , -0.0038533248, 0.0391765758, 2.386531    , 0.12        , 3           , 11          , 0.0346410163, 0.0346410163
0.38838923  , 0.0439813435, -9.770553   , 0.00163123175, -0.000445119367, 0.0001403892, -0.184373736, -0.15990293 , 0.421531618 , -0.003836955, 0.0391721241, 2.386532    , 0.13        , 3           , 12          , 0.0346410163, 0
0.3908173   , 0.0516757369, -9.78587    , -0.0016181519, -0.00018551937, -1.55903763E-05, -0.184238911, -0.160037756, 0.421261966 , -0.00385314017, 0.03917027  , 2.386532    , 0.14        , 3           , 50          , 0           , 0
0.399748862 , 0.03986369  , -9.793082   , -0.000918602571, 0.00108629721, -0.0004341516, -0.184373736, -0.159835517, 0.421261966 , -0.00386249879, 0.0391811132, 2.38652778  , 0.15        , 3           , 11          , 0.0346410163, 0.0346410163
0.378547162 , 0.04642662  , -9.792313   , -0.000209910562, 0.0005279412, -0.0007142645, -0.184441149, -0.15990293 , 0.42159903  , -0.00386487832, 0.0391863659, 2.38652062  , 0.16        , 3           , 12          , 0.0346410163, 0
0.370683551 , 0.04102606  , -9.769343   , -0.000767757068, -0.000742918055, 0.0005525676, -0.184238911, -0.159835517, 0.4213968   , -0.00387234 , 0.03917896  , 2.38652635  , 0.17        , 3           , 50          , 0           , 0
0.3804162   , 0.013942847 , -9.80011749 , -0.00019482855, -0.002287704, 0.0012591586, -0.184238911, -0.159835517, 0.4213968   , -0.00387379131, 0.0391561352, 2.38653874  , 0.18        , 3           , 11          , 0.0346410163, 0.0346410163
0.350787133 , 0.0336931869, -9.8002615  , -0.00119311758, -0.000464219425, -1.404888E-05, -0.184036672, -0.159700692, 0.4213968   , -0.00388572644, 0.03915149  , 2.38653874  , 0.19        , 3           , 12          , 0.0346410163, 0
0.379659534 , 0.06399123  , -9.786356   , -0.000914502132, 0.000241598565, -0.000576725753, -0.184508562, -0.159835517, 0.421531618 , -0.00389510533, 0.0391537845, 2.386533    , 0.2         , 3           , 50          , 0           , 0
0.3864228   , 0.0580858327, -9.79808    , -5.61513843E-05, -0.00200519245, -0.000717515, -0.1841715  , -0.160037756, 0.4213968   , -0.00389594468, 0.0391337   , 2.38652587  , 0.21        , 3           , 11          , 0.03466991  , 0.0346699134
0.3839576   , 0.0205300152, -9.758933   , 0.0005005014, -0.000311981479, -0.0004297401, -0.1841715  , -0.160037756, 0.4213968   , -0.00389110716, 0.03913057  , 2.38652158  , 0.22        , 3           , 12          , 0.03466882  , 0
0.376063019 , 0.02842075  , -9.796474   , 0.0003517841, 0.00123567239, -0.000145474551, -0.184306324, -0.1597681  , 0.4214642   , -0.003887648, 0.0391429141, 2.38651967  , 0.23        , 3           , 50          , 0           , 0
0.3933801   , 0.0350041725, -9.801739   , 0.0012047221, 0.000115142306, -1.99072474E-06, -0.184036672, -0.159835517, 0.42159903  , -0.00387560157, 0.0391440652, 2.38651967  , 0.24        , 3           , 11          , 0.03466991  , 0.0346699134
0.388544619 , 0.0147222606, -9.791917   , -0.00119979866, 0.0008028183, -0.0007184434, -0.1841715  , -0.15990293 , 0.421329379 , -0.00388788059, 0.0391520672, 2.386513    , 0.25        , 3           , 12          , 0.03466882  , 0
0.3838489   , 0.0346510373, -9.797745   , -0.004307354, 0.0009225904, -0.00101525022, -0.1841715  , -0.15990293 , 0.421329379 , -0.003931353, 0.0391612537, 2.3865025   , 0.26        , 3           , 50          , 0           , 0
0.37434113  , 0.07084345  , -9.792696   , -0.00133548072, -0.000183611337, 0.0004095292, -0.184238911, -0.15990293 , 0.4214642   , -0.003944545, 0.0391594321, 2.38650632  , 0.27        , 3           , 11          , 0.03466991  , 0.0346699134
0.385554433 , 0.06303645  , -9.791286   , 0.0004976245, 0.00053272  , 0.00183186133, -0.1841715  , -0.160105169, 0.421329379 , -0.00393885374, 0.0391648337, 2.386525    , 0.28        , 3           , 12          , 0.03466882  , 0
0.356230676 , 0.0372083671, -9.791166   , -0.00204728683, 0.000937873148, 0.00012543505, -0.184036672, -0.159970343, 0.42159903  , -0.00395927764, 0.039174214 , 2.38652635  , 0.29        , 3           , 50          , 0           , 0
0.364934981 , 0.04567018  , -9.788352   , -0.002620965, -0.0004950498, -0.000586406153, -0.184036672, -0.159970343, 0.42159903  , -0.004303111, 0.0387309678, 2.38650823  , 0.3         , 3           , 11          , 0.0347534381, 0.0347534381
0.382214844 , 0.0549015328, -9.775979   , 0.00118917238, 9.386577E-05, -0.0002852222, -0.1841715  , -0.160105169, 0.4214642   , -0.0042913286, 0.03873189  , 2.38650537  , 0.31        , 3           , 12          , 0.0347539075, 0
0.3519476   , 0.05576024  , -9.79157448 , 0.001323705 , 0.00136186159, -0.0009889547, -0.184306324, -0.15990293 , 0.42159903  , -0.004278479, 0.03874547  , 2.38649535  , 0.32        , 3           , 50          , 0           , 0
0.35985     , 0.0331463   , -9.803359   , 0.0004824085, 0.000229873229, -0.000288297568, -0.1841715  , -0.1597681  , 0.4214642   , -0.004273766, 0.0387477539, 2.38649249  , 0.33        , 3           , 11          , 0.0347534381, 0.0347534381
0.383871973 , 0.0355624147, -9.800453   , 0.00232301722, -0.0006024041, 0.000849110656, -0.1841715  , -0.1597681  , 0.4214642   , -0.00425020652, 0.0387417637, 2.3865006   , 0.34        , 3           , 12          , 0.0347539075, 0
0.3898069   , 0.0408889875, -9.794962   , 0.00147159211, 0.000377347256, 0.00211809739, -0.184306324, -0.15990293 , 0.4214642   , -0.00423467252, 0.0387456268, 2.386522    , 0.35        , 3           , 50          , 0           , 0
0.366916239 , 0.028899597 , -9.77304    , 0.0003381996, 0.000932833238, 0.0005597413, -0.184575975, -0.15990293 , 0.421666443 , -0.00423107343, 0.0387549773, 2.3865273   , 0.36        , 3           , 11          , 0.0347534381, 0.0347534381
0.375465959 , 0.0550160445, -9.786427   , -0.0007938805, 0.00120675378, -0.0011403173, -0.184238911, -0.159835517, 0.4214642   , -0.004239456, 0.03876699  , 2.38651586  , 0.37        , 3           , 12          , 0.0347539075, 0
0.4008798   , 0.029843796 , -9.769612   , -0.00177204912, -0.000630097929, 0.00104191829, -0.184238911, -0.159835517, 0.4214642   , -0.00425677234, 0.03876074  , 2.38652635  , 0.38        , 3           , 50          , 0           , 0
0.407903969 , 0.0415574946, -9.788492   , 0.000206458761, -0.00103907881, 6.16047837E-05, -0.184104085, -0.1597681  , 0.42159903  , -0.00425468339, 0.03875036  , 2.3865273   , 0.39        , 3           , 11          , 0.0347534381, 0.0347534381
0.396575272 , 0.0394512564, -9.79356    , -0.000289903081, -3.862765E-05, -0.00064532907, -0.184441149, -0.159970343, 0.42159903  , -0.00422863429, 0.0389183462, 2.38652158  , 0.4         , 3           , 12          , 0.0348954   , 0
0.374692351 , 0.0319975279, -9.782007   , 0.000209793783, -0.00102076016, 0.0003443378, -0.1841715  , -0.159835517, 0.421531618 , -0.004226398, 0.0389081575, 2.38652539  , 0.41        , 3           , 50          , 0           , 0
0.376989961 , 0.0346763432, -9.781527   , 0.001747296 , 0.00215735123, 7.392532E-05, -0.184104085, -0.159700692, 0.421531618 , -0.0042089  , 0.0389297269, 2.38652587  , 0.42        , 3           , 11          , 0.0176953971, 0.017695263
0.380601048 , 0.03462475  , -9.778787   , -0.000159226271, 0.002074065 , -0.0007826849, -0.184104085, -0.159700692, 0.421531618 , -0.00421080133, 0.03895044  , 2.38651776  , 0.43        , 3           , 12          , 0.0348954   , 0
0.3864927   , 0.0216158871, -9.821735   , -0.000295890641, 0.00122841645, -0.000148935971, -0.184441149, -0.159970343, 0.421531618 , -0.00421381928, 0.0389627181, 2.38651681  , 0.44        , 3           , 50          , 0           , 0
0.3988198   , 0.035838142 , -9.800338   , 0.00224195025, 0.00216069538, 0.0007825735, -0.184441149, -0.159835517, 0.4213968   , -0.004191097, 0.03898436  , 2.38652444  , 0.45        , 3           , 11          , 0.0176953971, 0.017695263
0.387349576 , 0.03406363  , -9.769697   , 0.000486729783, -3.33755E-05, -0.000712342, -0.184238911, -0.159970343, 0.421531618 , -0.00418651 , 0.03898399  , 2.38651729  , 0.46        , 3           , 12          , 0.0348954   , 0
0.374597    , 0.02656406  , -9.77615452 , 0.00217727176, 0.000822780246, -0.00042060102, -0.184238911, -0.159970343, 0.421531618 , -0.00416490249, 0.0389922038, 2.386513    , 0.47        , 3           , 50          , 0           , 0
0.364917159 , 0.009129174 , -9.790764   , 0.00260339235, 0.000332906668, -0.000348750618, -0.1841715  , -0.15990293 , 0.421261966 , -0.004139005, 0.0389955267, 2.38650918  , 0.48        , 3           , 11          , 0.0176953971, 0.017695263
0.396079481 , 0.0443315469, -9.767328   , 0.00288032461, 0.00146107748, -0.0002044292, -0.184104085, -0.1597681  , 0.42159903  , -0.00411028555, 0.0390101224, 2.38650727  , 0.49        , 3           , 12          , 0.0348954   , 0
0.370919466 , 0.0550540835, -9.78194    , 0.002648134 , 0.00196166453, 0.000503428048, -0.184104085, -0.160037756, 0.4214642   , -0.00383198028, 0.03907671  , 2.386522    , 0.5         , 3           , 50          , 0           , 0
0.375662327 , 0.04096608  , -9.768855   , -0.0002438492, 0.0013085648, 6.51469454E-05, -0.184104085, -0.160037756, 0.4214642   , -0.003834395, 0.03908979  , 2.38652253  , 0.51        , 3           , 11          , 0.01343457  , 0.0134345181
0.392967045 , 0.04084421  , -9.792678   , -0.00200999575, 0.00129662256, -0.00163830863, -0.184508562, -0.15990293 , 0.421329379 , -0.00385513785, 0.0391026922, 2.38650632  , 0.52        , 3           , 12          , 0.0350921974, 0
0.382223427 , 0.051337678 , -9.789553   , -0.000175044508, 0.00159060536, -0.0006404335, -0.184104085, -0.160105169, 0.421666443 , -0.00385714 , 0.0391185731, 2.38649964  , 0.53        , 3           , 50          , 0           , 0
0.398173064 , 0.05569792  , -9.799808   , -0.000522546354, 0.0006027433, 0.000486551347, -0.183969259, -0.160105169, 0.421666443 , -0.00386217725, 0.0391246155, 2.38650441  , 0.54        , 3           , 11          , 0.01343457  , 0.0134345181
0.384321421 , 0.03867887  , -9.789589   , 0.000611361465, -0.0001639191, 0.001126335 , -0.183969259, -0.160105169, 0.421666443 , -0.003855622, 0.0391230248, 2.38651586  , 0.55        , 3           , 12          , 0.0350921974, 0
0.392466038 , 0.0412568338, -9.779573   , 0.00110553054, -0.000301362918, -0.000213630279, -0.184238911, -0.160037756, 0.4213968   , -0.0038446486, 0.0391199961, 2.386514    , 0.56        , 3           , 50          , 0           , 0
0.376466185 , 0.0319460258, -9.772954   , -0.00122563285, -0.0003171256, -0.00220225751, -0.184306324, -0.159565866, 0.421531618 , -0.00385776465, 0.039116744 , 2.386492    , 0.57        , 3           , 11          , 0.01343457  , 0.0134345181
0.371173859 , 0.0388194174, -9.785622   , -0.000305517344, -0.0005220864, -0.000149906031, -0.184373736, -0.15990293 , 0.42159903  , -0.0038608755, 0.03911152  , 2.38649     , 0.58        , 3           , 12          , 0.0350921974, 0
0.372300178 , 0.01986872  , -9.789759   , 0.000265835464, -0.001855701, -0.0003612364, -0.184373736, -0.15990293 , 0.42159903  , -0.00385835418, 0.0390929431, 2.38648725  , 0.59        , 3           , 50          , 0           , 0
0.3693201   , 0.0289864112, -9.806919   , 0.00386012951, 0.00132018549, -0.000692447356, -0.184104085, -0.16024    , 0.421329379 , -0.003792387, 0.03905812  , 2.386481    , 0.6         , 3           , 11          , 0.011352757 , 0.0113527607
0.375262648 , 0.0396753848, -9.786039   , 0.00230516214, 0.00166163745, -0.000487244921, -0.184306324, -0.15990293 , 0.4213968   , -0.00376952812, 0.03907471  , 2.3864758   , 0.61        , 3           , 12          , 0.0353429429, 0
0.375136346 , 0.03778763  , -9.76118851 , 0.000338462647, -0.000322685257, 0.000418745651, -0.184238911, -0.160037756, 0.421531618 , -0.00376597885, 0.0390715   , 2.38648057  , 0.62        , 3           , 50          , 0           , 0
0.375333756 , 0.009901656 , -9.788422   , -0.002340162, -0.00132630963, -0.000372261973, -0.184238911, -0.160037756, 0.421531618 , -0.00378952269, 0.0390582234, 2.38647676  , 0.63        , 3           , 11          , 0.011352757 , 0.0113527607
0.3741448   , 0.0171964876, -9.8064785  , -0.00227195374, -0.000833093247, -0.00030053893, -0.184036672, -0.160037756, 0.421329379 , -0.00381236034, 0.0390498824, 2.386474    , 0.64        , 3           , 12          , 0.0353429429, 0
0.3894115   , 0.03781636  , -9.81893349 , 0.002024003 , 0.00151894765, 0.000500102236, -0.184373736, -0.159970343, 0.42159903  , -0.00379192852, 0.0390650928, 2.38647866  , 0.65        , 3           , 50          , 0           , 0
0.387080848 , 0.0409133136, -9.792724   , 0.00019661148, -0.000112464571, 0.00112475629, -0.184238911, -0.159700692, 0.421733856 , -0.00378952269, 0.0390640125, 2.38649     , 0.66        , 3           , 11          , 0.011352757 , 0.0113527607
0.391411036 , 0.0282022171, -9.785059   , -0.000227106648, -0.000256115658, -0.000219488953, -0.1841715  , -0.160105169, 0.4214642   , -0.00379187753, 0.039061442 , 2.38648772  , 0.67        , 3           , 12          , 0.0353429429, 0
0.3955576   , 0.03669299  , -9.775048   , -0.00127929659, -0.0017414965, -0.000933049247, -0.1841715  , -0.160105169, 0.4214642   , -0.00380503363, 0.0390439928, 2.38647866  , 0.68        , 3           , 50          , 0           , 0
0.392888248 , 0.0376559123, -9.783652   , -0.00128608115, -0.000404063321, -0.00121352565, -0.1841715  , -0.159835517, 0.421531618 , -0.00381836761, 0.0390399061, 2.38646626  , 0.69        , 3           , 11          , 0.011352757 , 0.0113527607
0.387649536 , 0.0214366578, -9.772912   , -0.004490684, -0.00123834447, -0.002146555, -0.184306324, -0.159970343, 0.421666443 , -0.00378009863, 0.0390959643, 2.38644814  , 0.7         , 3           , 12          , 0.0356460735, 0
0.396862835 , 0.0352948643, -9.766457   , -0.00116626592, -0.002342161, -0.00156774174, -0.184238911, -0.1597681  , 0.42159903  , -0.00379237044, 0.0390724838, 2.38643241  , 0.71        , 3           , 50          , 0           , 0
0.408653051 , 0.06410973  , -9.788394   , 0.00157586962, 0.000210551661, 0.000214862812, -0.184238911, -0.1597681  , 0.42159903  , -0.003776527, 0.039074596 , 2.38643479  , 0.72        , 3           , 11          , 0.0101331705, 0.010133177
0.3909234   , 0.0263938662, -9.782358   , 0.00327055622, 8.122622E-05, -0.0007663336, -0.1841715  , -0.159700692, 0.4214642   , -0.00374411955, 0.03907538  , 2.38642716  , 0.73        , 3           , 12          , 0.0356460735, 0
0.380552351 , 0.02922908  , -9.784233   , 0.000509309233, 0.00161121227, -0.000635518343, -0.184306324, -0.15990293 , 0.421801269 , -0.003739276, 0.03909146  , 2.38642049  , 0.74        , 3           , 50          , 0           , 0
0.376642764 , 0.0387843549, -9.79416752 , -0.000541861, 0.000125836188, 0.0004167804, -0.184104085, -0.159835517, 0.421531618 , -0.003744532, 0.03909274  , 2.38642478  , 0.75        , 3           , 11          , 0.0101331705, 0.010133177
0.381355852 , 0.0273503363, -9.765252   , 0.00178842712, 7.12018445E-05, 0.000286267867, -0.184104085, -0.159835517, 0.421531618 , -0.003726537, 0.03909346  , 2.38642764  , 0.76        , 3           , 12          , 0.0356460735, 0
0.385060549 , 0.0354088843, -9.759315   , 0.0010799428, 0.000488773 , -0.000281448418, -0.1841715  , -0.160105169, 0.421531618 , -0.00371584925, 0.0390983373, 2.38642478  , 0.77        , 3           , 50          , 0           , 0
0.373081    , 0.0527127832, -9.764306   , 0.0018582776, 0.0001420687, -0.000419637945, -0.1841715  , -0.159700692, 0.421531618 , -0.00369742932, 0.039099738 , 2.38642049  , 0.78        , 3           , 11          , 0.0101331705, 0.010133177
0.360892057 , 0.0488685146, -9.78611    , 0.00164155976, 0.00105572084, -0.0010549248, -0.184238911, -0.159970343, 0.42159903  , -0.00368142873, 0.0391102619, 2.38641     , 0.79        , 3           , 12          , 0.0356460735, 0
0.382419735 , 0.0622091554, -9.802613   , 0.00160108285, 0.00222666166, -0.000630750263, -0.184238911, -0.159970343, 0.42159903  , -0.003723367, 0.03908992  , 2.38640141  , 0.8         , 3           , 50          , 0           , 0
0.390870333 , 0.0552894846, -9.78721    , 0.001676691 , 0.00124166207, -0.000420036638, -0.184104085, -0.159835517, 0.4213968   , -0.00370676629, 0.0391023234, 2.38639665  , 0.81        , 3           , 11          , 0.009378899 , 0.009378909
0.3892471   , 0.0323269553, -9.796358   , -0.00107278861, 0.0003783446, -0.0004341786, -0.184575975, -0.160105169, 0.421666443 , -0.003717665, 0.0391060933, 2.38639283  , 0.82        , 3           , 12          , 0.0359998569, 0
0.386544347 , 0.038619034 , -9.779629   , -8.894785E-05, 0.00130011537, -0.0006400622, -0.1841715  , -0.160105169, 0.421531618 , -0.00371880666, 0.0391190648, 2.38638616  , 0.83        , 3           , 50          , 0           , 0
0.3850339   , 0.0295847375, -9.771543   , 0.000126438914, 0.0005976356, -0.0004988905, -0.1841715  , -0.160105169, 0.421531618 , -0.0037177382, 0.03912502  , 2.38638139  , 0.84        , 3           , 11          , 0.009378899 , 0.009378909
0.378581882 , 0.0179624911, -9.781584   , -0.0008556002, -0.0006056984, 0.000412902649, -0.183969259, -0.159835517, 0.421329379 , -0.00372613245, 0.0391189829, 2.3863852   , 0.85        , 3           , 12          , 0.0359998569, 0
0.372298062 , 0.0220987778, -9.782067   , -0.000286175229, -0.00151696464, 0.00048476056, -0.184104085, -0.159970343, 0.421531618 , -0.00372880022, 0.0391038321, 2.38639     , 0.86        , 3           , 50          , 0           , 0
0.398604542 , 0.0596924946, -9.78171    , -0.0008554964, -0.0006760907, -1.10119345E-05, -0.184508562, -0.1597681  , 0.421531618 , -0.00373735721, 0.03909707  , 2.38639     , 0.87        , 3           , 11          , 0.009378899 , 0.009378909
0.373882055 , 0.03476345  , -9.796465   , -0.0009238118, -0.00095812924, 0.00154218113, -0.1841715  , -0.160105169, 0.421329379 , -0.00374599057, 0.0390875377, 2.38640523  , 0.88        , 3           , 12          , 0.0359998569, 0
0.379139483 , 0.0184884481, -9.8055315  , 0.000836031744, -0.000101501995, -0.0004260487, -0.1841715  , -0.160105169, 0.421329379 , -0.0037377968, 0.0390865058, 2.38640141  , 0.89        , 3           , 50          , 0           , 0
0.370195657 , 0.03386133  , -9.783842   , -0.00173903792, -0.00273318077, -0.000441347423, -0.184104085, -0.15990293 , 0.42159903  , -0.003721042, 0.0390458219, 2.386398    , 0.9         , 3           , 11          , 0.008913802 , 0.008913806
0.408450723 , 0.050108932 , -9.783935   , -0.001101305, -0.003080837, 0.000479319948, -0.184373736, -0.159835517, 0.421733856 , -0.0037318652, 0.0390150361, 2.38640332  , 0.91        , 3           , 12          , 0.0364024   , 0
0.407802641 , 0.0329946876, -9.791242   , -0.00372352963, -0.00119794183, -0.000165641861, -0.183969259, -0.160105169, 0.4213968   , -0.003769161, 0.0390030444, 2.38640141  , 0.92        , 3           , 50          , 0           , 0
0.3887039   , 0.026010111 , -9.79458    , -0.0005509588, -0.000402154925, -0.00170358911, -0.183969259, -0.160105169, 0.4213968   , -0.00377533538, 0.03899897  , 2.38638425  , 0.93        , 3           , 11          , 0.008913802 , 0.008913806
0.391733944 , 0.04631782  , -9.805772   , 0.00065429  , -0.00116833614, 0.000207942343, -0.184036672, -0.15990293 , 0.421666443 , -0.00376871 , 0.03898729  , 2.38638616  , 0.94        , 3           , 12          , 0.0364024   , 0
0.389627278 , 0.027352931 , -9.794568   , 0.000166190162, -0.00229793624, 0.00119278312, -0.184441149, -0.159970343, 0.421531618 , -0.00376658165, 0.0389643535, 2.38639855  , 0.95        , 3           , 50          , 0           , 0
0.384271622 , 0.0368530974, -9.78327    , -0.00125501992, -0.000688492029, -0.000647799869, -0.183834434, -0.160037756, 0.421329379 , -0.00377938338, 0.0389574468, 2.38639188  , 0.96        , 3           , 11          , 0.008913802 , 0.008913806
0.382763237 , 0.0580981225, -9.789068   , -0.0001946292, -0.0008925022, -0.000219380789, -0.183834434, -0.160037756, 0.421329379 , -0.0037814125, 0.03894851  , 2.38639     , 0.97        , 3           , 12          , 0.0364024   , 0
0.390552729 , 0.0264656972, -9.802248   , 0.002632894 , -0.00136613729, 0.00120571663, -0.184238911, -0.159835517, 0.421531618 , -0.00375461113, 0.0389348939, 2.38640237  , 0.98        , 3           , 50          , 0           , 0
0.3728462   , 0.0600363   , -9.794107   , 0.002780444 , -0.00270261778, 0.0007098733, -0.184238911, -0.1597681  , 0.421666443 , -0.0037265257, 0.0389078967, 2.386409    , 0.99        , 3           , 11          , 0.008913802 , 0.008913806
0.37286666  , 0.06764086  , -9.774641   , 0.001236664 , -0.00222993526, -0.0008523952, -0.184036672, -0.15990293 , 0.421733856 , -0.00378742348, 0.0389612727, 2.3863976   , 1           , 3           , 12          , 0.0368517078, 0
0.39704144  , 0.04749107  , -9.770924   , -0.00194516836, -0.001336336, -0.0008658003, -0.184036672, -0.15990293 , 0.421733856 , -0.00380721129, 0.0389478765, 2.386389    , 1.01        , 3           , 50          , 0           , 0
0.389287949 , 0.0345917866, -9.79906    , -0.00265982933, 0.0005594573, 0.000546523661, -0.184238911, -0.160037756, 0.421531618 , -0.00383359846, 0.0389534943, 2.38639474  , 1.02        , 3           , 11          , 0.008636016 , 0.008636022
0.391269863 , 0.018714441 , -9.781032   , -0.00068562926, 0.00113595719, 0.000556609943, -0.1841715  , -0.15990293 , 0.421733856 , -0.003840238, 0.03896488  , 2.38640046  , 1.03        , 3           , 12          , 0.0368517078, 0
0.398637652 , 0.0289952885, -9.777768   , 0.00185680913, 0.000941970851, -0.000208841026, -0.184036672, -0.15990293 , 0.42159903  , -0.00382175343, 0.0389742851, 2.386398    , 1.04        , 3           , 50          , 0           , 0
0.384704351 , 0.03236802  , -9.792776   , 0.0010116566, 0.000654679432, 0.00105819292, -0.184036672, -0.15990293 , 0.42159903  , -0.00381122436, 0.0389808752, 2.386409    , 1.05        , 3           , 11          , 0.008636016 , 0.008636022
0.3784984   , 0.0486188754, -9.773321   , 0.00157966919, -4.54149158E-05, 0.0004946669, -0.184104085, -0.15990293 , 0.4214642   , -0.003795235, 0.038980443 , 2.38641381  , 1.06        , 3           , 12          , 0.0368517078, 0
0.3650653   , 0.0555955   , -9.788311   , 0.002356139 , -4.01634279E-05, 0.000145116544, -0.184238911, -0.159970343, 0.421531618 , -0.00377161731, 0.03898005  , 2.38641524  , 1.07        , 3           , 50          , 0           , 0
0.363038421 , 0.04115876  , -9.782059   , 0.000167594262, 1.54285244E-05, 0.00119453436, -0.184104085, -0.15990293 , 0.4213968   , -0.0037694755, 0.0389802456, 2.38642716  , 1.08        , 3           , 11          , 0.008636016 , 0.008636022
0.373829126 , 0.03382788  , -9.786527   , 0.00172668486, -0.001241112, 0.000281578134, -0.184104085, -0.15990293 , 0.4213968   , -0.00375209749, 0.0389678478, 2.38643     , 1.09        , 3           , 12          , 0.0368517078, 0
0.375071526 , 0.0256836545, -9.78429    , 0.000119582321, -0.000864840171, 0.00154420268, -0.1847108  , -0.160105169, 0.4213968   , -0.00381198316, 0.0389174335, 2.38644338  , 1.1         , 3           , 50          , 0           , 0
0.375287    , 0.04237323  , -9.783316   , -0.000450332125, 4.642391E-05, 0.0006247324, -0.184238911, -0.159700692, 0.421666443 , -0.00381624443, 0.03891793  , 2.386449    , 1.11        , 3           , 11          , 0.008482762 , 0.00848276
0.404405683 , 0.0479493961, -9.798437   , -0.001647239, -0.0008063926, -0.000724219251, -0.1841715  , -0.15990293 , 0.4213968   , -0.00383299612, 0.03890983  , 2.38644242  , 1.12        , 3           , 12          , 0.0373456962, 0
0.3992728   , 0.03360126  , -9.807576   , 0.0002476194, 0.0015998045, -0.0001465666, -0.184441149, -0.160037756, 0.421127141 , -0.003830579, 0.0389258228, 2.38644052  , 1.13        , 3           , 50          , 0           , 0
0.364510477 , 0.01095723  , -9.796184   , 0.0025083276, 0.00126312592, -0.0009135514, -0.184441149, -0.160037756, 0.421127141 , -0.00380585226, 0.03893841  , 2.386431    , 1.14        , 3           , 11          , 0.008482762 , 0.00848276
0.356045663 , 0.02143622  , -9.796657   , -0.004196132, 0.000584242865, -0.0008751706, -0.184441149, -0.1597681  , 0.4214642   , -0.003848155, 0.038944222 , 2.3864224   , 1.15        , 3           , 12          , 0.0373456962, 0
0.3743166   , 0.0378678069, -9.781985   , -0.00172157562, -0.000102958409, -0.00114726962, -0.184373736, -0.159700692, 0.42159903  , -0.00386581919, 0.03894315  , 2.386411    , 1.16        , 3           , 50          , 0           , 0
0.378515124 , 0.0383663662, -9.810427   , -0.0001055774, 0.00159741635, -0.00043075002, -0.184238911, -0.15990293 , 0.4214642   , -0.00386704458, 0.0389591   , 2.38640618  , 1.17        , 3           , 11          , 0.008482762 , 0.00848276
0.390730381 , 0.07250962  , -9.808384   , 0.00264836941, 0.0016160399, 7.65304649E-05, -0.184238911, -0.15990293 , 0.4214642   , -0.00384053425, 0.0389752723, 2.38640714  , 1.18        , 3           , 12          , 0.0373456962, 0
0.38005662  , 0.04653313  , -9.828912   , 0.002509655 , 0.00119273935, 0.000781564857, -0.184508562, -0.1597681  , 0.42159903  , -0.00381513615, 0.03898723  , 2.38641477  , 1.19        , 3           , 50          , 0           , 0
0.370729446 , 0.03749244  , -9.791958   , 0.0004059153, 0.000644168758, -0.0007144789, -0.184441149, -0.16024    , 0.421531618 , -0.00387712638, 0.03894587  , 2.38640523  , 1.2         , 3           , 11          , 0.008403363 , 0.008403358
0.3803235   , 0.0472698621, -9.780996   , -0.00121859147, 0.0007035768, -0.00107511459, -0.184306324, -0.160172582, 0.421329379 , -0.00388973323, 0.0389528647, 2.38639474  , 1.21        , 3           , 12          , 0.0378822275, 0
0.372868717 , 0.0302232541, -9.78474    , 0.00012311773, 0.000783042866, -0.0001505041, -0.184306324, -0.160172582, 0.421329379 , -0.00388856023, 0.03896069  , 2.38639283  , 1.22        , 3           , 50          , 0           , 0
0.386145651 , 0.0386681929, -9.79274    , -0.0005852443, 0.0012006145, -0.000506317243, -0.184508562, -0.159633279, 0.4213968   , -0.0038946108, 0.0389726758, 2.386388    , 1.23        , 3           , 11          , 0.008403363 , 0.008403358
0.397019744 , 0.0331903026, -9.811662   , -0.000370617578, 0.000709309941, 0.0001296203, -0.184238911, -0.159970343, 0.421666443 , -0.003898268, 0.0389797762, 2.386389    , 1.24        , 3           , 12          , 0.0378822275, 0
0.3779919   , 0.0338511057, -9.807737   , -0.002047798, -0.00268092775, 0.00124666141, -0.184306324, -0.160105169, 0.421531618 , -0.003918256, 0.0389530174, 2.386402    , 1.25        , 3           , 50          , 0           , 0
0.380730331 , 0.0405320451, -9.791417   , -0.00120889652, -0.0011969863, -0.000583603163, -0.184306324, -0.160105169, 0.421531618 , -0.00393057056, 0.0389410257, 2.38639617  , 1.26        , 3           , 11          , 0.008403363 , 0.008403358
0.4111271   , 0.0357611477, -9.820132   , -0.00114158937, -0.000562988047, -0.000864835049, -0.183969259, -0.1597681  , 0.4214642   , -0.00394232 , 0.0389353558, 2.38638759  , 1.27        , 3           , 12          , 0.0378822275, 0
0.398566872 , 0.0489495248, -9.807066   , -0.000661549449, 0.002326397 , -0.0007168138, -0.184306324, -0.1597681  , 0.42159903  , -0.00394922076, 0.03895859  , 2.38638043  , 1.28        , 3           , 50          , 0           , 0
0.3879352   , 0.03461227  , -9.80042648 , -0.00128977653, 0.0009846683, 0.000337677338, -0.184238911, -0.159970343, 0.42159903  , -0.003961988, 0.038968455 , 2.3863833   , 1.29        , 3           , 11          , 0.008403363 , 0.008403358
0.369066328 , 0.0211928636, -9.769892   , -0.00326107629, 7.218406E-05, 0.002375632 , -0.184238911, -0.159970343, 0.42159903  , -0.003994097, 0.0390666053, 2.38640714  , 1.3         , 3           , 12          , 0.0384591371, 0
0.375597477 , 0.03645003  , -9.767518   , -0.000450392254, 0.00255497172, -8.97021E-06, -0.1841715  , -0.15990293 , 0.421329379 , -0.00399860833, 0.03909215  , 2.38640714  , 1.31        , 3           , 50          , 0           , 0
0.391157866 , 0.04354517  , -9.784545   , -0.00481671235, 0.000202454132, -0.00038613443, -0.1841715  , -0.160037756, 0.42159903  , -0.00404692767, 0.03909416  , 2.38640332  , 1.32        , 3           , 11          , 0.00836632  , 0.008366312
0.402675152 , 0.02356084  , -9.785896   , -0.004102647, -0.001482163, -0.001021155, -0.184104085, -0.159835517, 0.421666443 , -0.00408835057, 0.0390792973, 2.38639283  , 1.33        , 3           , 12          , 0.0384591371, 0
0.379745871 , 0.0270882715, -9.815434   , -0.0022     , -0.00062457344, -0.000233986022, -0.184104085, -0.159835517, 0.421666443 , -0.004110439, 0.0390730463, 2.386391    , 1.34        , 3           , 50          , 0           , 0
0.386341184 , 0.05355618  , -9.792677   , 6.285907E-05, -0.00131320674, -0.0002951696, -0.184238911, -0.15990293 , 0.4214642   , -0.00410992466, 0.0390599   , 2.386388    , 1.35        , 3           , 11          , 0.00836632  , 0.008366312
0.4030298   , 0.04438032  , -9.805695   , -0.000149891479, -0.0008218931, 0.002318074 , -0.184306324, -0.159970343, 0.4213968   , -0.004110517, 0.03905178  , 2.386411    , 1.36        , 3           , 12          , 0.0384591371, 0
0.379627556 , 0.0310095418, -9.773837   , 0.000412997062, -0.000536510837, 0.00133226044, -0.1841715  , -0.160037756, 0.42159903  , -0.004105865, 0.0390464664, 2.3864243   , 1.37        , 3           , 50          , 0           , 0
0.387308    , 0.0358153172, -9.753871   , 0.00174068834, 0.00221782  , 0.0009189403, -0.184238911, -0.159835517, 0.4214642   , -0.0040881047, 0.039068684 , 2.38643384  , 1.38        , 3           , 11          , 0.00836632  , 0.008366312
0.377597153 , 0.03925965  , -9.804554   , 0.000819423469, 0.002704347 , -0.0007091707, -0.184238911, -0.159835517, 0.4214642   , -0.004080194, 0.0390956961, 2.38642621  , 1.39        , 3           , 12          , 0.0384591371, 0
0.358106524 , 0.03902497  , -9.801088   , 0.00151674578, -0.00140008237, 0.000207386358, -0.184373736, -0.160037756, 0.4214642   , -0.00401858427, 0.0391320623, 2.38643     , 1.4         , 3           , 50          , 0           , 0
0.355587631 , 0.0142956851, -9.818385   , 0.00207940838, -0.00104430842, -0.0005664154, -0.184373736, -0.159700692, 0.421531618 , -0.00399801228, 0.039121598 , 2.3864243   , 1.41        , 3           , 11          , 0.008346938 , 0.008346931
0.389216    , 0.03319449  , -9.785959   , 0.001498542 , 0.002260263 , 7.175869E-05, -0.1841715  , -0.159970343, 0.421329379 , -0.00398300262, 0.0391442031, 2.38642526  , 1.42        , 3           , 12          , 0.03907426  , 0
0.37118575  , 0.03213379  , -9.810057   , 0.00214572554, 1.20428012E-05, 0.00106013147, -0.1841715  , -0.159970343, 0.421329379 , -0.003961131, 0.0391443558, 2.38643575  , 1.43        , 3           , 50          , 0           , 0
0.3681406   , 0.03896699  , -9.818639   , 0.0021995483, 0.00318012224, -0.0008417854, -0.184643388, -0.159970343, 0.42159903  , -0.00393947028, 0.03917613  , 2.38642716  , 1.44        , 3           , 11          , 0.008346938 , 0.008346931
0.3865342   , 0.03504006  , -9.788684   , 0.00107211759, 0.00267974264, -0.00113034982, -0.184373736, -0.1597681  , 0.4214642   , -0.003929194, 0.0392028838, 2.38641572  , 1.45        , 3           , 12          , 0.03907426  , 0
0.377771437 , 0.0256381519, -9.780202   , -0.0007515854, 0.0003444185, -0.000153608926, -0.1841715  , -0.160172582, 0.421261966 , -0.00393677 , 0.0392063148, 2.38641381  , 1.46        , 3           , 50          , 0           , 0
0.37322256  , 0.0198717   , -9.79382    , -0.0004011953, 0.000839543936, -0.000504375144, -0.1841715  , -0.160172582, 0.421261966 , -0.00394098274, 0.039214693 , 2.386409    , 1.47        , 3           , 11          , 0.008346938 , 0.008346931
0.355695754 , 0.0371471643, -9.771283   , 0.000307744835, 0.000140403208, -0.00156168325, -0.184238911, -0.1597681  , 0.421329379 , -0.00393852 , 0.0392160378, 2.38639331  , 1.48        , 3           , 12          , 0.03907426  , 0
0.373141646 , 0.0189134628, -9.77710152 , -0.00102833239, -0.000854144339, -0.000580576248, -0.184306324, -0.159835517, 0.4214642   , -0.0039490303, 0.0392074659, 2.38638759  , 1.49        , 3           , 50          , 0           , 0
0.378870875 , 0.03828243  , -9.786921   , -0.00160568533, -0.00143124023, -0.002699157, -0.1841715  , -0.160105169, 0.4214642   , -0.003818017, 0.0390196   , 2.38636613  , 1.5         , 3           , 11          , 0.008331325 , 0.008331321
0.394013762 , 0.04764318  , -9.805297   , -0.0008258378, -0.001918723, -0.00142487639, -0.1841715  , -0.160105169, 0.4214642   , -0.00382682751, 0.03900036  , 2.38635182  , 1.51        , 3           , 12          , 0.0397254638, 0
0.3822806   , 0.0504913181, -9.806279   , -0.00202504685, -0.00206762133, -0.0007243467, -0.1841715  , -0.160037756, 0.4213968   , -0.00384735968, 0.038979657 , 2.38634515  , 1.52        , 3           , 50          , 0           , 0
0.3763099   , 0.0446894057, -9.804541   , 0.0004337641, 0.000483177253, -0.000497015, -0.184306324, -0.159970343, 0.421531618 , -0.0038432146, 0.03898447  , 2.38634     , 1.53        , 3           , 11          , 0.008331325 , 0.008331321
0.366831243 , 0.0524131544, -9.787407   , 0.00227093627, 7.324117E-05, -0.00168989017, -0.1841715  , -0.159700692, 0.4213968   , -0.00382116367, 0.0389851369, 2.38632321  , 1.54        , 3           , 12          , 0.0397254638, 0
0.3749243   , 0.05584201  , -9.762018   , 0.00320173637, -0.00245463522, -0.00105380616, -0.1841715  , -0.159700692, 0.4213968   , -0.00378955132, 0.0389605463, 2.38631272  , 1.55        , 3           , 50          , 0           , 0
0.3655512   , 0.06008054  , -9.78196049 , -0.001039775, -0.00128662947, 0.0003409714, -0.184104085, -0.160172582, 0.4213968   , -0.003799816, 0.03894769  , 2.386316    , 1.56        , 3           , 11          , 0.008331325 , 0.008331321
0.38292098  , 0.0346435346, -9.792329   , 0.00191662356, 0.000633991149, 0.000922803069, -0.184238911, -0.15990293 , 0.4213968   , -0.00378028979, 0.0389540642, 2.38632512  , 1.57        , 3           , 12          , 0.0397254638, 0
0.3914371   , 0.0255452059, -9.799985   , -0.00168464473, 0.0006096375, 0.000340937171, -0.184104085, -0.160105169, 0.4214642   , -0.003797004, 0.0389601775, 2.386329    , 1.58        , 3           , 50          , 0           , 0
0.378781766 , 0.0337467343, -9.779709   , -0.00231663836, -0.000168965664, -0.000298928353, -0.184104085, -0.160105169, 0.4214642   , -0.003820285, 0.03895847  , 2.386326    , 1.59        , 3           , 11          , 0.008331325 , 0.008331321
0.396775037 , 0.024957696 , -9.778253   , -0.0007296547, 0.0008522075, 0.000203243922, -0.183969259, -0.160105169, 0.421329379 , -0.00386560778, 0.0389127359, 2.386326    , 1.6         , 3           , 12          , 0.0404106341, 0
0.3683895   , 0.0254059732, -9.81236649 , -0.000304779969, 0.000432720757, -0.00127875339, -0.184104085, -0.160105169, 0.42159903  , -0.00386915379, 0.0389170162, 2.3863132   , 1.61        , 3           , 50          , 0           , 0
0.362718463 , 0.0417180359, -9.812793   , -0.00134879851, -0.00239008665, 0.000689731271, -0.184238911, -0.15990293 , 0.4214642   , -0.00388236926, 0.03889314  , 2.38632035  , 1.62        , 3           , 11          , 0.008309145 , 0.00830915
0.368940681 , 0.03753185  , -9.797395   , -0.0008528312, -0.00266830786, 0.00125667686, -0.184373736, -0.160105169, 0.421194553 , -0.003890404, 0.03886651  , 2.38633275  , 1.63        , 3           , 12          , 0.0404106341, 0
0.3761516   , 0.0347414   , -9.797804   , 0.0008204191, 0.00128505426, -0.00183725869, -0.184373736, -0.160105169, 0.421194553 , -0.00388291525, 0.03887928  , 2.38631463  , 1.64        , 3           , 50          , 0           , 0
0.405680776 , 0.04875865  , -9.77537251 , 0.00026105257, 0.000436545379, 0.000419105345, -0.184441149, -0.160037756, 0.4214642   , -0.0038801448, 0.0388836637, 2.38631845  , 1.65        , 3           , 11          , 0.008309145 , 0.00830915
0.385433763 , 0.0286438558, -9.761599   , -0.00172200077, 0.00154943357, -0.000435989728, -0.1841715  , -0.159835517, 0.4214642   , -0.003897536, 0.03889914  , 2.38631415  , 1.66        , 3           , 12          , 0.0404106341, 0
0.378792    , 0.0400038846, -9.762055   , -0.00058917905, 0.0009939449, 0.000133484937, -0.184104085, -0.159970343, 0.4214642   , -0.00390337687, 0.0389090851, 2.38631558  , 1.67        , 3           , 50          , 0           , 0
0.3894037   , 0.0373637043, -9.818483   , -0.00198335433, -0.00267595169, -0.00016127812, -0.184104085, -0.159970343, 0.4214642   , -0.003923269, 0.0388823226, 2.38631415  , 1.68        , 3           , 11          , 0.008309145 , 0.00830915
0.394509    , 0.05213577  , -9.801208   , -0.000306425936, 0.0009958565, 0.000699876866, -0.184306324, -0.15990293 , 0.4214642   , -0.003926061, 0.0388923064, 2.38632131  , 1.69        , 3           , 12          , 0.0404106341, 0
0.370903134 , 0.0505773425, -9.792355   , 0.0005248721, 0.00104310433, 0.0009858808, -0.1841715  , -0.1597681  , 0.42159903  , -0.00394026143, 0.0389536768, 2.38633     , 1.7         , 3           , 50          , 0           , 0
0.3796058   , 0.03947256  , -9.741261   , 0.00193438155, 0.00161578506, 0.001275871 , -0.183969259, -0.159970343, 0.4214642   , -0.003920424, 0.03896989  , 2.38634276  , 1.71        , 3           , 11          , 0.008277111 , 0.008277112
0.3866249   , 0.0142092183, -9.767075   , -2.39948276E-05, -0.00205792836, 0.00210862374, -0.183969259, -0.159970343, 0.4214642   , -0.00391984032, 0.0389493927, 2.38636422  , 1.72        , 3           , 12          , 0.04112772  , 0
0.386068881 , 0.0153957941, -9.848883   , -0.00313887629, -0.0009526904, -0.00242472626, -0.184036672, -0.159835517, 0.421329379 , -0.003952173, 0.0389397666, 2.38633943  , 1.73        , 3           , 50          , 0           , 0
0.368709981 , 0.0127956336, -9.820551   , 0.0008193557, -0.00148907374, 0.000135679918, -0.184306324, -0.1597681  , 0.421329379 , -0.003943924, 0.03892488  , 2.38634133  , 1.74        , 3           , 11          , 0.008277111 , 0.008277112
0.37964955  , 0.0203149542, -9.813656   , -0.00371046225, 0.0007328881, 0.000400617864, -0.184306324, -0.160037756, 0.42159903  , -0.003980871, 0.0389322266, 2.38634515  , 1.75        , 3           , 12          , 0.04112772  , 0
0.3897451   , 0.04307065  , -9.772806   , -0.00172945566, -9.843806E-05, 0.000125997161, -0.184306324, -0.160037756, 0.42159903  , -0.00399811426, 0.0389312431, 2.386346    , 1.76        , 3           , 50          , 0           , 0
0.3871196   , 0.0556743033, -9.754696   , 0.000793032756, 0.00386066362, 0.000426462153, -0.184238911, -0.15990293 , 0.4213968   , -0.00399002573, 0.0389698669, 2.38635039  , 1.77        , 3           , 11          , 0.008277111 , 0.008277112
0.364791334 , 0.0303779   , -9.802428   , 0.00138609263, -0.00176681648, 0.0009854923, -0.184373736, -0.15990293 , 0.4213968   , -0.003975778, 0.03895224  , 2.38636041  , 1.78        , 3           , 12          , 0.04112772  , 0
0.3840748   , 0.03751216  , -9.843835   , -0.00427424861, 0.000447501516, -0.000167524617, -0.184306324, -0.159970343, 0.4213968   , -0.00401858473, 0.0389567055, 2.3863585   , 1.79        , 3           , 50          , 0           , 0
0.394419581 , 0.06716514  , -9.841825   , -0.00309200818, 0.00184604514, -0.002135572, -0.184306324, -0.159970343, 0.4213968   , -0.00397318555, 0.038953606 , 2.38634038  , 1.8         , 3           , 11          , 0.00823262  , 0.008232619
0.365253836 , 0.04109287  , -9.77029    , 0.00115717785, -0.000377818244, 0.000706085353, -0.184238911, -0.15990293 , 0.4213968   , -0.003961338, 0.03894985  , 2.386347    , 1.81        , 3           , 12          , 0.041874744 , 0
0.368509322 , 0.0540695   , -9.74942    , 0.000588468451, 0.000463058648, 0.0012698283, -0.184238911, -0.15990293 , 0.4214642   , -0.0039549605, 0.0389545336, 2.38636     , 1.82        , 3           , 50          , 0           , 0
0.3946618   , 0.06475743  , -9.79799    , 0.0014380475, -9.434391E-05, 0.0004252987, -0.184306324, -0.159835517, 0.4213968   , -0.00394041324, 0.0389536   , 2.38636422  , 1.83        , 3           , 11          , 0.00823262  , 0.008232619
0.376518369 , 0.0569098   , -9.81624    , -0.000819558, -0.0006727586, -0.00128132931, -0.184306324, -0.159835517, 0.4213968   , -0.00394910853, 0.0389468223, 2.38635135  , 1.84        , 3           , 12          , 0.041874744 , 0
0.3892119   , 0.05498811  , -9.825643   , -0.00252380269, 0.00156830926, 0.00125707767, -0.184104085, -0.1597681  , 0.421059728 , -0.003973859, 0.0389625579, 2.38636422  , 1.85        , 3           , 50          , 0           , 0
0.3939385   , 0.0742891   , -9.811968   , -0.000272826321, 0.00299140741, -0.00127305428, -0.184238911, -0.159565866, 0.421531618 , -0.00397708826, 0.03899242  , 2.38635087  , 1.86        , 3           , 11          , 0.00823262  , 0.008232619
0.369536519 , 0.0621916838, -9.752995   , -0.00196238933, 0.002135256 , 0.000130429486, -0.184306324, -0.15990293 , 0.42159903  , -0.00399666466, 0.0390137732, 2.3863523   , 1.87        , 3           , 12          , 0.041874744 , 0
0.359357655 , 0.0402611829, -9.77079    , 0.0005850279, 0.0010261857, 0.000140546152, -0.184036672, -0.160037756, 0.421531618 , -0.00399076147, 0.03902404  , 2.38635373  , 1.88        , 3           , 50          , 0           , 0
0.3994044   , 0.0177134331, -9.780069   , -0.004758615, -0.00351514388, 0.000391118927, -0.184036672, -0.160037756, 0.421531618 , -0.004038187, 0.0389888957, 2.38635755  , 1.89        , 3           , 11          , 0.00823262  , 0.008232619
0.4045549   , 0.0280586518, -9.788123   , 0.0002250243, -0.000672756461, 0.000133201931, -0.1841715  , -0.15990293 , 0.421261966 , -0.00414938061, 0.0389720835, 2.38635468  , 1.9         , 3           , 12          , 0.0426497832, 0
0.375691    , 0.03429406  , -9.797358   , 0.0007802088, 0.00102044782, -0.00212186016, -0.184238911, -0.159835517, 0.4213968   , -0.00414240733, 0.0389821976, 2.38633275  , 1.91        , 3           , 50          , 0           , 0
0.371965647 , 0.0311286338, -9.782483   , -0.00121104531, 0.00382272736, -0.00269181444, -0.184238911, -0.159835517, 0.421261966 , -0.00415557576, 0.0390203148, 2.386306    , 1.92        , 3           , 11          , 0.008178578 , 0.00817858148
0.361502022 , 0.0271935482, -9.783484   , -0.00174901239, -0.0012492555, 0.000405653031, -0.184238911, -0.159835517, 0.421261966 , -0.00417290349, 0.0390078463, 2.38630986  , 1.93        , 3           , 12          , 0.0426497832, 0
0.380468726 , 0.0296076555, -9.762537   , 0.00136153866, -0.00207294244, -0.000146237246, -0.184036672, -0.15990293 , 0.421261966 , -0.00415934 , 0.0389871038, 2.386309    , 1.94        , 3           , 50          , 0           , 0
0.3879346   , 0.04398515  , -9.770104   , 0.0002250243, -0.000672756461, 0.000133201931, -0.184238911, -0.159970343, 0.421261966 , -0.004157037, 0.03898038  , 2.38630986  , 1.95        , 3           , 11          , 0.008178578 , 0.00817858148
0.377967119 , 0.03561639  , -9.795979   , -0.000622582447, -0.0006784878, -0.0004358236, -0.184104085, -0.15990293 , 0.421329379 , -0.004163432, 0.0389735773, 2.386306    , 1.96        , 3           , 12          , 0.0426497832, 0
0.394148052 , 0.0228305962, -9.807207   , -0.00147002609, -0.0006842186, -0.000722311845, -0.184104085, -0.15990293 , 0.421329379 , -0.004178414, 0.0389667042, 2.38629842  , 1.97        , 3           , 50          , 0           , 0
0.3698584   , 0.03887013  , -9.796027   , 0.00133135985, 0.00412149169, 0.0007109216, -0.184104085, -0.159970343, 0.421261966 , -0.00416482938, 0.03900795  , 2.386305    , 1.98        , 3           , 11          , 0.008178578 , 0.00817858148
0.37600255  , 0.0248009544, -9.793326   , -0.000338761631, -0.000958143035, -0.000434940623, -0.1841715  , -0.159633279, 0.4213968   , -0.00416838657, 0.0389983468, 2.38630128  , 1.99        , 3           , 12          , 0.0426497832, 0
0.389263242 , 0.03903526  , -9.778703   , -0.00280996226, 0.000404181221, 0.0009709371, -0.184373736, -0.159835517, 0.4214642   , -0.00409070635, 0.0389636457, 2.38631463  , 2           , 3           , 50          , 0           , 0
0.391450077 , 0.0580651537, -9.809342   , -0.00309304125, 0.0004022681, -0.000160529453, -0.184373736, -0.159835517, 0.4214642   , -0.0041217  , 0.0389676653, 2.3863132   , 2.01        , 3           , 11          , 0.00811546948, 0.008115468
0.362563163 , 0.03846775  , -9.785237   , -0.00139011675, -0.00127566257, -0.000155231464, -0.184373736, -0.160105169, 0.421194553 , -0.004135661, 0.0389549024, 2.38631177  , 2.02        , 3           , 12          , 0.04345102  , 0
0.3821872   , 0.0477375463, -9.79228    , 0.000292877026, 0.00126988767, 0.00155180041, -0.184238911, -0.15990293 , 0.4213968   , -0.004132129, 0.03896767  , 2.386327    , 2.03        , 3           , 50          , 0           , 0
0.3987506   , 0.0331040248, -9.792214   , 1.20962495E-05, 0.0007048421, -0.000428146741, -0.184238911, -0.159970343, 0.4214642   , -0.004132174, 0.0389747   , 2.38632321  , 2.04        , 3           , 11          , 0.00811546948, 0.008115468
0.393838    , 0.0118669011, -9.766577   , -0.003078034, -0.00269494927, -0.0007303777, -0.184238911, -0.159970343, 0.4214642   , -0.004163235, 0.03894772  , 2.38631558  , 2.05        , 3           , 12          , 0.04345102  , 0
0.381789237 , 0.0237584934, -9.772043   , 0.00171518466, -0.000973087852, -0.000140311255, -0.1841715  , -0.159970343, 0.421194553 , -0.004146136, 0.03893798  , 2.38631463  , 2.06        , 3           , 50          , 0           , 0
0.375936568 , 0.0487762541, -9.810855   , 0.000592447 , -0.002388553, -0.000147748651, -0.184238911, -0.159565866, 0.421531618 , -0.00414026529, 0.03891409  , 2.38631272  , 2.07        , 3           , 11          , 0.00811546948, 0.008115468
0.384830117 , 0.036040727 , -9.811744   , -0.00139339408, -0.0007125349, -0.00100197608, -0.1841715  , -0.1597681  , 0.421329379 , -0.004154589, 0.0389069244, 2.38630319  , 2.08        , 3           , 12          , 0.04345102  , 0
0.391346931 , 0.05976696  , -9.778601   , 0.00142332586, 0.0009959594, 0.0004264841, -0.1841715  , -0.1597681  , 0.421329379 , -0.004140194, 0.0389169045, 2.386307    , 2.09        , 3           , 50          , 0           , 0
0.3826142   , 0.0481576771, -9.784592   , -0.0002738503, 0.00383573934, -0.00211928319, -0.184508562, -0.160037756, 0.421194553 , -0.00412551127, 0.03900589  , 2.3862865   , 2.1         , 3           , 11          , 0.008038945 , 0.008038946
0.393163085 , 0.026347626 , -9.776465   , -0.00110333506, 0.000169661856, -0.0026939502, -0.184238911, -0.159970343, 0.421194553 , -0.004137596, 0.0390074737, 2.38625932  , 2.11        , 3           , 12          , 0.0442766957, 0
0.38960737  , 0.035817463 , -9.762442   , -0.000255980238, 0.0004569639, -0.00014672782, -0.184238911, -0.1597681  , 0.421329379 , -0.004140213, 0.0390120372, 2.38625836  , 2.12        , 3           , 50          , 0           , 0
0.392447233 , 0.0358853526, -9.792251   , 0.0005846565, 0.00187052065, 0.000424467376, -0.184306324, -0.15990293 , 0.421194553 , -0.00413420238, 0.03903076  , 2.38626218  , 2.13        , 3           , 11          , 0.008038945 , 0.008038946
0.3963701   , 0.05929664  , -9.790315   , 2.19382928E-05, 0.00130356743, -0.000709184038, -0.184306324, -0.15990293 , 0.421194553 , -0.00413426245, 0.0390437655, 2.386255    , 2.14        , 3           , 12          , 0.0442766957, 0
0.3788717   , 0.03426592  , -9.800045   , 0.00228569843, 0.000474152854, -0.000417412928, -0.184373736, -0.15990293 , 0.4213968   , -0.00411157 , 0.03904849  , 2.38625073  , 2.15        , 3           , 50          , 0           , 0
0.3840002   , 0.0477177873, -9.792719   , -0.0002455696, -0.00151398848, 0.0009803843, -0.184238911, -0.159970343, 0.4213968   , -0.0041136397, 0.03903339  , 2.38626075  , 2.16        , 3           , 11          , 0.008038945 , 0.008038946
0.3882127   , 0.0219671633, -9.798217   , 0.002856128 , -0.0006482876, -0.000416514755, -0.1841715  , -0.160037756, 0.421194553 , -0.00408524135, 0.0390268862, 2.38625646  , 2.17        , 3           , 12          , 0.0442766957, 0
0.385397732 , 0.0477335975, -9.802199   , 0.00341491541, 0.000481790368, -0.00125975756, -0.1841715  , -0.160037756, 0.421194553 , -0.004051585, 0.03903165  , 2.386244    , 2.18        , 3           , 50          , 0           , 0
0.3996502   , 0.0548855   , -9.831439   , 3.84144369E-05, -0.00179364276, 0.00126380485, -0.184104085, -0.159970343, 0.421194553 , -0.004050705, 0.0390137658, 2.38625646  , 2.19        , 3           , 11          , 0.008038945 , 0.008038946
0.396591    , 0.0354468338, -9.8103     , -0.00226229755, 0.00135187129, -0.00100298855, -0.1841715  , -0.159700692, 0.4213968   , -0.004110326, 0.0391214527, 2.386245    , 2.2         , 3           , 12          , 0.04512515  , 0
0.3786718   , 0.05366923  , -9.799514   , -0.00310293445, -6.1685394E-05, -0.00157418381, -0.184306324, -0.160037756, 0.421261966 , -0.004141971, 0.0391207673, 2.38622928  , 2.21        , 3           , 50          , 0           , 0
0.363622129 , 0.0492938235, -9.787895   , 0.00169946381, -2.92104669E-05, 0.000425966165, -0.184306324, -0.160037756, 0.421261966 , -0.00412481 , 0.03912049  , 2.38623357  , 2.22        , 3           , 11          , 0.007955663 , 0.007955666
0.381026715 , 0.0408463441, -9.752091   , -0.0002748992, -0.000605711364, 0.000133342255, -0.184238911, -0.160105169, 0.421329379 , -0.004127506, 0.03911444  , 2.38623452  , 2.23        , 3           , 12          , 0.04512515  , 0
0.390882373 , 0.0539602265, -9.794448   , -0.00028384148, 0.00136524811, 0.00154906721, -0.184575975, -0.159970343, 0.4213968   , -0.00412974 , 0.03912816  , 2.38625026  , 2.24        , 3           , 50          , 0           , 0
0.373108268 , 0.0415761247, -9.806838   , 0.000849069 , 0.0005281882, -0.000142191508, -0.184373736, -0.16024    , 0.421329379 , -0.00412130635, 0.039133437 , 2.38624883  , 2.25        , 3           , 11          , 0.007955663 , 0.007955666
0.385022581 , 0.0268974844, -9.77743    , 0.00225899369, 0.0008192992, -0.00154786033, -0.184373736, -0.16024    , 0.421329379 , -0.004099325, 0.0391415656, 2.38623357  , 2.26        , 3           , 12          , 0.04512515  , 0
0.3812636   , 0.04862629  , -9.785052   , -0.000839916, -0.000609532, -0.000151828848, -0.184036672, -0.15990293 , 0.421127141 , -0.004107781, 0.03913546  , 2.38623166  , 2.27        , 3           , 50          , 0           , 0
0.375761539 , 0.0414928235, -9.791451   , -0.00168457162, -0.00117839279, -0.000439185, -0.184441149, -0.159970343, 0.42159903  , -0.004124796, 0.0391236581, 2.38622785  , 2.28        , 3           , 11          , 0.007955663 , 0.007955666
0.371020377 , 0.02530453  , -9.7915535  , 0.001132074 , 0.000248529162, -0.001553996, -0.184104085, -0.15990293 , 0.4213968   , -0.00411408348, 0.0391260833, 2.38621163  , 2.29        , 3           , 12          , 0.04512515  , 0
0.384131759 , 0.0215638522, -9.798249   , -0.00111893448, -0.0006412894, -0.000153173183, -0.184104085, -0.15990293 , 0.4213968   , -0.00412006956, 0.03907369  , 2.38621068  , 2.3         , 3           , 50          , 0           , 0
0.3723492   , 0.0257110149, -9.782955   , -0.0005579366, 0.00020722732, 0.000415837218, -0.183901846, -0.15990293 , 0.4214642   , -0.004125486, 0.0390757769, 2.38621449  , 2.31        , 3           , 11          , 0.007867329 , 0.007867329
0.3645856   , 0.0520082451, -9.793301   , -0.00309518073, -0.0009362275, -0.0012929755, -0.1841715  , -0.1597681  , 0.4213968   , -0.00415694062, 0.039066352 , 2.386202    , 2.32        , 3           , 12          , 0.04599481  , 0
0.353952765 , 0.0385627039, -9.783495   , -0.0008290483, -0.00204720232, 0.0006935863, -0.1841715  , -0.160037756, 0.421261966 , -0.004164955, 0.0390459076, 2.38620877  , 2.33        , 3           , 50          , 0           , 0
0.3724072   , 0.0208481289, -9.812805   , -0.002817025, 0.000191949133, 0.0009703768, -0.1841715  , -0.160037756, 0.421261966 , -0.00419274857, 0.0390478671, 2.38621831  , 2.34        , 3           , 11          , 0.007867329 , 0.007867329
0.384427756 , 0.04635298  , -9.790913   , -0.00112402113, 0.000484973221, 0.0006961748, -0.1841715  , -0.159970343, 0.421261966 , -0.004203716, 0.0390527435, 2.38622546  , 2.35        , 3           , 12          , 0.04599481  , 0
0.389840335 , 0.0458259471, -9.787258   , 0.00198997045, -0.000901841, 0.00127356639, -0.184306324, -0.159835517, 0.421329379 , -0.0041833166, 0.0390437841, 2.38623834  , 2.36        , 3           , 50          , 0           , 0
0.4036634   , 0.0294197146, -9.78722    , -0.00224757427, -0.000930496, -0.000723949866, -0.184238911, -0.15990293 , 0.4213968   , -0.00420607347, 0.039034456 , 2.38623071  , 2.37        , 3           , 11          , 0.007867329 , 0.007867329
0.405611575 , 0.03575841  , -9.800286   , -0.000537352869, -0.00401625037, -0.000155746529, -0.1841715  , -0.1597681  , 0.421194553 , -0.00421150029, 0.0389942862, 2.38622975  , 2.38        , 3           , 12          , 0.04599481  , 0
0.376292646 , 0.0491389334, -9.785992   , -0.00224355515, -0.00177519186, -0.00100778916, -0.1841715  , -0.1597681  , 0.421194553 , -0.00423432468, 0.03897648  , 2.38621974  , 2.39        , 3           , 50          , 0           , 0
0.364443451 , 0.04118061  , -9.793347   , -0.00392653653, 0.00104760262, 0.0009674302, -0.184306324, -0.159835517, 0.421127141 , -0.00423413934, 0.0390167721, 2.38623071  , 2.4         , 3           , 11          , 0.007774919 , 0.007774918
0.387587816 , 0.04363003  , -9.797227   , -0.002238041, 0.00218532025, 0.000129455 , -0.184441149, -0.159700692, 0.421329379 , -0.00425647153, 0.0390386321, 2.38623166  , 2.41        , 3           , 12          , 0.046884194 , 0
0.39724195  , 0.0289809946, -9.76874    , 0.0008825942, -0.0006093209, 0.000139601936, -0.184373736, -0.160105169, 0.421194553 , -0.00424759276, 0.03903254  , 2.38623357  , 2.42        , 3           , 50          , 0           , 0
0.370018    , 0.02300498  , -9.775301   , 0.00143908383, 0.00108388974, 0.0001448394, -0.184373736, -0.160105169, 0.421194553 , -0.004233147, 0.03904339  , 2.38623452  , 2.43        , 3           , 11          , 0.007774919 , 0.007774918
0.386609524 , 0.0359937623, -9.804047   , -0.002522188, 0.00246497383, -0.0004365027, -0.184441149, -0.159565866, 0.421127141 , -0.00425854232, 0.03906802  , 2.38623023  , 2.44        , 3           , 12          , 0.046884194 , 0
0.3825035   , 0.03958732  , -9.78508    , -0.00110677653, 0.00191139593, 0.0004168263, -0.184306324, -0.159970343, 0.4214642   , -0.00426944764, 0.0390871465, 2.38623452  , 2.45        , 3           , 50          , 0           , 0
0.385127276 , 0.0323385149, -9.785542   , 0.000314374163, 0.000231558486, 0.00155095756, -0.183969259, -0.159970343, 0.421194553 , -0.0042656986, 0.03908954  , 2.38624978  , 2.46        , 3           , 11          , 0.007774919 , 0.007774918
0.394745    , 0.0336544253, -9.80761    , -0.0016517879, -0.00203433353, 0.0009731924, -0.183969259, -0.159970343, 0.421194553 , -0.00428183237, 0.03906923  , 2.38625979  , 2.47        , 3           , 12          , 0.046884194 , 0
0.386683464 , 0.0503368676, -9.775964   , -0.00108849129, -0.00174894929, 0.000693722744, -0.1841715  , -0.1597681  , 0.421194553 , -0.00429244433, 0.0390517674, 2.386267    , 2.48        , 3           , 50          , 0           , 0
0.374295056 , 0.0690207   , -9.787281   , -0.00138009794, -6.1472645E-05, -0.0007176779, -0.183969259, -0.1597681  , 0.4213968   , -0.004306526, 0.03905112  , 2.38625932  , 2.49        , 3           , 11          , 0.007774919 , 0.007774918
0.381805331 , 0.0478003062, -9.809458   , 0.001147636 , 0.00193549716, -0.0001378847, -0.1841715  , -0.159970343, 0.421329379 , -0.00430289237, 0.0390851349, 2.38625741  , 2.5         , 3           , 12          , 0.04779189  , 0
0.395065516 , 0.031310197 , -9.782758   , -0.00110299955, -5.074282E-05, -0.00184668286, -0.1841715  , -0.159970343, 0.421329379 , -0.00431464333, 0.03908455  , 2.38623929  , 2.51        , 3           , 50          , 0           , 0
0.38761723  , 0.0481173471, -9.789976   , -0.00364788063, 0.0007767681, 0.000120528915, -0.184238911, -0.159835517, 0.421261966 , -0.00435107527, 0.0390923172, 2.38624024  , 2.52        , 3           , 11          , 0.00768050365, 0.00768050365
0.371281117 , 0.0451551825, -9.791471   , -0.00193626573, -0.00259055151, 0.0006882984, -0.184238911, -0.159700692, 0.421261966 , -0.00437016366, 0.0390664376, 2.3862474   , 2.53        , 3           , 12          , 0.04779189  , 0
0.394592315 , 0.0263891332, -9.79363    , 0.00116624741, -0.00172484654, 0.000704086444, -0.184036672, -0.1597681  , 0.421261966 , -0.00435822224, 0.0390492231, 2.38625455  , 2.54        , 3           , 50          , 0           , 0
0.3706119   , 0.02980927  , -9.787923   , 0.0028376   , 0.003073222 , 0.00156697759, -0.184036672, -0.1597681  , 0.421261966 , -0.004329238, 0.0390800275, 2.38627028  , 2.55        , 3           , 11          , 0.00768050365, 0.00768050365
0.389532834 , 0.0557686873, -9.790834   , -0.00111136353, 0.00163864752, -0.00184407935, -0.184238911, -0.1597681  , 0.421127141 , -0.004341075, 0.03909633  , 2.38625169  , 2.56        , 3           , 12          , 0.04779189  , 0
0.393525183 , 0.0471731573, -9.798071   , 0.002584284 , -0.002841555, 0.0012740104, -0.184575975, -0.159633279, 0.421329379 , -0.00431472855, 0.039067965 , 2.38626456  , 2.57        , 3           , 50          , 0           , 0
0.3787918   , 0.02705959  , -9.803692   , 0.001723805 , -0.0003132028, 0.000143814948, -0.184238911, -0.160037756, 0.4214642   , -0.00429743249, 0.03906485  , 2.386266    , 2.58        , 3           , 11          , 0.00768050365, 0.00768050365
0.3973561   , 0.0295198318, -9.794951   , 0.00228234124, 0.00109844562, 0.00127876853, -0.184238911, -0.160037756, 0.4214642   , -0.00427410938, 0.0390758775, 2.38627887  , 2.59        , 3           , 12          , 0.04779189  , 0
0.3895881   , 0.0273211841, -9.785076   , 0.00371101452, 0.003388154 , -0.000122655387, -0.184306324, -0.159970343, 0.421127141 , -0.00418781769, 0.0391574427, 2.38627934  , 2.6         , 3           , 50          , 0           , 0
0.384744048 , 0.0382027477, -9.783712   , -0.00193136756, 0.00194212515, -0.001563851, -0.1841715  , -0.159835517, 0.4213968   , -0.004207748, 0.0391767956, 2.38626361  , 2.61        , 3           , 11          , 0.007583928 , 0.00758392736
0.367533028 , 0.0415250026, -9.772531   , 0.00145594508, 0.00252818  , 0.0001480446, -0.1841715  , -0.15990293 , 0.421329379 , -0.004193134, 0.03920208  , 2.386265    , 2.62        , 3           , 12          , 0.0487165973, 0
0.397008479 , 0.04076916  , -9.784512   , 0.0014652136, 0.0005572219, -0.0007026052, -0.1841715  , -0.160037756, 0.421329379 , -0.00417876 , 0.0392076224, 2.38625741  , 2.63        , 3           , 50          , 0           , 0
0.3830897   , 0.04861712  , -9.788653   , 0.000342387531, -0.000576672144, 0.0015506912, -0.1841715  , -0.160037756, 0.421329379 , -0.004174725, 0.0392019227, 2.38627362  , 2.64        , 3           , 11          , 0.007583928 , 0.00758392736
0.3798334   , 0.0472449362, -9.77196    , -0.00191489153, -0.00115508516, 0.0004091377, -0.184238911, -0.159835517, 0.421666443 , -0.00419371156, 0.0391903855, 2.38627744  , 2.65        , 3           , 12          , 0.0487165973, 0
0.388928264 , 0.0471703745, -9.78138351 , -0.00161466911, -0.004813523, -0.000160261217, -0.184306324, -0.159970343, 0.421329379 , -0.00420991238, 0.03914224  , 2.386276    , 2.66        , 3           , 50          , 0           , 0
0.359055877 , 0.04529871  , -9.791563   , -0.000219262962, -0.00142519176, -0.000148469335, -0.184104085, -0.159835517, 0.4213968   , -0.00421216059, 0.0391279869, 2.38627458  , 2.67        , 3           , 11          , 0.007583928 , 0.00758392736
0.36632207  , 0.0492483154, -9.783808   , -0.00136184262, 0.00110125239, -0.000714906666, -0.184104085, -0.159835517, 0.4213968   , -0.00422606058, 0.03913897  , 2.38626742  , 2.68        , 3           , 12          , 0.0487165973, 0
0.3839063   , 0.0391610339, -9.797274   , -0.00276463386, -0.000597683364, 0.000971129746, -0.184306324, -0.159835517, 0.421531618 , -0.004253326, 0.03913303  , 2.38627744  , 2.69        , 3           , 50          , 0           , 0
0.38115406  , 0.03648603  , -9.797306   , -0.000233197658, -0.0006080791, -0.001560349, -0.1841715  , -0.15990293 , 0.421531618 , -0.00427227374, 0.03907756  , 2.38626075  , 2.7         , 3           , 11          , 0.007487354 , 0.007487355
0.372472554 , 0.0311671644, -9.795587   , 0.00231536222, -0.00171714369, 0.000427529827, -0.1841715  , -0.159970343, 0.421329379 , -0.00424895063, 0.0390604064, 2.386265    , 2.71        , 3           , 12          , 0.0496570654, 0
0.3708387   , 0.0491860844, -9.781061   , -0.00162697234, -0.003996402, 0.00125323376, -0.1841715  , -0.159970343, 0.421329379 , -0.004264724, 0.0390204974, 2.386278    , 2.72        , 3           , 50          , 0           , 0
0.3740731   , 0.0460769981, -9.806812   , -0.00190890953, -0.00399831 , 0.00209952914, -0.184238911, -0.1597681  , 0.4213968   , -0.00428298861, 0.0389806069, 2.38629937  , 2.73        , 3           , 11          , 0.007487354 , 0.007487355
0.384351522 , 0.03647149  , -9.804062   , 0.0006041616, 0.00136860565, -0.00183589826, -0.184238911, -0.15990293 , 0.42159903  , -0.004277665, 0.03899421  , 2.3862803   , 2.74        , 3           , 12          , 0.0496570654, 0
0.3881914   , 0.05847642  , -9.786314   , -0.000524818664, 0.00164254114, 0.00183225516, -0.184238911, -0.15990293 , 0.4213968   , -0.004282201, 0.0390107147, 2.386299    , 2.75        , 3           , 50          , 0           , 0
0.395139456 , 0.03806537  , -9.779114   , 0.001451442 , 0.00137433549, -0.00183194759, -0.184238911, -0.15990293 , 0.4213968   , -0.004268405, 0.0390243828, 2.3862803   , 2.76        , 3           , 11          , 0.007487354 , 0.007487355
0.378246933 , 0.0260975938, -9.784265   , 0.000314023346, 0.00305608963, -0.0007044616, -0.184373736, -0.159700692, 0.421531618 , -0.004265545, 0.03905491  , 2.38627362  , 2.77        , 3           , 12          , 0.0496570654, 0
0.3748414   , 0.03435004  , -9.810923   , -0.0013690592, 0.0007921104, -0.000150759646, -0.184441149, -0.15990293 , 0.4214642   , -0.004279296, 0.0390628241, 2.38627172  , 2.78        , 3           , 50          , 0           , 0
0.372439831 , 0.02980161  , -9.791977   , 0.00032394455, 0.00108513457, -0.000424961647, -0.184508562, -0.1597681  , 0.4214642   , -0.00427622255, 0.0390736535, 2.38626742  , 2.79        , 3           , 11          , 0.007487354 , 0.007487355
0.379165769 , 0.03145391  , -9.770223   , 0.0006330904, 0.00134293747, 0.0004253685, -0.184508562, -0.1597681  , 0.4214642   , -0.00421846472, 0.0390395373, 2.38627362  , 2.8         , 3           , 12          , 0.0506121255, 0
0.382913351 , 0.03954723  , -9.774681   , -0.0007769972, 0.00105182582, 0.0015485   , -0.184104085, -0.1597681  , 0.421329379 , -0.00422563171, 0.03905012  , 2.386289    , 2.81        , 3           , 50          , 0           , 0
0.386530757 , 0.0328054726, -9.79502    , 0.0023356895, -0.0003349947, -0.000134408183, -0.184306324, -0.15990293 , 0.4214642   , -0.004202326, 0.0390467644, 2.386288    , 2.82        , 3           , 11          , 0.007390966 , 0.00739096571
0.3637108   , 0.0507047251, -9.805065   , 0.00119991635, 0.0007836235, -0.0009855527, -0.184643388, -0.160037756, 0.421531618 , -0.00419071456, 0.03905456  , 2.386278    , 2.83        , 3           , 12          , 0.0506121255, 0
0.372025728 , 0.06681118  , -9.793182   , -0.00247860234, 0.002166619 , -0.00100050319, -0.184643388, -0.160037756, 0.421531618 , -0.00421589427, 0.0390761867, 2.386268    , 2.84        , 3           , 50          , 0           , 0
0.3601452   , 0.0619519576, -9.782898   , 0.002058512 , -0.00146316644, -0.00070253585, -0.183969259, -0.1597681  , 0.421329379 , -0.00419558166, 0.0390615277, 2.38626122  , 2.85        , 3           , 11          , 0.007390966 , 0.00739096571
0.370023221 , 0.05507227  , -9.784207   , 0.00206351  , -0.00230785785, 0.000708849635, -0.184238911, -0.1597681  , 0.4214642   , -0.00417466462, 0.03903848  , 2.386268    , 2.86        , 3           , 12          , 0.0506121255, 0
0.3644309   , 0.04697301  , -9.771627   , 0.0009181421, 0.000781716546, 0.000143280107, -0.184508562, -0.15990293 , 0.4213968   , -0.004165427, 0.039046295 , 2.38626981  , 2.87        , 3           , 50          , 0           , 0
0.3700161   , 0.04792491  , -9.805479   , -0.00133307162, -0.0009229545, -0.0001523962, -0.184238911, -0.15990293 , 0.421329379 , -0.00417881645, 0.0390370525, 2.386268    , 2.88        , 3           , 11          , 0.007390966 , 0.00739096571
0.384574264 , 0.055398684 , -9.797654   , 0.0009297836, -0.00147080165, 0.0009874211, -0.184238911, -0.15990293 , 0.421329379 , -0.004169131, 0.0390223861, 2.386278    , 2.89        , 3           , 12          , 0.0506121255, 0
0.374595821 , 0.0198678467, -9.797425   , -0.00026068624, -0.000125558057, -0.000713261543, -0.184373736, -0.159835517, 0.421329379 , -0.004273467, 0.0389157236, 2.386267    , 2.9         , 3           , 50          , 0           , 0
0.39548862  , 0.0187830124, -9.815802   , -0.0008377596, 0.00240470935, -0.000146915016, -0.184373736, -0.159835517, 0.421531618 , -0.004281906, 0.03893975  , 2.386265    , 2.91        , 3           , 11          , 0.00729456823, 0.007294569
0.400759339 , 0.0430625156, -9.80843    , -0.00279293279, -0.002113704, -0.00101068907, -0.184238911, -0.1603074  , 0.4214642   , -0.00431022653, 0.0389185734, 2.386255    , 2.92        , 3           , 12          , 0.0515806973, 0
0.3846314   , 0.0269526877, -9.792348   , 0.00171293539, 0.0007325108, 0.0007099461, -0.184238911, -0.1603074  , 0.4214642   , -0.00429282058, 0.03892593  , 2.38626218  , 2.93        , 3           , 50          , 0           , 0
0.395344526 , 0.050729353 , -9.788551   , 0.00340224616, 0.00187023252, 0.00128465833, -0.1841715  , -0.159835517, 0.4213968   , -0.00425830157, 0.03894468  , 2.38627458  , 2.94        , 3           , 11          , 0.00729456823, 0.007294569
0.3801348   , 0.03149469  , -9.7855835  , 2.76428764E-05, -0.00124990684, -0.000148605352, -0.1841715  , -0.15990293 , 0.421531618 , -0.00425808132, 0.03893219  , 2.38627362  , 2.95        , 3           , 12          , 0.0515806973, 0
0.374321938 , 0.0401039124, -9.7761     , -0.00166782271, -0.0009797993, 0.000691539259, -0.184104085, -0.15990293 , 0.4213968   , -0.00427448656, 0.0389224142, 2.3862803   , 2.96        , 3           , 50          , 0           , 0
0.383009374 , 0.0458739325, -9.777818   , -0.00110148615, -0.00153911568, -0.0015669947, -0.184104085, -0.15990293 , 0.4213968   , -0.004286111, 0.03890695  , 2.386265    , 2.97        , 3           , 11          , 0.00729456823, 0.007294569
0.380905032 , 0.0224474184, -9.781547   , 1.3050274E-05, 0.00156574079, -0.001274416, -0.184238911, -0.160105169, 0.42159903  , -0.00428647967, 0.0389225557, 2.38625169  , 2.98        , 3           , 12          , 0.0515806973, 0
0.3771606   , 0.0410635173, -9.802742   , 2.476608E-05, -0.000405205355, 0.002112996 , -0.184306324, -0.159700692, 0.421261966 , -0.00428541 , 0.038918592 , 2.38627315  , 2.99        , 3           , 50          , 0           , 0
0.38545984  , 0.0535864644, -9.798559   , -0.00108136679, -0.0004135368, 0.0004134651, -0.184036672, -0.159700692, 0.4213968   , -0.00424727751, 0.03891312  , 2.38627934  , 3           , 3           , 11          , 0.007199601 , 0.00719959754
0.373126745 , 0.0540889129, -9.77108    , -0.00193208782, 0.000143860321, -0.0007197675, -0.184036672, -0.159700692, 0.4213968   , -0.00426687766, 0.03891453  , 2.38627172  , 3.01        , 3           , 12          , 0.05256176  , 0
0.370682925 , 0.0325449035, -9.796498   , -0.00136444625, -0.0004154499, -0.0007180015, -0.184306324, -0.160105169, 0.421194553 , -0.00428080233, 0.0389103442, 2.386265    , 3.02        , 3           , 50          , 0           , 0
0.373916954 , 0.0365771279, -9.79917    , -0.0027570643, -0.004366911, -0.0007306612, -0.184306324, -0.159835517, 0.4213968   , -0.00430864934, 0.0388666466, 2.38625741  , 3.03        , 3           , 11          , 0.007199601 , 0.00719959754
0.385756075 , 0.04095648  , -9.800869   , -0.004197167, 0.00153641216, 0.0015321665, -0.1841715  , -0.16024    , 0.4214642   , -0.0043500266, 0.03888208  , 2.38627267  , 3.04        , 3           , 12          , 0.05256176  , 0
0.375807524 , 0.04063738  , -9.805467   , -0.003346194, 0.000697444542, 0.000687202963, -0.1841715  , -0.16024    , 0.4214642   , -0.004383222, 0.0388890766, 2.38627982  , 3.05        , 3           , 50          , 0           , 0
0.389169216 , 0.027800329 , -9.791857   , -0.0005100326, -0.00181754457, -0.000433682872, -0.184238911, -0.160105169, 0.421194553 , -0.00438848929, 0.0388708822, 2.38627553  , 3.06        , 3           , 11          , 0.007199601 , 0.00719959754
0.3890787   , 0.0539875366, -9.796269   , 0.0025946903, -0.00123340089, 0.0009943584, -0.184306324, -0.159970343, 0.421531618 , -0.00436215242, 0.0388585925, 2.38628554  , 3.07        , 3           , 12          , 0.05256176  , 0
0.366910934 , 0.0542631149, -9.800957   , 0.00203287671, -0.00208192132, -0.0009873394, -0.1841715  , -0.159835517, 0.4213968   , -0.004342204, 0.03883773  , 2.38627553  , 3.08        , 3           , 50          , 0           , 0
0.376290739 , 0.04913743  , -9.78554    , 0.00202213973, -0.000110970635, -0.002679527, -0.1841715  , -0.159835517, 0.4213968   , -0.004323025, 0.0388365   , 2.38624883  , 3.09        , 3           , 11          , 0.007199601 , 0.00719959754
0.3959529   , 0.029499501 , -9.784115   , -0.000800232752, -0.002110562, 0.000411738438, -0.184306324, -0.1597681  , 0.4213968   , -0.0043506925, 0.03879584  , 2.38625264  , 3.1         , 3           , 12          , 0.05355436  , 0
0.38378036  , 0.030131964 , -9.795506   , 0.0008949066, -0.00238067145, -0.0009934811, -0.1841715  , -0.159700692, 0.42159903  , -0.00434212433, 0.03877199  , 2.38624215  , 3.11        , 3           , 50          , 0           , 0
0.369614422 , 0.0239428431, -9.78434    , -0.0008056456, -0.0009843013, 0.0006960117, -0.1841715  , -0.159700692, 0.4214642   , -0.00434990833, 0.0387621745, 2.38624978  , 3.12        , 3           , 11          , 0.00710615655, 0.00710615562
0.3721941   , 0.0451506041, -9.793271   , 0.00343231368, -0.00123721617, 0.0009978693, -0.184643388, -0.159835517, 0.421329379 , -0.00431519467, 0.0387498476, 2.38625932  , 3.13        , 3           , 12          , 0.05355436  , 0
0.377617538 , 0.0441860221, -9.793686   , 0.00174521271, -0.002656499, 0.0018354106, -0.184643388, -0.159835517, 0.421329379 , -0.00429702736, 0.03872336  , 2.38627839  , 3.14        , 3           , 50          , 0           , 0
0.354483128 , 0.0426374   , -9.789349   , 0.0005985396, 0.000433069275, -0.0009904586, -0.184306324, -0.159970343, 0.4214642   , -0.004291428, 0.0387276448, 2.386268    , 3.15        , 3           , 11          , 0.00710615655, 0.00710615562
0.3670778   , 0.0330476537, -9.799236   , 0.00116469851, 0.000436895469, 0.001272475 , -0.1841715  , -0.15990293 , 0.421666443 , -0.004279289, 0.0387320668, 2.38628078  , 3.16        , 3           , 12          , 0.05355436  , 0
0.3829106   , 0.04088405  , -9.769704   , 0.00173152459, -0.000122418627, -0.00013844631, -0.184441149, -0.160037756, 0.421666443 , -0.004262028, 0.0387308374, 2.38627934  , 3.17        , 3           , 50          , 0           , 0
0.366994768 , 0.03431946  , -9.774824   , 0.001439992 , 0.00184663013, 0.000993424 , -0.184441149, -0.160037756, 0.421666443 , -0.00424724445, 0.0387493558, 2.38628936  , 3.18        , 3           , 11          , 0.00710615655, 0.00710615562
0.363978267 , 0.04206857  , -9.787471   , -0.00110029208, 0.00154787593, 0.00126367516, -0.184238911, -0.159970343, 0.421329379 , -0.004257761, 0.0387648828, 2.38630176  , 3.19        , 3           , 12          , 0.05355436  , 0
0.3724754   , 0.032508526 , -9.791966   , -0.000797827845, 0.000382765866, 0.00069852086, -0.184373736, -0.159970343, 0.4214642   , -0.00423411746, 0.0386824459, 2.38630986  , 3.2         , 3           , 50          , 0           , 0
0.3620046   , 0.02901401  , -9.789801   , -0.00191654626, -0.0018773952, 0.000407244079, -0.184373736, -0.159835517, 0.421531618 , -0.004253121, 0.0386636853, 2.38631368  , 3.21        , 3           , 11          , 0.007014935 , 0.00701493258
0.356203884 , 0.03629397  , -9.787554   , 4.822185E-05, 0.0006700616, 0.0009854429, -0.184373736, -0.159835517, 0.421531618 , -0.00425225636, 0.0386704355, 2.38632369  , 3.22        , 3           , 12          , 0.0545576066, 0
0.363215864 , 0.0542466827, -9.783358   , 0.002585392 , 0.00153194414, 0.00015098475, -0.1841715  , -0.160172582, 0.4214642   , -0.00422634743, 0.0386857539, 2.38632512  , 3.23        , 3           , 50          , 0           , 0
0.363315284 , 0.0525418632, -9.813196   , -0.0013628446, 0.000378945115, 0.000413349422, -0.184441149, -0.15990293 , 0.42159903  , -0.00423981668, 0.03868956  , 2.386329    , 3.24        , 3           , 11          , 0.007014935 , 0.00701493258
0.367340952 , 0.0537930429, -9.796888   , -0.00022788762, -0.000739676936, -0.0001481933, -0.184238911, -0.160037756, 0.42159903  , -0.004242151, 0.0386821553, 2.386328    , 3.25        , 3           , 12          , 0.0545576066, 0
0.382668376 , 0.050879702 , -9.7891     , 0.00258432422, 0.00181351078, 0.000716493756, -0.184238911, -0.160037756, 0.42159903  , -0.004216032, 0.0387003236, 2.38633466  , 3.26        , 3           , 50          , 0           , 0
0.359817475 , 0.0371371247, -9.782552   , 0.00401211856, -0.00127415359, 0.00128338009, -0.184306324, -0.160172582, 0.421329379 , -0.00417541154, 0.03868763  , 2.386348    , 3.27        , 3           , 11          , 0.007014935 , 0.00701493258
0.370563328 , 0.0270917751, -9.784771   , -0.000790279533, -0.00130662858, -0.00071677 , -0.1841715  , -0.16024    , 0.421733856 , -0.00418359 , 0.0386745371, 2.38634038  , 3.28        , 3           , 12          , 0.0545576066, 0
0.395217121 , 0.0448235646, -9.776373   , -0.0007945504, -0.000180361909, 0.00154526532, -0.184643388, -0.16037482 , 0.42159903  , -0.00419093668, 0.0386727937, 2.386356    , 3.29        , 3           , 50          , 0           , 0
0.393432677 , 0.04308104  , -9.788598   , -0.00248811673, -0.00106851384, -0.0001594426, -0.184643388, -0.16037482 , 0.42159903  , -0.00422071572, 0.0385922045, 2.38635373  , 3.3         , 3           , 11          , 0.006925132 , 0.00692513026
0.375424623 , 0.04694824  , -9.80227852 , -0.00107409921, -0.00134052662, 0.000694320363, -0.184104085, -0.16024    , 0.4213968   , -0.004231187, 0.03857883  , 2.38636136  , 3.31        , 3           , 12          , 0.0555706546, 0
0.378389359 , 0.0346936621, -9.791459   , -0.000226403616, -0.00161636644, -0.0009973875, -0.184238911, -0.16024    , 0.421666443 , -0.00423383247, 0.0385626219, 2.38635087  , 3.32        , 3           , 50          , 0           , 0
0.381170481 , 0.04364094  , -9.778294   , -0.00165682309, 0.002034429 , -0.00128086843, -0.184238911, -0.16024    , 0.4214642   , -0.004250898, 0.03858291  , 2.38633847  , 3.33        , 3           , 11          , 0.006925132 , 0.00692513026
0.3825187   , 0.04004602  , -9.787337   , 0.00200652517, 0.00374864973, -0.0009786072, -0.184238911, -0.16024    , 0.4214642   , -0.004231218, 0.0386203527, 2.386328    , 3.34        , 3           , 12          , 0.0555706546, 0
0.389255166 , 0.0305480529, -9.804049   , -0.000223051858, -0.00189792213, 0.00239262823, -0.184306324, -0.16024    , 0.421329379 , -0.004232522, 0.03860148  , 2.3863523   , 3.35        , 3           , 50          , 0           , 0
0.384464741 , 0.0459365956, -9.80131    , 0.00202169619, 0.000651433133, -0.001265918, -0.184306324, -0.159835517, 0.421733856 , -0.004212793, 0.0386079364, 2.38633943  , 3.36        , 3           , 11          , 0.006925132 , 0.00692513026
0.385210454 , 0.0288351327, -9.817194   , 0.0009196166, -0.00470593758, 0.000698331743, -0.184306324, -0.16024    , 0.42159903  , -0.00420331862, 0.03856091  , 2.386347    , 3.37        , 3           , 12          , 0.0555706546, 0
0.384180218 , 0.0291910842, -9.78556252 , 0.00174254656, 8.639533E-05, -0.000420490338, -0.184104085, -0.16024    , 0.421531618 , -0.00418605562, 0.0385617539, 2.38634276  , 3.38        , 3           , 50          , 0           , 0
0.3593629   , 0.0295529962, -9.806541   , -0.002207247, -0.000785039447, -0.0004402292, -0.184104085, -0.16024    , 0.421531618 , -0.004208296, 0.0385538824, 2.38633847  , 3.39        , 3           , 11          , 0.006925132 , 0.00692513026
0.395115882 , 0.0313510224, -9.794961   , -0.00162507186, 0.000909415248, -0.000151530141, -0.184306324, -0.15990293 , 0.421531618 , -0.004167035, 0.03856578  , 2.38633847  , 3.4         , 3           , 12          , 0.05659272  , 0
0.369140118 , 0.02259168  , -9.783444   , 0.00317913527, 0.000378755271, 0.000152527122, -0.184238911, -0.159633279, 0.42159903  , -0.004135186, 0.0385695733, 2.38634038  , 3.41        , 3           , 50          , 0           , 0
0.3692046   , 0.026661111 , -9.78613949 , 0.0012004273, 0.000646949 , -0.0004213322, -0.184104085, -0.15990293 , 0.4213968   , -0.004123346, 0.0385760255, 2.38633561  , 3.42        , 3           , 11          , 0.006837189 , 0.0068371864
0.40606162  , 0.0370899178, -9.795306   , 0.000642291561, -0.000483125768, 0.00155206036, -0.184104085, -0.15990293 , 0.4213968   , -0.004116321, 0.03857126  , 2.38635135  , 3.43        , 3           , 12          , 0.05659272  , 0
0.36159417  , 0.0308390483, -9.794316   , 0.000922835 , -0.000199653048, 0.000706198742, -0.184373736, -0.15990293 , 0.42159903  , -0.00410682056, 0.03856929  , 2.3863585   , 3.44        , 3           , 50          , 0           , 0
0.377431035 , 0.0288589858, -9.797366   , -0.00248006382, 0.00259307888, 0.0009772723, -0.184575975, -0.1597681  , 0.42159903  , -0.00413124776, 0.03859526  , 2.386368    , 3.45        , 3           , 11          , 0.006837189 , 0.0068371864
0.400657922 , 0.0420876443, -9.786738   , -0.00132510124, -0.00246745185, 0.00125726673, -0.184238911, -0.159970343, 0.4213968   , -0.00414400874, 0.03857063  , 2.38638043  , 3.46        , 3           , 12          , 0.05659272  , 0
0.38726902  , 0.0156979542, -9.809097   , -0.00132698473, -0.002185889, 0.000410088251, -0.184238911, -0.159970343, 0.4213968   , -0.004157117, 0.0385487936, 2.3863852   , 3.47        , 3           , 50          , 0           , 0
0.370556384 , 0.0253007747, -9.788846   , -0.000781157636, 0.00175984413, 0.00126640964, -0.184306324, -0.160105169, 0.4214642   , -0.004164441, 0.03856644  , 2.3863976   , 3.48        , 3           , 11          , 0.006837189 , 0.0068371864
0.377007127 , 0.035136573 , -9.784236   , 0.00373776071, 0.00150883233, -0.000973253045, -0.184306324, -0.159633279, 0.4214642   , -0.004127444, 0.03858149  , 2.386388    , 3.49        , 3           , 12          , 0.05659272  , 0
0.386706173 , 0.0432137   , -9.804467   , -0.00127974281, -0.002738355, -0.000719144533, -0.1841715  , -0.160172582, 0.4214642   , -0.00403566658, 0.03857884  , 2.38638473  , 3.5         , 3           , 50          , 0           , 0
0.3820476   , 0.0378046557, -9.790062   , 0.000123775448, -0.000757843954, 0.00126823981, -0.1841715  , -0.160172582, 0.4214642   , -0.00403393852, 0.038571313 , 2.3863976   , 3.51        , 3           , 11          , 0.00675153546, 0.006751534
0.373631418 , 0.0184917673, -9.787495   , 0.000119103941, 8.684897E-05, 0.000421929144, -0.184238911, -0.160105169, 0.4214642   , -0.00403258344, 0.0385721959, 2.38640141  , 3.52        , 3           , 12          , 0.0576231   , 0
0.369916946 , 0.0398102365, -9.807322   , 0.00151820248, 0.00263048219, -0.000415192975, -0.184373736, -0.159633279, 0.42159903  , -0.004017568, 0.03859849  , 2.3863976   , 3.53        , 3           , 50          , 0           , 0
0.383316725 , 0.02298689  , -9.815877   , -0.002146376, 0.00119782717, -0.000434482761, -0.1841715  , -0.15990293 , 0.421666443 , -0.00403920142, 0.03861045  , 2.38639283  , 3.54        , 3           , 11          , 0.00675153546, 0.006751534
0.3808475   , 0.04776861  , -9.79681    , 0.00180432224, 0.00178769464, -0.00126279029, -0.1841715  , -0.15990293 , 0.421666443 , -0.00402164925, 0.03862828  , 2.38638043  , 3.55        , 3           , 12          , 0.0576231   , 0
0.384463966 , 0.04995311  , -9.788185   , -0.0007321066, 0.00064424373, -0.001558916, -0.184373736, -0.160037756, 0.42159903  , -0.00402957341, 0.0386346541, 2.3863647   , 3.56        , 3           , 50          , 0           , 0
0.3895352   , 0.0263856128, -9.775137   , 0.000406454143, -0.00103750464, -0.000708639331, -0.184373736, -0.160172582, 0.421733856 , -0.00402578 , 0.0386242531, 2.38635755  , 3.57        , 3           , 11          , 0.00675153546, 0.006751534
0.400152028 , 0.0433889665, -9.769562   , 0.00238114363, -0.000461002172, 0.0001490593, -0.1841715  , -0.160037756, 0.421733856 , -0.00400191033, 0.03861965  , 2.38635945  , 3.58        , 3           , 12          , 0.0576231   , 0
0.4037065   , 0.0348108448, -9.780417   , 0.00154755078, -0.00300081214, 0.00211896561, -0.1841715  , -0.160037756, 0.421733856 , -0.003985614, 0.03858973  , 2.38638043  , 3.59        , 3           , 50          , 0           , 0
0.394620836 , 0.03221479  , -9.781855   , -0.000150015025, 0.0001282965, -0.000708833, -0.184306324, -0.159970343, 0.4214642   , -0.00395397749, 0.0386945941, 2.38637471  , 3.6         , 3           , 11          , 0.006668742 , 0.00666874275
0.401081651 , 0.03804162  , -9.792628   , -0.00127988541, 0.000120655808, -0.0009966382, -0.184306324, -0.159633279, 0.4214642   , -0.003967161, 0.0386957563, 2.38636422  , 3.61        , 3           , 12          , 0.0586610958, 0
0.392024517 , 0.0412712246, -9.782288   , -0.00466745 , -0.000183828117, -0.0007303378, -0.184306324, -0.159835517, 0.42159903  , -0.004014115, 0.0386938863, 2.38635755  , 3.62        , 3           , 50          , 0           , 0
0.377535373 , 0.0414413176, -9.782398   , 0.00040540687, 0.00210307352, -0.000138086558, -0.184104085, -0.15990293 , 0.4213968   , -0.004010118, 0.0387149081, 2.38635564  , 3.63        , 3           , 11          , 0.006668742 , 0.00666874275
0.366239965 , 0.04159387  , -9.78836    , 0.0009732117, 0.001543764 , 0.000146216684, -0.184104085, -0.15990293 , 0.4213968   , -0.004000331, 0.0387303531, 2.38635755  , 3.64        , 3           , 12          , 0.0586610958, 0
0.385732234 , 0.0440616235, -9.785037   , 0.00154208427, 0.000702888 , -0.000134988484, -0.184238911, -0.15990293 , 0.42159903  , -0.003984963, 0.0387373753, 2.38635564  , 3.65        , 3           , 50          , 0           , 0
0.388218075 , 0.0317911878, -9.767893   , -0.000148294726, -0.000153267, -0.0001441919, -0.1841715  , -0.160037756, 0.42159903  , -0.00398650253, 0.03873584  , 2.38635468  , 3.66        , 3           , 11          , 0.006668742 , 0.00666874275
0.384606123 , 0.0331811234, -9.766107   , -0.004662126, -0.001028518, 0.00124612253, -0.1841715  , -0.15990293 , 0.421531618 , -0.00403263932, 0.0387256034, 2.386367    , 3.67        , 3           , 12          , 0.0586610958, 0
0.373769015 , 0.0306547079, -9.782021   , 0.002102593 , 0.0015514025, -0.000413590315, -0.1841715  , -0.15990293 , 0.421531618 , -0.0040117763, 0.0387411   , 2.38636279  , 3.68        , 3           , 50          , 0           , 0
0.372338831 , 0.0216854252, -9.793367   , 0.000123721547, 0.00181959558, -0.00126998744, -0.184306324, -0.160172582, 0.421733856 , -0.00401103357, 0.03875925  , 2.38635     , 3.69        , 3           , 11          , 0.006668742 , 0.00666874275
0.3677432   , 0.04839054  , -9.801879   , 0.001005657 , -0.000416416849, -0.000138499774, -0.184306324, -0.160037756, 0.421531618 , -0.00394477462, 0.0387815759, 2.38635039  , 3.7         , 3           , 12          , 0.0597060546, 0
0.3916708   , 0.04671304  , -9.789048   , -0.000112898357, -0.00267657731, -0.000147238985, -0.184441149, -0.15990293 , 0.4214642   , -0.00394595833, 0.0387548059, 2.386349    , 3.71        , 3           , 50          , 0           , 0
0.3820541   , 0.04673697  , -9.762906   , 0.00354749826, -0.0003992271, -0.00012664737, -0.184441149, -0.15990293 , 0.4214642   , -0.003910532, 0.03875081  , 2.386348    , 3.72        , 3           , 11          , 0.00658791  , 0.00658791047
0.3712282   , 0.0442196243, -9.781531   , 0.00185670459, -0.0009738125, 0.001559808 , -0.184238911, -0.1597681  , 0.4214642   , -0.00389136188, 0.0387411341, 2.38636327  , 3.73        , 3           , 12          , 0.0597060546, 0
0.371769845 , 0.015794022 , -9.783904   , -0.0009783008, 0.0009780388, -0.000145548649, -0.1841715  , -0.160105169, 0.42159903  , -0.00390120386, 0.03875091  , 2.38636231  , 3.74        , 3           , 50          , 0           , 0
0.381101251 , 0.0382286422, -9.778769   , -0.00125580421, -0.000150134612, -0.0012787513, -0.184238911, -0.159835517, 0.4214642   , -0.00391425565, 0.0387493558, 2.386349    , 3.75        , 3           , 11          , 0.00658791  , 0.00658791047
0.377309263 , 0.05814529  , -9.784139   , 0.00100254267, 0.000146711769, -0.0007027069, -0.184238911, -0.159835517, 0.4214642   , -0.00390450261, 0.0387507938, 2.38634229  , 3.76        , 3           , 12          , 0.0597060546, 0
0.373180747 , 0.051454585 , -9.792786   , 0.00354872877, -0.000680793, -0.000409618777, -0.184238911, -0.159835517, 0.4214642   , -0.00386917475, 0.0387439765, 2.386338    , 3.77        , 3           , 50          , 0           , 0
0.375044554 , 0.02700082  , -9.7734375  , -0.000407708081, -0.00014440075, 0.000137886716, -0.184238911, -0.160105169, 0.42159903  , -0.003873199, 0.0387425348, 2.38633943  , 3.78        , 3           , 11          , 0.00658791  , 0.00658791047
0.383878767 , 0.0422631577, -9.780539   , 0.00044161902, -0.000420232915, 0.00127155357, -0.184238911, -0.160037756, 0.421666443 , -0.00386828952, 0.03873839  , 2.38635182  , 3.79        , 3           , 12          , 0.0597060546, 0
0.388104022 , 0.05126405  , -9.788153   , 0.0012749075, 0.0007091196, 0.000711796747, -0.184238911, -0.160037756, 0.421666443 , -0.00387575082, 0.0387388431, 2.3863585   , 3.8         , 3           , 50          , 0           , 0
0.3780282   , 0.04012942  , -9.79641151 , -0.001274067, 0.00209975429, 0.000419576478, -0.184306324, -0.160037756, 0.4214642   , -0.003888332, 0.0387598574, 2.38636231  , 3.81        , 3           , 11          , 0.00650854129, 0.006508544
0.386144876 , 0.03509678  , -9.804053   , 0.00380190439, 0.00382352737, 0.001576035 , -0.184306324, -0.16024    , 0.42159903  , -0.00384970661, 0.03879815  , 2.38637757  , 3.82        , 3           , 12          , 0.06075741  , 0
0.379466146 , 0.02195175  , -9.763481   , 0.0001500349, -0.000143212324, 0.0018353773, -0.184104085, -0.160105169, 0.42159903  , -0.003847495, 0.0387967937, 2.38639617  , 3.83        , 3           , 50          , 0           , 0
0.376533866 , 0.0378034338, -9.770669   , -0.00210060063, -0.0021294523, 0.000126579165, -0.184104085, -0.160105169, 0.42159903  , -0.00386844482, 0.0387755074, 2.3863976   , 3.84        , 3           , 11          , 0.00650854129, 0.006508544
0.3725071   , 0.0401221476, -9.77521    , 0.00270049274, -0.0020969836, -0.0001335702, -0.1841715  , -0.16024    , 0.421329379 , -0.00384148723, 0.0387545228, 2.38639665  , 3.85        , 3           , 12          , 0.06075741  , 0
0.3690683   , 0.048794    , -9.792376   , -0.000422767655, 0.00126078841, 0.000139688 , -0.184508562, -0.15990293 , 0.421531618 , -0.00384566118, 0.03876713  , 2.3863976   , 3.86        , 3           , 50          , 0           , 0
0.381584972 , 0.04226555  , -9.773324   , 0.0029618463, 0.00212840177, -0.000408281718, -0.184373736, -0.15990293 , 0.421666443 , -0.003816205, 0.0387884043, 2.38639379  , 3.87        , 3           , 11          , 0.00650854129, 0.006508544
0.397867024 , 0.0375959277, -9.783162   , 0.0007170238, -0.0007025257, 0.0007069932, -0.184238911, -0.15990293 , 0.4214642   , -0.00380875985, 0.0387814045, 2.38640046  , 3.88        , 3           , 12          , 0.06075741  , 0
0.3875752   , 0.03915631  , -9.808546   , 0.000448626 , -0.003801658, -0.00155939674, -0.184238911, -0.15990293 , 0.4214642   , -0.003804872, 0.0387433358, 2.3863852   , 3.89        , 3           , 50          , 0           , 0
0.3752311   , 0.0347399376, -9.794194   , -0.000988247, -0.000422002224, 0.000134119458, -0.184238911, -0.160037756, 0.4214642   , -0.00383808883, 0.0387661755, 2.38638568  , 3.9         , 3           , 11          , 0.0064311577, 0.00643115724
0.393139869 , 0.055267442 , -9.78855    , -0.000136947725, -0.00126096839, -0.000145768776, -0.184306324, -0.160037756, 0.42159903  , -0.003839512, 0.03875356  , 2.38638425  , 3.91        , 3           , 12          , 0.06181458  , 0
0.382432818 , 0.0372983   , -9.775146   , -0.0007059834, -0.000420093071, -0.000147100829, -0.184104085, -0.160172582, 0.421531618 , -0.00384662859, 0.0387493558, 2.38638234  , 3.92        , 3           , 50          , 0           , 0
0.392730355 , 0.0308327116, -9.766958   , 0.00182208139, 0.002412748 , 0.000151628148, -0.184104085, -0.160172582, 0.421531618 , -0.00382835232, 0.0387734845, 2.38638425  , 3.93        , 3           , 11          , 0.0064311577, 0.00643115724
0.3983277   , 0.04072146  , -9.77501    , 0.0004119193, 0.0018400643, -0.00126851152, -0.184373736, -0.160105169, 0.4214642   , -0.00382472738, 0.03879183  , 2.38637137  , 3.94        , 3           , 12          , 0.06181458  , 0
0.351617128 , 0.0322822332, -9.78625    , 0.000413639529, 0.00155850069, -0.0007038705, -0.184508562, -0.159835517, 0.421733856 , -0.00382086588, 0.0388074   , 2.38636422  , 3.95        , 3           , 50          , 0           , 0
0.369684637 , 0.02310706  , -9.80423    , -0.0012657505, -0.0015501756, -0.0009990829, -0.184238911, -0.1597681  , 0.42159903  , -0.00383390766, 0.03879185  , 2.38635468  , 3.96        , 3           , 11          , 0.0064311577, 0.00643115724
0.393374979 , 0.0305364989, -9.814865   , -0.0018413408, 0.00041695527, -0.00269390433, -0.184238911, -0.1597681  , 0.42159903  , -0.003853368, 0.03879592  , 2.386327    , 3.97        , 3           , 12          , 0.06181458  , 0
0.407861561 , 0.03705959  , -9.792581   , 0.00154293166, 0.00184771034, 0.0009970558, -0.184104085, -0.160172582, 0.421261966 , -0.00383755518, 0.0388144366, 2.38633752  , 3.98        , 3           , 50          , 0           , 0
0.372571528 , 0.041513402 , -9.786504   , 0.00128838513, -0.003785501, 0.0009870603, -0.184441149, -0.15990293 , 0.42159903  , -0.00382428127, 0.03877662  , 2.386347    , 3.99        , 3           , 11          , 0.0064311577, 0.00643115724
0.3807617   , 0.040111132 , -9.800457   , 0.00210845447, 0.00242832163, 0.0001531293, -0.184036672, -0.159633279, 0.42159903  , -0.0037926014, 0.0388373472, 2.386349    , 4           , 3           , 12          , 0.06287705  , 0
0.391771525 , 0.05438261  , -9.789016   , 0.00382055878, -0.000938995567, 0.00156851136, -0.184036672, -0.159633279, 0.42159903  , -0.00375378481, 0.0388280153, 2.3863647   , 4.01        , 3           , 50          , 0           , 0
0.401275367 , 0.055606287 , -9.783514   , -0.000702526537, -0.0004064319, -0.0009945291, -0.184104085, -0.1597681  , 0.421531618 , -0.00376119465, 0.0388239138, 2.38635468  , 4.02        , 3           , 11          , 0.006356688 , 0.00635668635
0.367502123 , 0.0374827869, -9.777971   , 0.0007219016, -0.00264939736, 0.0009863463, -0.184306324, -0.15990293 , 0.421666443 , -0.00375358853, 0.0387974642, 2.38636518  , 4.03        , 3           , 12          , 0.06287705  , 0
0.386328548 , 0.0566703975, -9.779556   , 0.0007060038, 0.000166244165, -0.002399764, -0.184104085, -0.159633279, 0.42159903  , -0.00374746 , 0.0387990363, 2.38634086  , 4.04        , 3           , 50          , 0           , 0
0.37689966  , 0.0559538081, -9.801779   , 0.00156270142, -0.00123583945, 0.0018400792, -0.184104085, -0.159633279, 0.42159903  , -0.003731117, 0.0387867428, 2.38635945  , 4.05        , 3           , 11          , 0.006356688 , 0.00635668635
0.364124179 , 0.0453113019, -9.812767   , -0.000130465341, -0.00152886449, 0.00183174363, -0.184306324, -0.160105169, 0.421531618 , -0.00373170851, 0.038771525 , 2.38637757  , 4.06        , 3           , 12          , 0.06287705  , 0
0.367661536 , 0.0438608937, -9.796474   , 0.0009993308, -0.001802796, -0.000423722231, -0.184104085, -0.159700692, 0.42159903  , -0.003721875, 0.03875348  , 2.38637376  , 4.07        , 3           , 50          , 0           , 0
0.388414621 , 0.0404311   , -9.788195   , -0.0009629013, -0.004631812, 0.0009754071, -0.1841715  , -0.159835517, 0.4214642   , -0.003731121, 0.0387072   , 2.3863833   , 4.08        , 3           , 11          , 0.006356688 , 0.00635668635
0.380042285 , 0.0274025761, -9.77611    , 0.000432178465, -0.00124348351, 0.000422124023, -0.1841715  , -0.159835517, 0.4214642   , -0.0037266335, 0.03869478  , 2.386388    , 4.09        , 3           , 12          , 0.06287705  , 0
0.3834049   , 0.0364488624, -9.794126   , 0.0009825195, -0.00208141073, 0.00042273046, -0.184238911, -0.160037756, 0.421531618 , -0.003767884, 0.0386820473, 2.38639     , 4.1         , 3           , 50          , 0           , 0
0.3636307   , 0.045729965 , -9.80147    , -0.00183928676, -0.00266364217, -0.000156381473, -0.184373736, -0.1597681  , 0.421531618 , -0.0037863336, 0.038655404 , 2.386389    , 4.11        , 3           , 11          , 0.00628414564, 0.00628414331
0.370668977 , 0.0338726565, -9.78881    , -0.00186142779, 0.0018413997, 0.000133098714, -0.184373736, -0.159835517, 0.421666443 , -0.00380489836, 0.0386738256, 2.38639     , 4.12        , 3           , 12          , 0.06394433  , 0
0.3714606   , 0.05601305  , -9.800463   , 0.00267134141, -0.0009436915, 0.0001498303, -0.184238911, -0.15990293 , 0.421531618 , -0.00377812656, 0.0386643969, 2.38639188  , 4.13        , 3           , 50          , 0           , 0
0.376048684 , 0.0618112646, -9.796336   , 0.000413320755, -0.00124053645, 0.00013886104, -0.184238911, -0.15990293 , 0.421531618 , -0.00377393747, 0.03865199  , 2.38639283  , 4.14        , 3           , 11          , 0.00628414564, 0.00628414331
0.3825998   , 0.0539485626, -9.762421   , -0.000862315763, -0.000263652619, 0.000416990952, -0.184441149, -0.159970343, 0.4214642   , -0.00378239783, 0.0386493728, 2.38639712  , 4.15        , 3           , 12          , 0.06394433  , 0
0.385134727 , 0.0323445648, -9.78735    , -0.00199280144, -0.000130510321, 0.000270671444, -0.184104085, -0.159835517, 0.421666443 , -0.003802221, 0.0386480764, 2.3864      , 4.16        , 3           , 50          , 0           , 0
0.3951179   , 0.0264427811, -9.811253   , -0.00185408723, 0.000292790326, -0.000434362766, -0.184306324, -0.159835517, 0.421733856 , -0.003820928, 0.0386509858, 2.38639569  , 4.17        , 3           , 11          , 0.00628414564, 0.00628414331
0.388122022 , 0.0503859334, -9.795387   , -1.76974936E-05, 0.000164422192, -0.000567288371, -0.184306324, -0.159835517, 0.421733856 , -0.00382132549, 0.0386526063, 2.38639     , 4.18        , 3           , 12          , 0.06394433  , 0
0.394361466 , 0.0417502224, -9.79854    , -1.33523827E-05, -0.0006802723, -0.000286052731, -0.184306324, -0.159633279, 0.4214642   , -0.00382156856, 0.0386457928, 2.386387    , 4.19        , 3           , 50          , 0           , 0
0.393767953 , 0.0278046224, -9.808998   , -0.00101782812, -0.00109182973, 0.00041441567, -0.184238911, -0.159970343, 0.4213968   , -0.003883534, 0.0386839323, 2.386389    , 4.2         , 3           , 11          , 0.006212751 , 0.006212745
0.390149951 , 0.033653155 , -9.791374   , -0.000170258383, -0.00122688431, -0.000288194133, -0.184238911, -0.160105169, 0.4213968   , -0.003885345, 0.03867165  , 2.38638663  , 4.21        , 3           , 12          , 0.06501594  , 0
0.375475377 , 0.0225142352, -9.782493   , 0.00025555442, -0.00164636667, -0.000145600919, -0.184238911, -0.160105169, 0.4213968   , -0.003882845, 0.03865518  , 2.3863852   , 4.22        , 3           , 50          , 0           , 0
0.3608745   , 0.0452835   , -9.793357   , 0.0022301618, -0.00106986472, 0.0005708292, -0.184373736, -0.160105169, 0.421329379 , -0.00386032113, 0.0386445038, 2.386391    , 4.23        , 3           , 11          , 0.006212751 , 0.006212745
0.389453858 , 0.0472240262, -9.799006   , 0.00278198021, 0.00146803854, -0.000270244, -0.184373736, -0.160037756, 0.42159903  , -0.00383260753, 0.03865917  , 2.386388    , 4.24        , 3           , 12          , 0.06501594  , 0
0.366209149 , 0.0402298272, -9.785203   , -0.0004658467, 0.00144607434, -0.000144119971, -0.1841715  , -0.15990293 , 0.42159903  , -0.00383732421, 0.0386736356, 2.38638663  , 4.25        , 3           , 50          , 0           , 0
0.3699955   , 0.0452300981, -9.809107   , -0.001164039, -0.0002480935, -0.0009976283, -0.1841715  , -0.15990293 , 0.42159903  , -0.00384934945, 0.03867111  , 2.38637662  , 4.26        , 3           , 11          , 0.006212751 , 0.006212745
0.394416481 , 0.0480436645, -9.791733   , -0.00158714573, -0.0003917417, -0.00128235819, -0.183969259, -0.1597681  , 0.4213968   , -0.00386571488, 0.03866714  , 2.38636374  , 4.27        , 3           , 12          , 0.06501594  , 0
0.392920524 , 0.0434845947, -9.77278    , -0.00257330365, -0.000820772955, -0.000863812049, -0.184306324, -0.159970343, 0.421531618 , -0.00389178144, 0.0386588946, 2.38635516  , 4.28        , 3           , 50          , 0           , 0
0.3795089   , 0.0518177   , -9.788668   , -3.19960236E-05, -0.0006627999, -0.000569205265, -0.184508562, -0.160172582, 0.42159903  , -0.00389232021, 0.038652245 , 2.38634944  , 4.29        , 3           , 11          , 0.006212751 , 0.006212745
0.394213527 , 0.0358278044, -9.78139    , -0.000340443716, 0.00131726172, 0.0009858446, -0.184508562, -0.160172582, 0.42159903  , -0.00394479837, 0.03869714  , 2.38635755  , 4.3         , 3           , 12          , 0.06609148  , 0
0.3993867   , 0.0439596027, -9.802108   , -5.806114E-05, 0.00145995745, 0.00211752858, -0.184238911, -0.15990293 , 0.42159903  , -0.00394456 , 0.0387118161, 2.38637853  , 4.31        , 3           , 50          , 0           , 0
0.396584362 , 0.04927831  , -9.76414    , 0.00361763244, 0.000499305665, 0.00086171116, -0.1841715  , -0.1597681  , 0.421733856 , -0.003908054, 0.0387168452, 2.386387    , 4.32        , 3           , 11          , 0.0061432803, 0.006143273
0.409725934 , 0.04600843  , -9.77671    , 0.004036972 , 0.0012060795, -0.000547916046, -0.1841715  , -0.159970343, 0.421531618 , -0.00386789883, 0.03872889  , 2.38638139  , 4.33        , 3           , 12          , 0.06609148  , 0
0.379719853 , 0.037333224 , -9.776071   , 0.00135547388, 0.0009063704, -0.000278323452, -0.1841715  , -0.159970343, 0.421531618 , -0.003854453, 0.03873794  , 2.38637853  , 4.34        , 3           , 50          , 0           , 0
0.377856374 , 0.0346339643, -9.772028   , -0.00160472072, -9.916002E-05, 0.000412673544, -0.183969259, -0.159970343, 0.421329379 , -0.003870341, 0.0387369655, 2.38638234  , 4.35        , 3           , 11          , 0.0061432803, 0.006143273
0.397552133 , 0.0502108037, -9.776333   , -0.0008969705, -0.0005167348, -0.0002910286, -0.184373736, -0.15990293 , 0.4213968   , -0.00387942116, 0.0387317836, 2.38638     , 4.36        , 3           , 12          , 0.06609148  , 0
0.394747972 , 0.0403521471, -9.786791   , -5.37903361E-05, 0.000333690754, -0.000144507212, -0.184238911, -0.159835517, 0.421666443 , -0.00388001534, 0.038735114 , 2.38637853  , 4.37        , 3           , 50          , 0           , 0
0.377750754 , 0.0202651583, -9.792428   , -0.000485423923, 0.00187943224, -0.000709170941, -0.184238911, -0.159700692, 0.4214642   , -0.00388514623, 0.03875389  , 2.386371    , 4.38        , 3           , 11          , 0.0061432803, 0.006143273
0.383054256 , 0.0485883951, -9.78006649 , -0.000626963738, 0.00187847565, -0.00127490447, -0.184238911, -0.159700692, 0.4214642   , -0.00389191159, 0.0387726165, 2.3863585   , 4.39        , 3           , 12          , 0.06609148  , 0
0.419240862 , 0.0445630029, -9.782518   , -0.00105044118, 0.00049140543, -0.0001491115, -0.184238911, -0.159633279, 0.4214642   , -0.00392449833, 0.0388471335, 2.386356    , 4.4         , 3           , 50          , 0           , 0
0.4003644   , 0.0181932617, -9.791812   , 8.307743E-05, -0.000204865733, 0.000420146273, -0.184238911, -0.160105169, 0.421666443 , -0.00392350461, 0.0388450958, 2.38636041  , 4.41        , 3           , 11          , 0.006075766 , 0.00607575756
0.383208156 , 0.0300405286, -9.76658249 , 0.00149566389, -0.000336099532, 2.707884E-06, -0.184036672, -0.15990293 , 0.42159903  , -0.00390854757, 0.038841743 , 2.38636041  , 4.42        , 3           , 12          , 0.0671705157, 0
0.38696745  , 0.0439458862, -9.755197   , 0.00163732946, -0.000475928216, -0.000420656725, -0.184036672, -0.15990293 , 0.42159903  , -0.0038923372, 0.0388369672, 2.386356    , 4.43        , 3           , 50          , 0           , 0
0.3923016   , 0.03308925  , -9.765596   , 0.00247964938, 0.000515279069, -0.000556456, -0.184238911, -0.159835517, 0.421531618 , -0.00386775821, 0.0388420969, 2.38635039  , 4.44        , 3           , 11          , 0.006075766 , 0.00607575756
0.377066135 , 0.03429172  , -9.80141449 , 0.0019154927, 0.000370676542, -0.000559306762, -0.184373736, -0.159565866, 0.421531618 , -0.00384882349, 0.03884578  , 2.38634515  , 4.45        , 3           , 12          , 0.0671705157, 0
0.380564749 , 0.0283464268, -9.7901125  , 0.0007920956, -0.0007632201, 0.000705108454, -0.183969259, -0.15990293 , 0.4214642   , -0.00384062715, 0.0388381779, 2.38635182  , 4.46        , 3           , 50          , 0           , 0
0.40125367  , 0.0239720028, -9.769181   , 9.615724E-05, -0.00287973462, 0.000133486625, -0.183969259, -0.15990293 , 0.4214642   , -0.00383960851, 0.03880939  , 2.38635325  , 4.47        , 3           , 11          , 0.006075766 , 0.00607575756
0.379122436 , 0.0207064059, -9.794224   , 0.0008052572, -0.00343808858, 0.000559717359, -0.184238911, -0.159835517, 0.421531618 , -0.00383133558, 0.03877503  , 2.386359    , 4.48        , 3           , 12          , 0.0671705157, 0
0.3698172   , 0.03348051  , -9.803282   , 8.594712E-05, -0.0007679954, 0.0005605474, -0.184306324, -0.159835517, 0.421531618 , -0.003830257, 0.0387673639, 2.3863647   , 4.49        , 3           , 50          , 0           , 0
0.368890643 , 0.03793765  , -9.783834   , -0.0021624316, 0.000218711386, -0.000436732051, -0.184104085, -0.159835517, 0.4213968   , -0.00380221824, 0.0388193838, 2.38636136  , 4.5         , 3           , 11          , 0.0060104304, 0.00601042155
0.3701874   , 0.07305935  , -9.766503   , 0.00249891612, 0.000250232144, 0.00184529717, -0.184104085, -0.159835517, 0.4213968   , -0.00377651118, 0.038821958 , 2.38638043  , 4.51        , 3           , 12          , 0.068252705 , 0
0.34677273  , 0.0329716019, -9.706736   , 0.00503669353, 0.0012529036, 0.00327135576, -0.1841715  , -0.160037756, 0.4213968   , -0.00372487726, 0.0388346128, 2.38641286  , 4.52        , 3           , 50          , 0           , 0
0.377551138 , 0.0395945534, -9.903085   , -0.00370991486, -0.00105883845, -0.0011522714, -0.184238911, -0.159835517, 0.421733856 , -0.003762422, 0.0388239846, 2.38640141  , 4.53        , 3           , 11          , 0.0060104304, 0.00601042155
0.399475425 , 0.0475281551, -9.9232235  , -0.00482706865, -0.00388213573, -0.00356344716, -0.1841715  , -0.160037756, 0.42159903  , -0.0038120714, 0.03878502  , 2.38636613  , 4.54        , 3           , 12          , 0.068252705 , 0
0.400365561 , -0.0178860128, -9.797384   , 0.0009550004, -0.00173123 , 0.00126994145, -0.1841715  , -0.160037756, 0.42159903  , -0.00380202779, 0.03876776  , 2.38637853  , 4.55        , 3           , 50          , 0           , 0
0.403451651 , 0.0305872   , -9.731623   , 0.0009365076, 0.00206990028, 0.00184087467, -0.184373736, -0.159700692, 0.421194553 , -0.003791952, 0.0387885273, 2.38639665  , 4.56        , 3           , 11          , 0.0060104304, 0.00601042155
0.3882903   , 0.0590770878, -9.69772148 , 0.00122221909, 0.00122711062, 0.000286933675, -0.184373736, -0.1597681  , 0.42159903  , -0.00377962063, 0.0388008058, 2.38639951  , 4.57        , 3           , 12          , 0.068252705 , 0
0.369028449 , -0.00465204753, -9.732936   , 0.000948601344, -0.000323401677, 0.0022609923, -0.184036672, -0.160172582, 0.421531618 , -0.00376925385, 0.0387976579, 2.3864224   , 4.58        , 3           , 50          , 0           , 0
0.3705298   , 0.0719977   , -9.853738   , -0.00286812824, 7.315237E-05, -0.00100531615, -0.184036672, -0.160172582, 0.421531618 , -0.003798327, 0.0387983471, 2.38641238  , 4.59        , 3           , 11          , 0.0060104304, 0.00601042155
0.4148935   , 0.0914809   , -9.897613   , -0.003148557, 0.000216620087, -0.003407938, -0.184238911, -0.159700692, 0.4214642   , -0.00381851569, 0.0388146   , 2.386378    , 4.6         , 3           , 12          , 0.069337666 , 0
0.4070603   , 0.00687707355, -9.804462   , 0.00376436813, 0.00209359964, 0.00100647856, -0.184238911, -0.159835517, 0.42159903  , -0.003780484, 0.03883557  , 2.386388    , 4.61        , 3           , 50          , 0           , 0
0.3880885   , 0.008103771 , -9.701551   , 0.0039014814, 0.00293925  , 0.00114970759, -0.184238911, -0.15990293 , 0.42159903  , -0.003741025, 0.0388650075, 2.38639951  , 4.62        , 3           , 11          , 0.005946628 , 0.005946618
0.3886561   , 0.03713014  , -9.747076   , -0.00131992239, 0.001918431 , -0.00127774314, -0.184373736, -0.159835517, 0.4213968   , -0.00375472475, 0.0388841443, 2.38638616  , 4.63        , 3           , 12          , 0.069337666 , 0
0.3723947   , 0.0542401522, -9.81312    , -0.00159575 , 0.00064948  , -0.0007159379, -0.184373736, -0.159835517, 0.4213968   , -0.0037709598, 0.0388906077, 2.38637948  , 4.64        , 3           , 50          , 0           , 0
0.368163764 , 0.034968622 , -9.837187   , -0.0008955853, 0.00178051379, -0.00127598492, -0.184104085, -0.15990293 , 0.42159903  , -0.00378041528, 0.0389083661, 2.38636661  , 4.65        , 3           , 11          , 0.005946628 , 0.005946618
0.384996    , 0.0410850346, -9.836128   , -0.0001839866, 0.0007998142, -0.000144061327, -0.184238911, -0.15990293 , 0.421666443 , -0.00378231145, 0.03891636  , 2.38636518  , 4.66        , 3           , 12          , 0.069337666 , 0
0.3797909   , 0.05033496  , -9.751609   , 0.00265122578, -0.00129282207, 0.000713466143, -0.184306324, -0.15990293 , 0.421329379 , -0.00375552 , 0.03890346  , 2.38637233  , 4.67        , 3           , 50          , 0           , 0
0.3785596   , 0.0282104537, -9.743123   , 0.00335487584, -0.0008657013, 0.000152334411, -0.184306324, -0.15990293 , 0.421329379 , -0.00372191146, 0.03889481  , 2.38637376  , 4.68        , 3           , 11          , 0.005946628 , 0.005946618
0.390599161 , 0.00381361973, -9.775675   , 0.0003964015, -0.0021527952, 0.00140797254, -0.184373736, -0.159835517, 0.421531618 , -0.00371739524, 0.0388733372, 2.386388    , 4.69        , 3           , 12          , 0.069337666 , 0
0.3791318   , 0.0131260436, -9.820923   , -0.00030181522, -0.00172639766, 0.0009818795, -0.184104085, -0.159835517, 0.42159903  , -0.00368779618, 0.03888401  , 2.38639855  , 4.7         , 3           , 50          , 0           , 0
0.374974132 , 0.00730437972, -9.819622   , -0.000726560364, -0.00158848206, 0.000273777317, -0.184036672, -0.159835517, 0.421329379 , -0.00369495386, 0.038868133 , 2.38640141  , 4.71        , 3           , 11          , 0.00588492863, 0.005884919
0.368760645 , 0.0284589343, -9.782519   , -0.0005834636, -0.0018690899, 0.00112161436, -0.184036672, -0.159835517, 0.421329379 , -0.00370034971, 0.0388494842, 2.38641286  , 4.72        , 3           , 12          , 0.07042507  , 0
0.369704783 , 0.03785293  , -9.761682   , 0.00125112431, -0.0017158949, 0.0002827791, -0.184238911, -0.1597681  , 0.4214642   , -0.00368772727, 0.0388323367, 2.38641572  , 4.73        , 3           , 50          , 0           , 0
0.378956556 , 0.050849665 , -9.767433   , -0.00044261344, -0.0020089224, -0.0007144377, -0.184508562, -0.159835517, 0.421531618 , -0.00369242765, 0.03881222  , 2.38640857  , 4.74        , 3           , 11          , 0.00588492863, 0.005884919
0.3953451   , 0.0489444062, -9.794435   , -0.00143209344, -0.00173404033, -1.226934E-05, -0.1841715  , -0.1597681  , 0.42159903  , -0.003706752, 0.03879488  , 2.38640857  , 4.75        , 3           , 12          , 0.07042507  , 0
0.3757338   , 0.0316506475, -9.816351   , 0.00025992404, -0.00115944922, 0.0004203064, -0.1841715  , -0.1597681  , 0.42159903  , -0.003703986, 0.0387833   , 2.38641286  , 4.76        , 3           , 50          , 0           , 0
0.372838944 , 0.02528932  , -9.793348   , 0.000113423746, -0.000174928427, -0.000285177084, -0.1841715  , -0.1597681  , 0.421531618 , -0.0037029637, 0.03878154  , 2.38641     , 4.77        , 3           , 11          , 0.00588492863, 0.005884919
0.36807     , 0.0393561572, -9.800106   , -0.00087334984, -0.000463176868, 0.000274854683, -0.184238911, -0.1597681  , 0.4214642   , -0.003711587, 0.0387769155, 2.38641286  , 4.78        , 3           , 12          , 0.07042507  , 0
0.382500827 , 0.04360233  , -9.771503   , -0.0005888765, -0.000742828939, 0.00140588754, -0.184104085, -0.159970343, 0.42159903  , -0.003716931, 0.0387695469, 2.38642716  , 4.79        , 3           , 50          , 0           , 0
0.3871653   , 0.0543722622, -9.770067   , -0.00129284582, -0.0007516642, 0.000131186069, -0.184104085, -0.159970343, 0.42159903  , -0.00372065324, 0.0387489274, 2.386428    , 4.8         , 3           , 11          , 0.005824809 , 0.00582479965
0.3743936   , 0.0437327772, -9.78196049 , -0.0024260378, -5.539141E-05, 0.000127003179, -0.184104085, -0.15990293 , 0.421329379 , -0.00374486367, 0.0387483761, 2.386429    , 4.81        , 3           , 12          , 0.07151459  , 0
0.3545289   , 0.0440135375, -9.796123   , -0.001288419, -0.00159635826, 0.000553690363, -0.184508562, -0.160037756, 0.42159903  , -0.00375753129, 0.0387324281, 2.38643479  , 4.82        , 3           , 50          , 0           , 0
0.383440584 , 0.0342460275, -9.809954   , 0.000129743144, -0.00285385223, 0.0001345162, -0.184373736, -0.15990293 , 0.4214642   , -0.00375617645, 0.0387039   , 2.3864367   , 4.83        , 3           , 11          , 0.005824809 , 0.00582479965
0.400558    , 0.0304015558, -9.799895   , 0.000542438938, -0.000739251671, -0.0007078662, -0.184373736, -0.15990293 , 0.4214642   , -0.00375102554, 0.03869648  , 2.386429    , 4.84        , 3           , 12          , 0.07151459  , 0
0.37811318  , 0.01661586  , -9.782044   , 0.00110282144, 0.000250047946, 2.62998583E-06, -0.1841715  , -0.15990293 , 0.421261966 , -0.00373999844, 0.03869898  , 2.386429    , 4.85        , 3           , 50          , 0           , 0
0.38682133  , 0.0526803024, -9.802168   , 0.0006853727, -0.00101986027, -0.000142566845, -0.184306324, -0.159700692, 0.4214642   , -0.00373319839, 0.03868878  , 2.386428    , 4.86        , 3           , 11          , 0.005824809 , 0.00582479965
0.39550373  , 0.0593390279, -9.799813   , 0.0006816058, -0.0004567348, -0.001836924, -0.1841715  , -0.159700692, 0.4214642   , -0.00372709264, 0.0386841446, 2.38640952  , 4.87        , 3           , 12          , 0.07151459  , 0
0.3961066   , 0.0381046273, -9.794021   , 0.001384596 , 0.000251954742, -0.001126203, -0.184306324, -0.159970343, 0.4214642   , -0.00371368486, 0.0386866219, 2.38639855  , 4.88        , 3           , 50          , 0           , 0
0.398490548 , 0.0542439073, -9.77133751 , 0.00181135058, -0.0003083089, -0.000560020446, -0.184306324, -0.159970343, 0.4214642   , -0.00369578786, 0.0386835225, 2.38639283  , 4.89        , 3           , 11          , 0.005824809 , 0.00582479965
0.402594328 , 0.0502022281, -9.79121    , 0.003063925 , 0.0004245249, 0.000152760185, -0.184104085, -0.160037756, 0.42159903  , -0.003715602, 0.0387548842, 2.38639188  , 4.9         , 3           , 12          , 0.07260593  , 0
0.3960311   , 0.0317945629, -9.795856   , 0.00208010268, -0.000426852872, 0.0009944616, -0.184508562, -0.15990293 , 0.4213968   , -0.00369441626, 0.0387506522, 2.386402    , 4.91        , 3           , 50          , 0           , 0
0.3766774   , 0.0428295955, -9.78963    , -0.00314552826, -0.000462190743, -0.000301320339, -0.184306324, -0.160105169, 0.4214642   , -0.00372598716, 0.03874602  , 2.38639855  , 4.92        , 3           , 11          , 0.00576605834, 0.00576604763
0.367278963 , 0.0506183542, -9.791931   , -0.003435007, 0.0009437241, -0.0004417364, -0.184306324, -0.160105169, 0.4214642   , -0.00376050943, 0.03875544  , 2.38639474  , 4.93        , 3           , 12          , 0.07260593  , 0
0.4012744   , 0.0542664379, -9.787587   , 0.000522699 , 0.000266552175, -5.77915671E-07, -0.184238911, -0.160105169, 0.4214642   , -0.00375528377, 0.038758114 , 2.38639474  , 4.94        , 3           , 50          , 0           , 0
0.386010259 , 0.0269533787, -9.797309   , 0.000815580832, -0.00184327585, -2.51550318E-06, -0.184373736, -0.159700692, 0.421666443 , -0.00374712539, 0.03873967  , 2.38639474  , 4.95        , 3           , 11          , 0.00576605834, 0.00576604763
0.375010967 , 0.0193856768, -9.789741   , 0.0006833024, -0.00353361876, 0.0009831036, -0.1841715  , -0.159835517, 0.421733856 , -0.00373990647, 0.0387043729, 2.38640428  , 4.96        , 3           , 12          , 0.07260593  , 0
0.3651753   , 0.0280850772, -9.792944   , 0.0013801452, -0.00169867149, 0.000706679 , -0.1841715  , -0.159835517, 0.421733856 , -0.0037258293, 0.03868741  , 2.38641143  , 4.97        , 3           , 50          , 0           , 0
0.3752135   , 0.0387428477, -9.777002   , 0.001368956 , 0.0004130632, -0.000561485, -0.1841715  , -0.159970343, 0.421261966 , -0.00371235935, 0.03869152  , 2.38640618  , 4.98        , 3           , 11          , 0.00576605834, 0.00576604763
0.388755232 , 0.03497871  , -9.778272   , 0.0003828794, -1.59677584E-05, -1.670378E-06, -0.184306324, -0.15990293 , 0.4214642   , -0.00370853068, 0.03869136  , 2.38640618  , 4.99        , 3           , 12          , 0.07260593  , 0
0.389684439 , 0.0265065674, -9.811295   , -0.00102731423, -0.0005806053, 0.000838403357, -0.184104085, -0.15990293 , 0.4214642   , -0.00372300274, 0.0387127064, 2.38641381  , 5           , 3           , 50          , 0           , 0
0.3765896   , 0.004892806 , -9.779393   , -0.000319074636, -0.0009981777, 0.0009823135, -0.184104085, -0.15990293 , 0.4214642   , -0.0037258123, 0.03870277  , 2.38642335  , 5.01        , 3           , 11          , 0.00570892263, 0.00570891
0.370385557 , 0.013557246 , -9.784829   , 0.0023512335, 0.00141326594, -0.000555443345, -0.184238911, -0.159633279, 0.421261966 , -0.00370251713, 0.03871688  , 2.38641763  , 5.02        , 3           , 12          , 0.0736988261, 0
0.379544139 , 0.0540779978, -9.790014   , 0.00277422112, 0.00141612778, -0.001683618, -0.184238911, -0.159633279, 0.421666443 , -0.003675431, 0.0387309752, 2.386401    , 5.03        , 3           , 50          , 0           , 0
0.3829229   , 0.0373232178, -9.784183   , 0.0010880616, -0.000143936486, -0.000422487443, -0.184373736, -0.1597681  , 0.42159903  , -0.00366471149, 0.03872952  , 2.38639665  , 5.04        , 3           , 11          , 0.00570892263, 0.00570891
0.385670453 , 0.03865537  , -9.787319   , 0.000944179 , 0.0005590252, 0.0009906263, -0.184373736, -0.1597681  , 0.42159903  , -0.00365488767, 0.0387351476, 2.38640666  , 5.05        , 3           , 12          , 0.0736988261, 0
0.375076622 , 0.06266069  , -9.777357   , 0.0009428666, 0.0008405907, 0.00113232888, -0.184306324, -0.15990293 , 0.4213968   , -0.00364502 , 0.0387436   , 2.38641763  , 5.06        , 3           , 50          , 0           , 0
0.367973953 , 0.040617384 , -9.772531   , 0.001513096 , -0.000422636425, -0.000420945958, -0.184441149, -0.160105169, 0.421329379 , -0.00363005139, 0.0387393534, 2.38641381  , 5.07        , 3           , 11          , 0.00570892263, 0.00570891
0.387795627 , 0.06254512  , -9.787204   , 0.002923836 , -0.000131521578, -0.000413927337, -0.1841715  , -0.15990293 , 0.421666443 , -0.0036009727, 0.0387380235, 2.38640952  , 5.08        , 3           , 12          , 0.0736988261, 0
