Acc X       , Acc Y       , Acc Z       , Gyro X      , Gyro Y      , Gyro Z      , Magn X      , Magn Y      , Magn Z      , Euler X     , Euler Y     , Euler Z     , Time        , Status      , LowRate X   , LowRate Y   , LowRate Z    
-0.08191758 , 0.08078569  , -9.817839   , -0.00081825495, -0.0008720792, 3.50905248E-05, -0.228326812, -0.1342187  , 0.4532156   , -0.008853862, -0.008994693, 2.63090777  , 0           , 3           , 11          , 0.0346410163, 0.0346410163
-0.07430814 , 0.0828558356, -9.789297   , -0.00139118347, 0.000672706868, -0.0006715003, -0.228596464, -0.1342187  , 0.453283    , -0.00886771 , -0.008988026, 2.63090062  , 0.01        , 3           , 12          , 0.0346410163, 0
-0.09171364 , 0.100229576 , -9.796138   , -0.000686058134, 0.0008182631, -0.00109179725, -0.228394225, -0.1342861  , 0.4532156   , -0.008874473, -0.008979941, 2.63089013  , 0.02        , 3           , 50          , 0           , 0
-0.0786994  , 0.09373209  , -9.78793    , -0.00194566348, -0.0014428515, -0.0008186574, -0.228394225, -0.1342861  , 0.4532156   , -0.008893858, -0.00899444 , 2.63088155  , 0.03        , 3           , 11          , 0.0346410163, 0.0346410163
-0.0814907551, 0.0937035   , -9.769873   , -0.00208113785, -0.002570066, -0.00053851417, -0.228663877, -0.1342187  , 0.453283    , -0.00891462248, -0.009020188, 2.63087678  , 0.04        , 3           , 12          , 0.0346410163, 0
-0.08145931 , 0.08569467  , -9.803352   , -0.00165926258, -0.00214485149, 2.91869583E-05, -0.228529051, -0.13415128 , 0.453417838 , -0.00893122 , -0.009041635, 2.63087726  , 0.05        , 3           , 50          , 0           , 0
-0.08654958 , 0.0812008   , -9.791205   , -0.003359607, -0.0008892665, 0.0008708504, -0.2282594  , -0.134353518, 0.453013361 , -0.008964895, -0.009050449, 2.63088632  , 0.06        , 3           , 11          , 0.0346410163, 0.0346410163
-0.08733898 , 0.09469608  , -9.77624    , -0.0019598112, 0.00151358417, 3.35111981E-05, -0.2282594  , -0.134353518, 0.453013361 , -0.008984494, -0.009035311, 2.63088632  , 0.07        , 3           , 12          , 0.0346410163, 0
-0.124359049, 0.0978978351, -9.794138   , 0.0012892466, 0.00125398254, -0.0003755841, -0.228461638, -0.134083867, 0.4532156   , -0.008971568, -0.009022805, 2.6308825   , 0.08        , 3           , 50          , 0           , 0
-0.0907921642, 0.101570889 , -9.795673   , 0.00143570977, 0.00012867566, -0.0009417364, -0.228596464, -0.134016454, 0.453350425 , -0.008957124, -0.009021603, 2.630873    , 0.09        , 3           , 11          , 0.0346410163, 0.0346410163
-0.08882834 , 0.08389348  , -9.779009   , -0.000116243893, -0.0001633943, -0.000949412, -0.228394225, -0.13415128 , 0.453350425 , -0.008958203, -0.009023321, 2.63086343  , 0.1         , 3           , 12          , 0.0346410163, 0
-0.08652281 , 0.0821152   , -9.794818   , -0.0006777385, -0.00073034165, 3.59674741E-05, -0.228394225, -0.13415128 , 0.453350425 , -0.008964984, -0.0090306215, 2.63086438  , 0.11        , 3           , 50          , 0           , 0
-0.07868732 , 0.09240283  , -9.795168   , 0.00101317442, -1.49698735E-05, -0.000237583561, -0.228596464, -0.1342187  , 0.453080773 , -0.00895483047, -0.009030792, 2.63086152  , 0.12        , 3           , 11          , 0.0346410163, 0.0346410163
-0.09243953 , 0.08126688  , -9.790346   , 0.001293881 , 0.0002685036, -0.0008009076, -0.228596464, -0.134016454, 0.453283    , -0.008941819, -0.009028179, 2.630854    , 0.13        , 3           , 12          , 0.0346410163, 0
-0.08642627 , 0.09424488  , -9.779399   , -0.000122435347, 0.00110364892, -0.0008061905, -0.228326812, -0.134353518, 0.453283    , -0.008942969, -0.009017214, 2.63084531  , 0.14        , 3           , 50          , 0           , 0
-0.1045786  , 0.0895145   , -9.785433   , -0.0004040836, 0.000960956851, -0.00066645554, -0.228326812, -0.134353518, 0.453283    , -0.008946951, -0.009007665, 2.63083863  , 0.15        , 3           , 11          , 0.0346410163, 0.0346410163
-0.0822904855, 0.08799734  , -9.814196   , -0.002940883, -4.170986E-05, -0.000397289259, -0.228394225, -0.1342187  , 0.453080773 , -0.008976323, -0.009008118, 2.63083482  , 0.16        , 3           , 12          , 0.0346410163, 0
-0.0902266353, 0.09763976  , -9.835912   , -0.00350709353, 0.000376821321, 0.000872146338, -0.228529051, -0.1342861  , 0.453417838 , -0.009011473, -0.009004272, 2.6308434   , 0.17        , 3           , 50          , 0           , 0
-0.09264277 , 0.09352584  , -9.811993   , -0.00251179235, -0.00102431991, 0.000592048455, -0.228394225, -0.13415128 , 0.453013361 , -0.009036644, -0.009014462, 2.6308496   , 0.18        , 3           , 11          , 0.0346410163, 0.0346410163
-0.09182632 , 0.08897952  , -9.804773   , -0.00194927433, -0.0005981535, 0.000171527 , -0.228394225, -0.13415128 , 0.453013361 , -0.009056154, -0.009020425, 2.63085151  , 0.19        , 3           , 12          , 0.0346410163, 0
-0.09815256 , 0.088617906 , -9.809342   , -0.000822971866, 0.000113398215, 0.000319149927, -0.228529051, -0.134555757, 0.4532156   , -0.009064442, -0.009019297, 2.63085485  , 0.2         , 3           , 50          , 0           , 0
-0.07458574 , 0.120422386 , -9.822139   , -0.0008162093, -0.00115364231, 0.00116480957, -0.228326812, -0.13415128 , 0.4531482   , -0.009072712, -0.009030726, 2.63086629  , 0.21        , 3           , 11          , 0.0346699134, 0.03466991
-0.0865629762, 0.0807436   , -9.7894     , -0.00166841317, -3.31087467E-05, 0.00229274435, -0.228663877, -0.1342861  , 0.4531482   , -0.009089603, -0.009030849, 2.63088918  , 0.22        , 3           , 12          , 0.03466876  , 0
-0.10424035 , 0.07825761  , -9.793613   , -0.0006808983, -2.64285518E-05, 0.0006021289, -0.228663877, -0.1342861  , 0.4531482   , -0.009096467, -0.009031057, 2.63089538  , 0.23        , 3           , 50          , 0           , 0
-0.09354219 , 0.09175606  , -9.819238   , -0.000400807185, 0.000397827767, 0.000180290532, -0.228596464, -0.13462317 , 0.4531482   , -0.00910049 , -0.009027064, 2.63089728  , 0.24        , 3           , 11          , 0.0346699134, 0.03466991
-0.061161235, 0.08182205  , -9.79598    , -0.00279975217, -4.075646E-05, -0.0005378981, -0.228596464, -0.1342861  , 0.4531482   , -0.00912844 , -0.00902752 , 2.630892    , 0.25        , 3           , 12          , 0.03466876  , 0
-0.07888736 , 0.08152832  , -9.781202   , -0.00293186 , -0.00201267 , -0.001671744, -0.228596464, -0.134420931, 0.453283    , -0.009157608, -0.009047799, 2.63087535  , 0.26        , 3           , 50          , 0           , 0
-0.07864323 , 0.0991338044, -9.784292   , -0.000246966025, -0.00213530241, 0.000318312319, -0.228596464, -0.134420931, 0.453283    , -0.00916011 , -0.009069121, 2.63087869  , 0.27        , 3           , 11          , 0.0346699134, 0.03466991
-0.0809415951, 0.09288358  , -9.796086   , 0.00242928183, -0.0007093315, 0.0006155304, -0.228461638, -0.134488344, 0.453080773 , -0.009135872, -0.009076158, 2.630885    , 0.28        , 3           , 12          , 0.03466876  , 0
-0.104756758, 0.108042724 , -9.793041   , -4.998701E-05, 0.0008225624, -2.93155845E-05, -0.228461638, -0.1342187  , 0.4532156   , -0.00913636852, -0.009067935, 2.63088441  , 0.29        , 3           , 50          , 0           , 0
-0.0990885943, 0.115310743 , -9.826867   , -0.00131917535, -0.00213616085, 0.0008079949, -0.228461638, -0.134555757, 0.453417838 , -0.00942552648, -0.008959371, 2.63089538  , 0.3         , 3           , 11          , 0.0347534   , 0.0347533971
-0.07373068 , 0.0825052038, -9.820932   , -0.00204329775, 0.001308232 , -0.0008852065, -0.228461638, -0.134555757, 0.453417838 , -0.009445881, -0.008946373, 2.63088632  , 0.31        , 3           , 12          , 0.0347537771, 0
-0.07539183 , 0.07647325  , -9.766281   , 0.001773646 , 0.0004893213, -0.0008687296, -0.228461638, -0.1342861  , 0.453013361 , -0.009428067, -0.008941562, 2.63087773  , 0.32        , 3           , 50          , 0           , 0
-0.085342   , 0.07392108  , -9.777668   , 0.00375588  , -0.000482784933, -0.000225320444, -0.228663877, -0.1342187  , 0.453283    , -0.009390487, -0.008946409, 2.63087583  , 0.33        , 3           , 11          , 0.0347534   , 0.0347533971
-0.09467327 , 0.0817642659, -9.796237   , 0.00375458621, -0.000130826433, 0.0005521999, -0.228461638, -0.1342187  , 0.4532156   , -0.009352991, -0.008947666, 2.630881    , 0.34        , 3           , 12          , 0.0347537771, 0
-0.08991552 , 0.09260979  , -9.8174     , 8.83022949E-05, -0.00107073912, 0.001805088 , -0.228326812, -0.134353518, 0.453080773 , -0.009352271, -0.008958205, 2.63089919  , 0.35        , 3           , 50          , 0           , 0
-0.1016083  , 0.10218589  , -9.806602   , -0.00237556943, -0.00270645367, 0.0006609198, -0.228326812, -0.134353518, 0.453080773 , -0.009376089, -0.008985208, 2.63090634  , 0.36        , 3           , 11          , 0.0347534   , 0.0347533971
-0.115648493, 0.107257418 , -9.789964   , -0.00132081413, -0.00185459689, 0.000384622632, -0.228529051, -0.13415128 , 0.4532156   , -0.0093893325, -0.00900371652, 2.63091016  , 0.37        , 3           , 12          , 0.0347537771, 0
-0.103262931, 0.08723221  , -9.782269   , -0.00337267248, -0.00102374924, 0.000235107931, -0.228529051, -0.1342861  , 0.453283    , -0.009423083, -0.009013931, 2.63091254  , 0.38        , 3           , 50          , 0           , 0
-0.07945992 , 0.1059117   , -9.784269   , -0.00126074755, 0.000398404256, 0.001447939 , -0.228461638, -0.134488344, 0.4531482   , -0.009435819, -0.009009811, 2.63092732  , 0.39        , 3           , 11          , 0.0347534   , 0.0347533971
-0.07362099 , 0.09732364  , -9.800079   , -0.0007147773, 0.002070888 , 0.000181655269, -0.228461638, -0.134488344, 0.4531482   , -0.009532932, -0.009179555, 2.63092923  , 0.4         , 3           , 12          , 0.034895204 , 0
-0.09824848 , 0.08496939  , -9.797607   , -0.0006357658, 0.000381975056, 0.000250015146, -0.228596464, -0.134555757, 0.453350425 , -0.009539313, -0.009175711, 2.630932    , 0.41        , 3           , 50          , 0           , 0
-0.0890244544, 0.0957118645, -9.80382    , 0.0002895437, -0.00116042665, -0.000171897555, -0.228394225, -0.134353518, 0.453283    , -0.009536403, -0.009187334, 2.63093019  , 0.42        , 3           , 11          , 0.0176920462, 0.0176920947
-0.08447105 , 0.09746483  , -9.80423    , -0.00112931582, 0.000237849948, 0.000247493532, -0.228461638, -0.1342861  , 0.453283    , -0.009547717, -0.00918493047, 2.630933    , 0.43        , 3           , 12          , 0.034895204 , 0
-0.08320817 , 0.09692516  , -9.782527   , -0.0008470965, 0.0003805449, 0.0010966399, -0.228461638, -0.1342861  , 0.453283    , -0.00955629 , -0.009181019, 2.63094354  , 0.44        , 3           , 50          , 0           , 0
-0.08510684 , 0.08437769  , -9.801577   , 0.00176242308, 0.0008909487, 0.0002619686, -0.228394225, -0.1342187  , 0.453283    , -0.009538687, -0.009172086, 2.6309464   , 0.45        , 3           , 11          , 0.0176920462, 0.0176920947
-0.08638753 , 0.09115183  , -9.798847   , 0.00211260538, 0.001526859 , 0.0007590316, -0.228663877, -0.134353518, 0.453283    , -0.00951763 , -0.009156744, 2.630954    , 0.46        , 3           , 12          , 0.034895204 , 0
-0.09146173 , 0.08310017  , -9.802084   , 0.00175762549, 0.00187642674, 0.000404755934, -0.2287987  , -0.1342187  , 0.4531482   , -0.009500088, -0.009137942, 2.63095784  , 0.47        , 3           , 50          , 0           , 0
-0.09746197 , 0.07772068  , -9.791756   , 0.000216720044, -0.000597771432, 0.000817522057, -0.2287987  , -0.1342187  , 0.4531482   , -0.009497997, -0.009143841, 2.630966    , 0.48        , 3           , 11          , 0.0176920462, 0.0176920947
-0.09858842 , 0.08372708  , -9.829254   , 0.000352583447, 0.0004590521, 0.0006079046, -0.228529051, -0.134353518, 0.453283    , -0.009494526, -0.009139193, 2.63097215  , 0.49        , 3           , 12          , 0.034895204 , 0
-0.08502707 , 0.08890584  , -9.806529   , -0.000887015, 0.000439813 , 0.000248425815, -0.228394225, -0.134353518, 0.4531482   , -0.0093518775, -0.009185951, 2.630973    , 0.5         , 3           , 50          , 0           , 0
-0.109972425, 0.09273483  , -9.785009   , 0.000314426055, 0.00023675694, 0.000394966046, -0.228529051, -0.134353518, 0.4532156   , -0.009348771, -0.00918354653, 2.630977    , 0.51        , 3           , 11          , 0.0134343738, 0.0134343924
-0.104022637, 0.08780739  , -9.816172   , -0.00165624788, -0.00104365556, 0.000454429217, -0.228529051, -0.134353518, 0.4532156   , -0.009365374, -0.009193938, 2.63098168  , 0.52        , 3           , 12          , 0.0350919329, 0
-0.07554627 , 0.09680608  , -9.773882   , -0.002087329, 0.000431695458, 0.000242828843, -0.228461638, -0.134555757, 0.4531482   , -0.009386269, -0.009189599, 2.63098454  , 0.53        , 3           , 50          , 0           , 0
-0.09053774 , 0.0853362158, -9.799355   , 0.000372242037, 0.002771319 , -2.46053278E-05, -0.228529051, -0.1342861  , 0.4532156   , -0.009382543, -0.00916189 , 2.63098359  , 0.54        , 3           , 11          , 0.0134343738, 0.0134343924
-0.07842481 , 0.08465536  , -9.773501   , -0.0007420311, -0.0002631435, 0.00074244017, -0.228529051, -0.134488344, 0.4531482   , -0.009390031, -0.00916445348, 2.63099122  , 0.55        , 3           , 12          , 0.0350919329, 0
-0.07747821 , 0.084678    , -9.783439   , 0.001799814 , -0.000386739528, -0.0004467087, -0.228529051, -0.134488344, 0.4531482   , -0.009371993, -0.009168361, 2.63098645  , 0.56        , 3           , 50          , 0           , 0
-0.0914797559, 0.08397828  , -9.79484749 , 0.000310740783, 0.0007998828, -0.001158122, -0.228529051, -0.134353518, 0.4532156   , -0.009368778, -0.009160472, 2.630975    , 0.57        , 3           , 11          , 0.0134343738, 0.0134343924
-0.0531028546, 0.08120568  , -9.77513    , -0.00158914446, -0.0004096583, -0.0001799745, -0.22873129 , -0.134083867, 0.4531482   , -0.00938465353, -0.009164585, 2.630973    , 0.58        , 3           , 12          , 0.0350919329, 0
-0.07151804 , 0.09136406  , -9.779749   , -0.0008800672, -0.0008976195, 0.000811439648, -0.228596464, -0.1342187  , 0.453283    , -0.009393529, -0.00917348452, 2.63098168  , 0.59        , 3           , 50          , 0           , 0
-0.106365494, 0.08955543  , -9.791322   , 0.00225144345, 0.00215409743, -0.000440596225, -0.228596464, -0.1342187  , 0.453283    , -0.009250968, -0.008930206, 2.630976    , 0.6         , 3           , 11          , 0.0113491   , 0.0113491025
-0.08788293 , 0.08480781  , -9.785777   , -8.397319E-06, 0.0020684225, -0.00179329317, -0.228596464, -0.13462317 , 0.4532156   , -0.009250889, -0.00890969 , 2.63095784  , 0.61        , 3           , 12          , 0.03534261  , 0
-0.117253155, 0.08163181  , -9.812229   , -0.000205480188, -0.0008190498, -0.00102175062, -0.228596464, -0.134488344, 0.453350425 , -0.009252854, -0.008917973, 2.63094783  , 0.62        , 3           , 50          , 0           , 0
-0.117071815, 0.100079119 , -9.797237   , -0.00331203779, -0.000628879934, 0.00101248524, -0.228326812, -0.134488344, 0.453283    , -0.009286065, -0.008924169, 2.63095784  , 0.63        , 3           , 11          , 0.0113491   , 0.0113491025
-0.09369057 , 0.0902967751, -9.787606   , -0.00276034581, 0.00204980862, 0.00116051012, -0.228326812, -0.134488344, 0.453283    , -0.00931377 , -0.008903563, 2.63096929  , 0.64        , 3           , 12          , 0.03534261  , 0
-0.08770084 , 0.06405106  , -9.786314   , -0.00134831178, 0.001988965 , 0.000390008267, -0.228663877, -0.13462317 , 0.4531482   , -0.009327285, -0.008883637, 2.630973    , 0.65        , 3           , 50          , 0           , 0
-0.100184828, 0.07953299  , -9.784537   , 0.000217318491, -0.0006050102, -0.0006662779, -0.228663877, -0.1342861  , 0.453283    , -0.009325054, -0.00888975 , 2.63096642  , 0.66        , 3           , 11          , 0.0113491   , 0.0113491025
-0.08886164 , 0.109234318 , -9.800147   , -0.00105467 , -0.000332038268, -0.000106695348, -0.228461638, -0.13415128 , 0.453283    , -0.00933559053, -0.008893079, 2.63096547  , 0.67        , 3           , 12          , 0.03534261  , 0
-0.07578133 , 0.106361151 , -9.796442   , -0.00203588977, -0.001676154, 0.00101678411, -0.228461638, -0.13415128 , 0.453283    , -0.009356042, -0.008909746, 2.630976    , 0.68        , 3           , 50          , 0           , 0
-0.07796598 , 0.08019146  , -9.789336   , -0.00154557638, -0.0009689011, 0.000243195638, -0.228529051, -0.134488344, 0.4531482   , -0.009371519, -0.008919413, 2.63097787  , 0.69        , 3           , 11          , 0.0113491   , 0.0113491025
-0.07643538 , 0.09638369  , -9.779314   , -0.00195007725, 0.000491968356, 0.0007375672, -0.228529051, -0.1342861  , 0.453283    , -0.009335732, -0.008945059, 2.6309855   , 0.7         , 3           , 12          , 0.0356456749, 0
-0.08273113 , 0.0969395041, -9.788399   , -4.56426278E-05, 0.00085681607, 0.000393827038, -0.228461638, -0.1342187  , 0.453350425 , -0.009336224, -0.008936455, 2.63098931  , 0.71        , 3           , 50          , 0           , 0
-0.0902869  , 0.0993763357, -9.815566   , -0.000185198747, 0.0006446902, 0.00145235879, -0.228461638, -0.1342187  , 0.453350425 , -0.009338205, -0.008929872, 2.63100362  , 0.72        , 3           , 11          , 0.0101306858, 0.0101306858
-0.0669717044, 0.07838173  , -9.82587    , -0.001105318, 0.0009904368, 0.0006010086, -0.228529051, -0.134353518, 0.4532156   , -0.00934931 , -0.008919912, 2.63100934  , 0.73        , 3           , 12          , 0.0356456749, 0
-0.0559558533, 0.07086109  , -9.775194   , 0.000593161734, 8.68071147E-05, -0.000452015462, -0.228596464, -0.134083867, 0.453350425 , -0.009343339, -0.008919086, 2.63100457  , 0.74        , 3           , 50          , 0           , 0
-0.08495975 , 0.066717    , -9.78357    , -0.000876769656, -0.00238691177, 0.0005967892, -0.228394225, -0.1342187  , 0.453283    , -0.009352161, -0.008942897, 2.63101125  , 0.75        , 3           , 11          , 0.0101306858, 0.0101306858
-0.09498617 , 0.09705883  , -9.78126049 , 0.000958986348, -0.00244488986, -3.0468449E-05, -0.228394225, -0.1342187  , 0.453283    , -0.009342572, -0.008967348, 2.63101125  , 0.76        , 3           , 12          , 0.0356456749, 0
-0.0838361159, 0.111890294 , -9.802358   , 0.000320797117, -0.001815664, 0.000673888368, -0.228461638, -0.134420931, 0.4531482   , -0.009339426, -0.008985441, 2.631018    , 0.77        , 3           , 50          , 0           , 0
-0.0955545  , 0.08447274  , -9.793521   , 2.810056E-05, 0.000223772062, 0.000393179944, -0.228529051, -0.1342861  , 0.4532156   , -0.00933918 , -0.008983169, 2.63102174  , 0.78        , 3           , 11          , 0.0101306858, 0.0101306858
-0.09690724 , 0.08449322  , -9.794888   , 0.00157007016, 0.00255718944, 0.0006159062, -0.228663877, -0.134083867, 0.453417838 , -0.009323534, -0.00895754 , 2.631028    , 0.79        , 3           , 12          , 0.0356456749, 0
-0.0808658  , 0.10722819  , -9.768455   , 0.00146023394, 0.00270930072, -0.000514850952, -0.228529051, -0.1342861  , 0.453283    , -0.009254707, -0.008910163, 2.63102174  , 0.8         , 3           , 50          , 0           , 0
-0.0838252157, 0.08653132  , -9.775795   , 0.00167379656, 0.00235877675, -0.0005144056, -0.228529051, -0.1342861  , 0.453283    , -0.009237922, -0.008886624, 2.631017    , 0.81        , 3           , 11          , 0.009377295 , 0.009377295
-0.126700878, 0.09339778  , -9.789654   , -0.00239771651, -0.002385131, 2.43052964E-05, -0.2287987  , -0.133949041, 0.453350425 , -0.009261902, -0.0089104725, 2.631017    , 0.82        , 3           , 12          , 0.0359993875, 0
-0.0838681  , 0.07890862  , -9.789839   , -0.0019088788, -0.00139631354, -0.000890118, -0.228596464, -0.134016454, 0.4532156   , -0.00928091351, -0.008924517, 2.63100839  , 0.83        , 3           , 50          , 0           , 0
-0.0945699  , 0.08541883  , -9.809781   , -0.001910006, -0.00118514034, -0.00103106129, -0.228394225, -0.13462317 , 0.453013361 , -0.009299923, -0.008936464, 2.630998    , 0.84        , 3           , 11          , 0.009377295 , 0.009377295
-0.102193631, 0.09181776  , -9.807552   , 0.00232704845, -0.00115648762, 0.000118842494, -0.228394225, -0.13462317 , 0.453013361 , -0.009276663, -0.008948018, 2.63099933  , 0.85        , 3           , 12          , 0.0359993875, 0
-0.0574315861, 0.101059608 , -9.760166   , -0.00063052465, -0.002584363, 0.00172743539, -0.228529051, -0.134353518, 0.45348525  , -0.009283126, -0.0089737  , 2.631017    , 0.86        , 3           , 50          , 0           , 0
-0.0678567141, 0.0962630361, -9.773373   , -0.00233475841, -0.000765652745, 0.000662838866, -0.228529051, -0.134016454, 0.453350425 , -0.009306533, -0.008981295, 2.63102365  , 0.87        , 3           , 11          , 0.009377295 , 0.009377295
-0.100173637, 0.07954206  , -9.787249   , 0.000353153358, -0.0016625931, 0.00123901456, -0.228461638, -0.134420931, 0.453013361 , -0.009303115, -0.00899780449, 2.631036    , 0.88        , 3           , 12          , 0.0359993875, 0
-0.08632706 , 0.09477162  , -9.801995   , 0.001052747 , -0.0005315622, -0.000309913477, -0.228461638, -0.134420931, 0.453013361 , -0.009292561, -0.009003148, 2.63103318  , 0.89        , 3           , 50          , 0           , 0
-0.09816158 , 0.08905696  , -9.805725   , -0.00133926049, -0.00165587536, -0.002017933, -0.228461638, -0.1342861  , 0.4532156   , -0.009300143, -0.008994448, 2.63101315  , 0.9         , 3           , 11          , 0.008912933 , 0.008912929
-0.0884930342, 0.0686170459, -9.799409   , 0.000429158827, -0.00199588714, 0.000603226945, -0.228326812, -0.134420931, 0.453417838 , -0.009295908, -0.009014352, 2.63101935  , 0.91        , 3           , 12          , 0.03640186  , 0
-0.0841591656, 0.0960062742, -9.774402   , -0.000634513155, -0.00108796323, 0.000529064331, -0.228529051, -0.1342861  , 0.45348525  , -0.0093023  , -0.009025181, 2.6310246   , 0.92        , 3           , 50          , 0           , 0
-0.05945684 , 0.113777377 , -9.777757   , 0.0004033139, 0.00300188782, -0.00129619858, -0.228529051, -0.1342861  , 0.45348525  , -0.009298149, -0.008995283, 2.63101172  , 0.93        , 3           , 11          , 0.008912933 , 0.008912929
-0.07190523 , 0.09945684  , -9.769774   , -0.0009258973, 0.0006699072, 0.00010665333, -0.228529051, -0.1342187  , 0.4532156   , -0.009307416, -0.008988575, 2.63101268  , 0.94        , 3           , 12          , 0.03640186  , 0
-0.07474525 , 0.08644466  , -9.781602   , -0.000700589444, -0.00200352725, 0.0005273248, -0.228326812, -0.134353518, 0.453417838 , -0.009314472, -0.00900856 , 2.631018    , 0.95        , 3           , 50          , 0           , 0
-0.06709809 , 0.10900335  , -9.807214   , -2.33387141E-06, -0.000379752251, 0.000886284048, -0.228461638, -0.1342187  , 0.4532156   , -0.009314575, -0.009012275, 2.631027    , 0.96        , 3           , 11          , 0.008912933 , 0.008912929
-0.0741796643, 0.09277965  , -9.788803   , 0.00055794837, 0.000539154047, 0.00081969396, -0.228461638, -0.1342187  , 0.4532156   , -0.009309067, -0.009006807, 2.631035    , 0.97        , 3           , 12          , 0.03640186  , 0
-0.10133931 , 0.09310463  , -9.790817   , 0.001984019 , -0.002126161, 0.00202294067, -0.228663877, -0.1342861  , 0.453283    , -0.009289413, -0.00902788 , 2.63105559  , 0.98        , 3           , 50          , 0           , 0
-0.1043656  , 0.0977214   , -9.811161   , 0.00219655479, -0.002195118, 0.00265952921, -0.228663877, -0.13462317 , 0.453350425 , -0.00926769 , -0.009049583, 2.6310823   , 0.99        , 3           , 11          , 0.008912933 , 0.008912929
-0.0791461244, 0.08927881  , -9.803771   , 0.0001545464, -0.00103237608, 0.00124035089, -0.228461638, -0.134353518, 0.453350425 , -0.00933979452, -0.008997244, 2.63109565  , 1           , 3           , 12          , 0.0368510932, 0
-0.0954550952, 0.09794376  , -9.774481   , -0.00068814063, -0.002023585, 0.000740440737, -0.228461638, -0.134353518, 0.453350425 , -0.009346746, -0.00901741 , 2.63110328  , 1.01        , 3           , 50          , 0           , 0
-0.120355085, 0.09243618  , -9.794129   , 8.373928E-05, -0.00117364048, -0.0003141513, -0.228663877, -0.134420931, 0.453080773 , -0.00934588 , -0.009029175, 2.6311      , 1.02        , 3           , 11          , 0.008635712 , 0.00863570347
-0.08909304 , 0.0911928   , -9.801579   , 0.00163029879, 0.000315083569, 0.0006136167, -0.228461638, -0.1342861  , 0.453350425 , -0.009329631, -0.009025967, 2.63110662  , 1.03        , 3           , 12          , 0.0368510932, 0
-0.0881552547, 0.0618232936, -9.793106   , 0.0037461454, 0.0006813618, -0.000435479364, -0.228394225, -0.134353518, 0.4532156   , -0.00929213 , -0.009019194, 2.63110185  , 1.04        , 3           , 50          , 0           , 0
-0.08131169 , 0.06624903  , -9.791227   , 0.002202467 , -0.00101852731, 0.00181497342, -0.228394225, -0.134353518, 0.4532156   , -0.00927027 , -0.009029211, 2.63112     , 1.05        , 3           , 11          , 0.008635712 , 0.00863570347
-0.0581469126, 0.07362482  , -9.784241   , -0.0008262433, -0.00244688266, 0.00250499067, -0.228394225, -0.134488344, 0.4531482   , -0.009278762, -0.009053446, 2.63114572  , 1.06        , 3           , 12          , 0.0368510932, 0
-0.07363523 , 0.09061685  , -9.818187   , -0.000128166, -0.00103428739, 0.0007445934, -0.228529051, -0.1342187  , 0.453350425 , -0.009280113, -0.009063719, 2.63115287  , 1.07        , 3           , 50          , 0           , 0
-0.07798697 , 0.101971477 , -9.824954   , -0.000467652368, -0.00364114856, 0.00186908327, -0.228394225, -0.134420931, 0.453350425 , -0.009284961, -0.00909995753, 2.631172    , 1.08        , 3           , 11          , 0.008635712 , 0.00863570347
-0.103175476, 0.089534834 , -9.79627    , 0.00157043617, -0.00193791639, -9.6527634E-05, -0.228394225, -0.134420931, 0.453350425 , -0.009269251, -0.009119343, 2.63117146  , 1.09        , 3           , 12          , 0.0368510932, 0
-0.09683074 , 0.0845551938, -9.813417   , 0.000479296956, -0.000124329687, 0.0003248687, -0.228394225, -0.1342861  , 0.452945948 , -0.009209192, -0.009048353, 2.63117385  , 1.1         , 3           , 50          , 0           , 0
-0.08866018 , 0.0644644648, -9.771856   , -0.00207298086, 0.00204061181, 0.000952088449, -0.228596464, -0.1342187  , 0.453283    , -0.009230006, -0.009027859, 2.63118339  , 1.11        , 3           , 11          , 0.008482873 , 0.008482861
-0.08757817 , 0.0762019   , -9.777223   , -0.000168027473, 0.00205349713, -0.001511225, -0.228663877, -0.1342187  , 0.4531482   , -0.009231549, -0.009007464, 2.63116765  , 1.12        , 3           , 12          , 0.0373450033, 0
-0.103210367, 0.08772116  , -9.793567   , 0.000247615884, 0.00374575448, -0.0008709365, -0.228663877, -0.1342187  , 0.4531482   , -0.009228991, -0.008970089, 2.631159    , 1.13        , 3           , 50          , 0           , 0
-0.09908986 , 0.08860283  , -9.801666   , -0.000730504456, 0.001627331 , -0.00102006912, -0.228394225, -0.134488344, 0.453080773 , -0.009236203, -0.00895391 , 2.63114858  , 1.14        , 3           , 11          , 0.008482873 , 0.008482861
-0.07503387 , 0.09417095  , -9.79694    , -0.00439119432, -0.000368448818, 0.0008669011, -0.228394225, -0.1342187  , 0.453417838 , -0.00928019453, -0.00895751547, 2.63115716  , 1.15        , 3           , 12          , 0.0373450033, 0
-0.103792809, 0.113881931 , -9.78849    , -0.0012956846, 0.00162350968, -0.00158777821, -0.228394225, -0.134420931, 0.4532156   , -0.009293007, -0.008941429, 2.631141    , 1.16        , 3           , 50          , 0           , 0
-0.122596748, 0.09739065  , -9.783731   , 0.00139596069, -0.000118128082, -0.00178988231, -0.228394225, -0.134420931, 0.4532156   , -0.009278887, -0.008942777, 2.6311233   , 1.17        , 3           , 11          , 0.008482873 , 0.008482861
-0.07338946 , 0.0931219   , -9.759417   , 0.003299424 , 0.000739465468, 0.0004099741, -0.228461638, -0.1342861  , 0.453013361 , -0.009245927, -0.008935344, 2.6311276   , 1.18        , 3           , 12          , 0.0373450033, 0
-0.08489239 , 0.07212779  , -9.782642   , 0.000187972182, 0.001703934 , 0.000608909759, -0.228596464, -0.13415128 , 0.4531482   , -0.009244101, -0.008918252, 2.63113332  , 1.19        , 3           , 50          , 0           , 0
-0.0897838  , 0.07181222  , -9.805732   , -0.000347836845, 0.00156937516, -0.00101923768, -0.228596464, -0.134488344, 0.4531482   , -0.009213778, -0.008971303, 2.63112283  , 1.2         , 3           , 11          , 0.008403656 , 0.008403633
-0.07452479 , 0.0946576148, -9.809137   , 0.000711326837, 0.001506145 , -0.00150884816, -0.228394225, -0.134420931, 0.453080773 , -0.00920653 , -0.008956381, 2.63110757  , 1.21        , 3           , 12          , 0.03788145  , 0
-0.08501753 , 0.09426976  , -9.791592   , -0.000266656338, -0.0004010991, 0.0003907414, -0.228394225, -0.134420931, 0.453080773 , -0.00920923 , -0.008960356, 2.63111138  , 1.22        , 3           , 50          , 0           , 0
-0.100606576, 0.08625871  , -9.770501   , 0.0009940541, 0.00171923533, 0.0008237284, -0.228663877, -0.1342861  , 0.453283    , -0.009199363, -0.008943088, 2.63111949  , 1.23        , 3           , 11          , 0.008403656 , 0.008403633
-0.114054814, 0.08786688  , -9.799072   , 0.003463731 , 0.00201751175, 0.0005531479, -0.228461638, -0.13415128 , 0.4531482   , -0.009164772, -0.008922863, 2.63112473  , 1.24        , 3           , 12          , 0.03788145  , 0
-0.09948009 , 0.0899978951, -9.812511   , -0.00118140341, -0.00118161365, -0.000815516163, -0.228461638, -0.1342187  , 0.453080773 , -0.009176515, -0.008934753, 2.631117    , 1.25        , 3           , 50          , 0           , 0
-0.100980669, 0.08677414  , -9.788129   , -0.00252899621, -6.442792E-05, -0.0016676482, -0.228461638, -0.1342187  , 0.453080773 , -0.009201656, -0.00893555 , 2.6311      , 1.26        , 3           , 11          , 0.008403656 , 0.008403633
-0.08512056 , 0.0834738761, -9.801129   , -0.00196138048, -0.0004125595, 0.000100302372, -0.228529051, -0.1342861  , 0.4532156   , -0.009221278, -0.008939667, 2.631101    , 1.27        , 3           , 12          , 0.03788145  , 0
-0.09025871 , 0.104755387 , -9.805147   , 0.000283359928, 0.00241836766, -0.00115624152, -0.228529051, -0.134555757, 0.45348525  , -0.009218339, -0.008915591, 2.63108945  , 1.28        , 3           , 50          , 0           , 0
-0.07861325 , 0.09424824  , -9.807362   , -0.00154073571, 0.000294220576, 0.000950975053, -0.228461638, -0.134420931, 0.4531482   , -0.009233831, -0.008912562, 2.631099    , 1.29        , 3           , 11          , 0.008403656 , 0.008403633
-0.09320751 , 0.09344044  , -9.784878   , -0.00259589776, -0.00145861239, 0.000589775969, -0.228461638, -0.134420931, 0.4531482   , -0.009264604, -0.008990524, 2.63110471  , 1.3         , 3           , 12          , 0.0384582728, 0
-0.09802449 , 0.0704954863, -9.788174   , -0.00182980136, 0.000658377656, 0.000384748768, -0.228461638, -0.1342861  , 0.453283    , -0.009282935, -0.008983906, 2.63110852  , 1.31        , 3           , 50          , 0           , 0
-0.08286387 , 0.08120968  , -9.806544   , -0.003245172, 0.00121195579, -0.000397945958, -0.228596464, -0.13415128 , 0.4532156   , -0.009315352, -0.008971823, 2.63110471  , 1.32        , 3           , 11          , 0.008366073 , 0.00836606
-0.0644549951, 0.102662906 , -9.809478   , -0.002322673, 0.000303077075, -0.000253807317, -0.228663877, -0.134488344, 0.4532156   , -0.009338557, -0.008968816, 2.63110185  , 1.33        , 3           , 12          , 0.0384582728, 0
-0.08875492 , 0.08484566  , -9.79392    , -0.00331202662, 0.000437173963, -0.0005407371, -0.228663877, -0.134488344, 0.4532156   , -0.009371627, -0.008964496, 2.6310966   , 1.34        , 3           , 50          , 0           , 0
-0.09977618 , 0.08038463  , -9.77097    , 0.00106887007, -0.000237135144, -0.000874581339, -0.228529051, -0.13415128 , 0.4531482   , -0.009360859, -0.008966948, 2.63108754  , 1.35        , 3           , 11          , 0.008366073 , 0.00836606
-0.09955923 , 0.0939509   , -9.780405   , -0.000899879844, -0.00179911009, 0.0001026945, -0.22873129 , -0.1342187  , 0.4532156   , -0.00936987 , -0.008984929, 2.631089    , 1.36        , 3           , 12          , 0.0384582728, 0
-0.0868629143, 0.0933705643, -9.786186   , -0.0006194624, -0.00137485226, 0.000245931034, -0.228529051, -0.134353518, 0.453013361 , -0.009376088, -0.008998653, 2.63109136  , 1.37        , 3           , 50          , 0           , 0
-0.07511103 , 0.0932157338, -9.781125   , 0.00303754932, 0.00167680415, 0.0010446941, -0.228529051, -0.134353518, 0.453013361 , -0.009345804, -0.008981789, 2.63110185  , 1.38        , 3           , 11          , 0.008366073 , 0.00836606
-0.08329023 , 0.08927071  , -9.78708    , 0.00155622477, 0.001314819 , 0.000472162763, -0.228394225, -0.134488344, 0.4531482   , -0.009330283, -0.008968596, 2.63110662  , 1.39        , 3           , 12          , 0.0384582728, 0
-0.09142883 , 0.08982208  , -9.788496   , 0.000533475 , -0.00121514208, -3.1236792E-05, -0.2287987  , -0.134353518, 0.453417838 , -0.009297594, -0.008967939, 2.63110614  , 1.4         , 3           , 50          , 0           , 0
-0.07714005 , 0.113518432 , -9.773373   , 0.00109734619, -0.0010705411, -0.000522826565, -0.228596464, -0.13415128 , 0.453350425 , -0.009286576, -0.008978692, 2.631101    , 1.41        , 3           , 11          , 0.008346598 , 0.00834659
-0.07970798 , 0.08294684  , -9.797474   , 0.000879746047, 5.42856578E-05, -0.000875250436, -0.228596464, -0.13415128 , 0.453350425 , -0.009277699, -0.008978231, 2.63109231  , 1.42        , 3           , 12          , 0.0390733033, 0
-0.08291916 , 0.07446963  , -9.81471    , 0.000317940168, -0.00030148428, 0.001381873 , -0.228394225, -0.134353518, 0.4531482   , -0.009274643, -0.008981117, 2.63110566  , 1.43        , 3           , 50          , 0           , 0
-0.0906039  , 0.0790337   , -9.80345    , 0.0010114871, 0.00202619773, -0.000377113785, -0.228461638, -0.13415128 , 0.4531482   , -0.009264493, -0.008960891, 2.63110185  , 1.44        , 3           , 11          , 0.008346598 , 0.00834659
-0.0870544761, 0.07625404  , -9.794394   , 0.000864678936, 0.00308111  , -0.00101185439, -0.2282594  , -0.134488344, 0.4531482   , -0.009255753, -0.008930175, 2.63109136  , 1.45        , 3           , 12          , 0.0390733033, 0
-0.09924213 , 0.0741962343, -9.810767   , -0.000741564669, -0.000449434534, -0.0005304102, -0.2282594  , -0.134488344, 0.4531482   , -0.009263123, -0.008934719, 2.63108659  , 1.46        , 3           , 50          , 0           , 0
-0.102442041, 0.07599421  , -9.797677   , -0.00187153881, -0.000386682863, -0.000394300761, -0.2282594  , -0.134353518, 0.452945948 , -0.009281803, -0.008938622, 2.63108277  , 1.47        , 3           , 11          , 0.008346598 , 0.00834659
-0.08420523 , 0.0865956   , -9.793426   , -0.0020813907, -0.0008104635, -0.0006078424, -0.228529051, -0.134083867, 0.453080773 , -0.009302562, -0.008946782, 2.63107657  , 1.48        , 3           , 12          , 0.0390733033, 0
-0.0829043  , 0.08965759  , -9.769447   , -0.00207444257, -0.002147896, -4.48288374E-05, -0.228529051, -0.1342187  , 0.453013361 , -0.00932330452, -0.008968265, 2.631076    , 1.49        , 3           , 50          , 0           , 0
-0.08683863 , 0.06846878  , -9.76143    , -0.001563207, 0.0006637052, -0.0013109002, -0.228529051, -0.1342187  , 0.453013361 , -0.00922051 , -0.008969752, 2.63106179  , 1.5         , 3           , 11          , 0.00833072048, 0.008330718
-0.0926960856, 0.07213198  , -9.756939   , -0.00112688344, -0.001656336, 0.000735891866, -0.228326812, -0.134420931, 0.452878535 , -0.009231844, -0.008986246, 2.63106942  , 1.51        , 3           , 12          , 0.0397244059, 0
-0.0773868039, 0.09234002  , -9.781146   , -0.00423899153, -0.0005510846, 0.00100567867, -0.228461638, -0.134420931, 0.453080773 , -0.009274326, -0.008991663, 2.63108     , 1.52        , 3           , 50          , 0           , 0
-0.0595380962, 0.0945184752, -9.819871   , -0.0008423211, -0.00221755938, -0.000393808848, -0.228461638, -0.1342187  , 0.4531482   , -0.009282717, -0.009013874, 2.631076    , 1.53        , 3           , 11          , 0.00833072048, 0.008330718
-0.06758194 , 0.109876208 , -9.796818   , -0.00196784642, -0.00306989462, -0.000400378369, -0.228461638, -0.1342187  , 0.4531482   , -0.00930236 , -0.009044608, 2.63107228  , 1.54        , 3           , 12          , 0.0397244059, 0
-0.06358612 , 0.111103192 , -9.773279   , 0.0008564218, -0.00305079482, -0.000387209, -0.228529051, -0.1342861  , 0.452878535 , -0.009293764, -0.009075152, 2.63106847  , 1.55        , 3           , 50          , 0           , 0
-0.08122458 , 0.118468449 , -9.755304   , -0.00113557372, 3.30528856E-05, 0.000173420442, -0.228529051, -0.134420931, 0.453283    , -0.009305134, -0.009074805, 2.63107038  , 1.56        , 3           , 11          , 0.00833072048, 0.008330718
-0.07840266 , 0.08690508  , -9.771685   , -0.000581872067, 0.00228939368, 0.000179525756, -0.228461638, -0.134488344, 0.4531482   , -0.009310967, -0.009051896, 2.63107228  , 1.57        , 3           , 12          , 0.0397244059, 0
-0.08723001 , 0.0983551741, -9.79114    , -0.000855682942, 0.000316522463, -0.00180259091, -0.228461638, -0.134488344, 0.4531482   , -0.009319361, -0.009048901, 2.63105416  , 1.58        , 3           , 50          , 0           , 0
-0.089640066, 0.08219474  , -9.807496   , -0.0005670275, -0.0008078248, -0.0006728597, -0.2282594  , -0.1342187  , 0.452945948 , -0.009324972, -0.009057038, 2.63104749  , 1.59        , 3           , 11          , 0.00833072048, 0.008330718
-0.05219938 , 0.0834251046, -9.76743    , 0.0008195709, -0.0006938408, 0.000747628335, -0.228529051, -0.134353518, 0.453350425 , -0.009348152, -0.008939846, 2.631055    , 1.6         , 3           , 12          , 0.04040947  , 0
-0.07901041 , 0.101440236 , -9.797844   , 0.000235779589, 0.00296268146, -0.000662051665, -0.228394225, -0.134420931, 0.4532156   , -0.009345734, -0.00891028251, 2.63104844  , 1.61        , 3           , 50          , 0           , 0
-0.10961201 , 0.08372766  , -9.791371   , -0.00312423147, -0.00297310576, -0.000969505, -0.228394225, -0.134420931, 0.4532156   , -0.009376891, -0.008940103, 2.631039    , 1.62        , 3           , 11          , 0.008309544 , 0.008309538
-0.08597873 , 0.08709372  , -9.801121   , -0.00170612056, -0.0038082425, 0.00214369013, -0.228326812, -0.134488344, 0.4531482   , -0.009394147, -0.008977983, 2.63106084  , 1.63        , 3           , 12          , 0.04040947  , 0
-0.107675336, 0.08961067  , -9.803083   , 0.00110643182, -0.0018181965, -0.00123055268, -0.228596464, -0.1342187  , 0.4532156   , -0.009382973, -0.008996279, 2.63104844  , 1.64        , 3           , 50          , 0           , 0
-0.103134975, 0.0913530439, -9.80033    , 0.003923478 , -0.000109700959, 0.000762982469, -0.228461638, -0.134353518, 0.453417838 , -0.009343808, -0.008997303, 2.631056    , 1.65        , 3           , 11          , 0.008309544 , 0.008309538
-0.08157468 , 0.08604755  , -9.773972   , 0.00137097412, 0.00212563225, 0.00160221406, -0.228394225, -0.134488344, 0.453013361 , -0.00933024 , -0.008975899, 2.63107228  , 1.66        , 3           , 12          , 0.04040947  , 0
-0.09122036 , 0.102042459 , -9.800195   , 0.00165881356, 0.00100128108, 0.00131925766, -0.228394225, -0.134488344, 0.453013361 , -0.009313769, -0.008965764, 2.63108516  , 1.67        , 3           , 50          , 0           , 0
-0.07500226 , 0.09151847  , -9.813222   , 0.0025122487, -0.0004008182, -9.16483841E-05, -0.228529051, -0.13415128 , 0.4532156   , -0.00928864 , -0.008969781, 2.6310842   , 1.68        , 3           , 11          , 0.008309544 , 0.008309538
-0.0838367  , 0.07848771  , -9.798881   , -3.90246569E-05, 0.00155294919, 0.000464611454, -0.228461638, -0.1342187  , 0.453350425 , -0.009289069, -0.008954208, 2.6310885   , 1.69        , 3           , 12          , 0.04040947  , 0
-0.100190088, 0.07997506  , -9.781823   , 0.000267150026, 0.000169927313, 0.00102891156, -0.228461638, -0.1342187  , 0.4532156   , -0.009266312, -0.008924342, 2.631099    , 1.7         , 3           , 50          , 0           , 0
-0.08506504 , 0.08798237  , -9.800206   , -0.0005854546, 0.00100888708, -0.0009514996, -0.228461638, -0.1342187  , 0.4532156   , -0.009272083, -0.008914341, 2.63108945  , 1.71        , 3           , 11          , 0.008277235 , 0.008277231
-0.0991854742, 0.110322379 , -9.819204   , -0.00141609588, -0.002094052, 0.001300076 , -0.228461638, -0.1342187  , 0.4532156   , -0.00928636 , -0.00893516 , 2.6311028   , 1.72        , 3           , 12          , 0.0411264524, 0
-0.08356628 , 0.109058641 , -9.766661   , -0.00170663465, -0.0006881424, -0.0006768335, -0.228596464, -0.13415128 , 0.453350425 , -0.009303367, -0.008942104, 2.63109612  , 1.73        , 3           , 50          , 0           , 0
-0.08574608 , 0.07932207  , -9.772224   , -0.00171615509, 0.00156438607, 0.00215201266, -0.228596464, -0.1342187  , 0.453080773 , -0.00932072 , -0.00892626 , 2.631117    , 1.74        , 3           , 11          , 0.008277235 , 0.008277231
-0.0580278747, 0.08845083  , -9.765646   , -0.000583319168, 0.00044575386, -0.00208251737, -0.228596464, -0.1342187  , 0.453080773 , -0.009326366, -0.008921997, 2.63109612  , 1.75        , 3           , 12          , 0.0411264524, 0
-0.0894794762, 0.102856994 , -9.780291   , -0.0008649302, 0.00044384785, -0.000671146961, -0.22873129 , -0.1342187  , 0.453013361 , -0.009334955, -0.008917623, 2.63108945  , 1.76        , 3           , 50          , 0           , 0
-0.06494752 , 0.104421429 , -9.794108   , 0.0008329081, -0.000107820182, 0.000183499011, -0.228326812, -0.1342187  , 0.4531482   , -0.009326643, -0.008918682, 2.63109136  , 1.77        , 3           , 11          , 0.008277235 , 0.008277231
-0.08110421 , 0.0847175   , -9.782562   , 0.000275514 , -0.00151946326, 0.00102630793, -0.228461638, -0.1342861  , 0.4531482   , -0.009323981, -0.008933781, 2.63110185  , 1.78        , 3           , 12          , 0.0411264524, 0
-0.110348314, 0.10351485  , -9.769147   , -1.33934082E-05, -0.000113545393, 0.0018747733, -0.228461638, -0.1342861  , 0.4531482   , -0.009324282, -0.008934741, 2.631121    , 1.79        , 3           , 50          , 0           , 0
-0.09270625 , 0.10106238  , -9.772187   , -0.001479527, 0.0004600717, -0.00265091215, -0.228326812, -0.1342861  , 0.4531482   , -0.009400584, -0.008904913, 2.63109469  , 1.8         , 3           , 11          , 0.008232875 , 0.008232863
-0.0725342259, 0.08548252  , -9.771646   , 0.0007825868, 0.000193792584, -0.000380510523, -0.228529051, -0.134083867, 0.453283    , -0.009392724, -0.00890301 , 2.63109088  , 1.81        , 3           , 12          , 0.0418733545, 0
-0.08311401 , 0.103250355 , -9.785213   , 0.0013555527, -0.00121020747, 0.00159771589, -0.2282594  , -0.134353518, 0.453283    , -0.009379313, -0.008914962, 2.631107    , 1.82        , 3           , 50          , 0           , 0
-0.09901747 , 0.103391036 , -9.771773   , 0.00190490927, 0.00189082755, 0.00132258551, -0.2282594  , -0.134353518, 0.453283    , -0.009360379, -0.00889593 , 2.63112     , 1.83        , 3           , 11          , 0.008232875 , 0.008232863
-0.0755665749, 0.09455787  , -9.77615    , 0.00163126132, -8.204259E-05, -0.000376993616, -0.228326812, -0.1342187  , 0.453080773 , -0.009344033, -0.008896786, 2.63111615  , 1.84        , 3           , 12          , 0.0418733545, 0
-0.0792772546, 0.08336999  , -9.79068851 , -0.002045374, 0.00101939042, 0.0004552342, -0.228529051, -0.1342861  , 0.453350425 , -0.009364527, -0.008886551, 2.631121    , 1.85        , 3           , 50          , 0           , 0
-0.0967412144, 0.0922157   , -9.810674   , -0.00260792882, 0.00045243802, -0.000395879761, -0.228326812, -0.134420931, 0.453080773 , -0.00939057 , -0.008882064, 2.631117    , 1.86        , 3           , 11          , 0.008232875 , 0.008232863
-0.07912659 , 0.08795559  , -9.812817   , -0.00204446935, 0.0007378231, -0.000392811955, -0.228326812, -0.134420931, 0.453080773 , -0.009410981, -0.008874723, 2.63111281  , 1.87        , 3           , 12          , 0.0418733545, 0
-0.09864584 , 0.0868050158, -9.805286   , -0.0006210201, -0.001505147, -0.000107161286, -0.228596464, -0.13462317 , 0.453013361 , -0.009417183, -0.008889784, 2.63111186  , 1.88        , 3           , 50          , 0           , 0
-0.07909794 , 0.0715379938, -9.761809   , -0.00428748224, -0.002656239, -0.000973629649, -0.228663877, -0.134420931, 0.4532156   , -0.009459974, -0.008916437, 2.6311028   , 1.89        , 3           , 11          , 0.008232875 , 0.008232863
-0.06791331 , 0.08773652  , -9.786968   , 0.000268842821, -0.000919108745, 0.0004625022, -0.228461638, -0.1342187  , 0.453080773 , -0.009397924, -0.008902939, 2.63110662  , 1.9         , 3           , 12          , 0.04264828  , 0
-0.08714121 , 0.09485634  , -9.824149   , -0.0005917995, 0.001609243 , -0.00095023046, -0.228461638, -0.1342187  , 0.453080773 , -0.009403755, -0.008886937, 2.631097    , 1.91        , 3           , 50          , 0           , 0
-0.0789318457, 0.106860094 , -9.799628   , -0.0011752646, 0.00526576769, -0.00179483567, -0.228663877, -0.134420931, 0.452878535 , -0.009415344, -0.00883445 , 2.63107848  , 1.92        , 3           , 11          , 0.00817734  , 0.008177333
-0.07136705 , 0.0963962749, -9.800518   , 0.000830418954, -0.0003521609, -0.000381608261, -0.228529051, -0.134488344, 0.453350425 , -0.009407007, -0.008838007, 2.63107467  , 1.93        , 3           , 12          , 0.04264828  , 0
-0.07642153 , 0.09237775  , -9.795602   , -0.00368192978, -0.00179054809, -0.00125246134, -0.228326812, -0.1342861  , 0.4531482   , -0.009443717, -0.008856029, 2.63106275  , 1.94        , 3           , 50          , 0           , 0
-0.0919380262, 0.08665724  , -9.784896   , 0.00110833754, 0.0004944427, -0.0009440645, -0.228326812, -0.1342861  , 0.4531482   , -0.009432549, -0.008851173, 2.63105321  , 1.95        , 3           , 11          , 0.00817734  , 0.008177333
-0.106652267, 0.104871154 , -9.782674   , -0.0008739  , 0.00160733471, -0.000386472326, -0.228326812, -0.1342187  , 0.452878535 , -0.009441253, -0.008835137, 2.631049    , 1.96        , 3           , 12          , 0.04264828  , 0
-0.07783524 , 0.118163019 , -9.809969   , -0.00313166855, 0.00102891936, -0.002375638, -0.228529051, -0.13415128 , 0.453013361 , -0.00947236 , -0.008825074, 2.631025    , 1.97        , 3           , 50          , 0           , 0
-0.07585978 , 0.09603155  , -9.810497   , 0.00111054734, 0.000212881525, 0.000468188751, -0.228394225, -0.134420931, 0.452945948 , -0.009461295, -0.008822901, 2.63102984  , 1.98        , 3           , 11          , 0.00817734  , 0.008177333
-0.101809517, 0.08461519  , -9.813908   , 0.00139076437, 0.0004963527, -0.0009427476, -0.228394225, -0.134420931, 0.452945948 , -0.009447304, -0.008818027, 2.63102031  , 1.99        , 3           , 12          , 0.04264828  , 0
-0.08962933 , 0.08666694  , -9.795726   , -0.00316111487, 0.000467575737, -0.000398428529, -0.228326812, -0.13462317 , 0.453013361 , -0.00952462 , -0.008810947, 2.631017    , 2           , 3           , 50          , 0           , 0
-0.075590454, 0.0873969048, -9.793356   , -0.00286827725, -0.00150146673, 0.0007300006, -0.228529051, -0.13415128 , 0.4532156   , -0.009553369, -0.008825892, 2.63102412  , 2.01        , 3           , 11          , 0.008113625 , 0.008113619
-0.08357555 , 0.09387523  , -9.813277   , -0.00145925756, -0.0009287883, 0.000172378146, -0.228394225, -0.134353518, 0.453283    , -0.009567977, -0.008835162, 2.631026    , 2.02        , 3           , 12          , 0.0434493758, 0
-0.08644648 , 0.09467486  , -9.77307    , 0.00192010636, 0.00106508681, 0.000191218875, -0.228394225, -0.134353518, 0.453283    , -0.009548792, -0.008824494, 2.631028    , 2.03        , 3           , 50          , 0           , 0
-0.07783717 , 0.09056188  , -9.787484   , -0.000333732227, -7.645317E-05, 0.000178947666, -0.228461638, -0.1342861  , 0.452945948 , -0.009552146, -0.008825242, 2.63102937  , 2.04        , 3           , 11          , 0.008113625 , 0.008113619
-0.06926901 , 0.08373748  , -9.800554   , -0.00145974709, -0.000928790658, -0.000675234071, -0.228529051, -0.1342861  , 0.453080773 , -0.009566683, -0.008834594, 2.63102269  , 2.05        , 3           , 12          , 0.0434493758, 0
-0.1067454  , 0.0922978744, -9.800354   , 0.001074383 , 0.0007777927, 0.000469371618, -0.228529051, -0.1342861  , 0.4527437   , -0.00955598 , -0.00882677 , 2.63102746  , 2.06        , 3           , 50          , 0           , 0
-0.117709249, 0.08475891  , -9.80137348 , -0.00230407622, -0.00149764994, -0.000397515279, -0.228326812, -0.134420931, 0.452945948 , -0.009578985, -0.008841785, 2.63102365  , 2.07        , 3           , 11          , 0.008113625 , 0.008113619
-0.102786183, 0.079212    , -9.813936   , -0.00146016211, -0.0006472209, 0.00102042442, -0.228326812, -0.134420931, 0.452945948 , -0.009593678, -0.008848159, 2.63103414  , 2.08        , 3           , 12          , 0.0434493758, 0
-0.09115463 , 0.105220176 , -9.806057   , 0.00192437717, -6.11796859E-05, -0.00207081647, -0.228461638, -0.1342861  , 0.453080773 , -0.009574252, -0.008848969, 2.63101315  , 2.09        , 3           , 50          , 0           , 0
-0.115864553, 0.0923527852, -9.785057   , -0.0008866829, 0.00267446879, -0.00179790577, -0.228529051, -0.1342187  , 0.4531482   , -0.009544498, -0.008909184, 2.630995    , 2.1         , 3           , 11          , 0.0080376   , 0.008037599
-0.06844937 , 0.08097911  , -9.788357   , -3.39895778E-05, 0.00155393744, -0.00207822816, -0.228394225, -0.134555757, 0.452878535 , -0.009544652, -0.008893845, 2.630974    , 2.11        , 3           , 12          , 0.0442749076, 0
-0.07912201 , 0.09420821  , -9.793806   , -0.000310024625, 0.000425771 , -0.000668593333, -0.228394225, -0.134555757, 0.452878535 , -0.009547692, -0.008889649, 2.63096738  , 2.12        , 3           , 50          , 0           , 0
-0.09167192 , 0.101156071 , -9.803366   , 0.002792815 , 0.00129147759, -8.773025E-05, -0.228461638, -0.134016454, 0.453013361 , -0.009519755, -0.008876744, 2.63096642  , 2.13        , 3           , 11          , 0.0080376   , 0.008037599
-0.1094835  , 0.086063534 , -9.815316   , 0.000821076566, 0.0001518458, -0.0006637595, -0.228394225, -0.13415128 , 0.4532156   , -0.009511485, -0.008875288, 2.63095975  , 2.14        , 3           , 12          , 0.0442749076, 0
-0.101929359, 0.08139363  , -9.794938   , 0.001673355 , -0.000687115651, 0.000751576736, -0.228394225, -0.1342861  , 0.453013361 , -0.009494818, -0.008882088, 2.63096738  , 2.15        , 3           , 50          , 0           , 0
-0.09015288 , 0.0817050561, -9.794395   , -0.000869717333, -0.000422739424, 0.0010226958, -0.228394225, -0.1342861  , 0.453013361 , -0.009503607, -0.008886218, 2.63097787  , 2.16        , 3           , 11          , 0.0080376   , 0.008037599
-0.09379163 , 0.0821806043, -9.788997   , -0.00170666142, -0.00268099387, -0.000397413765, -0.228461638, -0.134488344, 0.453080773 , -0.00952064 , -0.008913065, 2.630974    , 2.17        , 3           , 12          , 0.0442749076, 0
-0.0882909745, 0.09243736  , -9.772188   , -0.00144997938, 0.00238908455, -0.001518436, -0.228529051, -0.13415128 , 0.4531482   , -0.009535003, -0.008889319, 2.63095832  , 2.18        , 3           , 50          , 0           , 0
-0.07578032 , 0.082779564 , -9.761738   , 0.0002539245, 0.0007111584, 0.000182086718, -0.228461638, -0.134016454, 0.453080773 , -0.009532479, -0.00888219 , 2.63096023  , 2.19        , 3           , 11          , 0.0080376   , 0.008037599
-0.0950443149, 0.08897743  , -9.793046   , -0.00279239216, 0.0006566667, -0.0003982882, -0.228461638, -0.134016454, 0.453080773 , -0.009470409, -0.00892527 , 2.63095546  , 2.2         , 3           , 12          , 0.0451232046, 0
-0.09460482 , 0.09119309  , -9.782639   , -0.0002423501, -0.00101553486, -0.0006715768, -0.228326812, -0.13415128 , 0.452945948 , -0.00947277248, -0.00893549 , 2.63094878  , 2.21        , 3           , 50          , 0           , 0
-0.112095222, 0.09957102  , -9.797653   , -0.000808434561, -0.000737788854, -0.000391239359, -0.228529051, -0.134420931, 0.453080773 , -0.009480824, -0.008942904, 2.630945    , 2.22        , 3           , 11          , 0.007955074 , 0.007955072
-0.109612115, 0.08104948  , -9.799971   , -0.000526660355, -0.000735882029, -0.00152007246, -0.228394225, -0.134420931, 0.4532156   , -0.00948595349, -0.008950408, 2.63093019  , 2.23        , 3           , 12          , 0.0451232046, 0
-0.0906862  , 0.07361082  , -9.80076    , 0.0005984498, 0.00039802285, 0.000182155811, -0.228394225, -0.134420931, 0.4532156   , -0.0094799865, -0.008946409, 2.63093162  , 2.24        , 3           , 50          , 0           , 0
-0.08132327 , 0.09830271  , -9.796066   , -0.00193748937, -0.000745425641, 0.0007336427, -0.228529051, -0.134488344, 0.452945948 , -0.009499428, -0.008953793, 2.63093925  , 2.25        , 3           , 11          , 0.007955074 , 0.007955072
-0.07419944 , 0.09633443  , -9.772517   , -0.00250873459, 0.000377010845, -0.000679942663, -0.228394225, -0.1342187  , 0.453283    , -0.009524454, -0.00895009 , 2.630932    , 2.26        , 3           , 12          , 0.0451232046, 0
-0.06711364 , 0.08317658  , -9.7756815  , -0.000523798051, -0.00101744023, 0.00102233083, -0.228461638, -0.134083867, 0.453080773 , -0.009529784, -0.008960166, 2.63094258  , 2.27        , 3           , 50          , 0           , 0
-0.07613444 , 0.08509657  , -9.778455   , 0.000316764461, 0.000114544673, -0.0009497448, -0.228461638, -0.134083867, 0.453080773 , -0.009526533, -0.008959111, 2.630933    , 2.28        , 3           , 11          , 0.007955074 , 0.007955072
-0.09293192 , 0.07811566  , -9.790815   , -0.00110013 , 0.001231259 , 0.000458093476, -0.228529051, -0.13415128 , 0.4531482   , -0.009537572, -0.008946755, 2.63093781  , 2.29        , 3           , 12          , 0.0451232046, 0
-0.08814701 , 0.05781282  , -9.808038   , 0.001500081 , 0.00294839777, -9.297834E-05, -0.228529051, -0.134083867, 0.453013361 , -0.009419261, -0.008901012, 2.630936    , 2.3         , 3           , 50          , 0           , 0
-0.08520691 , 0.07760135  , -9.798895   , 0.000945148466, 0.000973622547, 0.0001838875, -0.228529051, -0.1342861  , 0.452878535 , -0.009409824, -0.008891258, 2.63093781  , 2.31        , 3           , 11          , 0.007866482 , 0.00786647853
-0.0865696445, 0.07672104  , -9.800716   , 0.000106231972, -0.000721497752, 0.000177333088, -0.228529051, -0.1342861  , 0.452878535 , -0.00940877851, -0.008898457, 2.63093972  , 2.32        , 3           , 12          , 0.045992706 , 0
-0.10367392 , 0.09084219  , -9.780902   , -0.000455996778, -0.00128844869, -0.000108705892, -0.228394225, -0.13415128 , 0.452878535 , -0.009413329, -0.008911352, 2.63093877  , 2.33        , 3           , 50          , 0           , 0
-0.0967000648, 0.07759364  , -9.75694752 , 0.00319473073, 0.002678286 , -0.00234581064, -0.22873129 , -0.13415128 , 0.453080773 , -0.009381172, -0.008884789, 2.630915    , 2.34        , 3           , 11          , 0.007866482 , 0.00786647853
-0.08344913 , 0.0811076462, -9.774459   , 0.002922715 , 0.0007054234, -0.00122001511, -0.228326812, -0.1342861  , 0.453080773 , -0.009351836, -0.00887785 , 2.63090253  , 2.35        , 3           , 12          , 0.045992706 , 0
-0.06943043 , 0.07467967  , -9.790197   , 0.001515415 , -0.000148818552, -9.775162E-05, -0.228326812, -0.1342861  , 0.453080773 , -0.009336673, -0.008879346, 2.63090158  , 2.36        , 3           , 50          , 0           , 0
-0.0597631745, 0.0876408443, -9.786906   , -0.000175779714, -0.0010049775, -0.00151964254, -0.228461638, -0.134353518, 0.452878535 , -0.009338296, -0.008889536, 2.63088632  , 2.37        , 3           , 11          , 0.007866482 , 0.00786647853
-0.0578424037, 0.0921719149, -9.799077   , -0.002422737, -0.00327277137, 0.0007266503, -0.228394225, -0.1342861  , 0.453013361 , -0.009362591, -0.008922194, 2.630894    , 2.38        , 3           , 12          , 0.045992706 , 0
-0.07901283 , 0.103223667 , -9.791508   , -0.00102454307, -0.000447571, 0.0007375743, -0.228326812, -0.134353518, 0.453080773 , -0.009372902, -0.008926601, 2.63090158  , 2.39        , 3           , 50          , 0           , 0
-0.09883122 , 0.0857621   , -9.763257   , -0.003800572, -0.000384904037, -0.000405383937, -0.228326812, -0.134353518, 0.453080773 , -0.009332632, -0.008799604, 2.63089681  , 2.4         , 3           , 11          , 0.00777434325, 0.007774339
-0.0927595347, 0.08941409  , -9.796643   , -0.0009858984, 0.00160515192, -0.0001066396, -0.2282594  , -0.134420931, 0.452945948 , -0.00934247952, -0.008783561, 2.63089585  , 2.41        , 3           , 12          , 0.0468819141, 0
-0.08315019 , 0.09206229  , -9.812378   , -0.002104053, -0.0003734348, 0.002992967 , -0.228461638, -0.13415128 , 0.4531482   , -0.009363783, -0.008787015, 2.63092542  , 2.42        , 3           , 50          , 0           , 0
-0.0669769  , 0.08908993  , -9.790119   , -0.0004253899, 0.00245366641, -0.000385241467, -0.228529051, -0.1342861  , 0.4532156   , -0.009368001, -0.008762516, 2.6309216   , 2.43        , 3           , 11          , 0.00777434325, 0.007774339
-0.08777759 , 0.09114209  , -9.791174   , -0.000142384815, 0.00217400724, -0.00179704593, -0.228529051, -0.1342861  , 0.4532156   , -0.009369265, -0.00874094851, 2.63090348  , 2.44        , 3           , 12          , 0.0468819141, 0
-0.0768644661, 0.09819362  , -9.77931    , 0.000704317354, 0.00246130629, -0.000379973673, -0.228394225, -0.134488344, 0.452811122 , -0.009362186, -0.008716372, 2.63089919  , 2.45        , 3           , 50          , 0           , 0
-0.07391275 , 0.07834052  , -9.789765   , 0.0001662761, -0.0028922488, 0.000174222427, -0.228663877, -0.134016454, 0.453080773 , -0.009360542, -0.008745276, 2.630901    , 2.46        , 3           , 11          , 0.00777434325, 0.007774339
-0.08962181 , 0.07908506  , -9.821974   , 0.00129196455, -0.00203991262, 0.00046332943, -0.228461638, -0.13415128 , 0.4531482   , -0.009347665, -0.008765631, 2.63090634  , 2.47        , 3           , 12          , 0.0468819141, 0
-0.0866052061, 0.0740141347, -9.800729   , -0.0006933872, -0.000363892, 0.0004567145, -0.228461638, -0.13415128 , 0.4531482   , -0.009354639, -0.008769227, 2.63091063  , 2.48        , 3           , 50          , 0           , 0
-0.09433469 , 0.070953995 , -9.80306    , 0.000155450383, -0.000639726466, 0.000742769 , -0.2282594  , -0.134353518, 0.452811122 , -0.00935315 , -0.008775554, 2.63091779  , 2.49        , 3           , 11          , 0.00777434325, 0.007774339
-0.08933278 , 0.07448357  , -9.796679   , 0.001087975 , -0.00230815029, -0.000104026542, -0.228461638, -0.134353518, 0.452945948 , -0.009213664, -0.008773311, 2.63091636  , 2.5         , 3           , 12          , 0.0477894321, 0
-0.09934005 , 0.07545595  , -9.782739   , -4.95179629E-05, -0.000907968963, -0.00151981215, -0.228596464, -0.134555757, 0.452945948 , -0.009214026, -0.00878253 , 2.63090158  , 2.51        , 3           , 50          , 0           , 0
-0.07691614 , 0.09636633  , -9.772537   , -0.002587266, -0.00148828258, 0.000727767358, -0.2282594  , -0.13462317 , 0.452878535 , -0.009239963, -0.008797345, 2.63090873  , 2.52        , 3           , 11          , 0.00767949456, 0.00767948339
-0.0631497055, 0.07143359  , -9.786097   , -0.0017409646, -0.00148255739, -0.000963506638, -0.2282594  , -0.13462317 , 0.452878535 , -0.00925729 , -0.008812258, 2.63089919  , 2.53        , 3           , 12          , 0.0477894321, 0
-0.0706809238, 0.0819246247, -9.793341   , -0.000331544143, -0.000628305133, 0.00158721709, -0.228529051, -0.134083867, 0.453013361 , -0.009260745, -0.008818396, 2.630915    , 2.54        , 3           , 50          , 0           , 0
-0.08818504 , 0.08939873  , -9.807908   , 0.00248231366, 0.00136174692, 0.000473274 , -0.228326812, -0.1342861  , 0.453013361 , -0.009235961, -0.008804733, 2.63091969  , 2.55        , 3           , 11          , 0.00767949456, 0.00767948339
-0.09327289 , 0.08312143  , -9.802097   , 0.0007845638, 0.00163184339, -0.002642106, -0.228529051, -0.1342187  , 0.452878535 , -0.009227881, -0.008788659, 2.630893    , 2.56        , 3           , 12          , 0.0477894321, 0
-0.09298557 , 0.0736086741, -9.792191   , 0.000795048836, -5.75367E-05, 0.00102827768, -0.228529051, -0.1342187  , 0.452878535 , -0.009220021, -0.008789141, 2.63090348  , 2.57        , 3           , 50          , 0           , 0
-0.08710234 , 0.0771079659, -9.779927   , -0.0006240553, 0.00134073873, 0.00102386263, -0.228461638, -0.13415128 , 0.4526763   , -0.009226351, -0.008775639, 2.6309135   , 2.58        , 3           , 11          , 0.00767949456, 0.00767948339
-0.100511976, 0.08812076  , -9.787668   , 0.00191229908, 0.0022026177, -0.00122328277, -0.228461638, -0.134353518, 0.453013361 , -0.009207118, -0.008753727, 2.630901    , 2.59        , 3           , 12          , 0.0477894321, 0
-0.108945265, 0.100857019 , -9.788584   , 0.0005611726, 0.00330391084, -0.00179392868, -0.228394225, -0.134420931, 0.452811122 , -0.009085935, -0.008747437, 2.63088155  , 2.6         , 3           , 50          , 0           , 0
-0.0787274837, 0.09103123  , -9.789749   , 0.0008571243, 0.0007717398, -0.000101292157, -0.228394225, -0.134420931, 0.452811122 , -0.00907735247, -0.00873972848, 2.63088059  , 2.61        , 3           , 11          , 0.00758293364, 0.00758292526
-0.07010031 , 0.09094989  , -9.79556    , 0.003951436 , 0.00332683627, 0.000199636779, -0.228663877, -0.134083867, 0.453080773 , -0.009037854, -0.008706444, 2.6308825   , 2.62        , 3           , 12          , 0.0487139374, 0
-0.10716857 , 0.0945589542, -9.800348   , 0.0034006862, 0.000507366 , 0.0004752011, -0.228461638, -0.1342861  , 0.453013361 , -0.009003889, -0.008701327, 2.63088727  , 2.63        , 3           , 50          , 0           , 0
-0.09676515 , 0.0926426649, -9.80344    , -0.000269468641, 0.00020097135, 0.000457646966, -0.228663877, -0.134488344, 0.452945948 , -0.009006622, -0.00869927648, 2.63089156  , 2.64        , 3           , 11          , 0.00758293364, 0.00758292526
-0.079618   , 0.08614421  , -9.809212   , -0.00196821149, 0.00103420671, 0.000451047119, -0.228663877, -0.134488344, 0.452945948 , -0.009026343, -0.008688894, 2.63089585  , 2.65        , 3           , 12          , 0.0487139374, 0
-0.08129875 , 0.071169354 , -9.778552   , -0.002229565, -0.00319117843, 0.0007257587, -0.228596464, -0.134353518, 0.452878535 , -0.009048705, -0.008720738, 2.63090348  , 2.66        , 3           , 50          , 0           , 0
-0.0756094754, 0.0945231   , -9.765756   , -0.002790563, -0.004039695, 0.00015674805, -0.228394225, -0.1342861  , 0.453013361 , -0.009076627, -0.008761118, 2.63090539  , 2.67        , 3           , 11          , 0.00758293364, 0.00758292526
-0.07913077 , 0.0924157053, -9.79743    , -0.00141056534, 0.002164279 , -0.002369958, -0.228461638, -0.1342187  , 0.452945948 , -0.009090523, -0.008739692, 2.63088155  , 2.68        , 3           , 12          , 0.0487139374, 0
-0.09916998 , 0.08362808  , -9.798072   , -0.00111789117, 0.000195235974, -0.001524066, -0.228461638, -0.1342187  , 0.452945948 , -0.009101568, -0.008737878, 2.63086629  , 2.69        , 3           , 50          , 0           , 0
-0.08132822 , 0.09919141  , -9.791995   , -0.00110365881, 0.00046618015, -0.000111159025, -0.228326812, -0.134420931, 0.452878535 , -0.009086105, -0.008752227, 2.63086534  , 2.7         , 3           , 11          , 0.007486755 , 0.00748674152
-0.07339203 , 0.08196104  , -9.794718   , 0.003141019 , -0.000912989432, 0.00216672476, -0.228529051, -0.1342861  , 0.452945948 , -0.009054886, -0.008761158, 2.63088727  , 2.71        , 3           , 12          , 0.0496541969, 0
-0.07019259 , 0.08462621  , -9.793326   , -0.00136608 , -0.00347763835, 0.000729061256, -0.228461638, -0.1342861  , 0.4527437   , -0.009068612, -0.008795869, 2.63089442  , 2.72        , 3           , 50          , 0           , 0
-0.09864752 , 0.09215986  , -9.787637   , -0.00193051854, -0.003763028, -0.000969231362, -0.228461638, -0.1342861  , 0.4527437   , -0.009087835, -0.008833584, 2.63088536  , 2.73        , 3           , 11          , 0.007486755 , 0.00748674152
-0.113139272, 0.08875704  , -9.79861    , 0.000298227853, 0.00244668336, -0.0009491493, -0.228326812, -0.134353518, 0.452811122 , -0.009084768, -0.008809205, 2.63087583  , 2.74        , 3           , 12          , 0.0496541969, 0
-0.08917071 , 0.08443461  , -9.804319   , -0.000541429967, 0.001033131 , 0.00017487997, -0.228461638, -0.1342187  , 0.453080773 , -0.009090197, -0.008798859, 2.63087678  , 2.75        , 3           , 50          , 0           , 0
-0.07178372 , 0.09732355  , -9.806394   , -0.000245063158, -0.00178060972, 0.000171857566, -0.228394225, -0.1342187  , 0.453013361 , -0.009092664, -0.008816649, 2.63087916  , 2.76        , 3           , 11          , 0.007486755 , 0.00748674152
-0.0826578662, 0.06761389  , -9.789876   , 0.003693415 , 0.00134334492, -8.746934E-05, -0.228394225, -0.1342187  , 0.453013361 , -0.00905572 , -0.008803222, 2.63087773  , 2.77        , 3           , 12          , 0.0496541969, 0
-0.0881671757, 0.09343037  , -9.799303   , -0.0005461015, 0.001877824 , -0.000671430433, -0.2282594  , -0.134353518, 0.452878535 , -0.00906111952, -0.008784506, 2.630871    , 2.78        , 3           , 50          , 0           , 0
-0.0666773543, 0.108525731 , -9.800884   , 0.00341459247, 0.0007783087, 0.00132303312, -0.228529051, -0.1342187  , 0.453013361 , -0.009027091, -0.008776604, 2.63088441  , 2.79        , 3           , 11          , 0.007486755 , 0.00748674152
-0.09536859 , 0.09131862  , -9.816995   , 0.00142986979, -0.000340825762, 0.00187747192, -0.228326812, -0.134488344, 0.452878535 , -0.009038229, -0.00874187052, 2.63090348  , 2.8         , 3           , 12          , 0.0506090336, 0
-0.107260749, 0.09091346  , -9.789516   , -0.001115086, 0.000205113072, 0.00130141247, -0.228326812, -0.134488344, 0.452878535 , -0.009049495, -0.0087397  , 2.63091636  , 2.81        , 3           , 50          , 0           , 0
-0.08366656 , 0.0969259441, -9.781175   , 0.00199776329, -0.00118170655, -9.89581749E-05, -0.228394225, -0.134353518, 0.4526763   , -0.009029509, -0.00875152647, 2.63091588  , 2.82        , 3           , 11          , 0.00739001762, 0.00739000645
-0.08497495 , 0.0938579142, -9.803345   , -0.000551952631, 0.0004904965, 0.0007394053, -0.228394225, -0.134016454, 0.453080773 , -0.009035093, -0.008746554, 2.630923    , 2.83        , 3           , 12          , 0.0506090336, 0
-0.07869236 , 0.09061335  , -9.799695   , -0.0005640835, 0.00274301274, -0.000952348, -0.2282594  , -0.1342187  , 0.452811122 , -0.009040648, -0.008719211, 2.630913    , 2.84        , 3           , 50          , 0           , 0
-0.0979230851, 0.07905829  , -9.785427   , -0.000840608031, 0.00161484373, -0.000390325673, -0.2282594  , -0.1342187  , 0.452811122 , -0.009049018, -0.008703098, 2.6309092   , 2.85        , 3           , 11          , 0.00739001762, 0.00739000645
-0.08681264 , 0.0907332152, -9.806988   , -0.0002604204, -0.00147855224, -0.000392465125, -0.228529051, -0.134083867, 0.452608883 , -0.009051589, -0.008717919, 2.63090539  , 2.86        , 3           , 12          , 0.0506090336, 0
-0.0590097532, 0.111089349 , -9.784996   , -0.00195728 , -0.000926879642, 0.000448113424, -0.228529051, -0.1342187  , 0.453013361 , -0.009071202, -0.008727145, 2.63091016  , 2.87        , 3           , 50          , 0           , 0
-0.07106843 , 0.08957078  , -9.784725   , -0.000545145769, -0.0009173296, 0.000454698078, -0.228461638, -0.1342187  , 0.452878535 , -0.009076694, -0.008736277, 2.630915    , 2.88        , 3           , 11          , 0.00739001762, 0.00739000645
-0.07944575 , 0.102352388 , -9.7992     , 0.0005828412, -0.000628126261, -0.000104674989, -0.228461638, -0.1342187  , 0.452878535 , -0.009070858, -0.008742567, 2.630914    , 2.89        , 3           , 12          , 0.0506090336, 0
-0.08638435 , 0.0929398   , -9.793867   , -0.000320380728, 0.00362055  , 0.00046354573, -0.228394225, -0.13415128 , 0.4526763   , -0.009141926, -0.008646999, 2.63091874  , 2.9         , 3           , 50          , 0           , 0
-0.0834630355, 0.07484748  , -9.791208   , -0.0020073934, 0.00191969564, -0.00095964683, -0.228529051, -0.1342187  , 0.452811122 , -0.009161914, -0.00862789 , 2.63090873  , 2.91        , 3           , 11          , 0.00729482248, 0.00729480572
-0.08858286 , 0.0956974849, -9.801105   , -0.000582223758, -0.0006048379, -0.000109354987, -0.228394225, -0.13415128 , 0.452878535 , -0.009167727, -0.008633947, 2.63090777  , 2.92        , 3           , 12          , 0.0515773669, 0
-0.09461304 , 0.08761563  , -9.792145   , 0.00111307844, -0.0008749462, -0.0012320372, -0.228326812, -0.1342187  , 0.4527437   , -0.009156492, -0.008642809, 2.63089585  , 2.93        , 3           , 50          , 0           , 0
-0.0949402153, 0.103791326 , -9.770837   , 0.003080546 , 0.001390952 , 0.00160602748, -0.228326812, -0.1342187  , 0.4527437   , -0.009125824, -0.008628753, 2.63091159  , 2.94        , 3           , 11          , 0.00729482248, 0.00729480572
-0.08826177 , 0.0915683061, -9.782136   , -0.000587310351, 0.0005214248, 0.000739993 , -0.228663877, -0.1342861  , 0.453080773 , -0.009131761, -0.008623472, 2.63091874  , 2.95        , 3           , 12          , 0.0515773669, 0
-0.06853367 , 0.09779797  , -9.824446   , -0.000586732058, 0.000239855784, -0.0006731282, -0.228461638, -0.1342861  , 0.452878535 , -0.009137571, -0.008621135, 2.630912    , 2.96        , 3           , 50          , 0           , 0
-0.0511834659, 0.116459668 , -9.798925   , -0.002003449, 0.0007934276, -0.003786757, -0.228394225, -0.1342187  , 0.4527437   , -0.009157278, -0.008613547, 2.630874    , 2.97        , 3           , 11          , 0.00729482248, 0.00729480572
-0.06589261 , 0.103953682 , -9.785981   , -0.00171767024, 0.0005137818, -0.0003954245, -0.228394225, -0.1342187  , 0.4527437   , -0.009174421, -0.008608445, 2.63087     , 2.98        , 3           , 12          , 0.0515773669, 0
-0.09119501 , 0.106080145 , -9.793398   , 0.0008142499, 0.00250192638, -0.000663072045, -0.228596464, -0.13415128 , 0.452878535 , -0.009166219, -0.008583488, 2.63086343  , 2.99        , 3           , 50          , 0           , 0
-0.09548723 , 0.08720534  , -9.801193   , 0.00161358749, 5.189446E-06, -0.000379679579, -0.228394225, -0.134016454, 0.452945948 , -0.009270395, -0.008520747, 2.63086057  , 3           , 3           , 11          , 0.0071995575, 0.0071995426
-0.0880243  , 0.105151221 , -9.796542   , 0.00133469  , -0.000841419, -0.0015124483, -0.228191987, -0.134420931, 0.452811122 , -0.009256918, -0.008529302, 2.63084531  , 3.01        , 3           , 12          , 0.0525581725, 0
-0.06605257 , 0.0917726   , -9.786035   , -7.73698E-05, -0.0005693966, 0.00102423818, -0.228191987, -0.134420931, 0.452811122 , -0.009257781, -0.008534899, 2.6308558   , 3.02        , 3           , 50          , 0           , 0
-0.07510541 , 0.08563234  , -9.806919   , -6.40823637E-05, -0.00338505022, -0.0001102509, -0.228394225, -0.134083867, 0.4526763   , -0.009258416, -0.008568759, 2.63085485  , 3.03        , 3           , 11          , 0.0071995575, 0.0071995426
-0.102625035, 0.05531381  , -9.819458   , -8.663837E-05, 0.00140156131, 0.00187488832, -0.228529051, -0.133949041, 0.452811122 , -0.009259441, -0.008554569, 2.630874    , 3.04        , 3           , 12          , 0.0525581725, 0
-0.110446021, 0.08468898  , -9.805838   , 0.00301424344, 0.00226725824, -0.000934698444, -0.228461638, -0.134083867, 0.452811122 , -0.009229217, -0.008531984, 2.63086438  , 3.05        , 3           , 50          , 0           , 0
-0.112118781, 0.09285666  , -9.813499   , 0.00133771554, -0.0011229763, 0.00131249253, -0.228461638, -0.134083867, 0.452811122 , -0.009215953, -0.008543094, 2.63087773  , 3.06        , 3           , 11          , 0.0071995575, 0.0071995426
-0.09953116 , 0.09665177  , -9.778585   , 0.00133041921, 0.0002848477, 0.00074958714, -0.228461638, -0.1342187  , 0.4527437   , -0.009202712, -0.008540175, 2.630885    , 3.07        , 3           , 12          , 0.0525581725, 0
-0.0638799444, 0.0867622048, -9.77971    , 0.00103807112, 0.00225389237, 0.000468770217, -0.228326812, -0.1342187  , 0.452945948 , -0.00919237 , -0.008517594, 2.63088918  , 3.08        , 3           , 50          , 0           , 0
-0.08549698 , 0.08845092  , -9.803823   , -0.0006495941, 0.0005530352, -0.00208457233, -0.228461638, -0.13415128 , 0.452878535 , -0.009198688, -0.008512255, 2.6308682   , 3.09        , 3           , 11          , 0.0071995575, 0.0071995426
-0.09089923 , 0.09032537  , -9.805664   , 0.000209208883, -0.0008736709, 0.00102489884, -0.228461638, -0.13415128 , 0.452878535 , -0.009191027, -0.008571376, 2.63087869  , 3.1         , 3           , 12          , 0.0535505   , 0
-0.07887089 , 0.0810953155, -9.786628   , -0.00120095292, -0.00144635467, -0.000395240932, -0.228461638, -0.13415128 , 0.4527437   , -0.009203003, -0.008585875, 2.63087487  , 3.11        , 3           , 50          , 0           , 0
-0.09040389 , 0.09749614  , -9.792974   , -0.00233516842, -0.0006093009, -0.000964281848, -0.228596464, -0.134016454, 0.452811122 , -0.009226274, -0.008592057, 2.63086534  , 3.12        , 3           , 11          , 0.00710636  , 0.00710635539
-0.0777535662, 0.0977712348, -9.784742   , -8.969401E-05, 0.00222162949, -0.000949407055, -0.228394225, -0.13415128 , 0.4527437   , -0.009227088, -0.008569929, 2.6308558   , 3.13        , 3           , 12          , 0.0535505   , 0
-0.0908614248, 0.103746511 , -9.771709   , -6.534336E-05, -0.00256497366, 0.000173365785, -0.228394225, -0.13415128 , 0.4527437   , -0.009227759, -0.008595562, 2.63085771  , 3.14        , 3           , 50          , 0           , 0
-0.10285683 , 0.11211054  , -9.801599   , -0.0009234496, -0.000318181235, 0.0007379615, -0.228596464, -0.13415128 , 0.452608883 , -0.009237057, -0.008598675, 2.63086534  , 3.15        , 3           , 11          , 0.00710636  , 0.00710635539
-0.0862171054, 0.0997705758, -9.812821   , -0.00177679549, 0.0008023468, -0.00011186584, -0.228663877, -0.1342861  , 0.4527437   , -0.009254814, -0.008590661, 2.63086438  , 3.16        , 3           , 12          , 0.0535505   , 0
-0.09316087 , 0.09347826  , -9.796177   , 0.0007675819, 0.0005379769, 0.00187731476, -0.228394225, -0.1342861  , 0.452811122 , -0.009247299, -0.008585109, 2.6308825   , 3.17        , 3           , 50          , 0           , 0
-0.111905105, 0.07703534  , -9.80588    , 0.00499685062, 0.001974451 , 0.00161670113, -0.228394225, -0.1342861  , 0.452811122 , -0.009197469, -0.008565215, 2.63089871  , 3.18        , 3           , 11          , 0.00710636  , 0.00710635539
-0.0510406531, 0.09299296  , -9.79857    , 0.00330893416, 0.0005551643, 0.00104155473, -0.228326812, -0.134555757, 0.452608883 , -0.009164468, -0.008559569, 2.6309092   , 3.19        , 3           , 12          , 0.0535505   , 0
-0.08912279 , 0.09384678  , -9.785749   , 0.00188158336, -0.000312646152, -0.000661563361, -0.228529051, -0.1342187  , 0.4527437   , -0.009184596, -0.00859147 , 2.63090253  , 3.2         , 3           , 50          , 0           , 0
-0.106764495, 0.0891579539, -9.805792   , 0.00132377422, -0.00144271948, 0.00187690428, -0.228394225, -0.1342187  , 0.452878535 , -0.00917152 , -0.008605723, 2.6309216   , 3.21        , 3           , 11          , 0.007014658 , 0.007014644
-0.09809202 , 0.09491588  , -9.803893   , 0.00470708264, -0.000575112354, -0.0009313654, -0.228394225, -0.1342187  , 0.452878535 , -0.009124369, -0.008611558, 2.630912    , 3.22        , 3           , 12          , 0.05455346  , 0
-0.07564038 , 0.08289295  , -9.795635   , 0.0007534334, -0.000601850334, -0.000384727551, -0.2282594  , -0.1342187  , 0.4527437   , -0.009116804, -0.008617614, 2.63090825  , 3.23        , 3           , 50          , 0           , 0
-0.1127883  , 0.08465205  , -9.786872   , 0.00189543469, -0.00284672552, 0.001594831 , -0.228529051, -0.1342861  , 0.452811122 , -0.009097989, -0.008645933, 2.630925    , 3.24        , 3           , 11          , 0.007014658 , 0.007014644
-0.09632951 , 0.0997650549, -9.776289   , 0.00103256828, 0.0005263309, 0.0035738498, -0.228529051, -0.134083867, 0.452811122 , -0.009087972, -0.008640344, 2.6309607   , 3.25        , 3           , 12          , 0.05455346  , 0
-0.08551992 , 0.09021773  , -9.792517   , 0.002440446 , 0.00109900371, 0.00103846483, -0.228529051, -0.134083867, 0.452811122 , -0.00906365551, -0.008629261, 2.63097119  , 3.26        , 3           , 50          , 0           , 0
-0.09471395 , 0.07458969  , -9.809375   , 0.00130327954, 0.00249918713, 0.00018775434, -0.228596464, -0.134555757, 0.4526763   , -0.00905063748, -0.008604255, 2.63097262  , 3.27        , 3           , 11          , 0.007014658 , 0.007014644
-0.07718854 , 0.105891183 , -9.78606    , 0.00215794519, 0.0008155218, -0.00150612323, -0.228529051, -0.134083867, 0.452878535 , -0.009028929, -0.008596237, 2.63095737  , 3.28        , 3           , 12          , 0.05455346  , 0
-0.0728088  , 0.0945592448, -9.786074   , 0.000457229733, 0.00221189135, -9.916766E-05, -0.2282594  , -0.134488344, 0.452811122 , -0.009024346, -0.008574126, 2.630956    , 3.29        , 3           , 50          , 0           , 0
-0.0458235  , 0.08025612  , -9.786379   , -0.0001321834, 0.003317079 , 0.000182431773, -0.2282594  , -0.134488344, 0.452811122 , -0.009067512, -0.008578636, 2.63095784  , 3.3         , 3           , 11          , 0.006925372 , 0.00692535471
-0.07819578 , 0.07197095  , -9.75954151 , -0.00379495323, 0.00132128852, -0.00153295067, -0.228394225, -0.1342861  , 0.452608883 , -0.00910533 , -0.008565562, 2.63094258  , 3.31        , 3           , 12          , 0.0555662066, 0
-0.0924287  , 0.08841727  , -9.769978   , -0.00180681329, -0.0009178622, -0.00152720348, -0.228596464, -0.134353518, 0.452945948 , -0.009123267, -0.008574879, 2.63092732  , 3.32        , 3           , 50          , 0           , 0
-0.08457977 , 0.09157416  , -9.796572   , -0.00351162162, 0.00104163121, -0.00237968 , -0.2282594  , -0.1342187  , 0.452811122 , -0.009158178, -0.00856468 , 2.63090348  , 3.33        , 3           , 11          , 0.006925372 , 0.00692535471
-0.08871724 , 0.07773459  , -9.826039   , -0.000127259962, 0.002190815 , -0.000949453737, -0.2282594  , -0.1342187  , 0.452811122 , -0.00915936753, -0.008542862, 2.630894    , 3.34        , 3           , 12          , 0.0555662066, 0
-0.08254562 , 0.0757391453, -9.791198   , -0.00152603211, -0.00035281654, 0.000452743436, -0.2282594  , -0.1342187  , 0.452608883 , -0.009174666, -0.008546347, 2.63089824  , 3.35        , 3           , 50          , 0           , 0
-0.103733458, 0.07829614  , -9.806717   , 0.00185128488, 0.00192262058, -0.0006581316, -0.228326812, -0.13415128 , 0.452811122 , -0.009156096, -0.008527183, 2.63089156  , 3.36        , 3           , 11          , 0.006925372 , 0.00692535471
-0.11105229 , 0.0711794049, -9.811774   , -0.00179575 , -0.00288881152, 0.000730058644, -0.228394225, -0.13415128 , 0.452878535 , -0.009174117, -0.008556002, 2.63089919  , 3.37        , 3           , 12          , 0.0555662066, 0
-0.09320463 , 0.087193884 , -9.805696   , 0.002139288 , 0.0007982702, -0.0006585504, -0.228326812, -0.134488344, 0.452608883 , -0.009152668, -0.00854808 , 2.63089252  , 3.38        , 3           , 50          , 0           , 0
-0.09977258 , 0.102630891 , -9.811106   , 0.00129816169, -0.000615289, -0.00207735831, -0.228326812, -0.134488344, 0.452608883 , -0.009139508, -0.008554421, 2.630872    , 3.39        , 3           , 11          , 0.006925372 , 0.00692535471
-0.126425385, 0.0753947943, -9.804191   , 0.00273418752, -0.00149232952, -0.000377375283, -0.228596464, -0.1342861  , 0.452811122 , -0.009069929, -0.008663766, 2.6308682   , 3.4         , 3           , 12          , 0.0565879643, 0
-0.0974482447, 0.07862449  , -9.792204   , 0.00244356  , 0.0001951518, -9.355111E-05, -0.228529051, -0.134083867, 0.452878535 , -0.009045486, -0.008661823, 2.63086724  , 3.41        , 3           , 50          , 0           , 0
-0.1104051  , 0.08963198  , -9.799941   , 0.00216162251, 0.000193244181, 0.000752744265, -0.228529051, -0.1342861  , 0.4526763   , -0.009023935, -0.008659823, 2.6308744   , 3.42        , 3           , 11          , 0.006837565 , 0.006837535
-0.097553134, 0.0678271055, -9.80129    , 0.0016057851, -0.00149996311, 0.00187765656, -0.228529051, -0.1342861  , 0.4526763   , -0.00900804 , -0.008674654, 2.630893    , 3.43        , 3           , 12          , 0.0565879643, 0
-0.08584252 , 0.06987057  , -9.779043   , 0.00161054567, -0.00262622721, 0.0004632335, -0.228529051, -0.1342187  , 0.4526763   , -0.008991977, -0.008700874, 2.63089824  , 3.44        , 3           , 50          , 0           , 0
-0.07961122 , 0.09284495  , -9.789296   , 0.0004602545, 0.00158961047, 0.00102954963, -0.2282594  , -0.13415128 , 0.452878535 , -0.008987462, -0.008684886, 2.63090825  , 3.45        , 3           , 11          , 0.006837565 , 0.006837535
-0.09384243 , 0.07901499  , -9.786751   , -7.843944E-05, -0.00376394764, 0.000453596178, -0.228326812, -0.134353518, 0.452608883 , -0.008988287, -0.008722483, 2.630913    , 3.46        , 3           , 12          , 0.0565879643, 0
-0.09993939 , 0.09892492  , -9.782195   , -0.0006584639, -0.00067055074, 0.0007382731, -0.228326812, -0.134353518, 0.452608883 , -0.00899494 , -0.008729121, 2.63092065  , 3.47        , 3           , 50          , 0           , 0
-0.09141919 , 0.09027626  , -9.789397   , -0.00123094022, 0.000733451569, -0.00039234088, -0.228461638, -0.134353518, 0.4527437   , -0.009007214, -0.008721823, 2.63091683  , 3.48        , 3           , 11          , 0.006837565 , 0.006837535
-0.0817992  , 0.09471847  , -9.801961   , 0.0018673907, 0.002443852 , -0.000375251, -0.228124574, -0.134420931, 0.452945948 , -0.008988506, -0.0086974185, 2.630913    , 3.49        , 3           , 12          , 0.0565879643, 0
-0.07168346 , 0.109456263 , -9.791879   , -0.000646061148, -0.00211308175, -0.0009594947, -0.228394225, -0.134488344, 0.452811122 , -0.00897999853, -0.008799174, 2.63090348  , 3.5         , 3           , 50          , 0           , 0
-0.08041299 , 0.09963494  , -9.792891   , 0.00160236459, 0.000154719426, -0.0006629502, -0.228394225, -0.134488344, 0.452811122 , -0.00896391552, -0.008797687, 2.63089681  , 3.51        , 3           , 11          , 0.0067518875, 0.006751869
-0.08815397 , 0.08853121  , -9.818307   , 0.00132075348, 0.000152813373, 0.000748420134, -0.228394225, -0.134488344, 0.452811122 , -0.008950774, -0.008796091, 2.630904    , 3.52        , 3           , 12          , 0.057618    , 0
-0.08220722 , 0.09476007  , -9.812811   , 0.00103783712, 0.000150901062, -0.000100509067, -0.228596464, -0.133949041, 0.452811122 , -0.008940387, -0.008794592, 2.630903    , 3.53        , 3           , 50          , 0           , 0
-0.0958946943, 0.09304992  , -9.793488   , 0.00103135651, 0.00155872875, 0.0007492729, -0.228326812, -0.134420931, 0.4527437   , -0.008930137, -0.008778938, 2.63091016  , 3.54        , 3           , 11          , 0.0067518875, 0.006751869
-0.121688858, 0.09291839  , -9.798657   , 0.00130378793, 0.00325002149, -0.00207218132, -0.228326812, -0.134420931, 0.4527437   , -0.008916916, -0.008746624, 2.63088918  , 3.55        , 3           , 12          , 0.057618    , 0
-0.08069065 , 0.10960187  , -9.803699   , -0.00151499291, 0.00238623284, 0.000173647219, -0.228461638, -0.134353518, 0.4527437   , -0.008932079, -0.008722748, 2.630891    , 3.56        , 3           , 50          , 0           , 0
-0.07320431 , 0.0963963643, -9.794205   , -0.000369462359, -0.000703340862, 0.00102175411, -0.228529051, -0.134083867, 0.452878535 , -0.008935865, -0.008729689, 2.63090158  , 3.57        , 3           , 11          , 0.0067518875, 0.006751869
-0.06943488 , 0.106292777 , -9.798202   , -0.00094268 , 0.0009822296, 0.001021724 , -0.228461638, -0.1342187  , 0.4526763   , -0.008945379, -0.008719776, 2.630911    , 3.58        , 3           , 12          , 0.057618    , 0
-0.09130849 , 0.09884661  , -9.788909   , -8.22009E-05, -0.00154612307, 0.0021519193, -0.228461638, -0.1342187  , 0.4526763   , -0.008946392, -0.008735043, 2.630933    , 3.59        , 3           , 50          , 0           , 0
-0.06282154 , 0.09937321  , -9.776485   , 0.000438347139, -0.0012650867, 0.00130765757, -0.228529051, -0.13415128 , 0.4526763   , -0.009043498, -0.008757956, 2.63094735  , 3.6         , 3           , 11          , 0.006668587 , 0.006668556
-0.07339485 , 0.11580725  , -9.795934   , -0.00295823417, 0.00011981681, 0.000446411577, -0.228394225, -0.133949041, 0.4527437   , -0.009073119, -0.008756717, 2.63095117  , 3.61        , 3           , 12          , 0.0586556345, 0
-0.09710428 , 0.105237879 , -9.790735   , -0.000409422879, -0.001270819, 0.000456094276, -0.228326812, -0.1342861  , 0.452811122 , -0.009077255, -0.008769383, 2.630956    , 3.62        , 3           , 50          , 0           , 0
-0.112005629, 0.07472213  , -9.788715   , 0.00155797  , 0.0007135073, 0.0007508879, -0.228326812, -0.1342861  , 0.452811122 , -0.009061741, -0.00876218 , 2.63096356  , 3.63        , 3           , 11          , 0.006668587 , 0.006668556
-0.098233   , 0.08319653  , -9.807106   , 0.00155452953, 0.00127663428, -0.000378393976, -0.228461638, -0.1342187  , 0.452608883 , -0.009046161, -0.008749448, 2.63095975  , 3.64        , 3           , 12          , 0.0586556345, 0
-0.08487334 , 0.100189149 , -9.80783749 , -0.0009874753, 0.0012594437, -0.0006727839, -0.2282594  , -0.134083867, 0.4526763   , -0.009055976, -0.008736915, 2.630953    , 3.65        , 3           , 50          , 0           , 0
-0.09135057 , 0.08720739  , -9.816077   , 0.00240041618, 0.00156392925, -0.000374009251, -0.228461638, -0.134353518, 0.4526763   , -0.00903193653, -0.008721311, 2.63094926  , 3.66        , 3           , 11          , 0.006668587 , 0.006668556
-0.101852015, 0.08770522  , -9.793556   , -0.00521920668, 0.000386101368, 0.000153772533, -0.228461638, -0.134353518, 0.4526763   , -0.009084144, -0.008717436, 2.63095021  , 3.67        , 3           , 12          , 0.0586556345, 0
-0.08552035 , 0.087092936 , -9.802473   , 0.0009930418, 0.000428115221, -0.00179501739, -0.228394225, -0.134083867, 0.4526763   , -0.00907405652, -0.008713317, 2.63093257  , 3.68        , 3           , 50          , 0           , 0
-0.06832878 , 0.0877720863, -9.796011   , 0.000703556347, 0.002115602 , 0.0004665692, -0.228529051, -0.1342861  , 0.452878535 , -0.00906705949, -0.008692121, 2.63093686  , 3.69        , 3           , 11          , 0.006668587 , 0.006668556
-0.08374371 , 0.09597073  , -9.76536    , 0.00013609117, 0.000133313879, -0.000951757655, -0.228461638, -0.134083867, 0.452878535 , -0.009094023, -0.008709332, 2.6309278   , 3.7         , 3           , 12          , 0.05970022  , 0
-0.09575552 , 0.0722584   , -9.783629   , -0.0004307347, 0.000692628033, 0.000459163537, -0.228461638, -0.134083867, 0.452878535 , -0.00909837 , -0.008702365, 2.630932    , 3.71        , 3           , 50          , 0           , 0
-0.110222906, 0.0715534   , -9.791879   , 0.000421054079, -0.000146335748, 0.00102688756, -0.2282594  , -0.13415128 , 0.4526763   , -0.009094249, -0.008703734, 2.63094258  , 3.72        , 3           , 11          , 0.00658720639, 0.00658718
-0.08631687 , 0.101028778 , -9.784342   , 0.004093344 , -0.000403074315, -8.657599E-05, -0.228663877, -0.13415128 , 0.452811122 , -0.00905330852, -0.008707772, 2.63094163  , 3.73        , 3           , 12          , 0.05970022  , 0
-0.08413302 , 0.08843952  , -9.805168   , -0.000433522742, 0.00125575811, 0.000460031442, -0.228394225, -0.13415128 , 0.452811122 , -0.009057684, -0.008695174, 2.6309464   , 3.74        , 3           , 50          , 0           , 0
-0.09082479 , 0.06769596  , -9.785871   , -0.0007084012, -0.0004355461, -0.0009565764, -0.228394225, -0.13415128 , 0.452811122 , -0.009064684, -0.008699618, 2.63093686  , 3.75        , 3           , 11          , 0.00658720639, 0.00658718
-0.09410759 , 0.09077744  , -9.79484    , 0.000421632285, -0.000427904684, -0.000386233616, -0.228461638, -0.134353518, 0.452541471 , -0.009060435, -0.00870393 , 2.630933    , 3.76        , 3           , 12          , 0.05970022  , 0
-0.09363316 , 0.08721885  , -9.811574   , -0.000425485, -0.000433633861, -0.000107646934, -0.228461638, -0.1342861  , 0.4527437   , -0.00906468 , -0.008708278, 2.630932    , 3.77        , 3           , 50          , 0           , 0
-0.08925062 , 0.08481621  , -9.783528   , -0.0007098841, 0.000127590218, 0.00130459131, -0.2282594  , -0.1342187  , 0.452811122 , -0.009071893, -0.00870688353, 2.630945    , 3.78        , 3           , 11          , 0.00658720639, 0.00658718
-0.09833494 , 0.0764186755, -9.803971   , 0.0007043854, -0.000425993145, 0.000180158051, -0.228326812, -0.1342861  , 0.452406645 , -0.009064864, -0.008711126, 2.63094687  , 3.79        , 3           , 12          , 0.05970022  , 0
-0.09861655 , 0.08861414  , -9.806635   , 0.004395946 , -0.0009906359, 0.000761150732, -0.228326812, -0.1342861  , 0.452406645 , -0.008978257, -0.008787556, 2.6309545   , 3.8         , 3           , 50          , 0           , 0
-0.07851658 , 0.101468176 , -9.807783   , -0.000713318, 0.00404315349, -0.00010235556, -0.228596464, -0.133881629, 0.452811122 , -0.008985379, -0.008747134, 2.630953    , 3.81        , 3           , 11          , 0.00650784653, 0.006507827
-0.08533919 , 0.100183882 , -9.804677   , 0.004084823 , 0.00463875243, -0.000644174754, -0.228394225, -0.13415128 , 0.452811122 , -0.00894447 , -0.008700807, 2.6309464   , 3.82        , 3           , 12          , 0.0607511662, 0
-0.109973177, 0.0891634151, -9.796324   , 0.000144046731, 0.00207792968, 0.00046363243, -0.228394225, -0.134083867, 0.452474058 , -0.008943068, -0.008679989, 2.63095021  , 3.83        , 3           , 50          , 0           , 0
-0.110230491, 0.0764571   , -9.774231   , -0.00350938 , -0.001607246, 0.000440871168, -0.228394225, -0.134083867, 0.452474058 , -0.008978201, -0.00869602 , 2.630955    , 3.84        , 3           , 11          , 0.00650784653, 0.006507827
-0.0961304158, 0.08437827  , -9.763694   , 0.00128785719, -0.0007300805, 0.0007470984, -0.228326812, -0.133949041, 0.452811122 , -0.008965387, -0.008703252, 2.63096261  , 3.85        , 3           , 12          , 0.0607511662, 0
-0.100727193, 0.104387179 , -9.793478   , -0.00210356317, -0.000189867569, 0.00157977536, -0.228326812, -0.13415128 , 0.4527437   , -0.008986561, -0.0087050125, 2.63097835  , 3.86        , 3           , 50          , 0           , 0
-0.101024881, 0.07736497  , -9.807604   , 0.00157044723, -0.0007281697, 0.00103095267, -0.228394225, -0.1342187  , 0.452541471 , -0.008970946, -0.00871219952, 2.63098884  , 3.87        , 3           , 11          , 0.00650784653, 0.006507827
-0.06259158 , 0.07776253  , -9.791489   , 0.000162658223, -0.00158241426, 0.00130560377, -0.228394225, -0.1342187  , 0.452541471 , -0.00896943547, -0.008727906, 2.63100171  , 3.88        , 3           , 12          , 0.0607511662, 0
-0.07896828 , 0.105491541 , -9.795115   , 0.0007276749, -0.00157859339, 0.00159077521, -0.228461638, -0.134083867, 0.452608883 , -0.008962297, -0.008743548, 2.631018    , 3.89        , 3           , 50          , 0           , 0
-0.07880637 , 0.0851647556, -9.789322   , 0.00043294928, -0.000469992141, -0.000104088, -0.228529051, -0.134083867, 0.4526763   , -0.00897288 , -0.008789147, 2.63101745  , 3.9         , 3           , 11          , 0.00643037958, 0.006430357
-0.07554712 , 0.09055647  , -9.793796   , -0.00239303918, -0.000207528341, -0.0006818983, -0.228529051, -0.1342187  , 0.452608883 , -0.008996753, -0.008791284, 2.63101029  , 3.91        , 3           , 12          , 0.0618079   , 0
-0.06536849 , 0.107130595 , -9.793197   , -0.0007113506, 0.00233801547, -0.00123516633, -0.228529051, -0.1342187  , 0.452608883 , -0.009003756, -0.008768016, 2.630998    , 3.92        , 3           , 50          , 0           , 0
-0.106281467, 0.09988956  , -9.778624   , 0.0007010209, 0.00262913853, 0.001597227 , -0.228529051, -0.134353518, 0.452811122 , -0.008996883, -0.008741582, 2.63101363  , 3.93        , 3           , 11          , 0.00643037958, 0.006430357
-0.09146747 , 0.08800538  , -9.784887   , -0.00112265232, -5.81501372E-05, -0.000393217721, -0.228461638, -0.1342187  , 0.452878535 , -0.009008075, -0.008742199, 2.63100934  , 3.94        , 3           , 12          , 0.0618079   , 0
-0.08458537 , 0.09156963  , -9.795216   , -0.00140175736, -0.00076397357, -0.000678156968, -0.228461638, -0.1342861  , 0.4527437   , -0.009022034, -0.008749899, 2.63100314  , 3.95        , 3           , 50          , 0           , 0
-0.07862375 , 0.0875444859, -9.826374   , -0.00126181182, -0.000622238847, -0.00166616263, -0.228461638, -0.1342861  , 0.4527437   , -0.009034506, -0.008756271, 2.63098645  , 3.96        , 3           , 11          , 0.00643037958, 0.006430357
-0.089586094, 0.08714834  , -9.804764   , 0.002682161 , 0.00137545529, -0.00206849445, -0.228529051, -0.1342187  , 0.4526763   , -0.009007503, -0.008742704, 2.63096547  , 3.97        , 3           , 12          , 0.0618079   , 0
-0.08770125 , 0.103701755 , -9.769425   , 0.00183848443, 0.000806599041, -0.0006606257, -0.228394225, -0.13415128 , 0.4527437   , -0.00898906 , -0.008734697, 2.6309588   , 3.98        , 3           , 50          , 0           , 0
-0.08652562 , 0.115961395 , -9.796033   , 0.000145806829, 0.000513576553, 0.000178651229, -0.2282594  , -0.134083867, 0.452608883 , -0.008987617, -0.008729545, 2.6309607   , 3.99        , 3           , 11          , 0.00643037958, 0.006430357
-0.09294371 , 0.104812965 , -9.812852   , 0.001248092 , -0.000186138641, -0.00038203795, -0.2282594  , -0.134083867, 0.452608883 , -0.009056665, -0.008740614, 2.63095784  , 4           , 3           , 12          , 0.0628699139, 0
-0.08906197 , 0.09032527  , -9.811979   , 0.0001232637, -0.00117925636, -0.0003888244, -0.228461638, -0.134420931, 0.452541471 , -0.009055398, -0.008752441, 2.630954    , 4.01        , 3           , 50          , 0           , 0
-0.07250797 , 0.08059394  , -9.793813   , -2.28287263E-05, -0.000194733686, -0.00038796413, -0.228461638, -0.1342187  , 0.452878535 , -0.009055592, -0.008754421, 2.63095021  , 4.02        , 3           , 11          , 0.00635533733, 0.00635531265
-0.08452586 , 0.06892814  , -9.771806   , -0.0005814093, -0.00146559649, -0.0003925507, -0.228529051, -0.134083867, 0.4526763   , -0.009061373, -0.008769113, 2.6309464   , 4.03        , 3           , 12          , 0.0628699139, 0
-0.101973608, 0.087160334 , -9.765536   , 0.000266442163, -0.00145986385, 0.00060028123, -0.228529051, -0.134083867, 0.4526763   , -0.009058762, -0.008783655, 2.63095212  , 4.04        , 3           , 50          , 0           , 0
-0.101303965, 0.09045519  , -9.808004   , 0.0009683271, -0.000610393647, 0.0006048753, -0.2282594  , -0.1342187  , 0.452474058 , -0.009049133, -0.008789705, 2.63095832  , 4.05        , 3           , 11          , 0.00635533733, 0.00635531265
-0.112239636, 0.08829526  , -9.798605   , 0.000403102837, -0.000473429478, 0.00116753357, -0.228394225, -0.134083867, 0.452608883 , -0.009045205, -0.008794333, 2.63097024  , 4.06        , 3           , 12          , 0.0628699139, 0
-0.0853326842, 0.07392864  , -9.779927   , -0.001009973, -0.000342197949, 0.0007373596, -0.228461638, -0.13415128 , 0.452474058 , -0.00905537 , -0.008797688, 2.63097739  , 4.07        , 3           , 50          , 0           , 0
-0.100971654, 0.0863350853, -9.791747   , 0.000823754643, -4.82212381E-05, -0.000383796549, -0.228461638, -0.13415128 , 0.452474058 , -0.009047098, -0.008798204, 2.63097358  , 4.08        , 3           , 11          , 0.00635533733, 0.00635531265
-0.0795922354, 0.09330669  , -9.792459   , 0.003087307 , -0.000736851, 0.000755804 , -0.228191987, -0.1342861  , 0.452474058 , -0.009016295, -0.008805507, 2.63098121  , 4.09        , 3           , 12          , 0.0628699139, 0
-0.07042854 , 0.07818612  , -9.756292   , 0.0005545119, -0.00232038973, 0.00116521772, -0.228394225, -0.133881629, 0.452406645 , -0.009007749, -0.008877164, 2.63099313  , 4.1         , 3           , 50          , 0           , 0
-0.07605015 , 0.0856112242, -9.797435   , -0.00142341759, -0.00219297828, 0.0007324098, -0.228529051, -0.134420931, 0.452811122 , -0.00902205147, -0.008899027, 2.63100076  , 4.11        , 3           , 11          , 0.00628205249, 0.006282035
-0.0767205656, 0.0960784554, -9.821352   , 0.0006863382, -0.0004892634, 0.0006036217, -0.228529051, -0.134420931, 0.452811122 , -0.009015242, -0.008903865, 2.63100648  , 4.12        , 3           , 12          , 0.0639367253, 0
-0.09487633 , 0.09937959  , -9.800686   , 0.0009631888, 0.000638906844, 0.000606674352, -0.228596464, -0.13415128 , 0.452541471 , -0.009005663, -0.008897424, 2.63101268  , 4.13        , 3           , 50          , 0           , 0
-0.09119521 , 0.100723781 , -9.810596   , -0.00144022726, 0.00118580228, 0.0005963483, -0.228394225, -0.13415128 , 0.4526763   , -0.009020117, -0.008885512, 2.63101888  , 4.14        , 3           , 11          , 0.00628205249, 0.006282035
-0.08892398 , 0.07042545  , -9.798952   , -0.00186665554, 0.00174606766, 0.0005952408, -0.228191987, -0.134083867, 0.452878535 , -0.009038836, -0.008867999, 2.6310246   , 4.15        , 3           , 12          , 0.0639367253, 0
-0.0895392448, 0.09254249  , -9.798865   , -0.00144354918, 0.00188971579, 0.0008799706, -0.228191987, -0.134083867, 0.452878535 , -0.009053348, -0.008849022, 2.63103318  , 4.16        , 3           , 50          , 0           , 0
-0.109610334, 0.07837281  , -9.809021   , -0.000169551335, 0.00119439594, 0.000178468355, -0.228191987, -0.134420931, 0.452406645 , -0.00905505847, -0.008837065, 2.63103461  , 4.17        , 3           , 11          , 0.00628205249, 0.006282035
-0.119228981, 0.06812913  , -9.815465   , -0.000166185084, 0.0003496969, -0.0012355207, -0.228461638, -0.1342861  , 0.4526763   , -0.00905661 , -0.00883367751, 2.63102221  , 4.18        , 3           , 12          , 0.0639367253, 0
-0.09748599 , 0.07546946  , -9.79312    , -0.0017216237, 0.0007615396, -0.00124211307, -0.228461638, -0.1342861  , 0.452608883 , -0.009073717, -0.008826175, 2.63100982  , 4.19        , 3           , 50          , 0           , 0
-0.0582295954, 0.100264691 , -9.789103   , 0.000421408826, -9.969535E-05, -0.000527554948, -0.228461638, -0.1342861  , 0.452608883 , -0.009012637, -0.008913872, 2.63100457  , 4.2         , 3           , 11          , 0.00621137163, 0.006211343
-0.0854760259, 0.09159236  , -9.798838   , 0.00113329664, -0.00122117961, -0.00010219212, -0.228326812, -0.134353518, 0.452271819 , -0.009001296, -0.008926092, 2.63100362  , 4.21        , 3           , 12          , 0.06500785  , 0
-0.08015242 , 0.08161987  , -9.803811   , -0.002538786, -0.00110522576, 0.000163442048, -0.228461638, -0.13415128 , 0.452608883 , -0.009026701, -0.00893713 , 2.63100553  , 4.22        , 3           , 50          , 0           , 0
-0.0567074642, 0.07992348  , -9.783751   , 0.000566470437, -0.000661865459, 0.001308729 , -0.228326812, -0.13415128 , 0.452945948 , -0.009021153, -0.008943629, 2.6310184   , 4.23        , 3           , 11          , 0.00621137163, 0.006211343
-0.07421367 , 0.08962764  , -9.790624   , 0.00295910519, 0.0009029756, 0.0007572348, -0.228394225, -0.134420931, 0.452608883 , -0.008991627, -0.008934532, 2.63102555  , 4.24        , 3           , 12          , 0.06500785  , 0
-0.09315047 , 0.0975038558, -9.785765   , -9.446308E-06, 0.00130526384, -0.000951166963, -0.228394225, -0.134420931, 0.452608883 , -0.008991636, -0.00892156549, 2.631016    , 4.25        , 3           , 50          , 0           , 0
-0.09592566 , 0.09659563  , -9.77449    , 0.000555118255, 0.00144986832, -0.000241972419, -0.228529051, -0.1342861  , 0.452541471 , -0.008986061, -0.008907089, 2.631014    , 4.26        , 3           , 11          , 0.00621137163, 0.006211343
-0.08874563 , 0.09244115  , -9.77174    , 0.00112161064, 0.00117212441, 0.0001840337, -0.228326812, -0.1342187  , 0.4526763   , -0.00897486 , -0.008895352, 2.63101554  , 4.27        , 3           , 12          , 0.06500785  , 0
-0.08141159 , 0.0897505   , -9.801978   , -0.00126773946, -0.00123741629, -0.000819729757, -0.228326812, -0.1342861  , 0.452474058 , -0.008987466, -0.008907797, 2.63100743  , 4.28        , 3           , 50          , 0           , 0
-0.09499384 , 0.0916964263, -9.796651   , -0.00211874954, -0.000539234665, -0.00124640192, -0.228326812, -0.1342861  , 0.452474058 , -0.009008544, -0.008913301, 2.630995    , 4.29        , 3           , 11          , 0.00621137163, 0.006211343
-0.08486797 , 0.102425262 , -9.801952   , -0.0012847411, 0.00115762209, -0.000815998239, -0.228461638, -0.134353518, 0.4526763   , -0.009036144, -0.008896806, 2.630987    , 4.3         , 3           , 12          , 0.06608286  , 0
-0.0834667757, 0.07484445  , -9.790304   , 0.000269259064, 0.00116813008, 0.000321394735, -0.228461638, -0.134016454, 0.4526763   , -0.009033479, -0.008885095, 2.63099027  , 4.31        , 3           , 50          , 0           , 0
-0.08879773 , 0.08748907  , -9.774925   , 0.0006926917, 0.00131177984, 0.00117119949, -0.22873129 , -0.134420931, 0.452608883 , -0.009026656, -0.008871872, 2.63100171  , 4.32        , 3           , 11          , 0.00614227541, 0.00614225538
-0.08102972 , 0.08968773  , -9.78480148 , 0.000129232125, 0.00102639489, 0.0011681316, -0.22873129 , -0.134420931, 0.452608883 , -0.009025467, -0.008861503, 2.63101315  , 4.33        , 3           , 12          , 0.06608286  , 0
-0.08161481 , 0.07708801  , -9.792994   , 0.0004088338, 0.00145064888, -0.000101319165, -0.228394225, -0.13415128 , 0.4526763   , -0.009021369, -0.00884700753, 2.6310122   , 4.34        , 3           , 50          , 0           , 0
-0.0747427046, 0.07975148  , -9.803777   , 0.000418836542, -0.000520305359, 0.000319449522, -0.2282594  , -0.1342187  , 0.452474058 , -0.00901720952, -0.00885218 , 2.631015    , 4.35        , 3           , 11          , 0.00614227541, 0.00614225538
-0.0746966153, 0.0815742239, -9.809194   , 0.00155948836, -0.00262440112, 0.00116907514, -0.228394225, -0.134353518, 0.452406645 , -0.009001721, -0.008878318, 2.63102746  , 4.36        , 3           , 12          , 0.06608286  , 0
-0.102406174, 0.07914773  , -9.796307   , 0.000565996743, -0.00178639474, -0.000246919633, -0.228394225, -0.134353518, 0.452406645 , -0.00899604 , -0.008896202, 2.6310246   , 4.37        , 3           , 50          , 0           , 0
-0.0765315741, 0.08470063  , -9.793374   , -1.181088E-05, 0.000743869052, -0.000951991766, -0.228529051, -0.134353518, 0.452608883 , -0.008996072, -0.00888885 , 2.631015    , 4.38        , 3           , 11          , 0.00614227541, 0.00614225538
-0.105320662, 0.0963528752, -9.80349    , 0.0005474668, 0.00187394931, -0.0009476222, -0.228191987, -0.1342187  , 0.452608883 , -0.008990511, -0.008870196, 2.63100553  , 4.39        , 3           , 12          , 0.06608286  , 0
-0.08544816 , 0.09652478  , -9.789778   , 0.000420585915, 4.1854084E-05, -0.001233697, -0.228461638, -0.134083867, 0.452339232 , -0.008970174, -0.008872737, 2.63099313  , 4.4         , 3           , 50          , 0           , 0
-0.056661807, 0.07862143  , -9.799125   , 0.000701819 , 0.000466116035, 0.00032222693, -0.228461638, -0.134083867, 0.452339232 , -0.008963184, -0.00886805 , 2.630996    , 4.41        , 3           , 11          , 0.00607517874, 0.006075158
-0.08933795 , 0.07760383  , -9.785366   , 0.00140509824, 0.00103402114, 0.000326387119, -0.228394225, -0.1342861  , 0.452406645 , -0.00894916 , -0.008857679, 2.6309998   , 4.42        , 3           , 12          , 0.06716136  , 0
-0.110097624, 0.087277174 , -9.771926   , 0.00310351467, 0.0002007842, -0.00023208803, -0.228663877, -0.134083867, 0.4526763   , -0.008918105, -0.008855691, 2.630997    , 4.43        , 3           , 50          , 0           , 0
-0.09015508 , 0.0812569261, -9.795301   , 0.00294889486, 0.00287469663, -0.000511161634, -0.228461638, -0.1342187  , 0.452339232 , -0.008888569, -0.008826991, 2.63099217  , 4.44        , 3           , 11          , 0.00607517874, 0.006075158
-0.08612411 , 0.0744781047, -9.806146   , 0.00111316529, 0.00272149639, -0.00165008847, -0.228461638, -0.1342187  , 0.452339232 , -0.00887728948, -0.008799923, 2.630975    , 4.45        , 3           , 12          , 0.06716136  , 0
-0.0825439841, 0.07797223  , -9.784409   , -0.000707690138, -0.0001065647, 3.2236996E-05, -0.228191987, -0.134353518, 0.452406645 , -0.008884368, -0.008800987, 2.63097548  , 4.46        , 3           , 50          , 0           , 0
-0.0741774738, 0.09322779  , -9.787897   , -0.00239310833, -0.001948197, 0.0001627835, -0.228394225, -0.133949041, 0.452541471 , -0.008908315, -0.008820453, 2.63097739  , 4.47        , 3           , 11          , 0.00607517874, 0.006075158
-0.0505594425, 0.0961351246, -9.795388   , 0.000291710778, -0.00235240185, -0.000390431524, -0.228461638, -0.1342187  , 0.452474058 , -0.008905366, -0.00884401053, 2.63097358  , 4.48        , 3           , 12          , 0.06716136  , 0
-0.0620086677, 0.0899141   , -9.784203   , 4.67662176E-07, -0.0005241374, 3.4878336E-05, -0.228461638, -0.1342187  , 0.452474058 , -0.008905363, -0.008849249, 2.630974    , 4.49        , 3           , 50          , 0           , 0
-0.08700722 , 0.084773    , -9.778539   , -0.002398527, -0.0005117831, -0.000258680055, -0.228461638, -0.134016454, 0.452474058 , -0.008923901, -0.00876808353, 2.63097119  , 4.5         , 3           , 11          , 0.00600980176, 0.006009781
-0.08659139 , 0.07759613  , -9.792577   , -0.0002760622, -0.00134215318, -0.000108836233, -0.228394225, -0.134083867, 0.452608883 , -0.008926653, -0.008781514, 2.63097024  , 4.51        , 3           , 12          , 0.06824295  , 0
-0.106368236, 0.0908922255, -9.78634548 , 0.000568675 , -0.000773292, 0.000319788523, -0.228529051, -0.134083867, 0.452406645 , -0.00892099552, -0.008789219, 2.630973    , 4.52        , 3           , 50          , 0           , 0
-0.101377942, 0.09128794  , -9.78720951 , 0.000565642258, -0.0002101629, -0.00010314973, -0.228529051, -0.134083867, 0.452406645 , -0.008915329, -0.008791329, 2.63097215  , 4.53        , 3           , 11          , 0.00600980176, 0.006009781
-0.0981222  , 0.102032989 , -9.77358    , -0.00168549 , -0.00191483344, -0.000257557549, -0.228326812, -0.1342187  , 0.452474058 , -0.008932164, -0.0088105  , 2.63097024  , 4.54        , 3           , 12          , 0.06824295  , 0
-0.0909488648, 0.0938559547, -9.782147   , -0.002109827, -0.00177691586, -0.000259315944, -0.228663877, -0.134083867, 0.4527437   , -0.008953241, -0.008828293, 2.63096738  , 4.55        , 3           , 50          , 0           , 0
-0.08654624 , 0.0704911   , -9.826506   , 0.000137901588, 0.000631667732, 3.7445443E-05, -0.2282594  , -0.134420931, 0.452271819 , -0.008951863, -0.008821973, 2.63096786  , 4.56        , 3           , 11          , 0.00600980176, 0.006009781
-0.08300583 , 0.06815049  , -9.813831   , 0.00126723817, 0.000780091737, 0.000608005037, -0.2282594  , -0.134420931, 0.452271819 , -0.008939244, -0.008814118, 2.630974    , 4.57        , 3           , 12          , 0.06824295  , 0
-0.08268043 , 0.097426936 , -9.799245   , 0.001970191 , 0.00134799536, 4.709034E-05, -0.228461638, -0.134353518, 0.452339232 , -0.00891954452, -0.008800633, 2.630974    , 4.58        , 3           , 50          , 0           , 0
-0.09528007 , 0.10522721  , -9.793884   , 0.001679237 , 0.003035475 , -0.000234160354, -0.228461638, -0.133949041, 0.452474058 , -0.00890272949, -0.008770301, 2.63097167  , 4.59        , 3           , 11          , 0.00600980176, 0.006009781
-0.09235396 , 0.09115593  , -9.779457   , -0.000580856053, 0.00216935133, 3.658137E-05, -0.2282594  , -0.134353518, 0.452541471 , -0.008924062, -0.008767602, 2.63097215  , 4.6         , 3           , 12          , 0.0693272948, 0
-0.08494638 , 0.0671741962, -9.785376   , -0.000712103967, 5.6655972E-05, -0.0008149441, -0.2282594  , -0.134353518, 0.452541471 , -0.00893111248, -0.0087671075, 2.63096452  , 4.61        , 3           , 50          , 0           , 0
-0.07227425 , 0.0941738337, -9.807314   , -0.0005685549, -0.0003647355, -0.0003911303, -0.228596464, -0.134353518, 0.452541471 , -0.008936766, -0.008770791, 2.63096023  , 4.62        , 3           , 11          , 0.00594605459, 0.00594602944
-0.109894708, 0.0919050947, -9.806707   , -0.001988193, 0.00117432338, -0.000112790716, -0.228663877, -0.13415128 , 0.452541471 , -0.008956635, -0.008759057, 2.6309588   , 4.63        , 3           , 12          , 0.0693272948, 0
-0.08710991 , 0.07442373  , -9.786719   , 0.000692652364, 0.00147402927, -0.00151253317, -0.228529051, -0.134353518, 0.452608883 , -0.008949574, -0.008744454, 2.63094354  , 4.64        , 3           , 50          , 0           , 0
-0.08031018 , 0.105074473 , -9.80055    , 0.002246163 , 0.00148453494, -0.00122275262, -0.228394225, -0.1342187  , 0.452339232 , -0.008927004, -0.008729716, 2.63093162  , 4.65        , 3           , 11          , 0.00594605459, 0.00594602944
-0.08744605 , 0.08345056  , -9.786232   , 0.0006982655, 0.000488554942, -0.000242633541, -0.228394225, -0.1342187  , 0.452339232 , -0.008920001, -0.008724854, 2.63092923  , 4.66        , 3           , 12          , 0.0693272948, 0
-0.07071461 , 0.07921923  , -9.793805   , -0.000990801, -0.000649165653, -0.0003935397, -0.228596464, -0.134353518, 0.452541471 , -0.008929875, -0.00873138 , 2.63092542  , 4.67        , 3           , 50          , 0           , 0
-0.06397458 , 0.10982158  , -9.793175   , -0.0005690887, -0.000223952185, -0.000108375847, -0.228394225, -0.134353518, 0.452608883 , -0.008935556, -0.008733628, 2.63092446  , 4.68        , 3           , 11          , 0.00594605459, 0.00594602944
-0.09220964 , 0.0921655744, -9.81154251 , -0.0009867449, -0.00135307538, 0.0005942567, -0.228326812, -0.134353518, 0.452541471 , -0.008945477, -0.008747106, 2.63093019  , 4.69        , 3           , 12          , 0.0693272948, 0
-0.09711391 , 0.0971957743, -9.814271   , -0.0002961722, 0.00034726  , 0.0015891036, -0.228326812, -0.134353518, 0.452541471 , -0.008972919, -0.008723997, 2.630946    , 4.7         , 3           , 50          , 0           , 0
-0.09610525 , 0.0754716545, -9.798534   , -0.0004380828, 0.000487087527, 0.001588662 , -0.228596464, -0.1342187  , 0.452406645 , -0.008977436, -0.008718983, 2.63096166  , 4.71        , 3           , 11          , 0.005884524 , 0.005884499
-0.09153362 , 0.08170287  , -9.788982   , -0.0007154231, -0.0006410852, 0.0007379971, -0.228461638, -0.1342187  , 0.452608883 , -0.008984657, -0.008725327, 2.63096929  , 4.72        , 3           , 12          , 0.070414044 , 0
-0.08627088 , 0.100173339 , -9.798357   , 0.00125668582, 0.000357762328, 0.0007487344, -0.228191987, -0.134420931, 0.452474058 , -0.008972156, -0.008721682, 2.630977    , 4.73        , 3           , 50          , 0           , 0
-0.09841982 , 0.102610409 , -9.809738   , -0.0004340195, -0.0004983943, 0.000174456145, -0.228191987, -0.134420931, 0.452474058 , -0.008976511, -0.008726651, 2.63097882  , 4.74        , 3           , 11          , 0.005884524 , 0.005884499
-0.101928473, 0.0800553039, -9.799464   , -0.0011313518, -0.00233334373, -0.000396731659, -0.228663877, -0.134420931, 0.452339232 , -0.008987792, -0.008750019, 2.630975    , 4.75        , 3           , 12          , 0.070414044 , 0
-0.09472728 , 0.0843986   , -9.774531   , 0.0009883622, -0.00245979754, 0.00102561561, -0.2282594  , -0.1342861  , 0.452541471 , -0.008978001, -0.008774524, 2.6309855   , 4.76        , 3           , 50          , 0           , 0
-0.0973022  , 0.0845454   , -9.808901   , 0.00253428728, -0.0009006837, 0.00145905151, -0.228326812, -0.134353518, 0.452406645 , -0.008952786, -0.008783399, 2.6309998   , 4.77        , 3           , 11          , 0.005884524 , 0.005884499
-0.09550761 , 0.08227897  , -9.81206    , 0.0009789747, -0.0006296262, 0.000463361182, -0.228326812, -0.134353518, 0.452406645 , -0.008943037, -0.008789654, 2.63100457  , 4.78        , 3           , 12          , 0.070414044 , 0
-0.08870244 , 0.08265643  , -9.813815   , 0.000128127664, 6.855617E-05, 0.0003192266, -0.228394225, -0.1342187  , 0.452541471 , -0.0089417845, -0.008788939, 2.631008    , 4.79        , 3           , 50          , 0           , 0
-0.10623534 , 0.09412438  , -9.808477   , -0.0005720639, -0.0006559956, 0.000173473483, -0.228461638, -0.1342861  , 0.452608883 , -0.008939535, -0.008846754, 2.63101029  , 4.8         , 3           , 11          , 0.00582422968, 0.00582421152
-0.09399917 , 0.0962214842, -9.803855   , -0.000570136064, -0.00107834407, -0.000109714892, -0.228191987, -0.1342187  , 0.4526763   , -0.008945228, -0.008857545, 2.63100934  , 4.81        , 3           , 12          , 0.0715028942, 0
-0.08244496 , 0.1159181   , -9.79735851 , 0.000421887322, -0.00191635743, -0.00123655738, -0.228191987, -0.1342187  , 0.4526763   , -0.008940902, -0.008876819, 2.630997    , 4.82        , 3           , 50          , 0           , 0
-0.106957614, 0.08007447  , -9.787751   , -0.000423917634, -0.002203652, -0.00109967333, -0.228461638, -0.1342187  , 0.452474058 , -0.008945044, -0.008898953, 2.630986    , 4.83        , 3           , 11          , 0.00582422968, 0.00582421152
-0.09992158 , 0.09269046  , -9.806628   , -0.0005773508, 0.0003294802, -0.000531351368, -0.228461638, -0.1342187  , 0.452474058 , -0.008950768, -0.008895706, 2.63098073  , 4.84        , 3           , 12          , 0.0715028942, 0
-0.0999616459, 0.09399705  , -9.792611   , -1.49144171E-05, 0.0007556462, -0.00109314162, -0.228461638, -0.1342861  , 0.452474058 , -0.008950821, -0.008888248, 2.63096976  , 4.85        , 3           , 50          , 0           , 0
-0.108336367, 0.07516403  , -9.79863    , -0.00212418032, -0.0009480662, -0.000116741125, -0.228461638, -0.1342861  , 0.452474058 , -0.008972053, -0.00889773853, 2.63096833  , 4.86        , 3           , 11          , 0.00582422968, 0.00582421152
-0.08160211 , 0.084239915 , -9.773075   , -0.0009959928, -0.000518076, 0.000878058665, -0.228866115, -0.134083867, 0.452406645 , -0.008982092, -0.00890284 , 2.63097739  , 4.87        , 3           , 12          , 0.0715028942, 0
-0.09189603 , 0.09561828  , -9.766327   , 0.00210270868, 0.00105154  , 0.0003298566, -0.228663877, -0.13415128 , 0.452541471 , -0.008961094, -0.008892296, 2.63098073  , 4.88        , 3           , 50          , 0           , 0
-0.07227324 , 0.07059224  , -9.77261    , 0.000696891744, -0.000365838525, -0.000809047662, -0.2282594  , -0.134353518, 0.452474058 , -0.008954053, -0.008896027, 2.63097262  , 4.89        , 3           , 11          , 0.00582422968, 0.00582421152
-0.0699003339, 0.07422476  , -9.787492   , 0.000268816046, 0.001028602 , -0.000808955054, -0.2282594  , -0.134353518, 0.452474058 , -0.008942922, -0.00892056152, 2.63096452  , 4.9         , 3           , 12          , 0.07259353  , 0
-0.06565992 , 0.08859411  , -9.781524   , 0.0002698765, 0.00102860725, 0.00102753867, -0.228326812, -0.1342861  , 0.452474058 , -0.008940313, -0.008910185, 2.63097453  , 4.91        , 3           , 50          , 0           , 0
-0.08413488 , 0.0884380043, -9.804716   , -0.00155367819, -0.00151789491, 0.000449998333, -0.228461638, -0.134016454, 0.452608883 , -0.008955892, -0.008925323, 2.63097882  , 4.92        , 3           , 11          , 0.00576544134, 0.0057654134
-0.07266628 , 0.105833486 , -9.78467    , -0.00141611288, -0.0008130279, 0.000169204039, -0.2282594  , -0.134555757, 0.452541471 , -0.00897007 , -0.008933438, 2.63098073  , 4.93        , 3           , 12          , 0.07259353  , 0
-0.09772141 , 0.09216586  , -9.792602   , -0.000145192171, -0.000804432959, 0.000175130263, -0.2282594  , -0.134555757, 0.452541471 , -0.00897153653, -0.008941466, 2.63098264  , 4.94        , 3           , 50          , 0           , 0
-0.09828953 , 0.08493612  , -9.787664   , 0.00042507422, -0.001926874, -0.00010650912, -0.228529051, -0.134353518, 0.452339232 , -0.008967278, -0.008960743, 2.63098168  , 4.95        , 3           , 11          , 0.00576544134, 0.0057654134
-0.08797684 , 0.07625107  , -9.790333   , -0.000132646208, -0.00333851855, 0.000171224849, -0.228529051, -0.133881629, 0.452474058 , -0.00896862149, -0.008994112, 2.63098359  , 4.96        , 3           , 12          , 0.07259353  , 0
-0.08132799 , 0.0969598442, -9.799236   , -0.0007061085, -0.00165294937, -0.000252611557, -0.228326812, -0.134353518, 0.452406645 , -0.008975662, -0.009010663, 2.63098168  , 4.97        , 3           , 50          , 0           , 0
-0.08324657 , 0.0928768963, -9.78616    , 0.000128996631, 0.000746082165, -0.0008100473, -0.228326812, -0.134353518, 0.452406645 , -0.008974299, -0.009003276, 2.630973    , 4.98        , 3           , 11          , 0.00576544134, 0.0057654134
-0.09728091 , 0.0881334543, -9.802558   , -0.000576455, 0.000600524363, -0.0009548254, -0.228461638, -0.1342861  , 0.452339232 , -0.008979976, -0.00899735652, 2.63096356  , 4.99        , 3           , 12          , 0.07259353  , 0
-0.103697821, 0.08368124  , -9.798106   , -0.00113222713, -0.0016546821, -0.0005370941, -0.228596464, -0.13415128 , 0.452339232 , -0.008999066, -0.009010128, 2.6309588   , 5           , 3           , 50          , 0           , 0
-0.0739392  , 0.0778727457, -9.784796   , -0.0009878179, -0.0022168553, 0.000169040082, -0.228394225, -0.134555757, 0.4526763   , -0.009008962, -0.009032279, 2.6309607   , 5.01        , 3           , 11          , 0.00570833264, 0.005708302
-0.0867283344, 0.09124787  , -9.825968   , 0.000267234922, 0.00102973869, 0.000462493976, -0.228394225, -0.134555757, 0.4526763   , -0.009006331, -0.00902194 , 2.630965    , 5.02        , 3           , 12          , 0.07368568  , 0
-0.117115669, 0.09111658  , -9.815353   , 0.0020935405, 0.00287232455, -0.000232468941, -0.228191987, -0.134353518, 0.452339232 , -0.008985372, -0.008993239, 2.63096261  , 5.03        , 3           , 50          , 0           , 0
-0.112314545, 0.08020023  , -9.806322   , 0.00111255038, 0.00131703075, -0.0005220023, -0.228394225, -0.13415128 , 0.452474058 , -0.008974198, -0.008980116, 2.630957    , 5.04        , 3           , 11          , 0.00570833264, 0.005708302
-0.09181826 , 0.062279176 , -9.781833   , -9.615968E-06, -9.843184E-05, 0.000459441362, -0.2282594  , -0.133949041, 0.4526763   , -0.008974337, -0.008981059, 2.63096166  , 5.05        , 3           , 12          , 0.07368568  , 0
-0.07878644 , 0.09455426  , -9.763972   , 0.0008317994, 0.00117434282, 0.00117168855, -0.2282594  , -0.133949041, 0.4526763   , -0.008966122, -0.008969209, 2.630973    , 5.06        , 3           , 50          , 0           , 0
-0.08922604 , 0.0852824748, -9.788045   , 0.0018238601, 0.000477115478, 0.00131648174, -0.228596464, -0.1342187  , 0.4522044   , -0.008948002, -0.00896432 , 2.63098645  , 5.07        , 3           , 11          , 0.00570833264, 0.005708302
-0.08997516 , 0.0600520521, -9.796743   , 0.00324148824, -0.0006395953, 0.001180062 , -0.228461638, -0.134016454, 0.452339232 , -0.0089156935, -0.008970612, 2.63099885  , 5.08        , 3           , 12          , 0.07368568  , 0
-0.08374741 , 0.08837977  , -9.788895   , 0.0005595011, -0.0009393067, 0.0006020421, -0.228394225, -0.134083867, 0.452608883 , -0.008910153, -0.00897995 , 2.63100457  , 5.09        , 3           , 50          , 0           , 0
-0.07232028 , 0.102617212 , -9.768862   , -0.00422613043, -0.0018216545, 0.0002957192, -0.228461638, -0.134353518, 0.452339232 , -0.008912452, -0.009015999, 2.63100743  , 5.1         , 3           , 11          , 0.00565269357, 0.005652659
