Acc X       , Acc Y       , Acc Z       , Gyro X      , Gyro Y      , Gyro Z      , Magn X      , Magn Y      , Magn Z      , Euler X     , Euler Y     , Euler Z     , Time        , Status      , LowRate X   , LowRate Y   , LowRate Z    
0.394729018 , 0.03989041  , -9.783628   , -0.0009151809, -0.00206520315, 0.000475649518, -0.184508562, -0.160172582, 0.421666443 , -0.004346015, 0.03879424  , 2.38572478  , 0           , 3           , 11          , 0.0346410163, 0.0346410163
0.407127619 , 0.05506335  , -9.776691   , -0.00078847853, 0.0007513998, -0.00050823373, -0.184508562, -0.16024    , 0.421531618 , -0.004354097, 0.03880174  , 2.38571954  , 0.01        , 3           , 12          , 0.0346410163, 0
0.368094385 , 0.0420539975, -9.797382   , -0.0006459971, 0.000611575 , 0.00048108882, -0.184373736, -0.159498453, 0.42159903  , -0.004360371, 0.0388078727, 2.38572431  , 0.02        , 3           , 50          , 0           , 0
0.351769745 , 0.0395475179, -9.80023    , -0.00219015777, -0.00136988808, -0.0005180729, -0.184238911, -0.15990293 , 0.4219361   , -0.00438247155, 0.0387941524, 2.38571954  , 0.03        , 3           , 11          , 0.0346410163, 0.0346410163
0.375165045 , 0.0235276856, -9.814129   , -0.00078138255, -0.0007972108, -0.00149950141, -0.184238911, -0.15990293 , 0.421733856 , -0.00439086743, 0.0387861133, 2.38570428  , 0.04        , 3           , 12          , 0.0346410163, 0
0.3782658   , 0.03146908  , -9.771585   , -7.601253E-05, -0.0006516532, -0.00149599218, -0.184238911, -0.15990293 , 0.421733856 , -0.00439220667, 0.03877953  , 2.385689    , 0.05        , 3           , 50          , 0           , 0
0.385512918 , 0.0246908367, -9.793707   , 0.000771142 , -0.0005051381, -0.0005029433, -0.184306324, -0.15990293 , 0.421666443 , -0.004384688, 0.0387744568, 2.38568425  , 0.06        , 3           , 11          , 0.0346410163, 0.0346410163
0.391092718 , 0.03099458  , -9.809004   , 0.00161017722, 0.00133076881, 0.0009165155, -0.184373736, -0.1597681  , 0.421733856 , -0.004368232, 0.0387878045, 2.38569379  , 0.07        , 3           , 12          , 0.0346410163, 0
0.3819973   , 0.0328540877, -9.793699   , 0.0020356637, 0.000911284762, 0.0004940338, -0.184441149, -0.159970343, 0.421666443 , -0.00434768246, 0.03879694  , 2.38569856  , 0.08        , 3           , 50          , 0           , 0
0.384480983 , 0.0553230867, -9.775056   , 0.00274804817, -0.0004917688, -0.000634993368, -0.184441149, -0.159970343, 0.421666443 , -0.004320448, 0.03879199  , 2.385692    , 0.09        , 3           , 11          , 0.0346410163, 0.0346410163
0.375249177 , 0.0365400054, -9.792831   , 0.0009156773, -0.00120809663, -0.000785906566, -0.184575975, -0.15990293 , 0.4214642   , -0.00431159465, 0.0387798771, 2.38568425  , 0.1         , 3           , 12          , 0.0346410163, 0
0.360855848 , 0.03768045  , -9.813276   , -0.00133984431, -0.001927287, -9.118326E-05, -0.184643388, -0.159970343, 0.421666443 , -0.00432502525, 0.0387606   , 2.3856833   , 0.11        , 3           , 50          , 0           , 0
0.3885446   , 0.0223101843, -9.767478   , 0.0006359939, -0.00163235108, 0.000342275482, -0.1841715  , -0.15990293 , 0.421801269 , -0.004318528, 0.0387442857, 2.385687    , 0.12        , 3           , 11          , 0.0346410163, 0.0346410163
0.364710361 , 0.0267414711, -9.794309   , 0.00119207567, 6.08572918E-05, -0.000358830672, -0.1841715  , -0.15990293 , 0.421801269 , -0.00430674851, 0.0387448855, 2.3856833   , 0.13        , 3           , 12          , 0.0346410163, 0
0.356506348 , 0.02456175  , -9.788505   , 0.0003394268, 0.0010406028, -0.00120887533, -0.184441149, -0.1597681  , 0.421531618 , -0.00430382462, 0.0387552381, 2.38567138  , 0.14        , 3           , 50          , 0           , 0
0.3841083   , 0.0603031628, -9.778654   , 0.00146929722, 0.00104824349, -0.0009210702, -0.184441149, -0.1597681  , 0.421666443 , -0.0042894925, 0.03876568  , 2.38566232  , 0.15        , 3           , 11          , 0.0346410163, 0.0346410163
0.3595603   , 0.0547086149, -9.773892   , -0.000931864663, 0.00117279193, -0.000649509544, -0.184441149, -0.160172582, 0.421733856 , -0.00429906463, 0.03877738  , 2.38565564  , 0.16        , 3           , 12          , 0.0346410163, 0
0.372475743 , 0.0329551324, -9.7906065  , -0.000929981063, 0.0008912293, 0.000197669 , -0.184441149, -0.160037756, 0.42159903  , -0.004308289, 0.0387863   , 2.38565755  , 0.17        , 3           , 50          , 0           , 0
0.378711462 , 0.0243163966, -9.792855   , 0.0006300473, -0.0003653068, 0.0009093029, -0.184441149, -0.160037756, 0.42159903  , -0.004301633, 0.038782686 , 2.38566613  , 0.18        , 3           , 11          , 0.0346410163, 0.0346410163
0.371430069 , 0.0199080873, -9.798353   , 0.0004894122, -0.0006478307, -0.000504476833, -0.184508562, -0.159835517, 0.421733856 , -0.004296936, 0.0387761854, 2.38566136  , 0.19        , 3           , 12          , 0.0346410163, 0
0.388330221 , 0.0372382626, -9.777813   , 0.000768891943, -8.27946351E-05, -0.0007848268, -0.184441149, -0.1597681  , 0.421868682 , -0.004289417, 0.0387752242, 2.38565373  , 0.2         , 3           , 50          , 0           , 0
0.372295    , 0.0229889862, -9.778446   , 0.000208954429, -0.000931306335, 0.00048265612, -0.184373736, -0.160105169, 0.421666443 , -0.00428714044, 0.03876593  , 2.3856585   , 0.21        , 3           , 11          , 0.03466991  , 0.03466991
0.354115158 , 0.0137727913, -9.792184   , 0.000350620074, -0.00107113516, 5.929137E-05, -0.184373736, -0.160105169, 0.421666443 , -0.00428361027, 0.0387552232, 2.38565946  , 0.22        , 3           , 12          , 0.03466882  , 0
0.3806535   , 0.0400234461, -9.774244   , 0.000490194769, -0.000788616133, -0.000363422441, -0.184306324, -0.159970343, 0.421666443 , -0.00427884934, 0.03874732  , 2.38565564  , 0.23        , 3           , 50          , 0           , 0
0.377065629 , 0.04634278  , -9.762494   , 0.0002037863, 0.000194955923, 0.00119073538, -0.184373736, -0.15990293 , 0.421868682 , -0.004276351, 0.03874932  , 2.385667    , 0.24        , 3           , 11          , 0.03466991  , 0.03466991
0.386907369 , 0.0255968478, -9.799567   , -0.00233932328, 0.000318545965, 0.000190218881, -0.184238911, -0.159700692, 0.421666443 , -0.004299671, 0.0387525149, 2.385669    , 0.25        , 3           , 12          , 0.03466882  , 0
0.401615679 , 0.0497072823, -9.774948   , -0.00360896857, -0.000112400448, -0.00122904556, -0.184238911, -0.159700692, 0.421666443 , -0.004336239, 0.0387513377, 2.3856566   , 0.26        , 3           , 50          , 0           , 0
0.3916982   , 0.0485206544, -9.789944   , -0.00162644917, -0.00108450523, -9.11959942E-05, -0.184238911, -0.159970343, 0.421868682 , -0.00435253559, 0.0387404934, 2.385656    , 0.27        , 3           , 11          , 0.03466991  , 0.03466991
0.3992666   , 0.0429696068, -9.775899   , 0.0007759807, -0.00134983356, 0.0006259077, -0.184306324, -0.159835517, 0.421666443 , -0.004344531, 0.03872702  , 2.38566232  , 0.28        , 3           , 12          , 0.03466882  , 0
0.380307227 , 0.0454713032, -9.782813   , 0.00105172663, -8.088275E-05, -7.716626E-05, -0.1841715  , -0.1597681  , 0.421868682 , -0.00433404231, 0.0387262031, 2.38566136  , 0.29        , 3           , 50          , 0           , 0
0.3556673   , 0.0237335786, -9.807497   , -0.000199236529, -0.00183133781, -0.0005090863, -0.1841715  , -0.1597681  , 0.421868682 , -0.004099221, 0.03907706  , 2.38566613  , 0.3         , 3           , 11          , 0.03475343  , 0.03475343
0.384865284 , 0.0458889455, -9.788651   , -0.000415935676, -0.00084729254, -0.000508555269, -0.184441149, -0.159835517, 0.42159903  , -0.004103578, 0.0390685648, 2.385661    , 0.31        , 3           , 12          , 0.0347539037, 0
0.387175977 , 0.04857835  , -9.791334   , -0.00175504235, -0.00141949684, -0.00115138793, -0.184373736, -0.159700692, 0.4219361   , -0.004121575, 0.039054323 , 2.38564944  , 0.32        , 3           , 50          , 0           , 0
0.378635854 , 0.0229160786, -9.778851   , 0.001839278 , -5.77106E-05, -0.00113253586, -0.184238911, -0.159700692, 0.4219361   , -0.00410362566, 0.0390536971, 2.385638    , 0.33        , 3           , 11          , 0.03475343  , 0.03475343
0.372237325 , 0.0180323683, -9.780275   , 0.00360323372, 0.000306185568, -0.000205515913, -0.184238911, -0.159700692, 0.4219361   , -0.00406767428, 0.0390567519, 2.38563561  , 0.34        , 3           , 12          , 0.0347539037, 0
0.378507853 , 0.043716684 , -9.791421   , -0.0009094893, -0.0008506318, 0.0006899242, -0.184306324, -0.15990293 , 0.421666443 , -0.00407649949, 0.0390482768, 2.38564277  , 0.35        , 3           , 50          , 0           , 0
0.404328316 , 0.0389596336, -9.808418   , -0.000136912407, -0.000141469543, -0.0003648848, -0.184373736, -0.159633279, 0.4219361   , -0.004078011, 0.0390468463, 2.38563943  , 0.36        , 3           , 11          , 0.03475343  , 0.03475343
0.410091043 , 0.0307561979, -9.80434    , -0.000205446631, -0.0006346877, -0.00100168271, -0.184104085, -0.159835517, 0.421801269 , -0.004080455, 0.0390404575, 2.385629    , 0.37        , 3           , 12          , 0.0347539037, 0
0.392335624 , 0.0286533218, -9.788214   , -0.00133742671, -0.000290373748, -0.0019246547, -0.184104085, -0.159835517, 0.421801269 , -0.00409457926, 0.03903748  , 2.38560987  , 0.38        , 3           , 50          , 0           , 0
0.38920173  , 0.0416635573, -9.755189   , -0.0005638744, 0.000559579 , -8.323792E-05, -0.184441149, -0.159970343, 0.4214642   , -0.00410025148, 0.03904307  , 2.385609    , 0.39        , 3           , 11          , 0.03475343  , 0.03475343
0.398390949 , 0.01808299  , -9.752505   , 0.00023868063, -3.88930166E-05, 0.000414847134, -0.184441149, -0.159835517, 0.421868682 , -0.0038907337, 0.0393168963, 2.38562131  , 0.4         , 3           , 12          , 0.0348954   , 0
0.3641408   , 0.022635024 , -9.778963   , 0.000378233119, 0.000314018718, 0.0005573169, -0.184441149, -0.159970343, 0.422138333 , -0.00388673088, 0.03932006  , 2.385627    , 0.41        , 3           , 50          , 0           , 0
0.374606729 , 0.054617852 , -9.799089   , 0.00270411326, 0.00117447122, 0.000640117738, -0.1841715  , -0.16024    , 0.421666443 , -0.00385944 , 0.0393318273, 2.38563371  , 0.42        , 3           , 11          , 0.0177101   , 0.0177102275
0.388332725 , 0.0381330065, -9.77555    , 0.000727681443, 0.0009499254, -0.000217038541, -0.1841715  , -0.16024    , 0.421666443 , -0.00385225 , 0.03934132  , 2.38563085  , 0.43        , 3           , 12          , 0.0348954   , 0
0.385002077 , 0.0268808547, -9.772457   , -0.000604213856, -0.000889316958, 0.0007627666, -0.184306324, -0.1603074  , 0.4219361   , -0.00385799119, 0.0393324569, 2.38563848  , 0.44        , 3           , 50          , 0           , 0
0.363602161 , 0.0474922359, -9.788807   , 0.00348982541, -0.000580056338, 0.0012061022, -0.184238911, -0.15990293 , 0.421801269 , -0.00382261723, 0.0393267   , 2.38565087  , 0.45        , 3           , 11          , 0.0177101   , 0.0177102275
0.3910318   , 0.0318379141, -9.791374   , 0.00278716977, -0.00157031615, -0.00134154619, -0.184104085, -0.15990293 , 0.421666443 , -0.003795271, 0.03931095  , 2.38563752  , 0.46        , 3           , 12          , 0.0348954   , 0
0.3827921   , 0.05678247  , -9.800374   , 0.00440312643, 0.00013005847, -0.0006956608, -0.184104085, -0.15990293 , 0.421666443 , -0.00375151122, 0.0393122174, 2.38563085  , 0.47        , 3           , 50          , 0           , 0
0.372328162 , 0.06266688  , -9.769694   , 0.00178446481, 0.00144982722, 5.62317837E-07, -0.184441149, -0.1597681  , 0.421666443 , -0.00373366917, 0.03932672  , 2.38563085  , 0.48        , 3           , 11          , 0.0177101   , 0.0177102275
0.3593764   , 0.04295449  , -9.76671    , 0.000652217946, 0.00186453271, -0.0007810326, -0.184306324, -0.159700692, 0.421733856 , -0.003727457, 0.0393453352, 2.38562274  , 0.49        , 3           , 12          , 0.0348954   , 0
0.354921341 , 0.04306661  , -9.784372   , 0.00188388734, 0.00147394266, -0.00148377137, -0.184373736, -0.1597681  , 0.4219361   , -0.00390477432, 0.03913276  , 2.38560033  , 0.5         , 3           , 50          , 0           , 0
0.3906912   , 0.0372903049, -9.801298   , 0.0008349898, -0.000363387429, 0.000486231875, -0.184373736, -0.1597681  , 0.4219361   , -0.00389623456, 0.03912914  , 2.385605    , 0.51        , 3           , 11          , 0.01344077  , 0.0134408688
0.373480827 , 0.0339178629, -9.811839   , -8.406167E-05, -0.000299207342, -0.000930627, -0.184373736, -0.1597681  , 0.421733856 , -0.00389744015, 0.03912612  , 2.38559556  , 0.52        , 3           , 12          , 0.03509219  , 0
0.3639421   , 0.06606806  , -9.812231   , 0.000828368356, 0.000974046765, 0.0004882931, -0.184306324, -0.159835517, 0.421868682 , -0.00388896861, 0.0391358845, 2.38560033  , 0.53        , 3           , 50          , 0           , 0
0.383100569 , 0.0481795743, -9.792723   , 0.000113592272, 0.00258826767, -0.00071328826, -0.184306324, -0.159835517, 0.421801269 , -0.00388811575, 0.0391617343, 2.38559365  , 0.54        , 3           , 11          , 0.01344077  , 0.0134408688
0.3716836   , 0.04778723  , -9.770665   , -2.04249718E-05, 0.00110909564, -0.000928128, -0.184306324, -0.159835517, 0.421801269 , -0.00388868572, 0.0391727947, 2.385584    , 0.55        , 3           , 12          , 0.03509219  , 0
0.3740085   , 0.0495954938, -9.77968    , 0.0009073205, -0.0007852592, -0.00014979906, -0.184238911, -0.160037756, 0.42159903  , -0.00387966982, 0.03916493  , 2.38558221  , 0.56        , 3           , 50          , 0           , 0
0.3700128   , 0.0510466881, -9.79462    , -0.00114414468, -0.000165588586, -0.00142978912, -0.184373736, -0.159565866, 0.421801269 , -0.00389166921, 0.0391632169, 2.385568    , 0.57        , 3           , 11          , 0.01344077  , 0.0134408688
0.3697049   , 0.03294318  , -9.777521   , 0.00040071283, 0.00167509168, -0.000430844259, -0.184441149, -0.159835517, 0.4219361   , -0.0038878317, 0.0391799472, 2.385564    , 0.58        , 3           , 12          , 0.03509219  , 0
0.369678617 , 0.0551652759, -9.810424   , 0.0009770041, -0.000573607336, 6.275869E-05, -0.184441149, -0.159835517, 0.4219361   , -0.003878036, 0.03917421  , 2.38556457  , 0.59        , 3           , 50          , 0           , 0
0.377693236 , 0.0558524653, -9.774653   , 0.00209419662, 0.00159543671, -0.00162653835, -0.184238911, -0.159700692, 0.421733856 , -0.0040702126, 0.0389163271, 2.38554025  , 0.6         , 3           , 11          , 0.011354832 , 0.0113548636
0.381675839 , 0.0441245735, -9.789587   , 0.00125673367, -0.000310855685, -0.000927074463, -0.184306324, -0.159633279, 0.421868682 , -0.00405800529, 0.0389131829, 2.38553071  , 0.61        , 3           , 12          , 0.03534294  , 0
0.392700821 , 0.0236672014, -9.782808   , -0.00064698176, -0.000886878755, -0.00114873471, -0.184373736, -0.159835517, 0.42207092  , -0.004064922, 0.0389042646, 2.38551927  , 0.62        , 3           , 50          , 0           , 0
0.4052229   , 0.0442962945, -9.788503   , -0.000502717041, -0.00137865962, -8.932018E-05, -0.184306324, -0.160037756, 0.421531618 , -0.00406998 , 0.03889047  , 2.38551831  , 0.63        , 3           , 11          , 0.011354832 , 0.0113548636
0.364154726 , 0.04622872  , -9.817284   , 0.000119274118, 0.00137089775, 0.000129776818, -0.184306324, -0.160037756, 0.421531618 , -0.004068739, 0.0389041826, 2.38551927  , 0.64        , 3           , 12          , 0.03534294  , 0
0.3846767   , 0.03279196  , -9.784639   , 0.00153540866, 0.00046535852, -0.0007832955, -0.184373736, -0.159835517, 0.4219361   , -0.00405369 , 0.0389088131, 2.38551164  , 0.65        , 3           , 50          , 0           , 0
0.3967366   , 0.0258191749, -9.766045   , -0.000153409608, -0.000813146762, -0.00171139662, -0.184508562, -0.159700692, 0.421733856 , -0.00405589072, 0.0389006063, 2.38549447  , 0.66        , 3           , 11          , 0.011354832 , 0.0113548636
0.390142143 , 0.0332004875, -9.790924   , -0.001071052, -0.000819352863, -0.00129187037, -0.184306324, -0.15990293 , 0.421666443 , -0.004067101, 0.03889236  , 2.385482    , 0.67        , 3           , 12          , 0.03534294  , 0
0.374365181 , 0.065506734 , -9.815769   , -0.00240696617, -0.00181389938, -2.82260662E-05, -0.184306324, -0.15990293 , 0.421666443 , -0.004091177, 0.0388742164, 2.3854816   , 0.68        , 3           , 50          , 0           , 0
0.3706722   , 0.02807269  , -9.8082695  , -0.00135046837, -0.00131399906, -0.0003050655, -0.184306324, -0.159970343, 0.421801269 , -0.00410479773, 0.03886106  , 2.38547826  , 0.69        , 3           , 11          , 0.011354832 , 0.0113548636
0.367463    , 0.040129222 , -9.759881   , -0.00214009 , 0.000648706569, 0.000541806337, -0.184373736, -0.1597681  , 0.421868682 , -0.004133787, 0.03886121  , 2.3854835   , 0.7         , 3           , 12          , 0.03564607  , 0
0.377471447 , 0.04585305  , -9.752549   , -0.000656607735, 0.0003771658, -0.0005818636, -0.184441149, -0.159835517, 0.421868682 , -0.00414057868, 0.03886496  , 2.38547778  , 0.71        , 3           , 50          , 0           , 0
0.384490967 , 0.0486359447, -9.799039   , -0.0008754388, 0.00178355863, -0.0006513159, -0.184441149, -0.159835517, 0.421868682 , -0.00414959062, 0.0388827659, 2.385471    , 0.72        , 3           , 11          , 0.0101337619, 0.0101337628
0.3809241   , 0.050508786 , -9.806742   , -0.00179080456, 0.00128461258, -0.0005150866, -0.184306324, -0.159700692, 0.421666443 , -0.00416769926, 0.03889559  , 2.38546586  , 0.73        , 3           , 12          , 0.03564607  , 0
0.364872336 , 0.03401433  , -9.810548   , 0.000118609 , 0.0007343759, -8.3259074E-05, -0.184441149, -0.1597681  , 0.421801269 , -0.004166547, 0.03890293  , 2.385465    , 0.74        , 3           , 50          , 0           , 0
0.378278852 , 0.03147966  , -9.77475    , -0.00022772151, -0.000605445355, 5.430228E-05, -0.184441149, -0.1597681  , 0.421801269 , -0.00416880334, 0.0388968848, 2.38546586  , 0.75        , 3           , 11          , 0.0101337619, 0.0101337628
0.393718541 , 0.03669158  , -9.768282   , 0.00153640076, -0.0003823341, 6.28585549E-05, -0.184441149, -0.1597681  , 0.421801269 , -0.0041534137, 0.0388930626, 2.38546634  , 0.76        , 3           , 12          , 0.03564607  , 0
0.380522549 , 0.056804508 , -9.799035   , 0.00160885358, -0.0008042054, -0.000361269165, -0.184508562, -0.1597681  , 0.421531618 , -0.004137464, 0.038885    , 2.385463    , 0.77        , 3           , 50          , 0           , 0
0.3745221   , 0.053656593 , -9.781467   , -0.000518961, 0.001082033 , -0.000721388846, -0.184306324, -0.159835517, 0.421868682 , -0.004142935, 0.038895797 , 2.38545537  , 0.78        , 3           , 11          , 0.0101337619, 0.0101337628
0.379673541 , 0.0301541016, -9.787852   , -0.0003178628, 0.003265595 , -0.00057576946, -0.184373736, -0.15990293 , 0.4219361   , -0.004146343, 0.0389284231, 2.38544965  , 0.79        , 3           , 12          , 0.03564607  , 0
0.3843131   , 0.04001116  , -9.783257   , 0.0005746716, 0.004797684 , -0.0004992496, -0.184373736, -0.15990293 , 0.4219361   , -0.00417019846, 0.0389387347, 2.385443    , 0.8         , 3           , 50          , 0           , 0
0.393342    , 0.03899045  , -9.779575   , 0.00185761973, 0.00262415526, 0.00162234472, -0.1841715  , -0.1597681  , 0.421666443 , -0.00415099459, 0.0389650427, 2.38545918  , 0.81        , 3           , 11          , 0.009379234 , 0.009379232
0.380912244 , 0.03227297  , -9.751675   , -9.61375044E-05, -0.002246216, 0.000192953346, -0.184441149, -0.159700692, 0.421868682 , -0.004151877, 0.0389425866, 2.38546157  , 0.82        , 3           , 12          , 0.03599985  , 0
0.382031053 , 0.0382376648, -9.7846365  , -0.000659081852, -0.00274277735, -0.0007286867, -0.184104085, -0.1597681  , 0.4219361   , -0.004158747, 0.03891513  , 2.38545442  , 0.83        , 3           , 50          , 0           , 0
0.4024976   , 0.0403041132, -9.799387   , -0.00186525739, -0.00162463589, -0.00122698862, -0.184104085, -0.1597681  , 0.4219361   , -0.00417787442, 0.03889883  , 2.385442    , 0.84        , 3           , 11          , 0.009379234 , 0.009379232
0.381901622 , 0.0621615574, -9.786799   , -0.000597291451, -0.000912125863, -0.000301730819, -0.1841715  , -0.15990293 , 0.42159903  , -0.00418396434, 0.0388897   , 2.38543916  , 0.85        , 3           , 12          , 0.03599985  , 0
0.3785646   , 0.0473334529, -9.793665   , -0.0032076526, -0.001211355, 0.000886437949, -0.184373736, -0.15990293 , 0.4219361   , -0.004215694, 0.03887762  , 2.38544774  , 0.86        , 3           , 50          , 0           , 0
0.382523984 , 0.0396039449, -9.790051   , -0.00299349288, -0.00177305471, 0.000109579763, -0.184441149, -0.159633279, 0.4220035   , -0.00424558157, 0.0388598926, 2.38544917  , 0.87        , 3           , 11          , 0.009379234 , 0.009379232
0.391989261 , 0.0390109271, -9.780942   , -0.0017246037, -0.00127171911, 0.000822608941, -0.184104085, -0.160037756, 0.421801269 , -0.004262507, 0.0388472155, 2.38545728  , 0.88        , 3           , 12          , 0.03599985  , 0
0.386089563 , 0.0359446555, -9.787779   , 0.00130406977, 1.58505827E-05, -0.00113904371, -0.184104085, -0.160037756, 0.421801269 , -0.00424991036, 0.0388473235, 2.38544583  , 0.89        , 3           , 50          , 0           , 0
0.396509349 , 0.03850511  , -9.7804575  , -0.00285200658, -0.00171074609, -0.000878364837, -0.184373736, -0.160037756, 0.42207092  , -0.004277595, 0.0389160626, 2.38543725  , 0.9         , 3           , 11          , 0.008914424 , 0.008914419
0.399317175 , 0.07328824  , -9.801536   , -0.0009443389, -0.00176824036, 0.0007550064, -0.184306324, -0.160105169, 0.4220035   , -0.004286739, 0.03889841  , 2.38544488  , 0.91        , 3           , 12          , 0.0364023969, 0
0.3827222   , 0.0504769348, -9.803564   , -0.00250272476, -0.000934054144, -0.000734256639, -0.184238911, -0.159970343, 0.42159903  , -0.0043120496, 0.0388890356, 2.38543725  , 0.92        , 3           , 50          , 0           , 0
0.367177367 , 0.04428712  , -9.787437   , -0.002796285, 0.00138694956, -9.6284406E-05, -0.184238911, -0.159970343, 0.42159903  , -0.004340052, 0.0389028974, 2.3854363   , 0.93        , 3           , 11          , 0.008914424 , 0.008914419
0.3853656   , 0.0445830971, -9.804472   , 0.000602509768, -0.000420301, 0.0009762138, -0.184306324, -0.1597681  , 0.421801269 , -0.004333647, 0.0388987325, 2.38544631  , 0.94        , 3           , 12          , 0.0364023969, 0
0.375816733 , 0.04555469  , -9.791885   , 0.00314386142, -0.0004031136, 0.000140453936, -0.184508562, -0.159498453, 0.421868682 , -0.00430215243, 0.03889471  , 2.38544774  , 0.95        , 3           , 50          , 0           , 0
0.3509677   , 0.05615702  , -9.772145   , 0.00363405235, 0.000304138783, -0.0008450378, -0.184238911, -0.160172582, 0.421666443 , -0.00426614331, 0.0388977155, 2.38543916  , 0.96        , 3           , 11          , 0.008914424 , 0.008914419
0.394492149 , 0.0597100966, -9.772701   , 0.00173269131, -0.0006238378, -7.725146E-06, -0.184238911, -0.160172582, 0.421666443 , -0.004248818, 0.0388914831, 2.38543916  , 0.97        , 3           , 12          , 0.0364023969, 0
0.4121374   , 0.0162701011, -9.79760551 , 0.000266100251, -0.00373107684, 0.001393275 , -0.184373736, -0.159970343, 0.421801269 , -0.004245608, 0.0388542265, 2.38545346  , 0.98        , 3           , 50          , 0           , 0
0.380627334 , 0.02973617  , -9.800954   , -0.0006698088, -6.54499672E-06, 0.00217172271, -0.184306324, -0.159700692, 0.42207092  , -0.004251464, 0.0388542525, 2.3854754   , 0.99        , 3           , 11          , 0.008914424 , 0.008914419
0.364240468 , 0.0262865722, -9.791602   , -3.330349E-05, -0.00134925358, 0.0008305243, -0.1847108  , -0.159970343, 0.421666443 , -0.004257941, 0.0389171056, 2.385483    , 1           , 3           , 12          , 0.0368517078, 0
0.3759607   , 0.0287842155, -9.770259   , 0.0002500242, -0.00148812518, 0.0011847961, -0.1847108  , -0.159970343, 0.421666443 , -0.004254975, 0.03890227  , 2.38549542  , 1.01        , 3           , 50          , 0           , 0
0.37628442  , 0.04556147  , -9.795498   , 0.00151664438, -0.0007756216, -0.000220880072, -0.184373736, -0.1597681  , 0.421868682 , -0.00423989352, 0.0388945043, 2.38549352  , 1.02        , 3           , 11          , 0.008636734 , 0.008636728
0.3790821   , 0.0491660051, -9.803597   , 0.004679944 , 0.00213190913, 0.000292823766, -0.184306324, -0.159835517, 0.421666443 , -0.00419298373, 0.03891584  , 2.385496    , 1.03        , 3           , 12          , 0.0368517078, 0
0.396116555 , 0.0390054174, -9.793566   , 0.00326969963, 0.00155922468, -0.00126858486, -0.184575975, -0.159633279, 0.421868682 , -0.00416078139, 0.03893137  , 2.385483    , 1.04        , 3           , 50          , 0           , 0
0.380687654 , 0.0382656977, -9.788262   , -0.0006753188, -0.000227295488, -0.0008659277, -0.184575975, -0.159633279, 0.421868682 , -0.004167872, 0.03892906  , 2.38547444  , 1.05        , 3           , 11          , 0.008636734 , 0.008636728
0.38749674  , 0.0440025628, -9.773724   , -0.0027872317, -0.001297484, 0.000959061552, -0.184373736, -0.1597681  , 0.421666443 , -0.004195367, 0.0389161259, 2.385484    , 1.06        , 3           , 12          , 0.0368517078, 0
0.399427921 , 0.0569371581, -9.770414   , -0.0006099395, 0.000829051 , -0.0008639714, -0.184575975, -0.159835517, 0.4220035   , -0.00420180429, 0.0389243737, 2.3854754   , 1.07        , 3           , 50          , 0           , 0
0.371812    , 0.0550328642, -9.77877    , -0.000397552067, 0.000971272064, 0.00132689893, -0.184238911, -0.160037756, 0.421801269 , -0.00420526462, 0.0389341451, 2.38548875  , 1.08        , 3           , 11          , 0.008636734 , 0.008636728
0.394106746 , 0.03261683  , -9.765584   , 0.0004510445, 0.000554650731, -1.18543085E-05, -0.184238911, -0.160037756, 0.421801269 , -0.00420076074, 0.0389396921, 2.38548875  , 1.09        , 3           , 12          , 0.0368517078, 0
0.3902204   , 0.0381737351, -9.794066   , 0.0007700607, 0.001390655 , -0.00036311298, -0.184104085, -0.160037756, 0.421733856 , -0.00422849972, 0.0390233025, 2.3854835   , 1.1         , 3           , 50          , 0           , 0
0.381599456 , 0.0391528457, -9.786897   , -0.000928826747, 0.00229428266, -1.64326266E-05, -0.184575975, -0.159835517, 0.4219361   , -0.00423779944, 0.0390462466, 2.385483    , 1.11        , 3           , 11          , 0.008481887 , 0.00848188
0.3785466   , 0.0482115746, -9.78643    , 0.0006273308, 0.00167126441, -0.00057524076, -0.184306324, -0.15990293 , 0.421868682 , -0.004231756, 0.0390629359, 2.3854773   , 1.12        , 3           , 12          , 0.0373456962, 0
0.4039995   , 0.0203928836, -9.787707   , 0.000907459063, 0.00223630713, 0.000274556456, -0.184238911, -0.159835517, 0.421666443 , -0.00422257558, 0.0390853062, 2.38548017  , 1.13        , 3           , 50          , 0           , 0
0.392905921 , 0.0363311879, -9.792246   , 0.0005621556, 0.000614919 , -0.000224025323, -0.184238911, -0.159835517, 0.421666443 , -0.004217043, 0.0390914455, 2.38547778  , 1.14        , 3           , 11          , 0.008481887 , 0.00848188
0.36294353  , 0.0312621556, -9.790688   , -0.00204873155, 0.000174901637, -0.0011551046, -0.184306324, -0.1597681  , 0.421801269 , -0.00423798 , 0.0390931442, 2.38546634  , 1.15        , 3           , 12          , 0.0373456962, 0
0.381930232 , 0.0354778431, -9.768829   , -0.0005762383, 0.00215588231, -0.00199276558, -0.184306324, -0.159700692, 0.42207092  , -0.00424452638, 0.03911462  , 2.38544631  , 1.16        , 3           , 50          , 0           , 0
0.373294681 , 0.03689147  , -9.756686   , 0.00296251639, 0.000701545447, -7.145427E-05, -0.184373736, -0.160037756, 0.421666443 , -0.00421492942, 0.03912163  , 2.38544583  , 1.17        , 3           , 11          , 0.008481887 , 0.00848188
0.384784728 , 0.04537732  , -9.770575   , 0.00409402559, 0.000427622173, 0.000639723148, -0.184373736, -0.160037756, 0.421666443 , -0.00417374028, 0.0391259342, 2.38545156  , 1.18        , 3           , 12          , 0.0373456962, 0
0.397374064 , 0.0362296477, -9.777748   , 0.00162160466, 0.0005516902, -0.0002191953, -0.184441149, -0.159835517, 0.421801269 , -0.004157612, 0.0391314477, 2.38544965  , 1.19        , 3           , 50          , 0           , 0
0.3893444   , 0.0404401235, -9.794064   , -0.001311816, 0.00183018239, 0.00118321716, -0.184306324, -0.159700692, 0.421868682 , -0.00412752153, 0.0391856357, 2.385463    , 1.2         , 3           , 11          , 0.008402193 , 0.008402184
0.375384331 , 0.0504863858, -9.781021   , 0.000740598247, 0.0007881587, 0.000484793884, -0.184104085, -0.15990293 , 0.421801269 , -0.00411992474, 0.03919354  , 2.38546777  , 1.21        , 3           , 12          , 0.03788223  , 0
0.355495    , 0.0578888059, -9.766226   , -2.9142735E-05, -0.000765705248, -0.000792633044, -0.184104085, -0.15990293 , 0.421801269 , -0.004120524, 0.0391858481, 2.38546014  , 1.22        , 3           , 50          , 0           , 0
0.368533075 , 0.0482861772, -9.773851   , -0.00144326768, -0.000282513967, -2.14802476E-05, -0.184238911, -0.159835517, 0.421733856 , -0.00413496373, 0.0391830169, 2.38546014  , 1.23        , 3           , 11          , 0.008402193 , 0.008402184
0.396863341 , 0.0335099176, -9.77234    , 0.0003916279, -0.000199710441, -0.0009310583, -0.184373736, -0.159970343, 0.421868682 , -0.00413141167, 0.03918099  , 2.3854506   , 1.24        , 3           , 12          , 0.03788223  , 0
0.398415744 , 0.041239135 , -9.794895   , -0.00122490409, -0.00175930187, -0.00136482343, -0.184306324, -0.1597681  , 0.421801269 , -0.004144192, 0.0391633324, 2.38543725  , 1.25        , 3           , 50          , 0           , 0
0.388765454 , 0.0260600019, -9.809495   , -0.000731420761, -0.00140399847, 0.00033324823, -0.184306324, -0.1597681  , 0.421801269 , -0.00415137364, 0.0391493067, 2.38544059  , 1.26        , 3           , 11          , 0.008402193 , 0.008402184
0.381128222 , 0.0444994047, -9.7651825  , -0.000726148835, -0.002600653, -0.0007987457, -0.184441149, -0.160105169, 0.421666443 , -0.00415894249, 0.0391232632, 2.38543248  , 1.27        , 3           , 12          , 0.03788223  , 0
0.360604733 , 0.05838127  , -9.796017   , -0.000680612, 0.002397603 , -0.00135578925, -0.184373736, -0.15990293 , 0.421868682 , -0.004166283, 0.03914718  , 2.38541913  , 1.28        , 3           , 50          , 0           , 0
0.3674744   , 0.06282817  , -9.800466   , 2.78279458E-05, 0.00212081755, 0.000342293963, -0.184238911, -0.160037756, 0.421868682 , -0.004165873, 0.0391683951, 2.385422    , 1.29        , 3           , 11          , 0.008402193 , 0.008402184
0.3742544   , 0.029336758 , -9.794226   , -0.0010964399, -0.0016270777, 0.00131697569, -0.184238911, -0.160037756, 0.421868682 , -0.00427097827, 0.039061565 , 2.38543153  , 1.3         , 3           , 12          , 0.0384591371, 0
0.395071924 , 0.03756433  , -9.764201   , -0.000689728, 0.00161378121, -0.000230014688, -0.184508562, -0.159970343, 0.421801269 , -0.004277967, 0.0390776843, 2.38542962  , 1.31        , 3           , 50          , 0           , 0
0.386000246 , 0.0336405151, -9.773326   , -0.00421678228, 0.0008859931, -0.000600733, -0.184441149, -0.1597681  , 0.421801269 , -0.00432037143, 0.0390865169, 2.385423    , 1.32        , 3           , 11          , 0.008364857 , 0.00836485252
0.379971325 , 0.0170790143, -9.791971   , -0.00313951867, -0.00276719034, -0.0005308013, -0.184238911, -0.1597681  , 0.4220035   , -0.00435197 , 0.0390588231, 2.38541818  , 1.33        , 3           , 12          , 0.0384591371, 0
0.3665317   , 0.0329773724, -9.776642   , -0.00278529874, -0.002905583, 0.0003182402, -0.184238911, -0.1597681  , 0.4220035   , -0.004379693, 0.03902978  , 2.385421    , 1.34        , 3           , 50          , 0           , 0
0.3689409   , 0.0428882167, -9.780198   , -0.002096145, 0.0005483648, 0.0006093857, -0.184373736, -0.1597681  , 0.421733856 , -0.00440041767, 0.0390352942, 2.38542771  , 1.35        , 3           , 11          , 0.008364857 , 0.00836485252
0.396320969 , 0.0583641   , -9.78128052 , -0.00307732 , -0.0009365367, 0.0006024983, -0.184508562, -0.15990293 , 0.421801269 , -0.004430954, 0.0390259549, 2.38543344  , 1.36        , 3           , 12          , 0.0384591371, 0
0.4026846   , 0.026246585 , -9.779556   , -0.0003251938, -0.000706743158, -0.0002319485, -0.184306324, -0.159700692, 0.4219361   , -0.004434295, 0.0390188769, 2.38543153  , 1.37        , 3           , 50          , 0           , 0
0.375751019 , 0.07756454  , -9.783618   , 0.00178667507, 0.000504231255, -0.000926571, -0.1841715  , -0.159835517, 0.421801269 , -0.00441679265, 0.03902388  , 2.385422    , 1.38        , 3           , 11          , 0.008364857 , 0.00836485252
0.377662122 , 0.04645388  , -9.797293   , -0.00187589438, -0.00135077164, -0.00108778046, -0.1841715  , -0.159835517, 0.421801269 , -0.004435975, 0.03901032  , 2.385411    , 1.39        , 3           , 12          , 0.0384591371, 0
0.358440727 , 0.0349063873, -9.785283   , -0.000904669752, -0.00268385746, 0.000185217985, -0.184036672, -0.159835517, 0.421801269 , -0.004472938, 0.0389808342, 2.385412    , 1.4         , 3           , 50          , 0           , 0
0.389132231 , 0.0282167047, -9.781461   , -0.0007686839, -0.00162703346, 0.000187503625, -0.184373736, -0.1597681  , 0.421868682 , -0.004480547, 0.0389645621, 2.38541436  , 1.41        , 3           , 11          , 0.008345813 , 0.008345804
0.380057961 , 0.0233981553, -9.79285    , 0.000701551558, 0.0009170798, 0.000268957316, -0.184441149, -0.15990293 , 0.421733856 , -0.00447342452, 0.0389737338, 2.38541675  , 1.42        , 3           , 12          , 0.0390742645, 0
0.382436574 , 0.0373013243, -9.77605    , -0.000425204518, 0.0003463106, 0.0005453592, -0.184441149, -0.15990293 , 0.421733856 , -0.00447746553, 0.0389772281, 2.385422    , 1.43        , 3           , 50          , 0           , 0
0.3925081   , 0.042629946 , -9.785443   , 0.000267067226, 0.00309634418, 0.000199710557, -0.1841715  , -0.159970343, 0.421801269 , -0.00447472045, 0.0390081927, 2.385424    , 1.44        , 3           , 11          , 0.008345813 , 0.008345804
0.3769836   , 0.0311004   , -9.791485   , 0.0030234165, 0.00248144288, -0.0005654036, -0.1841715  , -0.159700692, 0.4219361   , -0.004444713, 0.0390329845, 2.38541818  , 1.45        , 3           , 12          , 0.0390742645, 0
0.3730554   , 0.0406405553, -9.7969     , -0.00211442658, -0.00107298221, -0.002290087, -0.184104085, -0.15990293 , 0.421868682 , -0.00446675066, 0.03902216  , 2.38539529  , 1.46        , 3           , 50          , 0           , 0
0.387929916 , 0.03505435  , -9.797713   , -0.00240166951, -0.000159807183, -0.002784434, -0.184104085, -0.15990293 , 0.421868682 , -0.0044918526, 0.039020434 , 2.38536763  , 1.47        , 3           , 11          , 0.008345813 , 0.008345804
0.402386576 , 0.0236992016, -9.825672   , -0.00289131165, -0.0007966641, -0.000244877738, -0.1841715  , -0.159633279, 0.421733856 , -0.00452085864, 0.0390124545, 2.38536477  , 1.48        , 3           , 12          , 0.0390742645, 0
0.4030536   , 0.0136755537, -9.799494   , -0.001970655, -0.00142397988, -0.0008772832, -0.184373736, -0.159835517, 0.421868682 , -0.00454090536, 0.03899817  , 2.38535619  , 1.49        , 3           , 50          , 0           , 0
0.384019971 , 0.0517509431, -9.784566   , -0.00157623657, -0.00141513371, -0.0009395686, -0.184373736, -0.159835517, 0.421868682 , -0.004345871, 0.0390740223, 2.38535523  , 1.5         , 3           , 11          , 0.008330281 , 0.008330273
0.38668415  , 0.04364217  , -9.797687   , -0.001008721, -0.00183365855, 5.12954E-05 , -0.184373736, -0.159835517, 0.421868682 , -0.00435593445, 0.0390556827, 2.38535619  , 1.51        , 3           , 12          , 0.03972547  , 0
0.3730156   , 0.0423937626, -9.781525   , -0.0031344262, -0.000299374748, 0.000326342473, -0.184238911, -0.159835517, 0.421733856 , -0.00438714866, 0.0390527   , 2.385359    , 1.52        , 3           , 50          , 0           , 0
0.4048891   , 0.05153967  , -9.794351   , -0.000949140231, 0.0002785541, -0.000934002, -0.184508562, -0.160037756, 0.421868682 , -0.00439700671, 0.03905544  , 2.38534951  , 1.53        , 3           , 11          , 0.008330281 , 0.008330273
0.392427117 , 0.03899351  , -9.777323   , -0.000170253072, -0.000138540534, -0.0007191281, -0.184508562, -0.15990293 , 0.421868682 , -0.004398989, 0.0390540361, 2.38534284  , 1.54        , 3           , 12          , 0.03972547  , 0
0.362369567 , 0.05118089  , -9.807784   , 0.0023120665, -0.00216317037, 0.000984474 , -0.184508562, -0.15990293 , 0.421868682 , -0.00437547732, 0.0390324369, 2.38535237  , 1.55        , 3           , 50          , 0           , 0
0.392878443 , 0.059445    , -9.82198    , -0.00363162416, 0.000260412082, 4.236822E-05, -0.184238911, -0.1597681  , 0.421801269 , -0.004411777, 0.03903504  , 2.38535333  , 1.56        , 3           , 11          , 0.008330281 , 0.008330273
0.3878904   , 0.0345759839, -9.789579   , -0.0011038857, 0.003093252 , -0.000223977288, -0.184441149, -0.159835517, 0.421801269 , -0.00442290772, 0.0390659645, 2.38535047  , 1.57        , 3           , 12          , 0.03972547  , 0
0.3847882   , 0.0373458043, -9.797275   , -0.000242576469, 1.7596758E-06, -0.00248509971, -0.184373736, -0.159835517, 0.42207092  , -0.00442630332, 0.0390658677, 2.38532567  , 1.58        , 3           , 50          , 0           , 0
0.3872563   , 0.05132154  , -9.80217    , 0.00117414026, -0.0005518121, 0.0006285293, -0.1841715  , -0.15990293 , 0.421666443 , -0.0044143144, 0.03906038  , 2.38533235  , 1.59        , 3           , 11          , 0.008330281 , 0.008330273
0.3789772   , 0.04595654  , -9.788244   , 0.00257618632, 0.00119290571, 7.27888837E-05, -0.1841715  , -0.15990293 , 0.421666443 , -0.00439019268, 0.039126683 , 2.38533282  , 1.6         , 3           , 12          , 0.04041064  , 0
0.37958163  , 0.0242770426, -9.784261   , 0.0006106766, -0.001072983, 0.0006251739, -0.184306324, -0.160105169, 0.421801269 , -0.00438384 , 0.0391159765, 2.385339    , 1.61        , 3           , 50          , 0           , 0
0.380040556 , 0.0576788634, -9.789091   , -0.00502391951, -0.003926833, 0.0005944959, -0.184373736, -0.159700692, 0.421733856 , -0.004433838, 0.0390767343, 2.3853457   , 1.62        , 3           , 11          , 0.008308905 , 0.008308909
0.370977461 , 0.06045732  , -9.778753   , 4.93525331E-05, -0.00192150148, -0.000508911558, -0.184104085, -0.159835517, 0.421801269 , -0.0044335397, 0.0390574969, 2.38534045  , 1.63        , 3           , 12          , 0.04041064  , 0
0.39673844  , 0.0534203164, -9.788529   , -0.00109273766, 0.000604945235, -0.000227736338, -0.184104085, -0.159835517, 0.421801269 , -0.00444455771, 0.0390635431, 2.385338    , 1.64        , 3           , 50          , 0           , 0
0.391918063 , 0.0309189316, -9.789563   , -0.0005282103, 0.0006087636, -0.0007901775, -0.184373736, -0.159835517, 0.421733856 , -0.004450147, 0.0390695855, 2.38533044  , 1.65        , 3           , 11          , 0.008308905 , 0.008308909
0.394311279 , 0.0367996469, -9.802176   , 0.001726281 , 0.00175030681, 0.000352243427, -0.184306324, -0.15990293 , 0.421868682 , -0.00443274947, 0.03908711  , 2.38533378  , 1.66        , 3           , 12          , 0.04041064  , 0
0.3686017   , 0.04521732  , -9.80052948 , 0.0008833455, 0.000899882347, 0.000629528367, -0.184238911, -0.159970343, 0.4219361   , -0.004423673, 0.0390961356, 2.38534     , 1.67        , 3           , 50          , 0           , 0
0.382035464 , 0.0315459929, -9.807263   , 0.0028663245, -0.000494578, -0.00105864753, -0.184238911, -0.159970343, 0.4219361   , -0.004395421, 0.03909114  , 2.38532948  , 1.68        , 3           , 11          , 0.008308905 , 0.008308909
0.393090963 , 0.0195939653, -9.780561   , 0.0008915465, -0.000789509, 0.000344387256, -0.184643388, -0.159835517, 0.421666443 , -0.00438637054, 0.0390832648, 2.38533282  , 1.69        , 3           , 12          , 0.04041064  , 0
0.391650021 , 0.0137404138, -9.779242   , 0.000398189848, -0.00245483126, 5.92353354E-05, -0.184508562, -0.159633279, 0.4219361   , -0.00430462928, 0.0390929356, 2.385337    , 1.7         , 3           , 50          , 0           , 0
0.367502779 , 0.0383760259, -9.775256   , 0.000397537224, -0.002454834, -0.00107091444, -0.184104085, -0.15990293 , 0.421733856 , -0.00430106651, 0.03906834  , 2.38532615  , 1.71        , 3           , 11          , 0.008276601 , 0.008276605
0.364699364 , 0.0320887752, -9.774399   , -0.00157740386, -0.00274976576, 4.958287E-05, -0.184104085, -0.15990293 , 0.421733856 , -0.004316816, 0.03904084  , 2.38532662  , 1.72        , 3           , 12          , 0.0411277339, 0
0.3978861   , 0.0407358445, -9.777725   , -0.0007371678, -0.00161778263, -0.00248756772, -0.184508562, -0.160105169, 0.421733856 , -0.00432515657, 0.0390245542, 2.38530183  , 1.73        , 3           , 50          , 0           , 0
0.3774354   , 0.037343163 , -9.771116   , -0.00129235222, -0.00331098633, -0.0002325053, -0.184575975, -0.1597681  , 0.421801269 , -0.004338165, 0.0389914364, 2.3853      , 1.74        , 3           , 11          , 0.008276601 , 0.008276605
0.38512516  , 0.03456857  , -9.777849   , -0.00498406962, 0.000606091344, -0.00137370033, -0.1841715  , -0.159970343, 0.421868682 , -0.00438854052, 0.0389974378, 2.38528657  , 1.75        , 3           , 12          , 0.0411277339, 0
0.3868729   , 0.0518294126, -9.817538   , -0.00299683423, -0.0013514919, -0.000519906869, -0.1841715  , -0.159970343, 0.421868682 , -0.00441870838, 0.0389838926, 2.38528085  , 1.76        , 3           , 50          , 0           , 0
0.38770926  , 0.0214850362, -9.7873745  , 0.000666024 , 0.000362726481, -0.00106525817, -0.184306324, -0.159970343, 0.421531618 , -0.00441246573, 0.0389874764, 2.38527036  , 1.77        , 3           , 11          , 0.008276601 , 0.008276605
0.366079    , 0.0356608629, -9.768046   , 0.00151772425, -0.000194665976, 0.00176319946, -0.184373736, -0.1597681  , 0.4219361   , -0.0043966  , 0.0389856063, 2.385288    , 1.78        , 3           , 12          , 0.0411277339, 0
0.356545419 , 0.0295032468, -9.782156   , -0.00103403861, 0.00175909908, 0.00147184718, -0.1841715  , -0.159835517, 0.4219361   , -0.004406371, 0.0390032642, 2.38530278  , 1.79        , 3           , 50          , 0           , 0
0.374478638 , 0.0478188433, -9.789627   , -0.000358264573, 0.000859737745, -0.00304340268, -0.1841715  , -0.159835517, 0.4219361   , -0.0042720316, 0.0389375   , 2.385278    , 1.8         , 3           , 11          , 0.008232269 , 0.008232276
0.366672128 , 0.0388937443, -9.791983   , 0.00106156652, -0.0002569626, 0.0006344336, -0.184373736, -0.15990293 , 0.421868682 , -0.00426116632, 0.0389349535, 2.38528419  , 1.81        , 3           , 12          , 0.04187476  , 0
0.37504968  , 0.02388056  , -9.78475    , 0.00134908  , -0.00138131494, -0.000213597523, -0.184306324, -0.159700692, 0.421801269 , -0.00424775667, 0.0389211364, 2.3852818   , 1.82        , 3           , 50          , 0           , 0
0.372657329 , 0.0491708778, -9.782856   , 0.00303962221, -0.0005251595, 7.814313E-05, -0.184036672, -0.159565866, 0.421801269 , -0.004217328, 0.0389158875, 2.38528275  , 1.83        , 3           , 11          , 0.008232269 , 0.008232276
0.361958861 , 0.0628254339, -9.780621   , 0.00107239233, -0.002509485, 6.588704E-05, -0.184441149, -0.160105169, 0.421666443 , -0.00420657266, 0.0388907865, 2.38528371  , 1.84        , 3           , 12          , 0.04187476  , 0
0.413371772 , 0.0450923331, -9.785274   , 0.00134826428, -0.0013813189, -0.001626285, -0.184441149, -0.160105169, 0.421666443 , -0.00419372134, 0.03887691  , 2.3852675   , 1.85        , 3           , 50          , 0           , 0
0.396923363 , 0.0340049081, -9.785445   , 0.00105796277, 0.000306163682, -0.0007773858, -0.184508562, -0.160037756, 0.421868682 , -0.00418344466, 0.0388799459, 2.38525987  , 1.86        , 3           , 11          , 0.008232269 , 0.008232276
0.397418857 , 0.03626594  , -9.788595   , -0.0003566331, 0.000859745545, -0.00021802765, -0.184306324, -0.159835517, 0.421801269 , -0.004187095, 0.0388885252, 2.38525748  , 1.87        , 3           , 12          , 0.04187476  , 0
0.387107432 , 0.03647135  , -9.813532   , 0.000779880967, -0.0005404408, -0.000497467059, -0.184238911, -0.159970343, 0.421733856 , -0.004179489, 0.0388831   , 2.38525271  , 1.88        , 3           , 50          , 0           , 0
0.368671119 , 0.0559859872, -9.782858   , -0.00598254 , -0.00368349371, 0.000313765428, -0.184238911, -0.159970343, 0.421733856 , -0.004239186, 0.0388462767, 2.385256    , 1.89        , 3           , 11          , 0.008232269 , 0.008232276
0.39133364  , 0.0544000156, -9.792635   , -0.00204483652, -0.00166354119, -0.0002299751, -0.184508562, -0.159565866, 0.421801269 , -0.004267897, 0.0388589762, 2.38525319  , 1.9         , 3           , 12          , 0.0426498055, 0
0.399754345 , 0.0371900462, -9.803037   , 0.001328462 , 0.00145659188, -0.00105701108, -0.184441149, -0.15990293 , 0.42207092  , -0.00425502751, 0.0388735048, 2.3852427   , 1.91        , 3           , 50          , 0           , 0
0.394210845 , 0.0371646322, -9.776412   , 0.000469866267, 0.003703382 , -0.0013400279, -0.184306324, -0.15990293 , 0.421801269 , -0.004250855, 0.03891047  , 2.38522935  , 1.92        , 3           , 11          , 0.008176904 , 0.008176915
0.366385579 , 0.0519779   , -9.790576   , 0.00218713237, -0.0005086258, 0.0017692768, -0.184306324, -0.15990293 , 0.421801269 , -0.0042282925, 0.0389054567, 2.38524652  , 1.93        , 3           , 12          , 0.0426498055, 0
0.353675574 , 0.05165442  , -9.784346   , 0.0007795949, -0.00164444069, 6.573147E-05, -0.184306324, -0.1597681  , 0.421801269 , -0.004220468, 0.038889017 , 2.38524747  , 1.94        , 3           , 50          , 0           , 0
0.383089483 , 0.05084868  , -9.781413   , 0.000202032083, 0.0008858243, -0.000215534223, -0.184441149, -0.159970343, 0.421733856 , -0.00421853224, 0.03889787  , 2.38524556  , 1.95        , 3           , 11          , 0.008176904 , 0.008176915
0.3911991   , 0.0413468629, -9.801729   , -8.162562E-05, 0.00116548012, 6.612E-05   , -0.184373736, -0.15990293 , 0.421868682 , -0.00421932572, 0.03890952  , 2.385246    , 1.96        , 3           , 12          , 0.0426498055, 0
0.397344172 , 0.0259393454, -9.803555   , -0.00148727919, -0.000251897436, -0.00079024653, -0.184373736, -0.15990293 , 0.421868682 , -0.004234505, 0.0389069766, 2.385238    , 1.97        , 3           , 50          , 0           , 0
0.41994983  , 0.025646355 , -9.795247   , 0.000482812873, 0.00145086972, 0.00176441262, -0.184306324, -0.159633279, 0.421801269 , -0.004228993, 0.0389215574, 2.38525558  , 1.98        , 3           , 11          , 0.008176904 , 0.008176915
0.3696693   , 0.0275580939, -9.786133   , -8.104736E-05, 0.000883911154, -0.00134700118, -0.184306324, -0.159700692, 0.421868682 , -0.00423033 , 0.0389303379, 2.38524222  , 1.99        , 3           , 12          , 0.0426498055, 0
0.381382346 , 0.06300567  , -9.767816   , -0.002575838, 0.000645959 , 0.0011855613, -0.184373736, -0.160442233, 0.421868682 , -0.004194992, 0.0390201733, 2.38525653  , 2           , 3           , 50          , 0           , 0
0.394096047 , 0.0281446278, -9.777355   , -0.000584584, -0.00215632049, 0.00175551558, -0.184373736, -0.160442233, 0.421868682 , -0.00420015026, 0.0389986821, 2.38527417  , 2.01        , 3           , 11          , 0.008115782 , 0.008115792
0.3782702   , 0.0247774068, -9.794212   , -0.0003019052, -0.002435981, -0.000221363691, -0.184306324, -0.160037756, 0.421868682 , -0.00420325063, 0.03897431  , 2.38527226  , 2.02        , 3           , 12          , 0.0434510373, 0
0.368082    , 0.0353487134, -9.815942   , 0.000237366985, 0.002636008 , -0.00105853146, -0.184306324, -0.159970343, 0.42207092  , -0.00420129532, 0.0390006267, 2.3852613   , 2.03        , 3           , 50          , 0           , 0
0.370769948 , 0.0393106565, -9.796019   , -0.001163289, 0.000373939023, -0.0005035126, -0.184508562, -0.15990293 , 0.421801269 , -0.00421312638, 0.0390043519, 2.385256    , 2.04        , 3           , 11          , 0.008115782 , 0.008115792
0.372980654 , 0.0379019   , -9.787419   , -0.000589166651, -0.00159319886, -0.0013515288, -0.184508562, -0.15990293 , 0.421801269 , -0.00421954272, 0.03898836  , 2.3852427   , 2.05        , 3           , 12          , 0.0434510373, 0
0.377731264 , 0.031854488 , -9.750345   , 0.00477078836, -0.000149080181, 8.834984E-05, -0.1841715  , -0.1597681  , 0.421666443 , -0.0041718  , 0.0389868766, 2.38524365  , 2.06        , 3           , 50          , 0           , 0
0.385728657 , 0.03914885  , -9.799973   , -2.1287502E-05, -0.00187093636, 0.00147604581, -0.184306324, -0.1597681  , 0.421733856 , -0.004171433, 0.0389682241, 2.385259    , 2.07        , 3           , 11          , 0.008115782 , 0.008115792
0.380242944 , 0.00398275256, -9.789764   , 0.002228295 , -0.000166273036, -0.00105365226, -0.184373736, -0.1597681  , 0.4220035   , -0.00414956 , 0.0389665179, 2.38524842  , 2.08        , 3           , 12          , 0.0434510373, 0
0.404378235 , 0.0185421463, -9.775508   , 0.00278388  , 0.00180850481, -0.000200368391, -0.184238911, -0.159700692, 0.421801269 , -0.004121802, 0.0389845967, 2.385246    , 2.09        , 3           , 50          , 0           , 0
0.386358142 , 0.0237386   , -9.781952   , -0.000768898462, 0.00124751474, -0.000496234861, -0.184238911, -0.159700692, 0.421801269 , -0.00396395335, 0.03903553  , 2.38524747  , 2.1         , 3           , 11          , 0.008039417 , 0.008039427
0.3727158   , 0.0501109771, -9.794151   , 0.0009279609, 0.0006958421, -0.00133681356, -0.184238911, -0.1597681  , 0.421868682 , -0.003955197, 0.0390424281, 2.385234    , 2.11        , 3           , 12          , 0.0442767143, 0
0.373355657 , 0.06364776  , -9.79635    , 0.00205012015, 0.00239287619, 8.374496E-05, -0.184373736, -0.15990293 , 0.421733856 , -0.00393466651, 0.03906636  , 2.385235    , 2.12        , 3           , 50          , 0           , 0
0.364727736 , 0.06015769  , -9.801853   , 0.00204143  , 0.00408226531, -0.000478726142, -0.1841715  , -0.159835517, 0.421733856 , -0.00391444471, 0.0391071625, 2.3852303   , 2.13        , 3           , 11          , 0.008039417 , 0.008039427
0.367612958 , 0.041143395 , -9.793323   , 0.001199147 , 0.003231844 , 0.000928708352, -0.1841715  , -0.159835517, 0.421733856 , -0.00390209467, 0.0391395167, 2.385239    , 2.14        , 3           , 12          , 0.0442767143, 0
0.375442028 , 0.0202554539, -9.781597   , 0.0012014457, 0.00266871136, 8.02281138E-05, -0.184238911, -0.15990293 , 0.421666443 , -0.003890053, 0.0391662121, 2.38523984  , 2.15        , 3           , 50          , 0           , 0
0.380430818 , 0.0486958772, -9.802685   , 0.00120086735, 0.00295028067, 0.00149334955, -0.184373736, -0.159700692, 0.4219361   , -0.00387746375, 0.03919577  , 2.385255    , 2.16        , 3           , 11          , 0.008039417 , 0.008039427
0.3681572   , 0.05147828  , -9.782429   , -0.000480569375, 0.000123166072, 6.84211E-05 , -0.184104085, -0.159835517, 0.421733856 , -0.0038822426, 0.039197    , 2.38525558  , 2.17        , 3           , 12          , 0.0442767143, 0
0.404110283 , 0.0641507953, -9.784812   , 0.001493141 , 0.0006996636, -0.000769104634, -0.184104085, -0.159835517, 0.421733856 , -0.00386761362, 0.03920397  , 2.38524747  , 2.18        , 3           , 50          , 0           , 0
0.376324236 , 0.0464864522, -9.802274   , -0.0010500201, 0.00124561111, 0.00176274788, -0.184306324, -0.1597681  , 0.42159903  , -0.00387742347, 0.0392164923, 2.38526559  , 2.19        , 3           , 11          , 0.008039417 , 0.008039427
0.3807456   , 0.0409907624, -9.793675   , -0.00225148676, 0.0006285797, -0.00107180513, -0.184306324, -0.1597681  , 0.4219361   , -0.004008549, 0.0391541757, 2.38525033  , 2.2         , 3           , 12          , 0.0451251753, 0
0.3907573   , 0.0435928181, -9.797203   , -0.00225648447, 0.001473271 , -0.00248319074, -0.1841715  , -0.159970343, 0.421868682 , -0.004032091, 0.0391688123, 2.38522553  , 2.21        , 3           , 50          , 0           , 0
0.3910163   , 0.0336107723, -9.781876   , 0.00168920122, 0.00347097358, 8.112106E-05, -0.1841715  , -0.159970343, 0.421868682 , -0.00401517143, 0.03920352  , 2.38522649  , 2.22        , 3           , 11          , 0.007957042 , 0.007957058
0.4029796   , 0.0496958643, -9.776295   , 1.63662189E-05, -0.000763959, 0.001479398 , -0.184306324, -0.159970343, 0.421733856 , -0.00401442824, 0.0391959473, 2.38524079  , 2.23        , 3           , 12          , 0.0451251753, 0
0.400647163 , 0.03761544  , -9.798509   , -0.00139797758, -0.000491947634, 6.055973E-05, -0.184441149, -0.159835517, 0.421868682 , -0.004028384, 0.03919103  , 2.38524175  , 2.24        , 3           , 50          , 0           , 0
0.40365985  , 0.02718512  , -9.793558   , -0.00167777948, -0.00105698849, -0.00022416233, -0.184238911, -0.159970343, 0.4219361   , -0.004045248, 0.0391804576, 2.38523936  , 2.25        , 3           , 11          , 0.007957042 , 0.007957058
0.3962704   , 0.0453789942, -9.810713   , -0.0008410729, 0.0009196931, -0.00162986142, -0.184238911, -0.159970343, 0.4219361   , -0.004054297, 0.03918958  , 2.38522315  , 2.26        , 3           , 12          , 0.0451251753, 0
0.3631717   , 0.04483752  , -9.802834   , 0.000583607238, -0.00160484249, -0.00162718212, -0.184441149, -0.159835517, 0.421868682 , -0.00404909672, 0.03917346  , 2.385207    , 2.27        , 3           , 50          , 0           , 0
0.360740542 , 0.0304453932, -9.808334   , 0.0008488909, 0.00205741776, 7.50005856E-05, -0.184575975, -0.159633279, 0.4219361   , -0.004040582, 0.03919404  , 2.38520741  , 2.28        , 3           , 11          , 0.007957042 , 0.007957058
0.36297825  , 0.02771947  , -9.810589   , -0.00112005917, 0.000354656047, -0.000501896255, -0.184441149, -0.15990293 , 0.4219361   , -0.00405197963, 0.0391975679, 2.38520265  , 2.29        , 3           , 12          , 0.0451251753, 0
0.386312664 , 0.0477305241, -9.804452   , -0.00082736474, 0.00172171113, 0.0009147496, -0.184441149, -0.15990293 , 0.4219361   , -0.00403455645, 0.0391490869, 2.38521266  , 2.3         , 3           , 50          , 0           , 0
0.39215377  , 0.0471785255, -9.794919   , 0.00171800621, 0.00089420256, -0.000204849435, -0.184238911, -0.159970343, 0.421666443 , -0.0040174583, 0.03915802  , 2.38521028  , 2.31        , 3           , 11          , 0.007868556 , 0.007868565
0.360788018 , 0.0443207175, -9.775282   , -0.000254636543, 3.61384E-05 , 6.716745E-05, -0.184508562, -0.1597681  , 0.421868682 , -0.004019977, 0.03915838  , 2.38521123  , 2.32        , 3           , 12          , 0.04599484  , 0
0.367157578 , 0.0478419065, -9.771152   , -0.001376143, -0.00166089274, -0.000223241121, -0.184306324, -0.15990293 , 0.42207092  , -0.00403382443, 0.03914177  , 2.38520932  , 2.33        , 3           , 50          , 0           , 0
0.375745952 , 0.0405874923, -9.79055    , -0.00138975668, 0.00115475955, 0.000346172921, -0.184508562, -0.159970343, 0.421733856 , -0.004047586, 0.0391533263, 2.38521218  , 2.34        , 3           , 11          , 0.007868556 , 0.007868565
0.376579344 , 0.03114502  , -9.803239   , -0.00110486813, 0.0005935378, -0.000218452726, -0.184508562, -0.159970343, 0.421733856 , -0.00405871961, 0.0391592421, 2.38521028  , 2.35        , 3           , 12          , 0.04599484  , 0
0.384027    , 0.0486321859, -9.7963295  , 0.00172653317, -0.000795187138, 7.508419E-05, -0.184373736, -0.159835517, 0.4219361   , -0.00404142262, 0.0391513   , 2.38521123  , 2.36        , 3           , 50          , 0           , 0
0.375446558 , 0.0514295064, -9.79322    , -0.005336674, -0.0005613768, -0.00193516735, -0.184104085, -0.15990293 , 0.4220035   , -0.004095548, 0.039145615 , 2.38519216  , 2.37        , 3           , 11          , 0.007868556 , 0.007868565
0.396366179 , 0.0539372563, -9.806609   , -0.00137967232, -0.0008161946, 0.00090821035, -0.184238911, -0.159700692, 0.421801269 , -0.004108987, 0.0391374826, 2.38520074  , 2.38        , 3           , 12          , 0.04599484  , 0
0.379526556 , 0.0580809042, -9.772822   , -0.00138901535, 0.00087319134, -0.000784410746, -0.184238911, -0.159700692, 0.421801269 , -0.004123186, 0.03914618  , 2.385193    , 2.39        , 3           , 50          , 0           , 0
0.373871118 , 0.06771037  , -9.798589   , -0.0008680566, -0.00196627481, 0.002036826 , -0.184373736, -0.1597681  , 0.4219361   , -0.004226379, 0.0390823334, 2.38521028  , 2.4         , 3           , 11          , 0.00777586829, 0.0077758776
0.3863111   , 0.0481756255, -9.802642   , 0.0002560003, -0.00111394667, -0.0004994415, -0.184778214, -0.159835517, 0.421801269 , -0.00422401354, 0.0390711725, 2.385205    , 2.41        , 3           , 12          , 0.0468842238, 0
0.3665565   , 0.031212071 , -9.788401   , -0.000301557, -0.00252559036, 6.08296541E-05, -0.184306324, -0.159970343, 0.421801269 , -0.004227002, 0.0390459225, 2.38520551  , 2.42        , 3           , 50          , 0           , 0
0.3899458   , 0.0472504571, -9.808495   , 0.000528417062, 0.00114048948, 0.00148310908, -0.184306324, -0.159970343, 0.421801269 , -0.00422114041, 0.03905739  , 2.38522077  , 2.43        , 3           , 11          , 0.00777586829, 0.0077758776
0.386486351 , 0.0608154163, -9.804849   , -0.000882723543, 0.000567800831, -0.00163225562, -0.184306324, -0.159835517, 0.421666443 , -0.00423060544, 0.039063    , 2.385204    , 2.44        , 3           , 12          , 0.0468842238, 0
0.370184451 , 0.03385227  , -9.78113    , 0.000250261131, 1.23128984E-05, -0.0007802433, -0.184441149, -0.159633279, 0.421733856 , -0.004228408, 0.0390630849, 2.385196    , 2.45        , 3           , 50          , 0           , 0
0.387364417 , 0.02380961  , -9.806352   , 0.00109712651, 0.000299612555, 0.0009193661, -0.184373736, -0.1597681  , 0.421868682 , -0.004217077, 0.0390661173, 2.38520551  , 2.46        , 3           , 11          , 0.00777586829, 0.0077758776
0.37378028  , 0.0506754667, -9.831203   , -0.000308363873, -0.00111776427, 0.0003455368, -0.184373736, -0.1597681  , 0.421868682 , -0.004220024, 0.0390549563, 2.38520932  , 2.47        , 3           , 12          , 0.0468842238, 0
0.395570755 , 0.0367035754, -9.778212   , -0.000307459326, -0.00139933161, -0.000502509356, -0.184104085, -0.15990293 , 0.421868682 , -0.00422329269, 0.0390409455, 2.385204    , 2.48        , 3           , 50          , 0           , 0
0.3759697   , 0.028345162 , -9.773876   , -0.00228969683, -0.000286439667, 5.50825825E-05, -0.184306324, -0.15990293 , 0.4219361   , -0.00424616737, 0.03903808  , 2.38520455  , 2.49        , 3           , 11          , 0.00777586829, 0.0077758776
0.377194583 , 0.0518034622, -9.776483   , 0.00223267777, 0.000576824765, 0.00177290337, -0.184575975, -0.160037756, 0.421801269 , -0.00421191473, 0.039024    , 2.38522267  , 2.5         , 3           , 12          , 0.0477919243, 0
0.3724934   , 0.0392183326, -9.774762   , -0.000882782333, 0.001963632 , -0.00134732528, -0.184575975, -0.160037756, 0.421801269 , -0.00422127172, 0.0390435755, 2.38520932  , 2.51        , 3           , 50          , 0           , 0
0.386940926 , 0.0332119949, -9.783264   , -0.00199494581, -0.001422785, 5.488689E-05, -0.184238911, -0.160105169, 0.421733856 , -0.00424119551, 0.03902935  , 2.38521028  , 2.52        , 3           , 11          , 0.00768076163, 0.007680766
0.389478177 , 0.0499218553, -9.796283   , 0.00223727478, -0.0005494403, 7.594269E-05, -0.184575975, -0.159835517, 0.421801269 , -0.004218791, 0.0390238576, 2.38521075  , 2.53        , 3           , 12          , 0.0477919243, 0
0.380626619 , 0.06135231  , -9.809863   , -0.001714892, -0.00113931473, -0.00163858675, -0.1847108  , -0.15990293 , 0.421868682 , -0.00423657661, 0.0390124   , 2.38519454  , 2.54        , 3           , 50          , 0           , 0
0.400189728 , 0.0465439968, -9.768644   , 0.00110141293, 0.0008507492, 0.00148553215, -0.184238911, -0.159970343, 0.42159903  , -0.004224982, 0.0390209667, 2.38520932  , 2.55        , 3           , 11          , 0.00768076163, 0.007680766
0.37785846  , 0.0324039124, -9.779722   , 0.000251522055, 0.000845006842, -0.00303901848, -0.184238911, -0.159970343, 0.42159903  , -0.00422365824, 0.0390292928, 2.3851788   , 2.56        , 3           , 12          , 0.0477919243, 0
0.379417    , 0.0486188233, -9.776478   , 0.00111363269, -0.00168333808, 0.000916551566, -0.184441149, -0.15990293 , 0.42207092  , -0.00421215827, 0.03901249  , 2.38518834  , 2.57        , 3           , 50          , 0           , 0
0.351988852 , 0.0535619333, -9.808758   , 0.00223063119, 0.000858386746, 0.0006431874, -0.184036672, -0.1597681  , 0.421801269 , -0.00418960163, 0.03902111  , 2.38519454  , 2.58        , 3           , 11          , 0.00768076163, 0.007680766
0.3700968   , 0.0261932816, -9.784326   , 0.00110526872, 6.052432E-06, 0.0009191553, -0.184373736, -0.1597681  , 0.421733856 , -0.0041781906, 0.0390212052, 2.3852036   , 2.59        , 3           , 12          , 0.0477919243, 0
0.394131243 , 0.03799285  , -9.754262   , -0.0020232636, 0.00134996162, -0.00191920763, -0.184373736, -0.1597681  , 0.421733856 , -0.004222028, 0.0389606357, 2.38518357  , 2.6         , 3           , 50          , 0           , 0
0.37076956  , 0.0464519747, -9.772937   , 0.0005258742, -4.067243E-05, -0.00134444982, -0.184238911, -0.159633279, 0.421733856 , -0.004217295, 0.0389601737, 2.38517022  , 2.61        , 3           , 11          , 0.00758444052, 0.007584444
0.3604668   , 0.04577171  , -9.802851   , 0.00192504725, 0.00278453319, 0.0003616989, -0.184238911, -0.159835517, 0.421801269 , -0.00419790857, 0.03898803  , 2.38517356  , 2.62        , 3           , 12          , 0.04871663  , 0
0.379258722 , 0.038670823 , -9.769741   , 0.0033471908, 0.0005415566, -0.00161295012, -0.184306324, -0.159835517, 0.421801269 , -0.00416506734, 0.03899338  , 2.38515782  , 2.63        , 3           , 50          , 0           , 0
0.371252537 , 0.0469174571, -9.778808   , -3.69328482E-05, -0.000326054345, -0.0002173676, -0.184306324, -0.159835517, 0.421801269 , -0.004165521, 0.0389901176, 2.385155    , 2.64        , 3           , 11          , 0.00758444052, 0.007584444
0.379023969 , 0.04867252  , -9.790945   , 0.00053087197, -0.0008853639, 6.693562E-05, -0.184508562, -0.1597681  , 0.421868682 , -0.004160187, 0.0389812663, 2.385156    , 2.65        , 3           , 12          , 0.04871663  , 0
0.37953037  , 0.0531741828, -9.789566   , -0.0003040256, -0.00342518 , -0.0002234578, -0.184373736, -0.15990293 , 0.421868682 , -0.0041633076, 0.038947    , 2.385154    , 2.66        , 3           , 50          , 0           , 0
0.3805066   , 0.0278529488, -9.77746    , -0.00201793946, 0.0005052719, 5.72529E-05 , -0.184238911, -0.159970343, 0.421801269 , -0.004183466, 0.0389520526, 2.38515449  , 2.67        , 3           , 11          , 0.00758444052, 0.007584444
0.3703968   , 0.0487538576, -9.785134   , 0.0007942721, 0.00305845984, 0.0009219401, -0.184238911, -0.159970343, 0.421801269 , -0.004175169, 0.03898267  , 2.38516355  , 2.68        , 3           , 12          , 0.04871663  , 0
0.369110554 , 0.04793554  , -9.805487   , -0.003713153, 0.000493808941, -0.00108079845, -0.184441149, -0.159835517, 0.421801269 , -0.004212723, 0.0389875732, 2.38515258  , 2.69        , 3           , 50          , 0           , 0
0.3736056   , 0.0438386574, -9.810441   , -0.00177561108, 0.0038348583, -0.0007849143, -0.184508562, -0.159835517, 0.4220035   , -0.00427175546, 0.03893449  , 2.38514352  , 2.7         , 3           , 11          , 0.007487269 , 0.00748726958
0.369873047 , 0.0384356119, -9.801001   , 0.0007863989, -8.98600556E-05, 0.000351012655, -0.184104085, -0.15990293 , 0.421868682 , -0.00426375261, 0.038933605 , 2.38514686  , 2.71        , 3           , 12          , 0.0496570952, 0
0.379929632 , 0.0513400733, -9.782338   , -0.00456855865, -0.00237867 , 0.000322519423, -0.184104085, -0.15990293 , 0.421868682 , -0.00430930732, 0.03890983  , 2.38515019  , 2.72        , 3           , 50          , 0           , 0
0.375879347 , 0.0220229942, -9.772096   , -4.43166355E-05, -0.00347437127, 5.93171535E-05, -0.184441149, -0.159498453, 0.421531618 , -0.004309723, 0.0388750881, 2.38515115  , 2.73        , 3           , 11          , 0.007487269 , 0.00748726958
0.377794266 , 0.0211931616, -9.800107   , -0.00260911463, 0.00101347663, -0.00107574207, -0.184441149, -0.159633279, 0.421868682 , -0.00433623558, 0.0388851762, 2.3851397   , 2.74        , 3           , 12          , 0.0496570952, 0
0.3968292   , 0.0276797283, -9.78276    , 0.0007845154, 0.000191702609, -0.000496165652, -0.184306324, -0.1597681  , 0.421801269 , -0.00432858476, 0.0388870761, 2.385135    , 2.75        , 3           , 50          , 0           , 0
0.394757    , 0.0399130881, -9.790409   , 0.00162507768, 0.00132368738, -0.00246824138, -0.184306324, -0.1597681  , 0.421801269 , -0.004313297, 0.0389002077, 2.38511014  , 2.76        , 3           , 11          , 0.007487269 , 0.00748726958
0.4039876   , 0.0168124028, -9.796309   , 0.00387259875, 0.003873056 , -0.00132365059, -0.184441149, -0.159835517, 0.42159903  , -0.00427509146, 0.0389388762, 2.38509679  , 2.77        , 3           , 12          , 0.0496570952, 0
0.3710216   , 0.03200075  , -9.770283   , -0.000933580333, 0.00496685039, -0.000214152882, -0.184778214, -0.159835517, 0.4220035   , -0.00428451831, 0.0389885344, 2.385095    , 2.78        , 3           , 50          , 0           , 0
0.381517053 , 0.0386397056, -9.768368   , 0.000501184142, 0.0004713601, 0.000350563583, -0.184441149, -0.159835517, 0.421801269 , -0.00427937 , 0.03899326  , 2.38509774  , 2.79        , 3           , 11          , 0.007487269 , 0.00748726958
0.391978    , 0.036323674 , -9.786829   , 0.004226643 , 0.0005020753, 0.0009349111, -0.1841715  , -0.159970343, 0.421733856 , -0.004137308, 0.0390092656, 2.38511157  , 2.8         , 3           , 12          , 0.05061216  , 0
0.388264716 , 0.0242410619, -9.803631   , 0.00308750477, 0.00246539246, 0.001497756 , -0.1841715  , -0.159970343, 0.421733856 , -0.004105852, 0.03903397  , 2.38512635  , 2.81        , 3           , 50          , 0           , 0
0.40297845  , 0.0505875871, -9.773127   , 0.00507573271, -5.532964E-05, -0.000757230562, -0.184373736, -0.159633279, 0.421801269 , -0.004055392, 0.0390333869, 2.38511872  , 2.82        , 3           , 11          , 0.00739147235, 0.00739147142
0.3982083   , 0.0330367722, -9.770523   , 0.0030984194, -6.870099E-05, -0.00133152411, -0.184306324, -0.159835517, 0.421801269 , -0.004024928, 0.0390326455, 2.38510537  , 2.83        , 3           , 12          , 0.05061216  , 0
0.3895919   , 0.0224144571, -9.801821   , -0.00143657438, 0.00356109533, 0.00204349565, -0.1841715  , -0.15990293 , 0.421666443 , -0.0040385  , 0.03906835  , 2.3851254   , 2.84        , 3           , 50          , 0           , 0
0.38071838  , 0.03695157  , -9.80002    , -0.0008708905, 0.00300177536, -0.00134518789, -0.1841715  , -0.15990293 , 0.421666443 , -0.00404773932, 0.0390983075, 2.385112    , 2.85        , 3           , 11          , 0.00739147235, 0.00739147142
0.386238933 , 0.04633171  , -9.790898   , 0.0005488661, 0.0016035029, -0.000210622951, -0.184306324, -0.159700692, 0.421666443 , -0.00404233532, 0.03911433  , 2.38511014  , 2.86        , 3           , 12          , 0.05061216  , 0
0.39560926  , 0.0358420946, -9.790419   , 0.000551817357, 0.00104037346, 7.104641E-05, -0.184306324, -0.1597681  , 0.421801269 , -0.00403679162, 0.0391247347, 2.38511062  , 2.87        , 3           , 50          , 0           , 0
0.39715898  , 0.0475863181, -9.799398   , 0.00140311674, 0.000201407383, -0.000208841811, -0.184306324, -0.159970343, 0.421868682 , -0.004022842, 0.0391267352, 2.38510823  , 2.88        , 3           , 11          , 0.00739147235, 0.00739147142
0.400163442 , 0.0411664657, -9.779514   , 0.00112298853, -0.000363635074, -0.00105863914, -0.184306324, -0.159970343, 0.421868682 , -0.00401202543, 0.0391230546, 2.38509774  , 2.89        , 3           , 12          , 0.05061216  , 0
0.363592356 , 0.0519478135, -9.772066   , 0.0008476088, -0.000308440765, -0.000776923844, -0.1847108  , -0.159835517, 0.421801269 , -0.00399064971, 0.0392294675, 2.38509059  , 2.9         , 3           , 50          , 0           , 0
0.390508682 , 0.0651883855, -9.777681   , -0.0008678621, 0.00390357571, -0.000778316462, -0.1847108  , -0.160037756, 0.421868682 , -0.003999637, 0.03926848  , 2.38508248  , 2.91        , 3           , 11          , 0.00729502738, 0.007295031
0.396636    , 0.0511056   , -9.770912   , -0.00140926975, -0.000605280162, 0.0011898689, -0.184238911, -0.1597681  , 0.421868682 , -0.004013264, 0.0392624661, 2.385095    , 2.92        , 3           , 12          , 0.05158074  , 0
0.385916948 , 0.0517992266, -9.805342   , -3.527297E-06, 0.000530526158, -0.0002144979, -0.184238911, -0.1597681  , 0.421868682 , -0.0040133833, 0.0392677635, 2.3850925   , 2.93        , 3           , 50          , 0           , 0
0.381038785 , 0.0568505973, -9.814398   , 0.00252823019, 0.0025186697, -0.0007646829, -0.184238911, -0.15990293 , 0.421666443 , -0.00398840476, 0.0392929167, 2.38508487  , 2.94        , 3           , 11          , 0.00729502738, 0.007295031
0.3878567   , 0.03187059  , -9.790043   , -0.00253561046, -0.0014576189, -0.000229387821, -0.184441149, -0.1597681  , 0.421801269 , -0.00401384942, 0.03927833  , 2.38508248  , 2.95        , 3           , 12          , 0.05158074  , 0
0.393390983 , 0.034566626 , -9.805809   , -0.00253117667, -0.002583885, -0.002208886, -0.184373736, -0.15990293 , 0.421801269 , -0.004040022, 0.0392523967, 2.38506055  , 2.96        , 3           , 50          , 0           , 0
0.381548464 , 0.03063086  , -9.801847   , -0.000837357133, -0.002290857, -0.00107040058, -0.184373736, -0.15990293 , 0.421801269 , -0.004048811, 0.03922944  , 2.38505     , 2.97        , 3           , 11          , 0.00729502738, 0.007295031
0.369298458 , 0.0325396769, -9.790182   , -0.00197305554, -0.000890666735, 0.000621726154, -0.184306324, -0.159835517, 0.421801269 , -0.004068297, 0.03922056  , 2.38505626  , 2.98        , 3           , 12          , 0.05158074  , 0
0.383351862 , 0.0404230468, -9.768346   , -0.001985676, 0.00136184692, -0.00191763975, -0.184238911, -0.1597681  , 0.4219361   , -0.00408891 , 0.0392341055, 2.38503671  , 2.99        , 3           , 50          , 0           , 0
0.377402067 , 0.027496459 , -9.794661   , -4.07433254E-06, 0.0005308404, 0.0014806753, -0.1841715  , -0.159700692, 0.421733856 , -0.004091402, 0.03924009  , 2.385052    , 3           , 3           , 11          , 0.00719989836, 0.00719990069
0.38299185  , 0.0347009823, -9.809504   , -0.00198155153, 0.0005174683, 0.000623844157, -0.1841715  , -0.159700692, 0.421733856 , -0.004110975, 0.03924529  , 2.38505769  , 3.01        , 3           , 12          , 0.0525618047, 0
0.383507252 , 0.04635152  , -9.787305   , -0.00169666274, -4.375336E-05, 5.92182E-05 , -0.184104085, -0.159565866, 0.421666443 , -0.004127919, 0.03924485  , 2.38505864  , 3.02        , 3           , 50          , 0           , 0
0.3887322   , 0.0340673327, -9.775563   , -0.000852333731, 0.000525105861, -0.000218500383, -0.184441149, -0.159700692, 0.421801269 , -0.00413652929, 0.0392500944, 2.38505578  , 3.03        , 3           , 11          , 0.00719989836, 0.00719990069
0.364333957 , 0.03171853  , -9.797002   , 0.0005559447, 0.00137935241, 0.000354460848, -0.184373736, -0.159565866, 0.4219361   , -0.00413083425, 0.0392639041, 2.3850596   , 3.04        , 3           , 12          , 0.0525618047, 0
0.3682556   , 0.0533433519, -9.800499   , -0.00282653328, -5.13940467E-05, -0.000228586781, -0.184238911, -0.159565866, 0.421733856 , -0.00415918743, 0.03926338  , 2.38505721  , 3.05        , 3           , 50          , 0           , 0
0.391293943 , 0.0485652834, -9.801699   , 0.00141790672, -0.00171213679, -0.0007765113, -0.184238911, -0.159565866, 0.421733856 , -0.004145314, 0.0392462239, 2.38504958  , 3.06        , 3           , 11          , 0.00719989836, 0.00719990069
0.40095222  , 0.0267779641, -9.797195   , 6.35077549E-06, -0.00200325553, -0.00219621742, -0.184238911, -0.15990293 , 0.421733856 , -0.00414610934, 0.0392261   , 2.38502765  , 3.07        , 3           , 12          , 0.0525618047, 0
0.384705454 , 0.0287981164, -9.804543   , 0.00225345721, 0.000827682961, 0.0006440321, -0.184373736, -0.159700692, 0.4219361   , -0.004123322, 0.0392344072, 2.38503385  , 3.08        , 3           , 50          , 0           , 0
0.387360156 , 0.0255915318, -9.799564   , -0.0005655617, -0.0003176786, 6.4052E-05  , -0.184508562, -0.16024    , 0.421666443 , -0.004128952, 0.03923123  , 2.3850348   , 3.09        , 3           , 11          , 0.00719989836, 0.00719990069
0.372043    , 0.03744021  , -9.781101   , -0.0008311898, 0.002215401 , 6.779075E-05, -0.184508562, -0.16024    , 0.421666443 , -0.00407698145, 0.03925527  , 2.38503766  , 3.1         , 3           , 12          , 0.053554412 , 0
0.366635144 , 0.0393101163, -9.781588   , -0.0005383524, 0.0002463587, 0.00119622  , -0.184643388, -0.15990293 , 0.421868682 , -0.00408189557, 0.039257776 , 2.38505     , 3.11        , 3           , 50          , 0           , 0
0.3690117   , 0.0402674824, -9.805971   , -0.000810769154, -0.00200807746, -0.0007863304, -0.184373736, -0.159835517, 0.421733856 , -0.004090311, 0.0392376631, 2.385042    , 3.12        , 3           , 11          , 0.00710679544, 0.007106798
0.389349163 , 0.04178299  , -9.79089451 , 0.002279361 , 0.001391714 , -0.0004840995, -0.184104085, -0.1597681  , 0.421666443 , -0.00406770734, 0.03925156  , 2.38503718  , 3.13        , 3           , 12          , 0.053554412 , 0
0.379786432 , 0.0467605181, -9.762019   , 0.00228526327, 0.000265455223, 7.92395E-05 , -0.184104085, -0.1597681  , 0.421666443 , -0.00404482428, 0.0392542221, 2.38503766  , 3.14        , 3           , 50          , 0           , 0
0.399711728 , 0.03760188  , -9.791284   , 0.002560394 , 0.001675189 , -0.0004823486, -0.184373736, -0.159700692, 0.421733856 , -0.004019411, 0.03927095  , 2.385033    , 3.15        , 3           , 11          , 0.00710679544, 0.007106798
0.390739739 , 0.0400077961, -9.804451   , 2.13403546E-05, 0.00109486911, -0.0004950689, -0.184238911, -0.159498453, 0.4219361   , -0.004019393, 0.0392818823, 2.38502812  , 3.16        , 3           , 12          , 0.053554412 , 0
0.3921364   , 0.04894986  , -9.784967   , -0.00167519273, 0.00164654327, 0.000910584466, -0.1841715  , -0.159700692, 0.421801269 , -0.004035792, 0.03929838  , 2.38503671  , 3.17        , 3           , 50          , 0           , 0
0.388768    , 0.03454268  , -9.782793   , 0.00169350847, 0.00589294173, 0.00178050913, -0.1841715  , -0.159700692, 0.421801269 , -0.00401816657, 0.0393573828, 2.38505483  , 3.18        , 3           , 11          , 0.00710679544, 0.007106798
0.385106981 , 0.0300903134, -9.787811   , -0.000257067615, 0.000248263183, -0.000780225033, -0.184306324, -0.15990293 , 0.421733856 , -0.004021043, 0.0393598378, 2.38504672  , 3.19        , 3           , 12          , 0.053554412 , 0
0.3884      , 0.06578706  , -9.813852   , -0.0002517872, 0.0005322774, -0.000779523631, -0.184306324, -0.159565866, 0.4219361   , -0.00400972 , 0.03937032  , 2.38503957  , 3.2         , 3           , 50          , 0           , 0
0.3889422   , 0.0458426252, -9.789072   , -0.000242281123, -0.00115710765, 0.001195635 , -0.184373736, -0.159700692, 0.4219361   , -0.00401167059, 0.0393588   , 2.38505149  , 3.21        , 3           , 11          , 0.00701471372, 0.007014717
0.396055222 , 0.03672396  , -9.78589249 , 0.00284334086, 0.00308737764, 0.000934092852, -0.184373736, -0.159700692, 0.4219361   , -0.00398287131, 0.0393897034, 2.38506055  , 3.22        , 3           , 12          , 0.05455765  , 0
0.375116646 , 0.0261665527, -9.793779   , 0.00284703355, 0.00224267971, 8.517847E-05, -0.1841715  , -0.15990293 , 0.421801269 , -0.00395437144, 0.0394121334, 2.3850615   , 3.23        , 3           , 50          , 0           , 0
0.3816665   , 0.04411702  , -9.787327   , 0.00116780656, -0.000865996059, 7.250358E-05, -0.184373736, -0.159700692, 0.421801269 , -0.003942664, 0.0394034758, 2.38506246  , 3.24        , 3           , 11          , 0.00701471372, 0.007014717
0.375353277 , 0.0437659919, -9.79506    , 0.00145007018, -0.0008640867, -0.000208716709, -0.184306324, -0.159700692, 0.421868682 , -0.003928246, 0.03939483  , 2.38506     , 3.25        , 3           , 12          , 0.05455765  , 0
0.36369735  , 0.05783546  , -9.77882    , 0.00257378654, 0.00055138336, 0.00149394548, -0.184306324, -0.159700692, 0.421868682 , -0.003901917, 0.0394004062, 2.38507485  , 3.26        , 3           , 50          , 0           , 0
0.385184079 , 0.0386334658, -9.779187   , 0.002853351 , 0.0008348513, -0.00104714092, -0.184373736, -0.1597681  , 0.421801269 , -0.00387379527, 0.0394087024, 2.38506436  , 3.27        , 3           , 11          , 0.00701471372, 0.007014717
0.3677027   , 0.04657234  , -9.797819   , 0.000317248458, -0.000308597926, -0.0007781916, -0.184643388, -0.1597681  , 0.421801269 , -0.003870928, 0.0394055843, 2.38505673  , 3.28        , 3           , 12          , 0.05455765  , 0
0.390238583 , 0.04265199  , -9.784104   , 0.00116411387, -2.12981831E-05, 0.000921417843, -0.184306324, -0.159835517, 0.421666443 , -0.00385892228, 0.0394054055, 2.38506627  , 3.29        , 3           , 50          , 0           , 0
0.39815262  , 0.0231719222, -9.788644   , -0.00253541744, -0.000353708165, -0.0005100625, -0.184373736, -0.15990293 , 0.421531618 , -0.003946964, 0.0393450074, 2.38505864  , 3.3         , 3           , 11          , 0.00692459848, 0.006924602
0.3765195   , 0.03600639  , -9.772936   , -0.00196433556, -0.00147614535, 0.0006209854, -0.184373736, -0.15990293 , 0.421531618 , -0.003966361, 0.03933027  , 2.38506436  , 3.31        , 3           , 12          , 0.0555707067, 0
0.393356621 , 0.0385559276, -9.78455    , 1.06057269E-05, -0.00118121377, -0.0004995119, -0.1841715  , -0.1597681  , 0.421801269 , -0.00396644836, 0.0393184349, 2.3850596   , 3.32        , 3           , 50          , 0           , 0
0.3838231   , 0.0350764841, -9.79006    , -0.00339975231, 0.0030193415, -0.001073881, -0.184441149, -0.1597681  , 0.4219361   , -0.00400087424, 0.03934859  , 2.385049    , 3.33        , 3           , 11          , 0.00692459848, 0.006924602
0.391085029 , 0.0332200937, -9.799955   , 0.0011339956, 0.0002342547, 0.0006380753, -0.184104085, -0.159835517, 0.421666443 , -0.003989285, 0.0393509567, 2.38505483  , 3.34        , 3           , 12          , 0.0555707067, 0
0.3929135   , 0.0390154161, -9.785455   , -0.00225545256, 0.000211333463, 5.719706E-05, -0.184104085, -0.159835517, 0.421666443 , -0.00401181728, 0.0393530652, 2.38505578  , 3.35        , 3           , 50          , 0           , 0
0.369386554 , 0.0357355364, -9.801467   , -0.00027977 , 0.000224697011, -0.00219388423, -0.184238911, -0.1597681  , 0.421801269 , -0.004015478, 0.0393552221, 2.38503385  , 3.36        , 3           , 11          , 0.00692459848, 0.006924602
0.362876236 , 0.053450983 , -9.813646   , -0.00138972385, -0.0034432807, 0.0006205817, -0.184373736, -0.1597681  , 0.42207092  , -0.004029126, 0.0393208154, 2.38504     , 3.37        , 3           , 12          , 0.0555707067, 0
0.378655434 , 0.0215928666, -9.787896   , 0.00227034674, -0.00116593239, 7.609834E-05, -0.1841715  , -0.1597681  , 0.421666443 , -0.00400639046, 0.03930916  , 2.385041    , 3.38        , 3           , 50          , 0           , 0
0.370524347 , 0.0324163847, -9.758082   , -0.0005590082, -5.87693648E-05, 0.000912277144, -0.1841715  , -0.1597681  , 0.421666443 , -0.004011622, 0.0393086039, 2.38505     , 3.39        , 3           , 11          , 0.00692459848, 0.006924602
0.376572847 , 0.04006675  , -9.77292    , 0.00199027453, 0.00105364062, -0.0007689112, -0.184373736, -0.159700692, 0.421733856 , -0.00396043435, 0.03924921  , 2.38504338  , 3.4         , 3           , 12          , 0.0565927923, 0
0.374098718 , 0.0505613   , -9.798658   , 0.0008559698, 0.00217226567, 0.000922781532, -0.1841715  , -0.159498453, 0.421801269 , -0.00395151461, 0.0392709747, 2.385053    , 3.41        , 3           , 50          , 0           , 0
0.390371144 , 0.05302544  , -9.783156   , -0.0005461543, -8.981011E-05, -0.00106503686, -0.184238911, -0.160105169, 0.421868682 , -0.00395739451, 0.0392700322, 2.38504243  , 3.42        , 3           , 11          , 0.006836661 , 0.0068366616
0.378808767 , 0.0400174931, -9.766123   , -0.000551403966, 0.00103645166, -0.000498226145, -0.184238911, -0.160105169, 0.421868682 , -0.003963104, 0.03928037  , 2.38503718  , 3.43        , 3           , 12          , 0.0565927923, 0
0.3691715   , 0.0221707672, -9.792485   , 0.000580676249, 0.0007625312, 0.00120183243, -0.184238911, -0.160037756, 0.421733856 , -0.0039568264, 0.0392880477, 2.385049    , 3.44        , 3           , 50          , 0           , 0
0.37196207  , 0.0262158588, -9.79742    , 0.00169906823, 0.00302269123, 0.000928034 , -0.184980452, -0.1597681  , 0.421868682 , -0.0039394754, 0.039318312 , 2.38505864  , 3.45        , 3           , 11          , 0.006836661 , 0.0068366616
0.3796154   , 0.02966062  , -9.7752     , 0.00116299943, -0.00289399782, 6.867513E-05, -0.184373736, -0.159633279, 0.421868682 , -0.003927814, 0.03928937  , 2.3850596   , 3.46        , 3           , 12          , 0.0565927923, 0
0.369707167 , 0.03606949  , -9.768017   , 0.0008712149, -0.0006433788, 0.00317874178, -0.184373736, -0.159633279, 0.421868682 , -0.003917852, 0.0392830744, 2.385091    , 3.47        , 3           , 50          , 0           , 0
0.389244139 , 0.0358953476, -9.78414    , 0.0008566368, 0.00160912541, -0.00275107357, -0.184373736, -0.160037756, 0.42159903  , -0.00391036971, 0.0392990448, 2.38506341  , 3.48        , 3           , 11          , 0.006836661 , 0.0068366616
0.3625721   , 0.0353505164, -9.797454   , 0.00311531057, 0.0019059733, -0.001609954, -0.184373736, -0.159633279, 0.4219361   , -0.00387985469, 0.03931805  , 2.3850472   , 3.49        , 3           , 12          , 0.0565927923, 0
0.3775042   , 0.0396306664, -9.780597   , -0.00136663811, -0.00295402668, 0.000622256543, -0.184238911, -0.159700692, 0.4219361   , -0.003865642, 0.0391891077, 2.38505483  , 3.5         , 3           , 50          , 0           , 0
0.394277781 , 0.0394506231, -9.785442   , -0.000823184, 0.00127326674, -0.000216212822, -0.184104085, -0.1597681  , 0.421531618 , -0.00387396035, 0.039201837 , 2.385053    , 3.51        , 3           , 11          , 0.00675075874, 0.0067507606
0.3781421   , 0.0504877679, -9.790945   , 2.93462654E-05, 0.000152734923, -0.0007790727, -0.184104085, -0.1597681  , 0.421531618 , -0.00387397083, 0.0392033346, 2.38504529  , 3.52        , 3           , 12          , 0.0576231778, 0
0.395282745 , 0.0453231037, -9.790834   , -0.00195739954, 0.00211032061, -0.000785253767, -0.184373736, -0.159835517, 0.421733856 , -0.00389385642, 0.0392244   , 2.38503718  , 3.53        , 3           , 50          , 0           , 0
0.392272621 , 0.05664816  , -9.793522   , 0.000315213721, -0.000408482127, 0.000351526018, -0.184306324, -0.159970343, 0.421733856 , -0.00389056513, 0.03922033  , 2.38504052  , 3.54        , 3           , 11          , 0.00675075874, 0.0067507606
0.379080623 , 0.0496111065, -9.801787   , 0.00312005519, 0.00327095785, -0.00188996329, -0.1841715  , -0.15990293 , 0.42159903  , -0.00386011251, 0.03925297  , 2.38502145  , 3.55        , 3           , 12          , 0.0576231778, 0
0.3794433   , 0.0437302366, -9.798646   , -0.00110036111, 0.000145095022, -0.0007843405, -0.1841715  , -0.15990293 , 0.42159903  , -0.00387142482, 0.0392543934, 2.38501382  , 3.56        , 3           , 50          , 0           , 0
0.38602823  , 0.0260752626, -9.8045435  , -0.000812847633, -0.0009792577, -0.00163237192, -0.184441149, -0.159835517, 0.421868682 , -0.00388019322, 0.0392445363, 2.38499761  , 3.57        , 3           , 11          , 0.00675075874, 0.0067507606
0.3971614   , 0.04580288  , -9.805734   , 0.0017181678, 0.00129045418, -0.00105197285, -0.184238911, -0.159835517, 0.4219361   , -0.00386342639, 0.0392574035, 2.384987    , 3.58        , 3           , 12          , 0.0576231778, 0
0.380472839 , 0.05006898  , -9.808555   , -0.00194124994, -0.0009868913, 0.0006226602, -0.184104085, -0.15990293 , 0.421801269 , -0.00388259417, 0.03924756  , 2.38499284  , 3.59        , 3           , 50          , 0           , 0
0.398727238 , 0.03933397  , -9.766425   , 0.0008648178, -0.00181468029, -0.000213998384, -0.184104085, -0.15990293 , 0.421801269 , -0.00392642245, 0.0392241552, 2.384989    , 3.6         , 3           , 11          , 0.006668041 , 0.006668043
0.3847932   , 0.0467232168, -9.768309   , -0.00252897548, -0.0009929072, -0.00107611227, -0.184238911, -0.159835517, 0.421666443 , -0.00395213533, 0.0392141864, 2.384978    , 3.61        , 3           , 12          , 0.058661174 , 0
0.3711375   , 0.0401290245, -9.772509   , -0.00197158149, 0.0004187358, -0.00191892125, -0.184306324, -0.159565866, 0.4220035   , -0.003972603, 0.0392182954, 2.38495851  , 3.62        , 3           , 50          , 0           , 0
0.368293226 , 0.0288987681, -9.777549   , 0.00197377848, 0.00241643633, 8.03156E-05 , -0.183969259, -0.1597681  , 0.421733856 , -0.00395283848, 0.039242465 , 2.38495946  , 3.63        , 3           , 11          , 0.006668041 , 0.006668043
0.387591541 , 0.0436330475, -9.798132   , 0.000571402139, 0.000435931 , 7.069341E-05, -0.183969259, -0.1597681  , 0.421733856 , -0.00394709641, 0.0392468274, 2.38496041  , 3.64        , 3           , 12          , 0.058661174 , 0
0.394875526 , 0.0489361137, -9.79037    , -0.000555843464, -0.000134840491, -0.000500516966, -0.184441149, -0.15990293 , 0.421801269 , -0.003952852, 0.03924546  , 2.38495517  , 3.65        , 3           , 50          , 0           , 0
0.3756392   , 0.037376523 , -9.774746   , 0.00140704121, 0.00269417954, -0.000769496546, -0.184441149, -0.159970343, 0.421666443 , -0.00393908843, 0.03927237  , 2.384947    , 3.66        , 3           , 11          , 0.006668041 , 0.006668043
0.386010349 , 0.0296315588, -9.78871    , -0.00224622246, -0.0009909957, -0.000509720354, -0.184373736, -0.159970343, 0.421801269 , -0.003961747, 0.0392624363, 2.38494229  , 3.67        , 3           , 12          , 0.058661174 , 0
0.388898551 , 0.0422364362, -9.789992   , 0.00423893146, 0.00130545651, 0.0003716528, -0.184373736, -0.159970343, 0.421801269 , -0.003919213, 0.0392755046, 2.384946    , 3.68        , 3           , 50          , 0           , 0
0.383932322 , 0.04409196  , -9.787762   , 0.00170143577, 0.0004435725, 0.0006410362, -0.184238911, -0.159700692, 0.421733856 , -0.003901949, 0.0392799675, 2.38495278  , 3.69        , 3           , 11          , 0.006668041 , 0.006668043
0.37258786  , 0.04599014  , -9.77609    , 0.00140553527, 0.00100323616, 7.509922E-05, -0.184373736, -0.159633279, 0.421868682 , -0.003913372, 0.0392861776, 2.38495231  , 3.7         , 3           , 12          , 0.0597061478, 0
0.3723044   , 0.05059616  , -9.80274    , 3.737281E-06, -0.00125883822, -0.00134764414, -0.184306324, -0.159835517, 0.4219361   , -0.003913862, 0.039273534 , 2.38493848  , 3.71        , 3           , 50          , 0           , 0
0.374516219 , 0.0456175134, -9.805907   , 0.00141594582, -0.0009677164, 0.0012022116, -0.184306324, -0.159835517, 0.4219361   , -0.00389922736, 0.0392639   , 2.38495088  , 3.72        , 3           , 11          , 0.006586644 , 0.0065866434
0.381180525 , 0.0369538069, -9.802276   , 0.00113228813, -0.0006880605, 0.00148386613, -0.1841715  , -0.159633279, 0.42159903  , -0.003887322, 0.03925708  , 2.38496566  , 3.73        , 3           , 12          , 0.0597061478, 0
0.372129321 , 0.0330466256, -9.816373   , -0.0008543689, 0.0009879541, -0.0007830485, -0.184238911, -0.159835517, 0.421666443 , -0.00389617356, 0.03926692  , 2.38495755  , 3.74        , 3           , 50          , 0           , 0
0.369451165 , 0.04248315  , -9.795563   , -0.00056308863, -0.000699524244, 6.327707E-05, -0.184306324, -0.159633279, 0.4219361   , -0.00390177919, 0.0392599255, 2.38495851  , 3.75        , 3           , 11          , 0.006586644 , 0.0065866434
0.3581753   , 0.0489004143, -9.786131   , 0.0008496237, -0.000971543253, -0.00134325947, -0.184238911, -0.160172582, 0.421733856 , -0.00389380823, 0.0392501578, 2.38494515  , 3.76        , 3           , 12          , 0.0597061478, 0
0.373648    , 0.0559244975, -9.781916   , 0.002556894 , -0.0034941677, -0.00105672574, -0.184238911, -0.160172582, 0.421733856 , -0.00386864878, 0.0392151773, 2.38493466  , 3.77        , 3           , 50          , 0           , 0
0.4025345   , 0.0474756658, -9.785346   , -0.00113073026, -0.000140213815, 6.151108E-05, -0.184238911, -0.159700692, 0.421801269 , -0.00387992966, 0.0392137766, 2.38493562  , 3.78        , 3           , 11          , 0.006586644 , 0.0065866434
0.3884153   , 0.04132433  , -9.78548    , 0.00056308927, 0.000152814144, 0.00119999656, -0.184508562, -0.159970343, 0.4220035   , -0.003873828, 0.03921535  , 2.384947    , 3.79        , 3           , 12          , 0.0597061478, 0
0.38176626  , 0.05044674  , -9.79136848 , -0.00143543 , -0.0007209755, 0.00147093483, -0.184441149, -0.159835517, 0.421666443 , -0.00395310344, 0.03916843  , 2.38495946  , 3.8         , 3           , 50          , 0           , 0
0.409264773 , 0.03975811  , -9.794818   , 0.004206714 , 0.000443480327, 8.63216555E-05, -0.184441149, -0.159835517, 0.421666443 , -0.00391100347, 0.03917287  , 2.38496041  , 3.81        , 3           , 11          , 0.0065072854, 0.00650728354
0.375593424 , 0.0284124613, -9.79241    , 0.00419433136, 0.002977567 , 0.000372764538, -0.184104085, -0.1597681  , 0.421666443 , -0.00386891887, 0.0392026566, 2.38496423  , 3.82        , 3           , 12          , 0.0607575141, 0
0.378263772 , 0.0612987578, -9.785927   , 0.0008214485, -0.000424136146, -0.0004958581, -0.184441149, -0.160037756, 0.421801269 , -0.00386089715, 0.0391984   , 2.38495946  , 3.83        , 3           , 50          , 0           , 0
0.397749126 , 0.06197551  , -9.786678   , 0.0008296493, -0.00211352739, -0.0007809992, -0.1841715  , -0.15990293 , 0.421666443 , -0.00385290384, 0.0391772278, 2.38495135  , 3.84        , 3           , 11          , 0.0065072854, 0.00650728354
0.374851048 , 0.03480422  , -9.811826   , 0.003650388 , -0.00124972942, 0.0003636217, -0.1841715  , -0.15990293 , 0.421666443 , -0.0038162556, 0.039164748 , 2.38495469  , 3.85        , 3           , 12          , 0.0607575141, 0
0.374971449 , 0.0189073123, -9.781607   , -3.066656E-05, 0.000414826034, -0.001628657, -0.184104085, -0.159970343, 0.421868682 , -0.00381720113, 0.0391688347, 2.38493848  , 3.86        , 3           , 50          , 0           , 0
0.3738436   , 0.0383031145, -9.77566    , -2.36965425E-05, -0.0009929994, -0.00163082685, -0.184306324, -0.1597681  , 0.4220035   , -0.003818075, 0.03915884  , 2.38492227  , 3.87        , 3           , 11          , 0.0065072854, 0.00650728354
0.387007058 , 0.0395145044, -9.77917    , -0.000307606155, -0.000431772874, 0.00062902394, -0.184238911, -0.160037756, 0.421666443 , -0.003820903, 0.0391545445, 2.384929    , 3.88        , 3           , 12          , 0.0607575141, 0
0.386893332 , 0.0242464244, -9.800477   , -0.0003008881, -0.00155802781, 0.00260505034, -0.184238911, -0.160037756, 0.421666443 , -0.00382289 , 0.0391390659, 2.38495469  , 3.89        , 3           , 50          , 0           , 0
0.36569187  , 0.0285777859, -9.80695    , 0.000528247561, 0.00126046245, -0.000212169, -0.1841715  , -0.159835517, 0.42159903  , -0.00382438418, 0.039144177 , 2.38495231  , 3.9         , 3           , 11          , 0.00642994326, 0.0064299386
0.388065964 , 0.0476623923, -9.790427   , -2.25028489E-05, -0.00155900733, 6.33950549E-05, -0.184441149, -0.159835517, 0.4220035   , -0.00382458256, 0.0391285866, 2.38495278  , 3.91        , 3           , 12          , 0.06181469  , 0
0.397568583 , 0.04977779  , -9.781759   , 0.00165983837, 0.0009865398, 0.0006402771, -0.184306324, -0.159700692, 0.421868682 , -0.0038077347, 0.0391384736, 2.38495946  , 3.92        , 3           , 50          , 0           , 0
0.388786525 , 0.0394675434, -9.771473   , 0.000525622745, 0.00182359328, 7.123612E-05, -0.184306324, -0.159700692, 0.421868682 , -0.0038024527, 0.0391567163, 2.38496041  , 3.93        , 3           , 11          , 0.00642994326, 0.0064299386
0.3862627   , 0.04322657  , -9.80673    , 0.00165435113, 0.00183122884, -0.00161872094, -0.184238911, -0.159700692, 0.421733856 , -0.00378654571, 0.0391749665, 2.3849442   , 3.94        , 3           , 12          , 0.06181469  , 0
0.383759856 , 0.0301153343, -9.790534   , 0.00109154417, 0.0015458467, -0.000491638668, -0.184575975, -0.15990293 , 0.4219361   , -0.00377582363, 0.0391904   , 2.38493848  , 3.95        , 3           , 50          , 0           , 0
0.391790569 , 0.0299228914, -9.761546   , -2.406002E-05, -0.001277443, -0.000218708272, -0.184508562, -0.159835517, 0.421733856 , -0.00377614819, 0.03917762  , 2.38493657  , 3.96        , 3           , 11          , 0.00642994326, 0.0064299386
0.3934011   , 0.038145598 , -9.796754   , -0.0005921911, -0.0007181353, -0.00106808683, -0.184508562, -0.159835517, 0.421733856 , -0.00378248817, 0.0391704068, 2.384926    , 3.97        , 3           , 12          , 0.06181469  , 0
0.364826143 , 0.03710132  , -9.789294   , 0.002776021 , 0.003528261 , -0.00104577455, -0.1841715  , -0.15990293 , 0.421666443 , -0.00375514268, 0.03920564  , 2.38491559  , 3.98        , 3           , 50          , 0           , 0
0.397890776 , 0.03940054  , -9.78315449 , -0.00170902594, -0.003259859, -0.0005121849, -0.184306324, -0.15990293 , 0.421733856 , -0.00377243012, 0.0391730219, 2.38491035  , 3.99        , 3           , 11          , 0.00642994326, 0.0064299386
0.4148562   , 0.0491957031, -9.802872   , 0.000524396 , 0.00126833934, -0.00134243723, -0.184575975, -0.15990293 , 0.421801269 , -0.00377626531, 0.0392066576, 2.38489652  , 4           , 3           , 12          , 0.06287716  , 0
0.368533552 , 0.04382304  , -9.788334   , 0.00024041209, 0.00154799363, -0.00162585767, -0.184238911, -0.159970343, 0.42159903  , -0.00377450325, 0.03922208  , 2.3848803   , 4.01        , 3           , 50          , 0           , 0
0.39973554  , 0.0420846678, -9.782679   , -0.00200810237, -0.00043823602, 0.000338331331, -0.184238911, -0.159970343, 0.42159903  , -0.00379445 , 0.0392177179, 2.38488364  , 4.02        , 3           , 11          , 0.006355148 , 0.00635514176
0.380878657 , 0.0495792627, -9.798611   , 0.00138004054, -0.000415321119, -0.00134109007, -0.184441149, -0.159970343, 0.421733856 , -0.00378117431, 0.0392135121, 2.38487029  , 4.03        , 3           , 12          , 0.06287716  , 0
0.374289155 , 0.0284722485, -9.805528   , 0.000241390953, 0.0015479984, 6.93668844E-05, -0.184306324, -0.159835517, 0.4220035   , -0.00377873657, 0.0392289944, 2.38487077  , 4.04        , 3           , 50          , 0           , 0
0.3622932   , 0.046209164 , -9.805094   , -3.2835E-05 , -0.000143302721, -0.000217090914, -0.1841715  , -0.1603074  , 0.421666443 , -0.00377915078, 0.0392275527, 2.38486886  , 4.05        , 3           , 11          , 0.006355148 , 0.00635514176
0.399083555 , 0.0547985919, -9.803873   , 0.00138159783, -0.0006968854, -0.00105898664, -0.1841715  , -0.1603074  , 0.421666443 , -0.00376574835, 0.0392205454, 2.38485837  , 4.06        , 3           , 12          , 0.06287716  , 0
0.404247284 , 0.0353232063, -9.800299   , 0.0012437877, -0.00140175351, -0.00120199856, -0.184238911, -0.160172582, 0.421868682 , -0.00375377946, 0.0392064825, 2.384846    , 4.07        , 3           , 50          , 0           , 0
0.355207741 , 0.0273042563, -9.794379   , 0.0003967075, -0.00126669661, 0.0003482236, -0.1841715  , -0.1603074  , 0.421868682 , -0.00374967512, 0.0391938277, 2.38484979  , 4.08        , 3           , 11          , 0.006355148 , 0.00635514176
0.3739655   , 0.04688254  , -9.777883   , -0.00143997138, -0.0009975438, 0.00118770986, -0.184104085, -0.1597681  , 0.421801269 , -0.00376360561, 0.0391838923, 2.38486171  , 4.09        , 3           , 12          , 0.06287716  , 0
0.3738887   , 0.0463739447, -9.760711   , -0.00243604812, -0.00213990128, 0.00132206955, -0.184104085, -0.1597681  , 0.421801269 , -0.00382373249, 0.0391367748, 2.38487363  , 4.1         , 3           , 50          , 0           , 0
0.3861304   , 0.03820948  , -9.790482   , -0.00258230371, -0.00115537923, 0.00104039244, -0.184104085, -0.159565866, 0.421666443 , -0.00384914572, 0.0391252637, 2.384884    , 4.11        , 3           , 11          , 0.00628262665, 0.0062826206
0.39758864  , 0.0114820749, -9.799092   , -0.000615771045, 0.0009697286, 0.00105286553, -0.184373736, -0.15990293 , 0.421868682 , -0.00385489454, 0.0391350053, 2.38489461  , 4.12        , 3           , 12          , 0.06394444  , 0
0.406972528 , 0.0393153876, -9.789413   , 0.00136343355, 0.00041996545, 7.233498E-05, -0.184238911, -0.159970343, 0.421733856 , -0.00384122971, 0.0391391963, 2.384895    , 4.13        , 3           , 50          , 0           , 0
0.404603243 , 0.06551708  , -9.790227   , 0.0006626162, -0.000711071247, -0.0004977681, -0.184238911, -0.159970343, 0.421733856 , -0.003834799, 0.03913207  , 2.38488984  , 4.14        , 3           , 11          , 0.00628262665, 0.0062826206
0.393934518 , 0.0489180237, -9.78179    , -0.0008930298, -0.000158443625, 0.000343468972, -0.184306324, -0.159835517, 0.421666443 , -0.00384359458, 0.0391305   , 2.38489366  , 4.15        , 3           , 12          , 0.06394444  , 0
0.382182837 , 0.0468412936, -9.794092   , -0.00286653265, -0.0008757261, 0.0003331656, -0.1841715  , -0.159835517, 0.4219361   , -0.003872128, 0.0391217545, 2.384897    , 4.16        , 3           , 50          , 0           , 0
0.3845718   , 0.02958249  , -9.769285   , -0.00230377 , -0.000449558516, 0.000336450379, -0.184238911, -0.159700692, 0.421801269 , -0.003895034, 0.0391172767, 2.38490033  , 4.17        , 3           , 11          , 0.00628262665, 0.0062826206
0.381753445 , 0.0232831538, -9.764814   , -0.0010383809, 0.000544510956, -0.000786254532, -0.184238911, -0.159700692, 0.421801269 , -0.0039057266, 0.0391226858, 2.3848927   , 4.18        , 3           , 12          , 0.06394444  , 0
0.3840493   , 0.021050714 , -9.77972    , -0.000757140457, 0.000687201042, -0.00163233315, -0.184441149, -0.159835517, 0.421666443 , -0.00391393667, 0.0391294956, 2.384876    , 4.19        , 3           , 50          , 0           , 0
0.3649322   , 0.047007    , -9.783376   , 0.00038327917, 0.000426316343, -0.001062011, -0.184508562, -0.15990293 , 0.421868682 , -0.00388524821, 0.03917033  , 2.38486648  , 4.2         , 3           , 11          , 0.006211534 , 0.006211527
0.3882475   , 0.02869058  , -9.785081   , 0.0008114277, -0.000415512361, -0.000496262452, -0.1841715  , -0.15990293 , 0.422138333 , -0.003877328, 0.0391661525, 2.38486123  , 4.21        , 3           , 12          , 0.06501607  , 0
0.3860116   , 0.0287398361, -9.791878   , 0.0003870089, -0.0002775951, -0.000639289559, -0.1841715  , -0.15990293 , 0.422138333 , -0.00387370773, 0.0391633473, 2.384855    , 4.22        , 3           , 50          , 0           , 0
0.404250115 , 0.0442525   , -9.772238   , 0.0008085582, 0.00014761748, -0.0006366633, -0.184508562, -0.160037756, 0.421666443 , -0.00386587018, 0.0391647965, 2.38484883  , 4.23        , 3           , 11          , 0.006211534 , 0.006211527
0.402332842 , 0.0343680829, -9.778171   , 0.000520592555, 0.001412754 , 0.000635391159, -0.184373736, -0.159835517, 0.421868682 , -0.00386041822, 0.03917895  , 2.384855    , 4.24        , 3           , 12          , 0.06501607  , 0
0.382234633 , 0.05134675  , -9.792264   , -0.000185964062, 0.00140797661, -0.00021551369, -0.184104085, -0.159633279, 0.421868682 , -0.00386236538, 0.03919302  , 2.38485265  , 4.25        , 3           , 50          , 0           , 0
0.377296746 , 0.0487618223, -9.811296   , -0.000464453624, 0.0005613702, -0.0006419387, -0.184441149, -0.160172582, 0.42159903  , -0.00386726041, 0.0391986072, 2.384846    , 4.26        , 3           , 11          , 0.006211534 , 0.006211527
0.382897973 , 0.0261442252, -9.81406    , -0.00130419293, -0.000852182449, 0.000340821949, -0.184441149, -0.160172582, 0.42159903  , -0.00388016878, 0.0391901024, 2.38484979  , 4.27        , 3           , 12          , 0.06501607  , 0
0.381636262 , 0.0333801024, -9.81449    , -0.00186318147, -0.002123047, -0.0003701083, -0.1841715  , -0.15990293 , 0.4220035   , -0.00389894145, 0.0391688533, 2.384846    , 4.28        , 3           , 50          , 0           , 0
0.374646157 , 0.0274965949, -9.78519    , -0.0008843642, -0.0001454062, -0.000221192749, -0.184441149, -0.160172582, 0.421868682 , -0.003907871, 0.039167393 , 2.384844    , 4.29        , 3           , 11          , 0.006211534 , 0.006211527
0.381274    , 0.0174643211, -9.777045   , 9.95269147E-05, 0.00267702364, 0.00162457058, -0.184238911, -0.159835517, 0.421801269 , -0.003882391, 0.039194487 , 2.38486123  , 4.3         , 3           , 12          , 0.0660916045, 0
0.3541355   , 0.0436206162, -9.811947   , 0.00109343382, 0.00155744748, 0.00134490686, -0.184238911, -0.159835517, 0.421801269 , -0.00387093076, 0.03921011  , 2.38487458  , 4.31        , 3           , 50          , 0           , 0
0.373252481 , 0.0225740783, -9.792454   , 0.002791524 , 0.000724209065, 0.000221356822, -0.184238911, -0.1597681  , 0.421801269 , -0.003842929, 0.03921736  , 2.38487649  , 4.32        , 3           , 11          , 0.00614241464, 0.006142409
0.386858433 , 0.0224327464, -9.797773   , 0.00250467029, 0.00156699319, -0.00020246458, -0.184441149, -0.1597681  , 0.421801269 , -0.00381796435, 0.0392330326, 2.38487458  , 4.33        , 3           , 12          , 0.0660916045, 0
0.4024021   , 0.0397803858, -9.777696   , 0.000666849548, 0.00183614052, -0.00134074059, -0.184508562, -0.159835517, 0.421733856 , -0.00381182414, 0.03925133  , 2.38486123  , 4.34        , 3           , 50          , 0           , 0
0.365279436 , 0.03531106  , -9.795172   , -3.8602142E-05, 0.00169058261, -0.00148551853, -0.184508562, -0.159835517, 0.421733856 , -0.003812795, 0.0392681845, 2.384846    , 4.35        , 3           , 11          , 0.00614241464, 0.006142409
0.396012485 , 0.0241915174, -9.815775   , 0.00167235325, -0.00139516836, 0.00035410322, -0.184441149, -0.15990293 , 0.4214642   , -0.00379593042, 0.03925424  , 2.38484979  , 4.36        , 3           , 12          , 0.0660916045, 0
0.3825597   , 0.0449890345, -9.781441   , 0.0005483406, -0.002388282, 0.0017600042, -0.184238911, -0.159835517, 0.421801269 , -0.00378975226, 0.0392304324, 2.38486743  , 4.37        , 3           , 50          , 0           , 0
0.378552735 , 0.0540190861, -9.769231   , -0.0008819526, 0.001121728 , 0.0004874251, -0.184104085, -0.159970343, 0.421801269 , -0.00379838212, 0.0392416641, 2.38487267  , 4.38        , 3           , 11          , 0.00614241464, 0.006142409
0.3843729   , 0.0427377149, -9.78912    , 0.00109020062, 0.0019797897, -0.0006322044, -0.184104085, -0.159970343, 0.421801269 , -0.00378773035, 0.039261438 , 2.384866    , 4.39        , 3           , 12          , 0.0660916045, 0
0.360784173 , 0.0416395143, -9.782977   , 0.00166090776, 0.000428484142, -0.000208282887, -0.184306324, -0.1597681  , 0.42159903  , -0.00377728022, 0.0392465   , 2.38486314  , 4.4         , 3           , 50          , 0           , 0
0.357942432 , 0.0664915442, -9.783348   , 0.00138028292, 0.000145011087, 0.000496309833, -0.184238911, -0.159633279, 0.4220035   , -0.00376328244, 0.0392479673, 2.38486838  , 4.41        , 3           , 11          , 0.00607500551, 0.00607500039
0.360595167 , 0.06060527  , -9.786516   , -0.0008787608, -1.10527772E-05, -7.95174637E-05, -0.184643388, -0.159970343, 0.4219361   , -0.00377209927, 0.03924785  , 2.384868    , 4.42        , 3           , 12          , 0.06717066  , 0
0.3764369   , 0.0225489587, -9.796043   , -3.10277755E-05, -0.0001461066, -0.0004995898, -0.184643388, -0.159970343, 0.4219361   , -0.003772607, 0.0392463729, 2.38486266  , 4.43        , 3           , 50          , 0           , 0
0.409795    , 0.02114293  , -9.7628     , 0.00236148085, 0.00155951991, -6.19860657E-05, -0.184238911, -0.160037756, 0.421801269 , -0.0037490204, 0.0392619669, 2.38486218  , 4.44        , 3           , 11          , 0.00607500551, 0.00607500039
0.392759562 , 0.0299636722, -9.776906   , 0.00123230717, 0.00141109666, -0.000350008253, -0.184373736, -0.159565866, 0.421801269 , -0.003736836, 0.039276056 , 2.38485837  , 4.45        , 3           , 12          , 0.06717066  , 0
0.376401037 , 0.0621709153, -9.770569   , -0.000308575982, -0.00113349431, -0.0005024254, -0.184373736, -0.1597681  , 0.4220035   , -0.00374011626, 0.03926471  , 2.3848536   , 4.46        , 3           , 50          , 0           , 0
0.373634219 , 0.0523424968, -9.790067   , -0.00115389144, -0.0014207866, 0.0004820709, -0.184306324, -0.15990293 , 0.42159903  , -0.003751463, 0.0392505154, 2.38485837  , 4.47        , 3           , 11          , 0.00607500551, 0.00607500039
0.401928842 , 0.0321811475, -9.797166   , 0.000825106 , -0.00182976492, 0.0003493698, -0.184306324, -0.15990293 , 0.42159903  , -0.003743075, 0.039232228 , 2.38486218  , 4.48        , 3           , 12          , 0.06717066  , 0
0.397346139 , 0.0286190454, -9.795407   , -0.000165108213, -0.00155488623, -0.000219880487, -0.184306324, -0.15990293 , 0.421801269 , -0.003744808, 0.0392166749, 2.3848598   , 4.49        , 3           , 50          , 0           , 0
0.367827535 , 0.0239837486, -9.790229   , -0.00299970922, -0.00100687938, -0.000232493636, -0.1847108  , -0.159835517, 0.421868682 , -0.00379771134, 0.0392185934, 2.38485646  , 4.5         , 3           , 11          , 0.006009701 , 0.006009696
0.37165612  , 0.0459796041, -9.769769   , -0.00299528264, -0.00185157335, 0.000190010775, -0.184373736, -0.15990293 , 0.421801269 , -0.00382758537, 0.0392000824, 2.38485837  , 4.51        , 3           , 12          , 0.068252854 , 0
0.38558203  , 0.0350128934, -9.777391   , -0.0007350081, -0.00197707536, 0.000482866657, -0.184373736, -0.15990293 , 0.421801269 , -0.00383474422, 0.0391803272, 2.38486314  , 4.52        , 3           , 50          , 0           , 0
0.4119312   , 0.04236357  , -9.773995   , 0.00109183125, -0.000275272585, -0.0004948508, -0.184373736, -0.159633279, 0.421733856 , -0.00382401771, 0.0391775556, 2.38485837  , 4.53        , 3           , 11          , 0.006009701 , 0.006009696
0.3962019   , 0.0435381   , -9.799873   , -0.000884377747, -0.000429424574, -0.000363017578, -0.184441149, -0.1597681  , 0.4220035   , -0.00383300288, 0.03917325  , 2.38485456  , 4.54        , 3           , 12          , 0.068252854 , 0
0.378071666 , 0.0459671728, -9.78825    , -0.00144628028, -0.0009963738, -8.39817658E-05, -0.184306324, -0.159970343, 0.42159903  , -0.00384749658, 0.03916328  , 2.384854    , 4.55        , 3           , 50          , 0           , 0
0.376764864 , 0.0527201481, -9.779194   , -0.000749682134, 0.000838572 , -0.000784212432, -0.184306324, -0.159970343, 0.42159903  , -0.0038553  , 0.0391716361, 2.384846    , 4.56        , 3           , 11          , 0.006009701 , 0.006009696
0.410815954 , 0.05596698  , -9.789767   , -0.00103543082, 0.00154057541, -0.000501907256, -0.1841715  , -0.159970343, 0.421733856 , -0.00386585318, 0.0391870178, 2.3848412   , 4.57        , 3           , 12          , 0.068252854 , 0
0.412947267 , 0.04556694  , -9.790698   , 0.0003705935, 0.0028171686, -0.000210832353, -0.184441149, -0.159700692, 0.42207092  , -0.00386223453, 0.03921518  , 2.38483882  , 4.58        , 3           , 50          , 0           , 0
0.3693591   , 0.0415158346, -9.776133   , 0.00192500884, 0.002546107 , -0.000769098, -0.184036672, -0.1597681  , 0.421733856 , -0.003843291, 0.03924061  , 2.38483071  , 4.59        , 3           , 11          , 0.006009701 , 0.006009696
0.359755933 , 0.0294993   , -9.792075   , 0.000785766169, 0.0008625326, -0.000777709763, -0.184036672, -0.1597681  , 0.421733856 , -0.00389114418, 0.0392907448, 2.38482022  , 4.6         , 3           , 12          , 0.06933781  , 0
0.38027063  , 0.03874636  , -9.795495   , 0.000648979447, 1.68835413E-05, -0.000355863769, -0.184306324, -0.160105169, 0.421801269 , -0.00388479512, 0.039290905 , 2.38481736  , 4.61        , 3           , 50          , 0           , 0
0.401421279 , 0.0312493835, -9.7867775  , -5.43811439E-05, -0.000551021949, -0.0005012927, -0.184306324, -0.159835517, 0.421801269 , -0.00388553645, 0.0392853729, 2.38481164  , 4.62        , 3           , 11          , 0.00594603363, 0.00594602758
0.36293444  , 0.02902303  , -9.795669   , -0.00147024507, 0.000143339683, -0.0009305988, -0.184104085, -0.160037756, 0.421733856 , -0.00390060386, 0.0392867737, 2.384803    , 4.63        , 3           , 12          , 0.06933781  , 0
0.358943224 , 0.0416365862, -9.77576    , -0.0009104335, 0.00113263668, -0.00120898371, -0.184104085, -0.160037756, 0.421733856 , -0.003910187, 0.0392980538, 2.38479066  , 4.64        , 3           , 50          , 0           , 0
0.40087226  , 0.02715956  , -9.776403   , 0.000491408631, 0.00325392513, -0.000916607, -0.184441149, -0.15990293 , 0.421801269 , -0.003905639, 0.039330557 , 2.38478112  , 4.65        , 3           , 11          , 0.00594603363, 0.00594602758
0.383660018 , 0.0487070531, -9.817124   , 0.00106868229, 0.0008644447, 7.12196E-05 , -0.184373736, -0.159633279, 0.421868682 , -0.003894924, 0.0393392034, 2.384782    , 4.66        , 3           , 12          , 0.06933781  , 0
0.390720874 , 0.0422242433, -9.792689   , -0.000613495649, -0.00168110128, -0.000223124953, -0.184104085, -0.1597681  , 0.421801269 , -0.00390114356, 0.03932238  , 2.38477969  , 4.67        , 3           , 50          , 0           , 0
0.3946275   , 0.0362373553, -9.770537   , -0.0006173886, -0.0009771906, -0.0009283837, -0.184104085, -0.1597681  , 0.421801269 , -0.00390768331, 0.039312575 , 2.38477063  , 4.68        , 3           , 11          , 0.00594603363, 0.00594602758
0.381072372 , 0.0319563746, -9.791903   , 0.00108672283, -0.00279590115, -7.569029E-05, -0.184441149, -0.15990293 , 0.421868682 , -0.003896841, 0.039284613 , 2.38476968  , 4.69        , 3           , 12          , 0.06933781  , 0
0.384720445 , 0.03907632  , -9.775122   , 0.00235799165, -0.00250521256, 0.00091961585, -0.184373736, -0.159565866, 0.421801269 , -0.00386918918, 0.0392612666, 2.38477921  , 4.7         , 3           , 50          , 0           , 0
0.3714099   , 0.0306041837, -9.758986   , 0.000798289548, -0.00124867528, 0.0007730567, -0.1841715  , -0.15990293 , 0.421868682 , -0.003860903, 0.0392488129, 2.38478684  , 4.71        , 3           , 11          , 0.00588448253, 0.005884476
0.3734818   , 0.0428456441, -9.783327   , -0.00118296174, -0.0004173502, 0.000623871165, -0.184306324, -0.160037756, 0.421531618 , -0.003872485, 0.0392446555, 2.38479352  , 4.72        , 3           , 12          , 0.07042523  , 0
0.380277961 , 0.04366216  , -9.781464   , -0.00062159315, 0.0002903824, 0.0006275899, -0.184306324, -0.160037756, 0.421531618 , -0.00387845444, 0.0392475836, 2.38479972  , 4.73        , 3           , 50          , 0           , 0
0.364671618 , 0.0298345238, -9.774861   , 8.956038E-05, -0.000831105164, -0.000218465822, -0.1841715  , -0.1597681  , 0.421801269 , -0.00387764233, 0.03923926  , 2.38479733  , 4.74        , 3           , 11          , 0.00588448253, 0.005884476
0.369346619 , 0.0397203043, -9.778852   , 0.000233272687, -0.00125249615, 0.0004878855, -0.184104085, -0.159700692, 0.4219361   , -0.003875117, 0.0392267555, 2.384802    , 4.75        , 3           , 12          , 0.07042523  , 0
0.386441827 , 0.0336261354, -9.770611   , 0.002636192 , -0.00151782215, 0.00205260143, -0.184508562, -0.159835517, 0.421531618 , -0.00384794641, 0.0392116569, 2.384823    , 4.76        , 3           , 50          , 0           , 0
0.396602571 , 0.0461686328, -9.778618   , 0.00404435163, -0.0008043619, 0.00121265859, -0.184508562, -0.159835517, 0.421531618 , -0.00380702666, 0.0392036624, 2.38483548  , 4.77        , 3           , 11          , 0.00588448253, 0.005884476
0.351304084 , 0.0448986143, -9.779873   , 0.00163716893, 0.000305658963, -0.0004920245, -0.184441149, -0.159700692, 0.421868682 , -0.00379084749, 0.0392067   , 2.38483024  , 4.78        , 3           , 12          , 0.07042523  , 0
0.372822046 , 0.0301854573, -9.773441   , -0.000341828418, 0.0007146371, -0.000359323429, -0.1841715  , -0.159565866, 0.4219361   , -0.00379440584, 0.039213825 , 2.384827    , 4.79        , 3           , 50          , 0           , 0
0.4081349   , 0.0613839552, -9.78117752 , -0.0009070107, 0.000410162931, 0.0006264154, -0.184306324, -0.160172582, 0.421666443 , -0.00381062855, 0.03915625  , 2.384833    , 4.8         , 3           , 11          , 0.005824461 , 0.005824455
0.386579216 , 0.0404327065, -9.782332   , -0.000618066057, -0.0008549688, 0.00104958587, -0.184306324, -0.160172582, 0.421666443 , -0.00381639879, 0.0391477421, 2.384844    , 4.81        , 3           , 12          , 0.07151477  , 0
0.369567484 , 0.0510580428, -9.796431   , -0.00131617708, -0.002549136, 0.00033734637, -0.184238911, -0.159970343, 0.4214642   , -0.00382942217, 0.0391222723, 2.384847    , 4.82        , 3           , 50          , 0           , 0
0.38798508  , 0.039116215 , -9.798147   , -0.0007507896, -0.00268609961, 5.72258177E-05, -0.184238911, -0.1597681  , 0.421666443 , -0.003836903, 0.0390954055, 2.38484788  , 4.83        , 3           , 11          , 0.005824461 , 0.005824455
0.37202394  , 0.0343002938, -9.786538   , 0.002914486 , -0.0013942268, 7.62986747E-05, -0.184238911, -0.159633279, 0.421733856 , -0.00380772655, 0.0390814766, 2.38484883  , 4.84        , 3           , 12          , 0.07151477  , 0
0.392421246 , 0.00603299448, -9.77113152 , 0.00375644281, -0.000543807342, -0.001896211, -0.184238911, -0.159633279, 0.421733856 , -0.003770903, 0.03907596  , 2.38482976  , 4.85        , 3           , 50          , 0           , 0
0.391832829 , 0.0290644336, -9.774657   , 0.00149530778, -0.000277523621, -0.00247138762, -0.184238911, -0.15943104 , 0.421733856 , -0.00375691662, 0.0390730947, 2.384805    , 4.86        , 3           , 11          , 0.005824461 , 0.005824455
0.3800062   , 0.0540802367, -9.792271   , 0.00219800835, 0.000571950455, -0.001054106, -0.184238911, -0.159565866, 0.421733856 , -0.00373534742, 0.03907877  , 2.38479447  , 4.87        , 3           , 12          , 0.07151477  , 0
0.38874647  , 0.0331861973, -9.781895   , 0.00318535324, 0.000860201544, -0.000625256565, -0.184306324, -0.15990293 , 0.421868682 , -0.00370373763, 0.0390873477, 2.38478827  , 4.88        , 3           , 50          , 0           , 0
0.375915647 , 0.0207133926, -9.785209   , 0.00318527129, 0.0008602013, -0.000766525336, -0.184306324, -0.15990293 , 0.421868682 , -0.003672185, 0.0390959233, 2.38478065  , 4.89        , 3           , 11          , 0.005824461 , 0.005824455
0.389110178 , 0.02105725  , -9.799118   , 0.002619375 , 0.00184152  , -0.00062622095, -0.184104085, -0.159565866, 0.421531618 , -0.00363381626, 0.0391131938, 2.384775    , 4.9         , 3           , 12          , 0.07260614  , 0
0.376180321 , 0.0383354947, -9.793269   , 0.0009350616, -0.0001408931, 0.000210452257, -0.1841715  , -0.15990293 , 0.421733856 , -0.00362438429, 0.0391117968, 2.38477731  , 4.91        , 3           , 50          , 0           , 0
0.35942775  , 0.044335153 , -9.774841   , -0.00117912062, -0.000999914, -8.326406E-05, -0.184373736, -0.15990293 , 0.421733856 , -0.0036362058, 0.0391017944, 2.38477635  , 4.92        , 3           , 11          , 0.005765812 , 0.005765804
0.367989123 , 0.0383979157, -9.783388   , -0.0004764127, -0.000432011584, -0.001067985, -0.184373736, -0.15990293 , 0.421733856 , -0.00364138535, 0.0390974358, 2.38476586  , 4.93        , 3           , 12          , 0.07260614  , 0
0.4078937   , 0.04021009  , -9.790307   , 0.00234920532, -0.000553691352, 7.511726E-05, -0.1841715  , -0.159835517, 0.421666443 , -0.00361786364, 0.0390919   , 2.38476682  , 4.94        , 3           , 50          , 0           , 0
0.40376848  , 0.03798554  , -9.785376   , 0.0022095046, -0.000695424853, 0.00148692925, -0.184238911, -0.159633279, 0.421801269 , -0.0035951864, 0.039084997 , 2.38478112  , 4.95        , 3           , 11          , 0.005765812 , 0.005765804
0.3850775   , 0.0581123643, -9.801254   , 0.001370588 , -0.002390545, 0.00148037483, -0.184373736, -0.159700692, 0.4219361   , -0.00358089735, 0.039061144 , 2.38479638  , 4.96        , 3           , 12          , 0.07260614  , 0
0.368643939 , 0.0443588644, -9.813641   , 0.0003819754, -0.0025380163, 6.286118E-05, -0.1841715  , -0.1597681  , 0.421666443 , -0.00357704726, 0.0390357673, 2.38479733  , 4.97        , 3           , 50          , 0           , 0
0.39085722  , 0.0200913474, -9.786453   , 0.0009358031, -0.0004224611, -0.000920131453, -0.1841715  , -0.1597681  , 0.421666443 , -0.003568046, 0.0390315056, 2.3847878   , 4.98        , 3           , 11          , 0.005765812 , 0.005765804
0.388746232 , 0.0354177654, -9.774653   , 0.00248103146, 0.00127743522, -0.000486478442, -0.184441149, -0.159700692, 0.421868682 , -0.00354342721, 0.03904427  , 2.384783    , 4.99        , 3           , 12          , 0.07260614  , 0
0.369670749 , 0.059622366 , -9.794134   , 0.000928656955, 5.347374E-06, -7.20614262E-05, -0.1841715  , -0.159633279, 0.4220035   , -0.00355290785, 0.03906272  , 2.3847816   , 5           , 3           , 50          , 0           , 0
0.380713    , 0.03471546  , -9.805905   , -0.0002015027, 0.000138491218, 0.000346693967, -0.184238911, -0.1597681  , 0.421666443 , -0.00355478656, 0.03906412  , 2.384785    , 5.01        , 3           , 11          , 0.0057090777, 0.00570906838
0.388504028 , 0.0454134122, -9.794049   , -7.12337642E-05, 0.00225118175, -0.0004970054, -0.184238911, -0.1597681  , 0.421666443 , -0.00355569669, 0.03908661  , 2.38478017  , 5.02        , 3           , 12          , 0.07369905  , 0
0.370849    , 0.0505334958, -9.779248   , 0.000353392621, 0.00197247975, -0.00120180764, -0.1841715  , -0.159835517, 0.421666443 , -0.0035526352, 0.0391063   , 2.38476777  , 5.03        , 3           , 50          , 0           , 0
0.3520804   , 0.0389806852, -9.767236   , -0.000487125362, 0.0006997094, -0.000360098755, -0.184238911, -0.160105169, 0.421733856 , -0.00355764641, 0.03911328  , 2.38476443  , 5.04        , 3           , 11          , 0.0057090777, 0.00570906838
0.36951524  , 0.05101572  , -9.783776   , -0.00146631361, -0.00113714731, 5.62775E-05 , -0.184306324, -0.1597681  , 0.421733856 , -0.00357228541, 0.0391019061, 2.384765    , 5.05        , 3           , 12          , 0.07369905  , 0
0.376165271 , 0.0356452167, -9.798251   , -5.06128345E-05, -0.00183150975, 0.000203046089, -0.184306324, -0.1597681  , 0.421733856 , -0.00357271 , 0.0390835963, 2.38476682  , 5.06        , 3           , 50          , 0           , 0
0.386210918 , 0.04630904  , -9.78412    , 0.00192752422, -0.002099706, -0.000211975435, -0.184373736, -0.1597681  , 0.421733856 , -0.0035535146, 0.0390625931, 2.384765    , 5.07        , 3           , 11          , 0.0057090777, 0.00570906838
0.394723028 , 0.0367610753, -9.79223    , 0.003334327 , -0.000963895058, 0.00022015124, -0.184373736, -0.15990293 , 0.421868682 , -0.00352008455, 0.0390529633, 2.38476729  , 5.08        , 3           , 12          , 0.07369905  , 0
