Acc X       , Acc Y       , Acc Z       , Gyro X      , Gyro Y      , Gyro Z      , Magn X      , Magn Y      , Magn Z      , Euler X     , Euler Y     , Euler Z     , Time        , Status      , LowRate X   , LowRate Y   , LowRate Z    
0.376272649 , 0.0121497978, -9.7893095  , -0.0006578572, -0.001390502, 0.00190400623, -0.1841715  , -0.16165565 , 0.4209249   , -0.00283827633, 0.03923024  , 2.377659    , 0           , 3           , 11          , 0.0346410163, 0.0346410163
0.366519958 , 0.0271653216, -9.792485   , -0.00152153207, 0.00170097884, 6.83353646E-05, -0.184238911, -0.161386   , 0.420722663 , -0.002853466, 0.0392472446, 2.37766     , 0.01        , 3           , 12          , 0.0346410163, 0
0.362809241 , 0.01597744  , -9.807024   , 0.0005960165, 0.00171530072, -0.00105193746, -0.184238911, -0.161183774, 0.4208575   , -0.00284792227, 0.03926437  , 2.37764955  , 0.02        , 3           , 50          , 0           , 0
0.3670648   , 0.0281273127, -9.811912   , 0.00131680223, -0.00123635726, -0.00091193273, -0.1841715  , -0.161251172, 0.420722663 , -0.00283511053, 0.0392519832, 2.37764     , 0.03        , 3           , 11          , 0.0346410163, 0.0346410163
0.403510779 , 0.0145664969, -9.797678   , -9.34485943E-05, -0.00152746984, -7.133899E-05, -0.1841715  , -0.161453411, 0.420790076 , -0.00283607072, 0.0392367058, 2.37763953  , 0.04        , 3           , 12          , 0.0346410163, 0
0.389483869 , 0.0174170248, -9.791446   , -0.00136855128, -0.0006913696, -7.59634058E-05, -0.1841715  , -0.161453411, 0.420790076 , -0.00284978631, 0.03922979  , 2.377639    , 0.05        , 3           , 50          , 0           , 0
0.399908751 , 0.01685722  , -9.795437   , -0.00320408121, -0.00070378324, 0.000339282735, -0.184441149, -0.161386   , 0.420722663 , -0.00288169412, 0.03922276  , 2.377642    , 0.06        , 3           , 11          , 0.0346410163, 0.0346410163
0.377540976 , 0.0338579267, -9.808192   , -0.00179387489, -0.000271885074, 0.000629055663, -0.184441149, -0.161183774, 0.420790076 , -0.002899384, 0.03922006  , 2.37764859  , 0.07        , 3           , 12          , 0.0346410163, 0
0.391371876 , 0.0205825455, -9.800007   , 0.00201716716, 3.54630647E-05, 8.219339E-05, -0.184238911, -0.161183774, 0.420722663 , -0.00287917815, 0.0392204151, 2.37764955  , 0.08        , 3           , 50          , 0           , 0
0.382222146 , 0.0246297829, -9.764353   , 0.00342774414, 0.0003265772, -0.000193325381, -0.184238911, -0.161183774, 0.420722663 , -0.002844977, 0.0392236747, 2.37764764  , 0.09        , 3           , 11          , 0.0346410163, 0.0346410163
0.366243571 , 0.04650664  , -9.773424   , 0.00215776521, 0.000177200985, 0.000224339383, -0.184238911, -0.161520824, 0.420453    , -0.002823311, 0.03922545  , 2.37764955  , 0.1         , 3           , 12          , 0.0346410163, 0
0.394959718 , 0.02943907  , -9.762879   , 0.00131097413, 0.000171473424, 0.001068001 , -0.184036672, -0.161520824, 0.4208575   , -0.00280978344, 0.0392271951, 2.37766051  , 0.11        , 3           , 50          , 0           , 0
0.384056032 , 0.0174853485, -9.792844   , 0.00158930034, 0.001018079 , 0.00121188839, -0.1841715  , -0.161251172, 0.420655251 , -0.00279341359, 0.0392374136, 2.37767243  , 0.12        , 3           , 11          , 0.0346410163, 0.0346410163
0.372769445 , 0.0194303989, -9.795182   , -0.00038088052, -0.000403116981, 0.000917962636, -0.1841715  , -0.161251172, 0.420655251 , -0.00279686041, 0.0392334051, 2.377682    , 0.13        , 3           , 12          , 0.0346410163, 0
0.398860216 , 0.0100567313, -9.782365   , -0.000666747743, 0.0001581001, -0.00021263618, -0.184238911, -0.161251172, 0.420655251 , -0.00280361134, 0.0392349772, 2.37768     , 0.14        , 3           , 50          , 0           , 0
0.381243646 , 0.011637155 , -9.788369   , -0.000119400785, 0.00368148321, -0.000345846871, -0.184306324, -0.161183774, 0.4209249   , -0.00280494546, 0.0392717868, 2.37767625  , 0.15        , 3           , 11          , 0.0346410163, 0.0346410163
0.3748846   , 0.00723181525, -9.797928   , -0.00152624806, 0.00268645748, 0.000352393283, -0.184036672, -0.161318585, 0.420790076 , -0.00282007 , 0.0392986536, 2.37767959  , 0.16        , 3           , 12          , 0.0346410163, 0
0.382262439 , 0.0210916288, -9.78561    , -0.000805914635, -0.000124416838, 0.0009164212, -0.1841715  , -0.161251172, 0.420655251 , -0.00282776682, 0.0392974354, 2.37768865  , 0.17        , 3           , 50          , 0           , 0
0.373993933 , 0.04244209  , -9.799145   , -0.0009416337, -0.00125163246, 0.000772758271, -0.1841715  , -0.161251172, 0.420655251 , -0.00283687888, 0.0392849445, 2.37769675  , 0.18        , 3           , 11          , 0.0346410163, 0.0346410163
0.365670145 , 0.02945287  , -9.79881    , -0.00221251 , -0.001401013, -0.000363534578, -0.184373736, -0.161386   , 0.420790076 , -0.00285914564, 0.0392709225, 2.377693    , 0.19        , 3           , 12          , 0.0346410163, 0
0.386758834 , 0.0539687462, -9.782728   , -0.00164765434, -0.00139719609, -0.000360897684, -0.184238911, -0.161453411, 0.4208575   , -0.00287569431, 0.0392568447, 2.3776896   , 0.2         , 3           , 50          , 0           , 0
0.4022517   , 0.0253752954, -9.787248   , 0.000326708774, -0.000820695364, -6.827388E-05, -0.1841715  , -0.161183774, 0.420520425 , -0.00287245261, 0.03924864  , 2.37768865  , 0.21        , 3           , 11          , 0.03466991  , 0.03466991
0.395333022 , 0.0177642964, -9.781004   , 0.000180453208, 0.000163826568, -0.000349951064, -0.1841715  , -0.161183774, 0.420520425 , -0.00287078437, 0.0392502658, 2.37768531  , 0.22        , 3           , 12          , 0.0346688181, 0
0.386722773 , 0.0205374248, -9.770662   , -0.0008135353, 0.00128340232, -0.000211555845, -0.184238911, -0.161318585, 0.420790076 , -0.00287900283, 0.0392630957, 2.377683    , 0.23        , 3           , 50          , 0           , 0
0.3891403   , 0.0291159842, -9.780553   , 3.53839132E-05, 0.00100756832, 0.000215767112, -0.1841715  , -0.161251172, 0.420790076 , -0.002878566, 0.0392731763, 2.37768531  , 0.24        , 3           , 11          , 0.03466991  , 0.03466991
0.390205383 , 0.0278955251, -9.823488   , -0.0016509759, -0.0006932825, -7.727547E-05, -0.184306324, -0.161183774, 0.420790076 , -0.002895104, 0.03926624  , 2.37768483  , 0.25        , 3           , 12          , 0.0346688181, 0
0.38106823  , 0.02882855  , -9.800955   , -0.00136731821, -0.0009729386, -0.000358929829, -0.184306324, -0.161183774, 0.420790076 , -0.002908918, 0.0392565   , 2.377681    , 0.26        , 3           , 50          , 0           , 0
0.374455452 , 0.0166296642, -9.773485   , 0.00117903133, -0.00180044235, 0.000216695626, -0.1841715  , -0.161183774, 0.420520425 , -0.00289704185, 0.0392385   , 2.377683    , 0.27        , 3           , 11          , 0.03466991  , 0.03466991
0.380327076 , 0.009407146 , -9.792905   , 0.0008981616, -0.00208391668, 0.000497482135, -0.184036672, -0.161251172, 0.420520425 , -0.0028878646, 0.0392176732, 2.37768817  , 0.28        , 3           , 12          , 0.0346688181, 0
0.393820018 , 0.0300785247, -9.814412   , 4.264307E-05, -0.0005410416, -0.0004929631, -0.184238911, -0.161251172, 0.420655251 , -0.00288763037, 0.03921226  , 2.3776834   , 0.29        , 3           , 50          , 0           , 0
0.402331918 , 0.033028245 , -9.782244   , -0.0003661899, -0.000259086723, -0.0009176509, -0.184238911, -0.161251172, 0.420655251 , -0.00255239056, 0.0392767377, 2.37768769  , 0.3         , 3           , 11          , 0.0347534232, 0.0347534232
0.39731288  , 0.0214505158, -9.810352   , 0.0007597877, 0.000452464621, -0.00133510458, -0.184441149, -0.161318585, 0.420722663 , -0.00254531763, 0.0392812267, 2.37767434  , 0.31        , 3           , 12          , 0.0347538963, 0
0.3847682   , 0.007944603 , -9.776154   , 0.00230678078, 0.00173001189, -0.00146717753, -0.184238911, -0.161318585, 0.420587838 , -0.00252282945, 0.03929849  , 2.37765956  , 0.32        , 3           , 50          , 0           , 0
0.3620291   , 0.0268020965, -9.802917   , 0.00146248855, 0.00130193878, 8.21769E-05 , -0.183969259, -0.161386   , 0.420790076 , -0.00250817323, 0.03931151  , 2.37766     , 0.33        , 3           , 11          , 0.0347534232, 0.0347534232
0.382421434 , 0.0319328643, -9.789633   , 0.00175393187, -0.000385538529, 0.00121104019, -0.183969259, -0.161386   , 0.420790076 , -0.00249015633, 0.0393076874, 2.37767243  , 0.34        , 3           , 12          , 0.0347538963, 0
0.387136161 , 0.015144    , -9.778366   , 0.00168494519, -0.0007379731, 0.0009982653, -0.184238911, -0.161386   , 0.420655251 , -0.00247291382, 0.03930033  , 2.377682    , 0.35        , 3           , 50          , 0           , 0
0.38155818  , 0.041351147 , -9.76971149 , -0.0011343807, -0.00181294291, 0.0004890281, -0.184036672, -0.161251172, 0.420722663 , -0.002484063, 0.0392822176, 2.37768769  , 0.36        , 3           , 11          , 0.0347534232, 0.0347534232
0.3776306   , 0.05178454  , -9.772411   , 0.000196120513, 0.000307864626, -0.000490342965, -0.184104085, -0.161453411, 0.420790076 , -0.0024822962, 0.0392852835, 2.37768245  , 0.37        , 3           , 12          , 0.0347538963, 0
0.412649751 , 0.0212229174, -9.796226   , -0.000789522368, -0.0003323433, -0.0009903691, -0.184104085, -0.161453411, 0.420790076 , -0.00249057985, 0.0392819345, 2.37767243  , 0.38        , 3           , 50          , 0           , 0
0.372957617 , 0.0294025913, -9.80915    , -0.000929015456, -0.0006148617, -0.0004263866, -0.1841715  , -0.161453411, 0.4203856   , -0.00250003673, 0.0392757729, 2.37766814  , 0.39        , 3           , 11          , 0.0347534232, 0.0347534232
0.383550256 , 0.0490644723, -9.789101   , 0.0006726954, -0.000107807151, -0.000206924713, -0.184238911, -0.161251172, 0.420655251 , -0.002676713, 0.0393052846, 2.377659    , 0.4         , 3           , 12          , 0.0348953828, 0
0.3868997   , 0.0278223716, -9.790519   , 0.000953501964, 0.000246059761, 6.83759572E-06, -0.184104085, -0.161251172, 0.420722663 , -0.00266717561, 0.039307747 , 2.377659    , 0.41        , 3           , 50          , 0           , 0
0.373669952 , 0.01763028  , -9.799702   , 0.0008763147, 0.00158301648, 7.92038554E-05, -0.184373736, -0.161318585, 0.420655251 , -0.00265838229, 0.0393235758, 2.37766     , 0.42        , 3           , 11          , 0.01768284  , 0.0176830217
0.391352564 , 0.02726212  , -9.773764   , 0.0008734227, 0.002216539 , 0.0005039865, -0.184373736, -0.161318585, 0.420655251 , -0.00264945254, 0.0393457524, 2.3776648   , 0.43        , 3           , 12          , 0.0348953828, 0
0.38949424  , 0.0290305354, -9.756596   , 0.000452407316, 0.00165054318, 0.000218605681, -0.1841715  , -0.161318585, 0.420722663 , -0.00264484272, 0.0393622629, 2.37766671  , 0.44        , 3           , 50          , 0           , 0
0.377649218 , 0.0166121013, -9.779337   , 0.00136960123, 0.00165674742, -0.0009778985, -0.184441149, -0.161183774, 0.420722663 , -0.002631532, 0.0393788069, 2.37765718  , 0.45        , 3           , 11          , 0.01768284  , 0.0176830217
0.3836558   , 0.02556754  , -9.779705   , 0.00109781127, -0.00038650693, -6.411467E-05, -0.184306324, -0.161318585, 0.4203182   , -0.002620577, 0.0393749364, 2.37765622  , 0.46        , 3           , 12          , 0.0348953828, 0
0.378852665 , 0.04139211  , -9.772444   , 0.00110049546, -0.000879244762, 0.0003589321, -0.184306324, -0.161318585, 0.4203182   , -0.00260942918, 0.0393661521, 2.37766     , 0.47        , 3           , 50          , 0           , 0
0.3796746   , 0.03417213  , -9.77518    , -0.000101579739, -0.0006057987, -0.0002819401, -0.184441149, -0.161183774, 0.420453    , -0.00261055725, 0.03936009  , 2.37765718  , 0.48        , 3           , 11          , 0.01768284  , 0.0176830217
0.420746416 , 0.0544859879, -9.786533   , -0.000742126664, 0.000516166561, 0.0005644448, -0.184373736, -0.161251172, 0.4208575   , -0.00261775451, 0.03936527  , 2.377663    , 0.49        , 3           , 12          , 0.0348953828, 0
0.42327252  , 0.0386774167, -9.79064751 , -0.0006532739, 0.0002586937, -0.0003556022, -0.1841715  , -0.161520824, 0.420722663 , -0.0028804664, 0.0394789539, 2.37764955  , 0.5         , 3           , 50          , 0           , 0
0.374340773 , 0.03520928  , -9.796459   , 0.00111668778, -0.0005740614, 0.0007108423, -0.1841715  , -0.161520824, 0.420722663 , -0.00286901812, 0.0394732319, 2.3776567   , 0.51        , 3           , 11          , 0.0134284738, 0.01342851
0.355108947 , 0.05482375  , -9.792458   , 0.00126009947, -0.001206632, -0.0009140662, -0.184441149, -0.161251172, 0.420520425 , -0.00285677472, 0.0394611321, 2.37764764  , 0.52        , 3           , 12          , 0.03509217  , 0
0.408768952 , 0.009450844 , -9.770991   , 0.000258481276, 0.00160233758, 0.00049835135, -0.184306324, -0.161183774, 0.420722663 , -0.00285399542, 0.03947717  , 2.37765241  , 0.53        , 3           , 50          , 0           , 0
0.381733477 , 0.0214815717, -9.765724   , -0.0002382016, 0.001950948 , -0.000704195, -0.184104085, -0.161318585, 0.420587838 , -0.002856655, 0.0394966677, 2.37764573  , 0.54        , 3           , 11          , 0.0134284738, 0.01342851
0.3825454   , 0.03828224  , -9.799548   , 0.00117583456, 0.00174932834, 0.0007853859, -0.184104085, -0.161318585, 0.420587838 , -0.002844589, 0.0395141765, 2.37765336  , 0.55        , 3           , 12          , 0.03509217  , 0
0.387037337 , 0.007475939 , -9.778851   , 0.0016748606, 0.000696799543, 9.085193E-06, -0.184238911, -0.161453411, 0.420722663 , -0.00282783736, 0.0395211428, 2.37765336  , 0.56        , 3           , 50          , 0           , 0
0.386354059 , 0.030876888 , -9.757967   , -0.00150295312, 0.0007457028, -0.000288159237, -0.184036672, -0.161183774, 0.420453    , -0.00284298114, 0.0395285971, 2.3776505   , 0.57        , 3           , 11          , 0.0134284738, 0.01342851
0.396298438 , 0.0204802267, -9.786861   , -0.00150582253, 0.00130883267, -0.0004285601, -0.184238911, -0.161318585, 0.420722663 , -0.00285821175, 0.0395416729, 2.37764573  , 0.58        , 3           , 12          , 0.03509217  , 0
0.369631    , 0.0261880122, -9.781166   , -0.000508356548, -0.00023308424, 0.001833962 , -0.184238911, -0.161318585, 0.420722663 , -0.00286257 , 0.039539393 , 2.37766433  , 0.59        , 3           , 50          , 0           , 0
0.360176682 , 0.0290216655, -9.785746   , 0.00245480123, 0.00111218321, 0.000296072452, -0.184238911, -0.161588237, 0.420722663 , -0.00282237842, 0.0395140648, 2.37766767  , 0.6         , 3           , 11          , 0.0113466782, 0.0113466624
0.3844943   , 0.0205927268, -9.779267   , 0.0012512136, 0.0015264079, -0.00175727042, -0.1841715  , -0.161116362, 0.420655251 , -0.002810562, 0.0395292863, 2.3776505   , 0.61        , 3           , 12          , 0.0353429057, 0
0.399356216 , 0.0430421755, -9.797592   , -0.001775851, -0.000465083227, -0.00304588373, -0.184306324, -0.161386   , 0.420790076 , -0.002829524, 0.039524544 , 2.37762     , 0.62        , 3           , 50          , 0           , 0
0.3800617   , 0.0234011747, -9.793754   , -0.00382853555, 0.000788117934, -0.00100508193, -0.184306324, -0.161386   , 0.420790076 , -0.00286820647, 0.0395324044, 2.37761     , 0.63        , 3           , 11          , 0.0113466782, 0.0113466624
0.38977623  , 0.03729337  , -9.799046   , -0.00298019452, 0.000793853 , 0.000835362531, -0.1841715  , -0.161318585, 0.420587838 , -0.00289767841, 0.0395403579, 2.377618    , 0.64        , 3           , 12          , 0.0353429057, 0
0.3799831   , 0.05049068  , -9.798161   , -0.0002299551, 0.00144599518, 0.000354738237, -0.184238911, -0.161183774, 0.420655251 , -0.00289983954, 0.03955483  , 2.377622    , 0.65        , 3           , 50          , 0           , 0
0.380792439 , 0.0214634817, -9.757144   , -0.002406295, -0.0012436792, -0.00100164325, -0.184238911, -0.161251172, 0.420790076 , -0.002924296, 0.03954236  , 2.37761188  , 0.66        , 3           , 11          , 0.0113466782, 0.0113466624
0.368652761 , 0.0212299321, -9.779386   , -0.00359996525, -0.002659623, -0.00157448475, -0.183901846, -0.161588237, 0.420655251 , -0.00296091428, 0.0395157151, 2.37759614  , 0.67        , 3           , 12          , 0.0353429057, 0
0.3700673   , 0.01902777  , -9.800175   , -0.002204403, 0.0010102801, 0.001121847 , -0.183901846, -0.161588237, 0.420655251 , -0.00298251584, 0.0395258479, 2.37760758  , 0.68        , 3           , 50          , 0           , 0
0.392876238 , 0.0340754353, -9.792255   , -0.00255265762, -4.797869E-05, 0.0003415956, -0.184104085, -0.161116362, 0.420655251 , -0.00300790765, 0.0395253822, 2.37761045  , 0.69        , 3           , 11          , 0.0113466782, 0.0113466624
0.3958023   , 0.0173259713, -9.786427   , -0.00431480352, 0.00037738285, -1.89709644E-05, -0.184238911, -0.161251172, 0.4208575   , -0.003039062, 0.03941196  , 2.377611    , 0.7         , 3           , 12          , 0.03564603  , 0
0.378153831 , 0.0135243274, -9.801944   , -0.00100332114, 0.00187804294, 0.000493221742, -0.184104085, -0.161318585, 0.420655251 , -0.00304890214, 0.0394307524, 2.37761617  , 0.71        , 3           , 50          , 0           , 0
0.390930563 , 0.0183653664, -9.809962   , 0.000692415051, 0.0013967579, -0.00168930134, -0.184104085, -0.161318585, 0.420655251 , -0.003042646, 0.03944467  , 2.377599    , 0.72        , 3           , 11          , 0.0101295933, 0.0101295831
0.392938644 , 0.0376967341, -9.79585552 , 0.00337112066, 0.002400383 , -0.0007570249, -0.183901846, -0.161386   , 0.420790076 , -0.00300923781, 0.0394686423, 2.37759137  , 0.73        , 3           , 12          , 0.03564603  , 0
0.392933428 , 0.040817    , -9.784543   , 0.00273543084, 0.00260726339, 0.0006530247, -0.1841715  , -0.161116362, 0.420790076 , -0.00298162783, 0.039494738 , 2.377598    , 0.74        , 3           , 50          , 0           , 0
0.3900275   , 0.0268586688, -9.783267   , -0.00240905979, 0.000601450971, 0.000696587551, -0.184575975, -0.161318585, 0.420655251 , -0.00300544337, 0.039500773 , 2.37760472  , 0.75        , 3           , 11          , 0.0101295933, 0.0101295831
0.364087731 , 0.0163431019, -9.7862215  , 0.000916610763, -0.0008543243, 0.000427245774, -0.184575975, -0.161318585, 0.420655251 , -0.002996106, 0.03949224  , 2.377609    , 0.76        , 3           , 12          , 0.03564603  , 0
0.374316484 , 0.03518963  , -9.790585   , 0.0008431753, -0.000291671866, 0.000357150042, -0.183969259, -0.161318585, 0.420790076 , -0.00298753334, 0.0394893438, 2.37761235  , 0.77        , 3           , 50          , 0           , 0
0.409090936 , 0.0315829553, -9.778582   , 0.000487891171, -1.24983335E-05, -0.00112738379, -0.184306324, -0.161183774, 0.420790076 , -0.00298309955, 0.0394891836, 2.37760139  , 0.78        , 3           , 11          , 0.0101295933, 0.0101295831
0.394397    , 0.0168575048, -9.776495   , 0.00181824469, 0.00231948774, -0.0005524733, -0.184238911, -0.161251172, 0.420722663 , -0.002965138, 0.03951236  , 2.37759614  , 0.79        , 3           , 12          , 0.03564603  , 0
0.376384467 , 0.05992575  , -9.773743   , 0.00163428963, 0.00267909863, -0.000410446431, -0.184238911, -0.161251172, 0.420722663 , -0.00290002674, 0.03955418  , 2.37759328  , 0.8         , 3           , 50          , 0           , 0
0.3827926   , 0.0273978952, -9.784224   , 0.000155652611, 0.00168358965, -0.00176093227, -0.184104085, -0.161318585, 0.420520425 , -0.00289916573, 0.03957096  , 2.377576    , 0.81        , 3           , 11          , 0.00937716849, 0.009377163
0.38149634  , 0.0256787837, -9.805032   , -0.00110551016, -0.0002959609, -0.001769896, -0.184238911, -0.161251172, 0.420520425 , -0.00291092065, 0.03956795  , 2.37755847  , 0.82        , 3           , 12          , 0.0359998047, 0
0.3823524   , 0.0242889971, -9.797348   , 0.000731042936, -0.000424328173, -0.00162028393, -0.184104085, -0.161386   , 0.420790076 , -0.00290425 , 0.03956366  , 2.37754226  , 0.83        , 3           , 50          , 0           , 0
0.4137549   , 0.0365499146, -9.795701   , -0.0006798862, -0.0005042652, -0.000143655576, -0.184104085, -0.161386   , 0.420790076 , -0.00291110482, 0.0395586081, 2.37754083  , 0.84        , 3           , 11          , 0.00937716849, 0.009377163
0.401373267 , 0.026746951 , -9.789509   , -0.000749302853, -0.000786308839, -0.000497590459, -0.1841715  , -0.161251172, 0.4203856   , -0.002918795, 0.03955074  , 2.377536    , 0.85        , 3           , 12          , 0.0359998047, 0
0.382644862 , -0.0159436427, -9.776721   , -0.00329348422, -0.000240366135, 0.000268402946, -0.1841715  , -0.161251172, 0.420722663 , -0.002951623, 0.0395483375, 2.37753844  , 0.86        , 3           , 50          , 0           , 0
0.4147932   , 0.0170815475, -9.779955   , -0.00125509466, 0.00167404651, 0.000634051568, -0.183969259, -0.161251172, 0.420722663 , -0.00296392525, 0.0395651   , 2.37754464  , 0.87        , 3           , 11          , 0.00937716849, 0.009377163
0.384613931 , 0.0260458514, -9.790996   , -0.0006886024, 0.00139630248, 0.00106005778, -0.1841715  , -0.161251172, 0.420520425 , -0.00297039351, 0.0395790972, 2.37755513  , 0.88        , 3           , 12          , 0.0359998047, 0
0.391420722 , 0.0210684724, -9.810399   , -0.0008285183, 0.0009026031, -0.000919122249, -0.1841715  , -0.161251172, 0.420520425 , -0.00297904364, 0.0395881   , 2.377546    , 0.89        , 3           , 50          , 0           , 0
0.395578772 , 0.03492467  , -9.785903   , -0.00475481059, -0.0006175481, -0.001007153, -0.184373736, -0.161183774, 0.4209249   , -0.002899969, 0.0396597944, 2.37754083  , 0.9         , 3           , 11          , 0.00891291  , 0.008912909
0.397906661 , 0.0407524779, -9.782698   , -0.0005884883, -0.000448587729, 0.00113151979, -0.1841715  , -0.161318585, 0.4208575   , -0.00290540559, 0.0396553427, 2.37755227  , 0.91        , 3           , 12          , 0.0364023447, 0
0.378924459 , 0.0401112325, -9.794145   , -0.0006563255, -0.00108258834, 0.0004945048, -0.183969259, -0.161386   , 0.420722663 , -0.002911771, 0.0396445319, 2.37755752  , 0.92        , 3           , 50          , 0           , 0
0.397077531 , 0.0408251   , -9.801234   , -0.00235637743, -0.000108573317, -0.0005713934, -0.183969259, -0.161386   , 0.420722663 , -0.00293556135, 0.03964343  , 2.37755179  , 0.93        , 3           , 11          , 0.00891291  , 0.008912909
0.392102778 , 0.013735095 , -9.779238   , 4.30162363E-05, 0.000330013136, 0.000923773157, -0.184306324, -0.161183774, 0.420655251 , -0.00293476437, 0.03964676  , 2.37756085  , 0.94        , 3           , 12          , 0.0364023447, 0
0.382456183 , 0.03865629  , -9.776496   , -9.98953E-05, 0.000540228852, -0.000206709738, -0.183969259, -0.161251172, 0.4208575   , -0.00293584424, 0.0396521538, 2.377559    , 0.95        , 3           , 50          , 0           , 0
0.39150703  , 0.0345289223, -9.788196   , 0.00103516562, -0.0006487856, -0.00119216752, -0.184104085, -0.161116362, 0.420587838 , -0.00292596431, 0.0396456271, 2.377547    , 0.96        , 3           , 11          , 0.00891291  , 0.008912909
0.386423528 , 0.0264696963, -9.789171   , 0.0008883316, 0.000617305341, -6.072344E-05, -0.184104085, -0.161116362, 0.420587838 , -0.002917104, 0.0396517962, 2.37754655  , 0.97        , 3           , 12          , 0.0364023447, 0
0.387443423 , 0.0323542655, -9.798179   , 0.000258136 , -0.000302075117, 0.00120632187, -0.184441149, -0.161318585, 0.420722663 , -0.00291404477, 0.03964881  , 2.37755847  , 0.98        , 3           , 50          , 0           , 0
0.382001042 , 0.0252691768, -9.819041   , 0.00181568775, -0.00120665808, 0.0006470798, -0.184036672, -0.161183774, 0.4208575   , -0.00289563066, 0.0396367647, 2.37756515  , 0.99        , 3           , 11          , 0.00891291  , 0.008912909
0.397119552 , 0.0145985819, -9.785071   , -0.00102830341, -0.0003104801, 0.00162358629, -0.184238911, -0.161251172, 0.420655251 , -0.00292507 , 0.0396339446, 2.377581    , 1           , 3           , 12          , 0.03685164  , 0
0.39653033  , 0.00913716853, -9.76927948 , -0.00195192616, 0.000668786059, 0.000137503375, -0.184238911, -0.161251172, 0.420655251 , -0.00294453651, 0.03964064  , 2.37758183  , 1.01        , 3           , 50          , 0           , 0
0.383339822 , 0.03416438  , -9.785547   , -0.00252519944, 0.00214317767, -0.00176998018, -0.184238911, -0.161251172, 0.420722663 , -0.0029704934, 0.0396620221, 2.37756419  , 1.02        , 3           , 11          , 0.008635697 , 0.00863570347
0.38427195  , 0.0297117773, -9.806351   , 0.001079057 , 0.00174518779, 0.000365190645, -0.184104085, -0.161318585, 0.420722663 , -0.002959558, 0.03967948  , 2.377568    , 1.03        , 3           , 12          , 0.03685164  , 0
0.397886842 , 0.03671933  , -9.79085    , 0.00490213372, -0.000411159359, -0.000468006067, -0.1841715  , -0.161453411, 0.420587838 , -0.002910723, 0.03967536  , 2.37756324  , 1.04        , 3           , 50          , 0           , 0
0.379738569 , 0.0476144478, -9.747553   , 0.00257055112, -4.566425E-06, 0.000440026779, -0.1841715  , -0.161453411, 0.420587838 , -0.00288484339, 0.03967532  , 2.37756753  , 1.05        , 3           , 11          , 0.008635697 , 0.00863570347
0.387427956 , 0.0341271274, -9.788681   , 0.0006648706, -0.000299027161, -0.000770080544, -0.1841715  , -0.161318585, 0.420587838 , -0.00287850131, 0.03967231  , 2.37756     , 1.06        , 3           , 12          , 0.03685164  , 0
0.3675367   , 0.0312619172, -9.806472   , 0.000376578653, 0.0009661076, -6.31012153E-05, -0.1841715  , -0.161386   , 0.420722663 , -0.00287476135, 0.03968197  , 2.377559    , 1.07        , 3           , 50          , 0           , 0
0.39671734  , 0.02000108  , -9.780081   , 0.0001741867, -0.000865495938, 0.0005687998, -0.1841715  , -0.161318585, 0.420790076 , -0.00287279463, 0.0396733359, 2.37756467  , 1.08        , 3           , 11          , 0.008635697 , 0.00863570347
0.3810846   , 0.0333052836, -9.790541   , 0.000725942 , 0.00174280012, 0.000222275688, -0.1841715  , -0.161318585, 0.420790076 , -0.00286544743, 0.0396907665, 2.377567    , 1.09        , 3           , 12          , 0.03685164  , 0
0.393603057 , 0.0516997837, -9.802571   , 0.000903430744, 0.00198667217, 0.000716715236, -0.183969259, -0.161251172, 0.420587838 , -0.002895231, 0.03966467  , 2.37757277  , 1.1         , 3           , 50          , 0           , 0
0.402342767 , 0.0325907   , -9.786313   , -0.000358655147, 0.000218296336, 0.00091998  , -0.184238911, -0.161251172, 0.420722663 , -0.00289845257, 0.0396668762, 2.37758183  , 1.11        , 3           , 11          , 0.008481317 , 0.00848132
0.376980871 , 0.03243722  , -9.786508   , -0.0007887094, 0.0014120806, 7.223661E-05, -0.1841715  , -0.161318585, 0.420790076 , -0.00290631363, 0.039681    , 2.37758279  , 1.12        , 3           , 12          , 0.0373456255, 0
0.390316546 , 0.0395906828, -9.813043   , 0.000688310945, 0.0026187608, 0.000434166548, -0.1841715  , -0.161386   , 0.420587838 , -0.00289925956, 0.0397072   , 2.3775866   , 1.13        , 3           , 50          , 0           , 0
0.3816591   , 0.0365230367, -9.8099575  , 0.00309810345, 0.0007344299, 1.862528E-05, -0.1841715  , -0.161386   , 0.420587838 , -0.00286827236, 0.039714545 , 2.377587    , 1.14        , 3           , 11          , 0.008481317 , 0.00848132
0.406216174 , 0.0194352735, -9.779106   , -0.00155341555, -0.00084568857, 0.00147783093, -0.184238911, -0.161116362, 0.420790076 , -0.00288321846, 0.03970614  , 2.37760186  , 1.15        , 3           , 12          , 0.0373456255, 0
0.383999467 , 0.0192249455, -9.773401   , -0.00100073346, 0.00141064706, -0.000281922956, -0.184575975, -0.161588237, 0.420655251 , -0.00289334054, 0.03972023  , 2.377599    , 1.16        , 3           , 50          , 0           , 0
0.381306171 , 0.0130268848, -9.79921    , 0.00232599722, -4.512317E-05, 0.00128522888, -0.183969259, -0.161386   , 0.420520425 , -0.00286956923, 0.0397198163, 2.37761188  , 1.17        , 3           , 11          , 0.008481317 , 0.00848132
0.389609724 , 0.023767909 , -9.801814   , 0.00295639713, 0.0008742583, 0.000371355622, -0.183969259, -0.161386   , 0.420520425 , -0.002839857, 0.0397285745, 2.37761569  , 1.18        , 3           , 12          , 0.0373456255, 0
0.402071834 , 0.0140708145, -9.779612   , 0.00203576288, 0.00143118121, 0.000438577728, -0.184238911, -0.161588237, 0.420655251 , -0.0028193274, 0.0397428945, 2.37762     , 1.19        , 3           , 50          , 0           , 0
0.386054724 , 0.0265430436, -9.809513   , 0.00137840142, -0.000247607881, -0.0006251677, -0.184306324, -0.161116362, 0.4208575   , -0.00275913044, 0.0397579037, 2.37761569  , 1.2         , 3           , 11          , 0.00840211753, 0.00840211753
0.393413    , 0.04172608  , -9.788151   , 0.002074588 , 0.001728122 , -0.0008307408, -0.1841715  , -0.161318585, 0.420655251 , -0.0027387205, 0.0397751629, 2.37760758  , 1.21        , 3           , 12          , 0.03788215  , 0
0.3892881   , 0.0475360826, -9.757423   , -0.00103575876, 0.00255181035, 7.432144E-05, -0.1841715  , -0.161318585, 0.420655251 , -0.00274905 , 0.03980068  , 2.377608    , 1.22        , 3           , 50          , 0           , 0
0.390924156 , 0.0299652778, -9.771044   , -0.0008949384, 0.00276394235, 0.0012054554, -0.184104085, -0.161386   , 0.4208575   , -0.00275752018, 0.0398283526, 2.37762     , 1.23        , 3           , 11          , 0.00840211753, 0.00840211753
0.386979133 , 0.0319039   , -9.796829   , 0.00207798788, 0.0011649949, 0.000227906916, -0.184373736, -0.161251172, 0.420722663 , -0.00273665087, 0.0398400053, 2.37762237  , 1.24        , 3           , 12          , 0.03788215  , 0
0.3854373   , 0.0232905168, -9.779701   , -0.001501714, -0.00322361779, -0.00043131932, -0.1841715  , -0.161183774, 0.4208575   , -0.00275183539, 0.0398077555, 2.377618    , 1.25        , 3           , 50          , 0           , 0
0.357840031 , 0.0214013476, -9.792576   , -0.00256725121, -0.00196373835, -0.000716842653, -0.1841715  , -0.161183774, 0.4208575   , -0.002777792, 0.0397880971, 2.377611    , 1.26        , 3           , 11          , 0.00840211753, 0.00840211753
0.379452944 , 0.04418442  , -9.799547   , -0.00349723571, 0.000564142363, 5.976068E-05, -0.1841715  , -0.161318585, 0.420520425 , -0.00281274039, 0.0397937447, 2.3776114   , 1.27        , 3           , 12          , 0.03788215  , 0
0.3858136   , 0.0156352855, -9.785605   , -0.001957947, 0.00324951182, -0.00134156109, -0.184575975, -0.161318585, 0.420722663 , -0.00283286045, 0.0398262031, 2.377598    , 1.28        , 3           , 50          , 0           , 0
0.388356477 , 0.03234968  , -9.799979   , -0.001099785, 0.00121389842, 1.29659838E-06, -0.1841715  , -0.161386   , 0.420587838 , -0.00284385774, 0.0398383364, 2.377598    , 1.29        , 3           , 11          , 0.00840211753, 0.00840211753
0.394425869 , 0.0507293977, -9.785395   , -0.00167088117, -0.0012698971, 0.0014772967, -0.1841715  , -0.161386   , 0.420587838 , -0.00288136443, 0.039727997 , 2.37761188  , 1.3         , 3           , 12          , 0.03845905  , 0
0.399509579 , 0.0289574359, -9.769627   , -0.000617352955, -0.0002772603, 0.000282969762, -0.184238911, -0.161453411, 0.4203856   , -0.00288742455, 0.0397252254, 2.37761474  , 1.31        , 3           , 50          , 0           , 0
0.385046065 , 0.0233457275, -9.79462    , -0.00189007551, -4.292005E-06, -0.000428866246, -0.184238911, -0.161318585, 0.420722663 , -0.00290649617, 0.03972517  , 2.37761045  , 1.32        , 3           , 11          , 0.008364954 , 0.008364956
0.403555721 , 0.0199591443, -9.791328   , -0.000963149534, -0.00175786484, 0.000137776529, -0.1841715  , -0.161251172, 0.4208575   , -0.002916071, 0.0397075973, 2.37761235  , 1.33        , 3           , 12          , 0.03845905  , 0
0.4027071   , 0.0289429128, -9.77638149 , -0.00364698656, -0.00149444153, 0.00118521519, -0.1841715  , -0.161251172, 0.4208575   , -0.00295206974, 0.039692685 , 2.3776238   , 1.34        , 3           , 50          , 0           , 0
0.3802451   , 0.0369402431, -9.795051   , -5.40379E-05, 7.851694E-05, 0.000639317732, -0.1841715  , -0.161453411, 0.420655251 , -0.00295235682, 0.03969349  , 2.37763047  , 1.35        , 3           , 11          , 0.008364954 , 0.008364956
0.3875483   , 0.043151658 , -9.789095   , 0.00107691891, -0.000125016013, 0.0009974318, -0.184373736, -0.161386   , 0.420790076 , -0.00294119166, 0.0396922752, 2.37764     , 1.36        , 3           , 12          , 0.03845905  , 0
0.3765911   , 0.03695707  , -9.78739548 , 0.0003032593, -0.0007637905, 0.0007809308, -0.184238911, -0.161453411, 0.4209249   , -0.002937848, 0.03968467  , 2.377648    , 1.37        , 3           , 50          , 0           , 0
0.3806013   , 0.0323931873, -9.786029   , 0.00177603832, 0.00121719157, 0.000437710376, -0.184104085, -0.16165565 , 0.420722663 , -0.00291991467, 0.0396968424, 2.37765241  , 1.38        , 3           , 11          , 0.008364954 , 0.008364956
0.389094919 , 0.0205985419, -9.79686    , 0.001707133 , 0.0008647575, 0.0003662044, -0.184104085, -0.16165565 , 0.420722663 , -0.00290269777, 0.0397055   , 2.37765622  , 1.39        , 3           , 12          , 0.03845905  , 0
0.398373663 , 0.004678476 , -9.791431   , 0.00104085007, -0.0005752248, 0.0003594798, -0.184575975, -0.161183774, 0.420790076 , -0.00293511618, 0.03966812  , 2.37765813  , 1.4         , 3           , 50          , 0           , 0
0.3681987   , 0.0118608531, -9.809259   , 0.000474357716, -0.000297480758, -6.6526205E-05, -0.184373736, -0.161251172, 0.420722663 , -0.00293039787, 0.0396651477, 2.37765718  , 1.41        , 3           , 11          , 0.008345645 , 0.008345647
0.341310948 , 0.0320455655, -9.8139     , 0.00224141264, -0.0007078921, -0.000412118068, -0.184238911, -0.161520824, 0.420453    , -0.00290814671, 0.0396580547, 2.37765336  , 1.42        , 3           , 12          , 0.0390741676, 0
0.3939124   , 0.0314924456, -9.832485   , 0.0018100458, 0.000767457648, -0.001118159, -0.184238911, -0.161520824, 0.420453    , -0.00289049069, 0.0396656953, 2.377642    , 1.43        , 3           , 50          , 0           , 0
0.4016972   , 0.0163711943, -9.791357   , 0.000607433147, 0.00132247282, -0.000275275874, -0.184373736, -0.161386   , 0.420722663 , -0.0028845272, 0.0396789126, 2.377639    , 1.44        , 3           , 11          , 0.008345645 , 0.008345647
0.408966422 , 0.0270185322, -9.762783   , 0.000750574458, 0.000901079446, -0.000557805644, -0.184306324, -0.161183774, 0.420722663 , -0.00287724286, 0.0396879055, 2.37763333  , 1.45        , 3           , 12          , 0.0390741676, 0
0.3826819   , 0.0290936455, -9.751675   , -0.0020666013, -0.0005258451, -0.0003612415, -0.1841715  , -0.161790475, 0.420722663 , -0.00289805047, 0.03968263  , 2.37763     , 1.46        , 3           , 50          , 0           , 0
0.367885321 , 0.03161855  , -9.7798     , -0.002639059, 0.0009485502, -0.0008560379, -0.1841715  , -0.161790475, 0.420722663 , -0.00292478129, 0.03969209  , 2.37762141  , 1.47        , 3           , 11          , 0.008345645 , 0.008345647
0.393472433 , 0.033739917 , -9.82841    , -0.00143947918, 0.0009566641, -0.00212185946, -0.184238911, -0.161116362, 0.420587838 , -0.00294001866, 0.0397015922, 2.3776      , 1.48        , 3           , 12          , 0.0390741676, 0
0.383328557 , 0.0314771272, -9.791435   , -0.00256600929, 0.000315503043, -0.00205746945, -0.184441149, -0.161183774, 0.420790076 , -0.00296649733, 0.0397046879, 2.37757945  , 1.49        , 3           , 50          , 0           , 0
0.372310758 , 0.00165105285, -9.740117   , 0.000338378362, 0.000351547118, 4.75163233E-06, -0.1841715  , -0.161520824, 0.420790076 , -0.002953052, 0.03964582  , 2.37758     , 1.5         , 3           , 11          , 0.008329726 , 0.008329725
0.389425874 , 0.0222799033, -9.761595   , -0.000859948341, -8.525353E-06, 0.000422418467, -0.1841715  , -0.161520824, 0.420790076 , -0.00296148239, 0.03964575  , 2.3775847   , 1.51        , 3           , 12          , 0.03972536  , 0
0.391944051 , 0.04343778  , -9.755612   , -0.0037474602, -0.001647105, -0.0007237251, -0.184306324, -0.161520824, 0.420790076 , -0.0029992417, 0.0396292545, 2.377577    , 1.52        , 3           , 50          , 0           , 0
0.39081797  , 0.04498104  , -9.807592   , -0.000855332648, -0.00106439739, -0.00063872413, -0.184778214, -0.161453411, 0.4208575   , -0.00300804572, 0.0396185927, 2.37757087  , 1.53        , 3           , 11          , 0.008329726 , 0.008329725
0.3720086   , 0.02357547  , -9.817318   , 0.000338281854, 0.000140367833, -0.00197333586, -0.1841715  , -0.161183774, 0.420722663 , -0.003005447, 0.03961994  , 2.37755132  , 1.54        , 3           , 12          , 0.03972536  , 0
0.365459323 , 0.0216941033, -9.772177   , 0.00246439083, -0.00125312817, -0.000341038278, -0.1841715  , -0.161183774, 0.420722663 , -0.00298093632, 0.0396074019, 2.3775475   , 1.55        , 3           , 50          , 0           , 0
0.371582031 , 0.01653456  , -9.73554    , -0.00148177287, -0.00289886771, -0.000715142349, -0.184104085, -0.161386   , 0.4208575   , -0.00299603422, 0.03957839  , 2.37754083  , 1.56        , 3           , 11          , 0.008329726 , 0.008329725
0.391607285 , 0.0466616265, -9.773682   , -0.000923989341, -0.00155761617, -0.0014874253, -0.184373736, -0.161251172, 0.420722663 , -0.00300586177, 0.0395627655, 2.37752557  , 1.57        , 3           , 12          , 0.03972536  , 0
0.397209227 , 0.0200275183, -9.789568   , 0.000203827265, -0.0009868419, 7.26664E-05 , -0.184306324, -0.161520824, 0.420722663 , -0.00300379423, 0.0395529   , 2.37752652  , 1.58        , 3           , 50          , 0           , 0
0.400019526 , 0.0102517195, -9.843824   , -0.000935207936, 0.0009060829, 0.000211596387, -0.184306324, -0.161520824, 0.420722663 , -0.00301306369, 0.03956197  , 2.37752843  , 1.59        , 3           , 11          , 0.008329726 , 0.008329725
0.3745987   , 0.0136212772, -9.818243   , -0.001925541, -0.00038162776, -0.001205494, -0.184306324, -0.161116362, 0.420655251 , -0.00295746815, 0.0395420864, 2.37751985  , 1.6         , 3           , 12          , 0.04041052  , 0
0.390045017 , 0.0304436833, -9.77602    , 0.000118790944, 0.000406526262, -0.000205871766, -0.1841715  , -0.161183774, 0.420722663 , -0.002956361, 0.0395461433, 2.377518    , 1.61        , 3           , 50          , 0           , 0
0.384684    , 0.0377077535, -9.770607   , -0.00183721248, -0.00354874716, 0.002321672 , -0.184036672, -0.161453411, 0.420722663 , -0.00297381147, 0.0395107232, 2.37754083  , 1.62        , 3           , 11          , 0.00830892  , 0.00830892
0.3925002   , 0.0470870249, -9.769153   , -0.000154129841, -0.0012847688, 0.00176796992, -0.184238911, -0.161318585, 0.420790076 , -0.00297465269, 0.03949793  , 2.377559    , 1.63        , 3           , 12          , 0.04041052  , 0
0.3900976   , 0.03093264  , -9.787317   , -0.00129350636, 0.0003969756, -0.000494993932, -0.184238911, -0.161318585, 0.420790076 , -0.00298778364, 0.0395018831, 2.3775537   , 1.64        , 3           , 50          , 0           , 0
0.36541152  , 0.007372163 , -9.806587   , -0.004114987, -0.0001852542, -0.0005090311, -0.184036672, -0.161386   , 0.420655251 , -0.003029136, 0.0395000167, 2.37754846  , 1.65        , 3           , 11          , 0.00830892  , 0.00830892
0.3774072   , 0.0243761986, -9.805973   , 0.00068471214, 0.00012877956, -0.0007687469, -0.1841715  , -0.161251172, 0.420790076 , -0.00302259414, 0.0395012833, 2.37754083  , 1.66        , 3           , 12          , 0.04041052  , 0
0.37030673  , 0.0428783074, -9.781995   , 0.000109937508, 0.00209591421, -0.00105088064, -0.184306324, -0.161386   , 0.420655251 , -0.00302191335, 0.039522212 , 2.37753034  , 1.67        , 3           , 50          , 0           , 0
0.4005546   , 0.0135116382, -9.742563   , 0.00379205961, 0.000149792322, 0.000375889154, -0.184306324, -0.161386   , 0.420655251 , -0.002983843, 0.03952372  , 2.37753415  , 1.68        , 3           , 11          , 0.00830892  , 0.00830892
0.390429437 , 0.0312756635, -9.75657749 , -0.00071422325, -0.00241485261, 0.000350912771, -0.184104085, -0.161251172, 0.420655251 , -0.00299084373, 0.03949958  , 2.377538    , 1.69        , 3           , 12          , 0.04041052  , 0
0.3594997   , 0.0381445251, -9.812381   , -0.00323674828, -0.000763701333, -0.00220006052, -0.184373736, -0.161386   , 0.4208575   , -0.00298827351, 0.03946608  , 2.377517    , 1.7         , 3           , 50          , 0           , 0
0.365599334 , 0.01421956  , -9.830513   , 0.000718206051, -0.0007369571, -0.0004863984, -0.184036672, -0.161318585, 0.420722663 , -0.002981284, 0.0394586958, 2.37751222  , 1.71        , 3           , 11          , 0.008276484 , 0.008276488
0.403171331 , 0.01912717  , -9.81077    , 0.00185274822, -0.00157400919, 0.0006477173, -0.184036672, -0.161318585, 0.420722663 , -0.002962499, 0.0394429676, 2.377519    , 1.72        , 3           , 12          , 0.0411275961, 0
0.39109087  , -0.0112618878, -9.722851   , 0.004373516 , 0.002666656 , 0.000383541163, -0.183969259, -0.161183774, 0.420655251 , -0.00291861431, 0.03946965  , 2.37752271  , 1.73        , 3           , 50          , 0           , 0
0.392104834 , 0.0266809054, -9.738053   , 0.0007278753, -0.00242634141, 0.00177129777, -0.184441149, -0.161318585, 0.420790076 , -0.00291063148, 0.0394454375, 2.37754083  , 1.74        , 3           , 11          , 0.008276484 , 0.008276488
0.384244    , 0.04702262  , -9.854641   , -0.003234123, -0.00132683222, -0.00248346571, -0.1841715  , -0.161116362, 0.420722663 , -0.00294395234, 0.0394321   , 2.377516    , 1.75        , 3           , 12          , 0.0411275961, 0
0.380196929 , 0.039505206 , -9.88589    , -0.00351852248, -0.0007656083, -0.00107122748, -0.1841715  , -0.161116362, 0.420722663 , -0.00297955982, 0.0394244045, 2.377505    , 1.76        , 3           , 50          , 0           , 0
0.377604425 , 0.033909332 , -9.823559   , -0.0007080312, 0.00206914288, -0.0007711812, -0.184104085, -0.161386   , 0.420790076 , -0.002986946, 0.0394450724, 2.377497    , 1.77        , 3           , 11          , 0.008276484 , 0.008276488
0.402974963 , 0.02343155  , -9.748831   , 0.00241005351, 0.000119204982, 0.002065642 , -0.184104085, -0.161183774, 0.420722663 , -0.002962031, 0.03944634  , 2.377518    , 1.78        , 3           , 12          , 0.0411275961, 0
0.392589927 , 0.03518245  , -9.718579   , -0.0006942543, -0.000746508653, -0.00105805811, -0.1841715  , -0.161520824, 0.420790076 , -0.00296939164, 0.0394388363, 2.37750745  , 1.79        , 3           , 50          , 0           , 0
0.3908897   , 0.0236884635, -9.782822   , -0.004083206, 9.01617459E-05, -0.00163739594, -0.1841715  , -0.161520824, 0.420790076 , -0.00300491787, 0.03945861  , 2.37749124  , 1.8         , 3           , 11          , 0.008233071 , 0.008233077
0.391960472 , 0.0175628   , -9.842953   , 0.00156926061, -0.000434763526, 0.000365837 , -0.1841715  , -0.161386   , 0.420655251 , -0.00298907864, 0.0394542739, 2.377495    , 1.81        , 3           , 12          , 0.04187461  , 0
0.368466258 , 0.0156484675, -9.862576   , -0.000119561155, -0.00157248275, 0.0006387372, -0.184238911, -0.161251172, 0.420790076 , -0.00299002253, 0.03943857  , 2.37750125  , 1.82        , 3           , 50          , 0           , 0
0.398142636 , 0.0146831982, -9.813539   , -0.0004090324, -0.000448139559, -0.0019036812, -0.184036672, -0.161386   , 0.4209249   , -0.002994863, 0.03943403  , 2.37748218  , 1.83        , 3           , 11          , 0.008233071 , 0.008233077
0.397322625 , 0.014837293 , -9.723146   , 0.00099588  , 0.00125080615, 8.32692749E-05, -0.184306324, -0.161386   , 0.420453    , -0.002984874, 0.0394465439, 2.37748313  , 1.84        , 3           , 12          , 0.04187461  , 0
0.376864076 , 0.0185798723, -9.69164848 , 0.004381635 , 0.002118425 , 0.00151306181, -0.184306324, -0.161386   , 0.420453    , -0.00294046337, 0.0394677743, 2.377498    , 1.85        , 3           , 50          , 0           , 0
0.3967485   , 0.0320778452, -9.748843   , -0.00210679648, 0.000385100517, -0.000215056032, -0.184441149, -0.161183774, 0.420587838 , -0.0029616158, 0.03947162  , 2.377496    , 1.86        , 3           , 11          , 0.008233071 , 0.008233077
0.39062053  , 0.04474687  , -9.870874   , -0.009733551, 0.000615097233, 3.23579152E-05, -0.1841715  , -0.161318585, 0.420722663 , -0.00305893854, 0.039477773 , 2.377496    , 1.87        , 3           , 12          , 0.04187461  , 0
0.3996089   , 0.06682938  , -9.8937645  , -0.0043587517, -0.00103800232, 0.000619851053, -0.184441149, -0.161520824, 0.420790076 , -0.0031022795, 0.03946741  , 2.37750268  , 1.88        , 3           , 50          , 0           , 0
0.3772704   , 0.0157846659, -9.800134   , -0.0032236313, -0.00215662341, 0.000340845552, -0.184441149, -0.161520824, 0.420790076 , -0.00313437777, 0.0394458547, 2.377506    , 1.89        , 3           , 11          , 0.008233071 , 0.008233077
0.399653375 , -0.0105029205, -9.710127   , 0.00439592265, 0.00044780795, -0.00159706268, -0.1841715  , -0.161318585, 0.420655251 , -0.003080859, 0.03947505  , 2.37749028  , 1.9         , 3           , 12          , 0.0426496379, 0
0.390605569 , 0.0176556818, -9.732679   , 0.00129036978, 0.000426803774, 0.000366213033, -0.184238911, -0.161183774, 0.4208575   , -0.003067812, 0.03947933  , 2.377494    , 1.91        , 3           , 50          , 0           , 0
0.3837028   , 0.0184640214, -9.814085   , -0.002396261, 0.00321761961, -0.00162433 , -0.184036672, -0.161318585, 0.420655251 , -0.00309241936, 0.03951145  , 2.377478    , 1.92        , 3           , 11          , 0.008176978 , 0.00817698147
0.390833825 , 0.025800759 , -9.87321    , -0.004070164, -0.000735746056, 0.000339455553, -0.184036672, -0.161318585, 0.420655251 , -0.003132987, 0.0395041071, 2.37748122  , 1.93        , 3           , 12          , 0.0426496379, 0
0.390752554 , 0.0319838338, -9.833411   , -0.0018112387, -0.000720468641, -0.0004976212, -0.184306324, -0.161251172, 0.420722663 , -0.00315129547, 0.0394968837, 2.377476    , 1.94        , 3           , 50          , 0           , 0
0.389038861 , 0.0005414863, -9.73683    , 0.00409930339, 0.00354311964, 0.000384155661, -0.184238911, -0.161183774, 0.420655251 , -0.003110153, 0.0395323336, 2.37747979  , 1.95        , 3           , 11          , 0.008176978 , 0.00817698147
0.360678315 , 0.0197566953, -9.716627   , -0.000689079752, 0.0009765658, 0.000922937354, -0.1841715  , -0.161251172, 0.420722663 , -0.003116677, 0.03954212  , 2.37748933  , 1.96        , 3           , 12          , 0.0426496379, 0
0.372849315 , 0.0444907658, -9.734058   , -0.00350924022, -0.000168801285, -0.001634805, -0.1841715  , -0.161251172, 0.420722663 , -0.00315241632, 0.039540384 , 2.377473    , 1.97        , 3           , 50          , 0           , 0
0.388089359 , 0.0414324552, -9.816216   , -0.002388312, 0.00180979865, 6.87251E-05 , -0.184238911, -0.161386   , 0.420722663 , -0.00317627471, 0.03955848  , 2.37747359  , 1.98        , 3           , 11          , 0.008176978 , 0.00817698147
0.3911071   , 0.0252036843, -9.831176   , 0.00044833892, -0.0007051881, -0.000204548211, -0.184238911, -0.161251172, 0.420722663 , -0.00317187048, 0.0395514257, 2.37747169  , 1.99        , 3           , 12          , 0.0426496379, 0
0.388601    , 0.017892411 , -9.795519   , 0.00106813561, -0.001291404, 0.00121188618, -0.184036672, -0.161183774, 0.420790076 , -0.0030902375, 0.03950168  , 2.377487    , 2           , 3           , 50          , 0           , 0
0.36779052  , 0.02440013  , -9.779831   , 0.004744029 , -0.0021112687, 0.00151024212, -0.184036672, -0.161183774, 0.420790076 , -0.00304219546, 0.03948062  , 2.37750173  , 2.01        , 3           , 11          , 0.008112098 , 0.008112103
0.3974276   , 0.0104588252, -9.762939   , -7.525977E-05, 0.00123503641, -0.000767238264, -0.184373736, -0.161251172, 0.420655251 , -0.00304325228, 0.03949294  , 2.377494    , 2.02        , 3           , 12          , 0.04345086  , 0
0.372634023 , 0.0153035186, -9.775312   , 0.00190623652, 0.000403712562, -0.000194246561, -0.184238911, -0.160981536, 0.4208575   , -0.00302426773, 0.0394969657, 2.37749219  , 2.03        , 3           , 50          , 0           , 0
0.378989875 , 0.04284233  , -9.801364   , -0.00175178738, -0.00215519778, 0.0014799526, -0.1841715  , -0.161251172, 0.420587838 , -0.00304119661, 0.0394754633, 2.37750745  , 2.04        , 3           , 11          , 0.008112098 , 0.008112103
0.38671124  , 0.0525911078, -9.775501   , -0.004296744, -0.00160925929, 0.000903893029, -0.1841715  , -0.161251172, 0.420587838 , -0.00308380532, 0.0394594   , 2.377516    , 2.05        , 3           , 12          , 0.04345086  , 0
0.391530633 , 0.04124328  , -9.772347   , 0.000216836255, -0.0004524378, 0.0014917748, -0.184238911, -0.161183774, 0.420722663 , -0.00308104814, 0.03945492  , 2.37753129  , 2.06        , 3           , 50          , 0           , 0
0.401679754 , 0.0154643524, -9.790005   , -0.000342278217, -0.00158251717, 0.00176994258, -0.184306324, -0.161251172, 0.420722663 , -0.0030837704, 0.0394391455, 2.377549    , 2.07        , 3           , 11          , 0.008112098 , 0.008112103
0.402612537 , 0.0194929224, -9.783653   , -0.00147526292, -0.00102702947, 0.0009179302, -0.1841715  , -0.161116362, 0.420587838 , -0.003098158, 0.0394289   , 2.377558    , 2.08        , 3           , 12          , 0.04345086  , 0
0.3637688   , 0.0285083354, -9.779845   , 0.000225363445, -0.00214182772, 0.0017717086, -0.1841715  , -0.161453411, 0.420655251 , -0.00309520378, 0.0394075438, 2.377576    , 2.09        , 3           , 50          , 0           , 0
0.3786065   , 0.0184287541, -9.786101   , -0.000892259064, 0.00122730783, -0.001335043, -0.1841715  , -0.161453411, 0.420655251 , -0.00306097046, 0.03941693  , 2.37756467  , 2.1         , 3           , 11          , 0.008036073 , 0.008036081
0.376854151 , 0.0274246559, -9.771614   , 0.0008091087, -0.00016905833, -0.00161184859, -0.184373736, -0.161318585, 0.420790076 , -0.00305351662, 0.03941519  , 2.37754846  , 2.11        , 3           , 12          , 0.0442765169, 0
0.378630519 , 0.02067998  , -9.784736   , 0.00109374523, -0.0004487096, -0.000198278081, -0.184036672, -0.161048949, 0.420790076 , -0.003042658, 0.0394107   , 2.37754655  , 2.12        , 3           , 50          , 0           , 0
0.4073559   , 0.02854141  , -9.807083   , -0.0008792236, -0.00130677538, -0.00049133593, -0.184036672, -0.161251172, 0.420453    , -0.00305164233, 0.0393976234, 2.37754178  , 2.13        , 3           , 11          , 0.008036073 , 0.008036081
0.40101406  , 0.0348623954, -9.786313   , -0.0008877508, 0.000382614322, -0.0007712698, -0.184036672, -0.161251172, 0.420453    , -0.00306082354, 0.0394014232, 2.37753415  , 2.14        , 3           , 12          , 0.0442765169, 0
0.371204168 , 0.0419684052, -9.782896   , 0.001658436 , -0.0004448904, -0.000478181668, -0.184238911, -0.161183774, 0.420655251 , -0.00304442644, 0.039396964 , 2.37752938  , 2.15        , 3           , 50          , 0           , 0
0.403164625 , 0.0302804634, -9.773209   , -0.0006042563, 0.00010295766, -0.00133546186, -0.184238911, -0.161116362, 0.420722663 , -0.00305099459, 0.03939795  , 2.377516    , 2.16        , 3           , 11          , 0.008036073 , 0.008036081
0.3856067   , 0.0381573439, -9.77331    , -0.00229119463, -0.00131632446, -0.0002153831, -0.184306324, -0.161386   , 0.420520425 , -0.003073988, 0.039384786 , 2.37751365  , 2.17        , 3           , 12          , 0.0442765169, 0
0.4047047   , 0.0339825824, -9.805725   , 0.0008057423, 0.000675640767, -0.000197859277, -0.184306324, -0.161386   , 0.420520425 , -0.003066011, 0.03939153  , 2.37751126  , 2.18        , 3           , 50          , 0           , 0
0.392861247 , 0.0237972252, -9.821676   , 0.00165416521, 0.000681376143, 0.00178385363, -0.1841715  , -0.161183774, 0.420790076 , -0.003048767, 0.039398402 , 2.37752938  , 2.19        , 3           , 11          , 0.008036073 , 0.008036081
0.3822248   , 0.05580233  , -9.775522   , 0.000233259037, 0.00128763868, -0.000764674, -0.184306324, -0.161183774, 0.420520425 , -0.003053436, 0.03948932  , 2.37752175  , 2.2         , 3           , 12          , 0.04512496  , 0
0.378347    , 0.03287394  , -9.786947   , -0.0006162312, 0.00156346976, -0.00218087831, -0.1841715  , -0.161520824, 0.420655251 , -0.00306046312, 0.0395048931, 2.37749982  , 2.21        , 3           , 50          , 0           , 0
0.393547922 , 0.0227164719, -9.771505   , -0.0006077928, 0.000155651622, 0.0003597892, -0.1841715  , -0.161520824, 0.420655251 , -0.00306639937, 0.0395064577, 2.37750363  , 2.22        , 3           , 11          , 0.007953892 , 0.007953901
0.400956929 , 0.003199391 , -9.763393   , 0.00136665907, 0.000450581021, -0.0016083204, -0.184104085, -0.161251172, 0.420790076 , -0.00305337016, 0.0395109169, 2.37748742  , 2.23        , 3           , 12          , 0.04512496  , 0
0.396279454 , -0.015169058, -9.786106   , -0.000322251668, -0.000405566971, 0.0009253132, -0.184373736, -0.161588237, 0.420790076 , -0.00305622444, 0.0395068936, 2.377497    , 2.24        , 3           , 50          , 0           , 0
0.399957359 , 0.0271626413, -9.774151   , -0.000604916, -0.00068905 , -0.00190181239, -0.1841715  , -0.161251172, 0.420722663 , -0.00306302472, 0.03949994  , 2.377478    , 2.25        , 3           , 11          , 0.007953892 , 0.007953901
0.39661485  , 0.0426078   , -9.793095   , -0.00455430849, -0.001278911, 0.001186795 , -0.1841715  , -0.161251172, 0.420722663 , -0.00310809747, 0.0394871868, 2.37748933  , 2.26        , 3           , 12          , 0.04512496  , 0
0.365028    , 0.0479773358, -9.80371    , -0.000891776755, 0.000435305963, 7.636871E-05, -0.184104085, -0.161251172, 0.420655251 , -0.003116985, 0.039491538 , 2.37749028  , 2.27        , 3           , 50          , 0           , 0
0.365243554 , 0.0397454649, -9.772102   , -0.0003302006, 0.00100225373, -0.00076774176, -0.184441149, -0.161453411, 0.420790076 , -0.00312059047, 0.0395015366, 2.37748265  , 2.28        , 3           , 11          , 0.007953892 , 0.007953901
0.363364339 , -0.00172484887, -9.778165   , -0.00230702525, 0.0009888847, -0.000494422857, -0.184306324, -0.161048949, 0.4208575   , -0.003143858, 0.0395114124, 2.377478    , 2.29        , 3           , 12          , 0.04512496  , 0
0.390175343 , 0.005181459 , -9.778383   , -0.000561171, 0.0009528146, -0.000202064854, -0.184306324, -0.161048949, 0.4208575   , -0.00307066063, 0.0394477323, 2.37747884  , 2.3         , 3           , 50          , 0           , 0
0.383428484 , 0.04316322  , -9.778277   , 0.0008465436, 0.0015254867, -0.00301998714, -0.184036672, -0.161386   , 0.420587838 , -0.00306338747, 0.0394628979, 2.3774488   , 2.31        , 3           , 11          , 0.007865912 , 0.007865918
0.373595744 , 0.020694606 , -9.771667   , 0.000298907515, -0.00185711181, -0.00218021567, -0.184238911, -0.161183774, 0.420722663 , -0.0030612566, 0.03944426  , 2.37742734  , 2.32        , 3           , 12          , 0.0459946059, 0
0.3629713   , 0.0335164033, -9.790227   , -0.000829494558, -0.0018647454, 7.481611E-05, -0.184306324, -0.161116362, 0.4208575   , -0.0030695186, 0.03942562  , 2.37742782  , 2.33        , 3           , 50          , 0           , 0
0.383561552 , 0.0517517179, -9.783213   , 0.000291032949, -0.000167718914, -0.00132999977, -0.184238911, -0.161251172, 0.420790076 , -0.00306713232, 0.0394238979, 2.377415    , 2.34        , 3           , 11          , 0.007865912 , 0.007865918
0.375968516 , 0.0292368755, -9.770709   , 0.000574601756, -0.000165803474, 0.000649079448, -0.184238911, -0.161251172, 0.420790076 , -0.00306113064, 0.0394222625, 2.37742114  , 2.35        , 3           , 12          , 0.0459946059, 0
0.391973376 , 0.03765899  , -9.7814     , 0.00227392325, -0.00128060789, -0.000757442, -0.184238911, -0.161453411, 0.420587838 , -0.003038689, 0.0394094326, 2.37741351  , 2.36        , 3           , 50          , 0           , 0
0.393218517 , 0.0205900036, -9.808579   , -0.00337707461, -0.0007556756, -0.0002178378, -0.1841715  , -0.161520824, 0.420790076 , -0.003072544, 0.03940187  , 2.37741113  , 2.37        , 3           , 11          , 0.007865912 , 0.007865918
0.38060075  , 0.0265902039, -9.804583   , -0.002516759, -0.00328402873, 0.0006298198, -0.1841715  , -0.161251172, 0.420655251 , -0.00309745921, 0.0393690467, 2.3774178   , 2.38        , 3           , 12          , 0.0459946059, 0
0.359761626 , 0.03218202  , -9.784833   , -0.00252224645, -0.00243934 , -0.00162917806, -0.1841715  , -0.161251172, 0.420655251 , -0.00312332064, 0.0393446   , 2.37740159  , 2.39        , 3           , 50          , 0           , 0
0.3729303   , 0.0302731525, -9.799656   , -0.0033674594, -0.00109421322, -0.00134821876, -0.1841715  , -0.161251172, 0.420655251 , -0.00314328354, 0.03924244  , 2.37738919  , 2.4         , 3           , 11          , 0.007774131 , 0.00777413836
0.3787085   , 0.0202968661, -9.805076   , 0.0014366589, -0.00134330173, 0.00121657236, -0.184238911, -0.161386   , 0.4209249   , -0.003128439, 0.0392290428, 2.377401    , 2.41        , 3           , 12          , 0.04688397  , 0
0.388500273 , 0.04541039  , -9.793146   , -0.0008156225, -0.00276640616, 0.00148640468, -0.184104085, -0.161520824, 0.420520425 , -0.00313600944, 0.0392014273, 2.377416    , 2.42        , 3           , 50          , 0           , 0
0.3988134   , 0.03985013  , -9.785858   , 0.00172122091, -0.00190452486, 8.687144E-05, -0.184104085, -0.161520824, 0.420520425 , -0.00311876 , 0.0391823873, 2.37741685  , 2.43        , 3           , 11          , 0.007774131 , 0.00777413836
0.387270331 , 0.0277505312, -9.770628   , -0.000272657868, 0.0014608854, -0.000199677132, -0.1841715  , -0.161318585, 0.420520425 , -0.00312156673, 0.03919699  , 2.377415    , 2.44        , 3           , 12          , 0.04688397  , 0
0.391681969 , 0.0115345456, -9.794166   , 0.00282641477, 0.00288971746, -0.00131317112, -0.184238911, -0.161318585, 0.420722663 , -0.0030938217, 0.0392258465, 2.37740159  , 2.45        , 3           , 50          , 0           , 0
0.393039823 , 0.01598173  , -9.779674   , 0.00200118637, -0.00133948331, 0.0006541313, -0.184036672, -0.161588237, 0.420655251 , -0.0030735496, 0.0392124727, 2.37740827  , 2.46        , 3           , 11          , 0.007774131 , 0.00777413836
0.383873165 , 0.0422586277, -9.779183   , -0.00223250268, -0.002212835, -0.00190976192, -0.184036672, -0.161588237, 0.420655251 , -0.00309662055, 0.03919029  , 2.37738919  , 2.47        , 3           , 12          , 0.04688397  , 0
0.373379529 , 0.0356211737, -9.781551   , -0.000536799547, -0.00220136973, 7.590203E-05, -0.184238911, -0.161183774, 0.420722663 , -0.00310195587, 0.0391682722, 2.37739015  , 2.48        , 3           , 50          , 0           , 0
0.381440133 , 0.0278649889, -9.784232   , -0.00308700488, -0.0005291691, 6.66532142E-05, -0.184508562, -0.160914123, 0.4209249   , -0.00313280057, 0.039162986 , 2.377391    , 2.49        , 3           , 11          , 0.007774131 , 0.00777413836
0.3926612   , 0.0205106642, -9.783273   , 0.000301765424, 0.00146465283, 0.00206367858, -0.1841715  , -0.161251172, 0.420790076 , -0.003115212, 0.0391775966, 2.377412    , 2.5         , 3           , 12          , 0.04779165  , 0
0.3727759   , 0.0180965979, -9.801064   , -0.00196174253, 0.002012497 , -0.000206288518, -0.1841715  , -0.161251172, 0.420790076 , -0.00313491351, 0.03919772  , 2.37741017  , 2.51        , 3           , 50          , 0           , 0
0.380065    , 0.0278673321, -9.780175   , -0.00363334664, -0.002504001, 0.0009090166, -0.184306324, -0.161453411, 0.420587838 , -0.00317088864, 0.0391727053, 2.37741971  , 2.52        , 3           , 11          , 0.007680444 , 0.007680451
0.392249137 , 0.0276905484, -9.770139   , -0.00618248526, -0.001113367, 0.0003342589, -0.184238911, -0.161318585, 0.4209249   , -0.003232582, 0.03916158  , 2.37742257  , 2.53        , 3           , 12          , 0.04779165  , 0
0.3732378   , 0.02033042  , -9.796079   , 0.00172112149, -0.0002151932, 8.989738E-05, -0.184104085, -0.161318585, 0.420722663 , -0.00321533438, 0.0391594321, 2.37742352  , 2.54        , 3           , 50          , 0           , 0
0.373391151 , 0.0387550443, -9.774304   , 0.00229343469, -0.00161919615, 0.000937974 , -0.184104085, -0.161318585, 0.420722663 , -0.003192031, 0.03914327  , 2.377433    , 2.55        , 3           , 11          , 0.007680444 , 0.007680451
0.356061459 , 0.0276979059, -9.780359   , 0.00313071976, 7.591618E-05, -0.00188084634, -0.184306324, -0.161251172, 0.420587838 , -0.00316145923, 0.03914397  , 2.377414    , 2.56        , 3           , 12          , 0.04779165  , 0
0.379632    , 0.0243178643, -9.796465   , 0.002015027 , -0.00246580224, 0.000652817835, -0.184441149, -0.161183774, 0.4208575   , -0.00314105023, 0.03911933  , 2.37742066  , 2.57        , 3           , 50          , 0           , 0
0.401376426 , 0.020946987 , -9.808968   , 0.00143311883, 0.0009091571, 9.03161854E-05, -0.184036672, -0.161251172, 0.420722663 , -0.00312668481, 0.03912843  , 2.37742162  , 2.58        , 3           , 11          , 0.007680444 , 0.007680451
0.400589    , 0.029534027 , -9.810294   , -0.0002549617, -0.0005101305, -0.000767367368, -0.184238911, -0.161318585, 0.420655251 , -0.00312953442, 0.0391233   , 2.377414    , 2.59        , 3           , 12          , 0.04779165  , 0
0.398181617 , -0.007974925, -9.785156   , 0.002027292 , 0.0009205189, -0.0016010158, -0.184238911, -0.161318585, 0.420655251 , -0.00305754715, 0.0391454771, 2.37740064  , 2.6         , 3           , 50          , 0           , 0
0.375530481 , 0.0238979235, -9.791526   , -0.000801410468, 0.00202768482, 0.000365313 , -0.184238911, -0.161183774, 0.420722663 , -0.00306541985, 0.03916577  , 2.37740445  , 2.61        , 3           , 11          , 0.007584628 , 0.007584634
0.367640823 , 0.0384878963, -9.808701   , 0.00681944145, 0.002923947 , -0.000445440237, -0.184238911, -0.161318585, 0.420790076 , -0.00299740257, 0.0391949937, 2.37739968  , 2.62        , 3           , 12          , 0.0487163328, 0
0.390092224 , 0.028696537 , -9.793202   , 0.002304469 , 0.00204869057, -0.001032888, -0.184036672, -0.161318585, 0.420722663 , -0.00297476584, 0.03921545  , 2.37738919  , 2.63        , 3           , 50          , 0           , 0
0.403597534 , 0.03115175  , -9.765517   , -0.0007809898, -0.00219579367, -0.000488808262, -0.184036672, -0.161318585, 0.420722663 , -0.002982765, 0.0391934775, 2.37738442  , 2.64        , 3           , 11          , 0.007584628 , 0.007584634
0.365638852 , 0.0249640383, -9.805608   , 0.0006197402, 0.000347847439, 0.001499444 , -0.184104085, -0.161183774, 0.420587838 , -0.00297597982, 0.0391969979, 2.37739968  , 2.65        , 3           , 12          , 0.0487163328, 0
0.377834976 , 0.02836774  , -9.786969   , 0.0009092258, -0.0013396393, -0.000762142357, -0.183969259, -0.161116362, 0.420790076 , -0.00296718557, 0.03918358  , 2.377392    , 2.66        , 3           , 50          , 0           , 0
0.400816    , 0.0190796647, -9.78864    , -0.00302908919, -0.00446359348, -0.00022027771, -0.184441149, -0.161453411, 0.420587838 , -0.00299755624, 0.0391389355, 2.37739015  , 2.67        , 3           , 11          , 0.007584628 , 0.007584634
0.374939    , 0.0153102   , -9.785238   , -0.0007916524, 5.67293937E-05, 0.00036227543, -0.184441149, -0.161453411, 0.420587838 , -0.00300532975, 0.03913951  , 2.37739348  , 2.68        , 3           , 12          , 0.0487163328, 0
0.36588493  , 0.0176495872, -9.778518   , -0.000788538135, -0.0005063992, 0.000926482433, -0.184104085, -0.161318585, 0.420520425 , -0.00301285367, 0.0391344726, 2.37740254  , 2.69        , 3           , 50          , 0           , 0
0.390519023 , -0.0011611376, -9.77208    , 0.000109105451, -0.0005186815, -0.000480287068, -0.184373736, -0.161318585, 0.420655251 , -0.00292027532, 0.03909709  , 2.37740159  , 2.7         , 3           , 11          , 0.00748727424, 0.00748728029
0.382522017 , 0.009324633 , -9.776165   , 0.0015266526, -0.00163539243, -0.000757975562, -0.184238911, -0.161520824, 0.420655251 , -0.00290530245, 0.0390807   , 2.377394    , 2.71        , 3           , 12          , 0.04965677  , 0
0.389609247 , 0.0282310415, -9.787333   , 0.0001174695, -0.002208072, -0.000482890639, -0.184238911, -0.161520824, 0.420655251 , -0.00290431385, 0.0390586033, 2.37738919  , 2.72        , 3           , 50          , 0           , 0
0.387372255 , 0.0242622755, -9.806801   , 0.00011812208, -0.00220806873, 0.0006472591, -0.184104085, -0.161386   , 0.420587838 , -0.002902875, 0.0390365422, 2.37739587  , 2.73        , 3           , 11          , 0.00748727424, 0.00748728029
0.391060323 , 0.03007564  , -9.804037   , -0.00158733875, -0.000248578523, -0.00133536721, -0.184373736, -0.161183774, 0.420722663 , -0.00291926763, 0.0390340239, 2.37738252  , 2.74        , 3           , 12          , 0.04965677  , 0
0.399429351 , 0.0213045068, -9.7746315  , 0.000671171 , 4.82686119E-05, -0.0004767853, -0.184036672, -0.161386   , 0.420520425 , -0.00291274022, 0.03903449  , 2.37737775  , 2.75        , 3           , 50          , 0           , 0
0.39286983  , 0.03540923  , -9.786373   , 0.000662392 , 0.00201922865, 0.00122147694, -0.184036672, -0.161386   , 0.420520425 , -0.002905643, 0.0390547179, 2.37739015  , 2.76        , 3           , 11          , 0.00748727424, 0.00748728029
0.3786518   , 0.0166800935, -9.802832   , 0.00318947784, 0.004852066 , -0.000175018533, -0.184036672, -0.161183774, 0.420587838 , -0.00287382142, 0.0391032323, 2.37738824  , 2.77        , 3           , 12          , 0.04965677  , 0
0.386748046 , 0.0143089993, -9.796904   , 0.0009476956, 0.00117643725, -0.00103880768, -0.184238911, -0.161318585, 0.420655251 , -0.002864754, 0.03911497  , 2.37737775  , 2.78        , 3           , 50          , 0           , 0
0.3654051   , 0.036305584 , -9.822739   , 0.000958106131, -0.00079451513, 8.830456E-05, -0.184036672, -0.161183774, 0.420722663 , -0.002855136, 0.0391070321, 2.3773787   , 2.79        , 3           , 11          , 0.00748727424, 0.00748728029
0.4045276   , 0.0213412736, -9.803066   , 0.004368333 , 0.00120015733, 0.000955977 , -0.183969259, -0.161183774, 0.420453    , -0.00275471248, 0.03912054  , 2.37739015  , 2.8         , 3           , 12          , 0.05061181  , 0
0.3978234   , 0.0339897461, -9.784082   , -0.00241318787, 0.001717446 , 7.76259E-05 , -0.183969259, -0.161183774, 0.420453    , -0.00277881487, 0.03913772  , 2.377391    , 2.81        , 3           , 50          , 0           , 0
0.3732279   , 0.0221078   , -9.787935   , 0.000139968746, -0.000517884153, 0.000368544366, -0.184306324, -0.161116362, 0.420655251 , -0.002777271, 0.0391325541, 2.377395    , 2.82        , 3           , 11          , 0.00739024766, 0.007390256
0.389441729 , 0.01336573  , -9.794175   , 0.0009799529, 0.000895669567, -0.000190409934, -0.184104085, -0.161520824, 0.420655251 , -0.00276754727, 0.039141506 , 2.377393    , 2.83        , 3           , 12          , 0.05061181  , 0
0.38697046  , 0.0327895656, -9.791853   , 0.000129068663, 0.00145306578, -0.00160618045, -0.183834434, -0.16165565 , 0.420520425 , -0.00276688649, 0.039156    , 2.37737679  , 2.84        , 3           , 50          , 0           , 0
0.390806139 , 0.05166667  , -9.783157   , 0.0004149361, 0.0008918489, -0.000475581241, -0.183834434, -0.16165565 , 0.420520425 , -0.00276292465, 0.0391649   , 2.377372    , 2.85        , 3           , 11          , 0.00739024766, 0.007390256
0.38391763  , 0.0169268474, -9.760756   , 0.0001402207, -0.000799454749, -0.00160965172, -0.1841715  , -0.161453411, 0.420722663 , -0.002762153, 0.0391568653, 2.37735581  , 2.86        , 3           , 12          , 0.05061181  , 0
0.386400521 , 0.0255583171, -9.786464   , -0.0009923634, 3.76068929E-05, 0.000646682 , -0.184036672, -0.161453411, 0.4208575   , -0.002771823, 0.0391572565, 2.37736249  , 2.87        , 3           , 50          , 0           , 0
0.370454937 , 0.0568352751, -9.773349   , 0.000140873322, -0.000799451664, -0.000479501847, -0.184373736, -0.161790475, 0.420722663 , -0.00277060131, 0.0391492471, 2.37735772  , 2.88        , 3           , 11          , 0.00739024766, 0.007390256
0.3909364   , 0.0339923725, -9.761083   , 0.0004227219, -0.0005159726, 0.0009349363, -0.184373736, -0.161790475, 0.420722663 , -0.00276600779, 0.03914411  , 2.37736726  , 2.89        , 3           , 12          , 0.05061181  , 0
0.392278016 , 0.0187869556, -9.805882   , 0.000385005318, 0.0006245362, -0.0004771622, -0.184104085, -0.161453411, 0.420790076 , -0.00282252184, 0.0391776673, 2.37736     , 2.9         , 3           , 50          , 0           , 0
0.390322    , 0.0445049666, -9.798559   , -0.000463743549, 0.00061879924, -0.00302395038, -0.1841715  , -0.161251172, 0.420790076 , -0.00282834517, 0.03918377  , 2.37733     , 2.91        , 3           , 11          , 0.00729397824, 0.00729398755
0.3874002   , 0.0242849551, -9.81358    , -0.004685968, -0.001943928, -0.000222234929, -0.1841715  , -0.161116362, 0.420453    , -0.00287528988, 0.0391643234, 2.37732768  , 2.92        , 3           , 12          , 0.051580362 , 0
0.374350518 , 0.03834164  , -9.788763   , -0.000180916046, 0.0009022829, 8.57126142E-05, -0.1841715  , -0.161116362, 0.420453    , -0.00287706731, 0.03917335  , 2.37732863  , 2.93        , 3           , 50          , 0           , 0
0.384125531 , 0.0309321918, -9.766571   , 0.00207013451, 0.00260695326, 9.8851684E-05, -0.184373736, -0.161318585, 0.420587838 , -0.00285632722, 0.03919943  , 2.377329    , 2.94        , 3           , 11          , 0.00729397824, 0.00729398755
0.394964635 , 0.0209624451, -9.791389   , -0.000171158026, -0.00106867275, 8.267508E-05, -0.184238911, -0.161318585, 0.420722663 , -0.0028580043, 0.0391887352, 2.37733     , 2.95        , 3           , 12          , 0.051580362 , 0
0.374208629 , 0.0203726925, -9.81189    , -0.00128478976, -0.00445509655, -0.00105794962, -0.184104085, -0.161251172, 0.420655251 , -0.00287126284, 0.0391441621, 2.37731957  , 2.96        , 3           , 50          , 0           , 0
0.3628694   , 0.0191506222, -9.811529   , -0.000456284033, -0.000789023761, -0.00217850762, -0.184104085, -0.161251172, 0.420655251 , -0.002876679, 0.03913621  , 2.377298    , 2.97        , 3           , 11          , 0.00729397824, 0.00729398755
0.393471    , -0.01565786 , -9.765337   , 0.00010578159, -0.000222073664, -0.00217500585, -0.184036672, -0.161251172, 0.420655251 , -0.002876473, 0.039133925 , 2.37727618  , 2.98        , 3           , 12          , 0.051580362 , 0
0.405093342 , 0.00543301  , -9.771037   , 9.437758E-05, 0.00231201737, -0.000193338026, -0.184104085, -0.161048949, 0.420722663 , -0.00287560862, 0.0391570441, 2.37727427  , 2.99        , 3           , 50          , 0           , 0
0.3996566   , 0.0335400142, -9.79085    , -0.0001181683, 0.00120323861, 0.00178391917, -0.1841715  , -0.161318585, 0.420722663 , -0.00275059487, 0.0392076224, 2.37729716  , 3           , 3           , 11          , 0.007198996 , 0.007199002
0.3741651   , 0.019444691 , -9.80421    , -0.0009624088, 0.000352808041, -0.000199095623, -0.1841715  , -0.161318585, 0.420722663 , -0.00276029855, 0.0392111465, 2.37729478  , 3.01        , 3           , 12          , 0.0525613837, 0
0.376280665 , 0.0103708971, -9.797      , -0.000393536262, -0.000488068, -0.000480301038, -0.184238911, -0.161251172, 0.4203182   , -0.00276442245, 0.0392062552, 2.37729     , 3.02        , 3           , 50          , 0           , 0
0.3777972   , 0.0252127033, -9.787888   , 0.00102466322, -0.001604776, 0.0003721601, -0.1841715  , -0.161251172, 0.420655251 , -0.00275402819, 0.03919022  , 2.37729383  , 3.03        , 3           , 11          , 0.007198996 , 0.007199002
0.372833818 , 0.028409576 , -9.782036   , 0.00214953627, -0.000752444263, -0.000751420041, -0.1841715  , -0.161251172, 0.420790076 , -0.0027328257, 0.03918267  , 2.37728667  , 3.04        , 3           , 12          , 0.0525613837, 0
0.387505233 , 0.0377605259, -9.795897   , 0.00186046551, 0.000653472845, -0.000185492347, -0.184238911, -0.161453411, 0.420655251 , -0.00271429354, 0.0391891971, 2.37728477  , 3.05        , 3           , 50          , 0           , 0
0.391516417 , 0.02694855  , -9.814894   , -0.00037123225, -0.0049931095, -0.00048724396, -0.184238911, -0.161453411, 0.420655251 , -0.00271819229, 0.0391392559, 2.37728     , 3.06        , 3           , 11          , 0.007198996 , 0.007199002
0.394056    , 0.0218632873, -9.787777   , -0.00208654022, -0.000781092152, -0.0002060991, -0.184238911, -0.161318585, 0.420587838 , -0.00273913657, 0.03913144  , 2.37727761  , 3.07        , 3           , 12          , 0.0525613837, 0
0.380683661 , 0.04049425  , -9.780118   , 0.00270463177, 0.00122233119, -0.000745748635, -0.184373736, -0.161386   , 0.420587838 , -0.00271238363, 0.03914364  , 2.37727046  , 3.08        , 3           , 50          , 0           , 0
0.365084767 , 0.026672665 , -9.775322   , 0.0035537954, 0.000946498534, 0.000105380415, -0.184238911, -0.161386   , 0.420520425 , -0.00267680525, 0.0391531065, 2.37727141  , 3.09        , 3           , 11          , 0.007198996 , 0.007199002
0.384795338 , 0.0119837951, -9.769809   , 0.00213401741, 0.00205359072, -0.00018206588, -0.184238911, -0.161386   , 0.420520425 , -0.00265944167, 0.0391539149, 2.37727     , 3.1         , 3           , 12          , 0.0535539538, 0
0.379493654 , 0.008583507 , -9.813254   , -0.00123377983, -0.0024743746, -0.001900037, -0.184306324, -0.161386   , 0.420587838 , -0.0026725214, 0.03912912  , 2.377251    , 3.11        , 3           , 50          , 0           , 0
0.379006565 , 0.0152563155, -9.7834     , -0.00151866826, -0.0019131531, -0.001335411, -0.1841715  , -0.161183774, 0.420790076 , -0.00268822862, 0.0391099527, 2.37723756  , 3.12        , 3           , 11          , 0.0071057   , 0.00710571
0.389985234 , 0.0201292038, -9.794595   , 0.00157671166, 0.000360376434, -0.00159999076, -0.1841715  , -0.161453411, 0.420587838 , -0.00267308671, 0.03911351  , 2.37722135  , 3.13        , 3           , 12          , 0.0535539538, 0
0.3749105   , 0.0446720943, -9.794608   , 0.00440179557, 0.00037948  , -0.000174134009, -0.1841715  , -0.161453411, 0.420587838 , -0.00262913853, 0.0391173027, 2.37721944  , 3.14        , 3           , 50          , 0           , 0
0.395511    , 0.0188011583, -9.821225   , 0.000158423165, 0.00175865588, -0.000191718354, -0.1841715  , -0.161251172, 0.420587838 , -0.00262762932, 0.0391348749, 2.37721753  , 3.15        , 3           , 11          , 0.0071057   , 0.00710571
0.414080143 , 0.017694518 , -9.825155   , 0.000453974324, -0.001055089, -0.00160742819, -0.184238911, -0.160981536, 0.420790076 , -0.00262371846, 0.0391242839, 2.37720132  , 3.16        , 3           , 12          , 0.0535539538, 0
0.392867267 , 0.0345144868, -9.788637   , 0.00185667677, 0.000925418048, -0.001032731, -0.184373736, -0.161116362, 0.420655251 , -0.002605557, 0.0391335152, 2.37719131  , 3.17        , 3           , 50          , 0           , 0
0.404150933 , 0.03613782  , -9.77408    , 0.003819146 , 0.004036008 , 0.000393948 , -0.184373736, -0.161116362, 0.420655251 , -0.00256721675, 0.0391738825, 2.37719464  , 3.18        , 3           , 11          , 0.0071057   , 0.00710571
0.404397041 , 0.0488350578, -9.793461   , -0.00095873815, -0.000783069758, -0.000200891489, -0.184104085, -0.161520824, 0.420453    , -0.00257688086, 0.0391660556, 2.37719274  , 3.19        , 3           , 12          , 0.0535539538, 0
0.3829115   , 0.0644671544, -9.80486    , -0.00154828012, -0.00101422181, -0.000769859, -0.184373736, -0.161251172, 0.4208575   , -0.002647311, 0.03927071  , 2.3771832   , 3.2         , 3           , 50          , 0           , 0
0.397628546 , 0.0400066748, -9.827901   , -0.000975892763, -0.00213665282, 0.00262148865, -0.184036672, -0.161386   , 0.420655251 , -0.002656038, 0.0392494053, 2.37721     , 3.21        , 3           , 11          , 0.00701470952, 0.007014717
0.408820152 , 0.0330747664, -9.818352   , 0.00353154656, -0.000135145383, -0.000179777417, -0.184036672, -0.161386   , 0.420655251 , -0.00262079132, 0.03924805  , 2.377208    , 3.22        , 3           , 12          , 0.05455716  , 0
0.377228022 , 0.02155287  , -9.771183   , 0.00522102136, 0.00100257713, 0.0006774722, -0.184036672, -0.161116362, 0.420453    , -0.00256831571, 0.0392580926, 2.37721467  , 3.23        , 3           , 50          , 0           , 0
0.375531435 , 0.0328257   , -9.763015   , -0.000417267758, -0.00100657565, 0.00149570848, -0.184306324, -0.161116362, 0.420790076 , -0.00257189851, 0.03924806  , 2.37723     , 3.24        , 3           , 11          , 0.00701470952, 0.007014717
0.361627162 , 0.00505158352, -9.774535   , 0.00156218174, -0.00155633723, 0.000938984 , -0.184104085, -0.161251172, 0.420722663 , -0.00255590561, 0.03923252  , 2.37723947  , 3.25        , 3           , 12          , 0.05455716  , 0
0.374521554 , 0.01266606  , -9.802427   , 0.00296604075, -0.000138968462, -0.0013125611, -0.184104085, -0.161251172, 0.420722663 , -0.00252676057, 0.0392310955, 2.377226    , 3.26        , 3           , 50          , 0           , 0
0.397152    , 0.0181957018, -9.781442   , 0.004103207 , -0.00153915153, -0.0004618507, -0.184238911, -0.161318585, 0.420453    , -0.00248590834, 0.03921569  , 2.37722135  , 3.27        , 3           , 11          , 0.00701470952, 0.007014717
0.367102325 , 0.0161804073, -9.748684   , 0.00437882729, -0.000129415479, -0.0001758266, -0.184373736, -0.161453411, 0.420790076 , -0.00244218926, 0.039214395 , 2.37721944  , 3.28        , 3           , 12          , 0.05455716  , 0
0.380937755 , 0.023812972 , -9.785157   , 0.00127729331, -0.0009951158, 0.00150361  , -0.1841715  , -0.161183774, 0.420655251 , -0.00242882618, 0.039204482 , 2.3772347   , 3.29        , 3           , 50          , 0           , 0
0.398528874 , 0.0480260625, -9.800742   , -0.000135519338, -0.0010111992, -0.00076322013, -0.1841715  , -0.161386   , 0.420453    , -0.00242910162, 0.0391800925, 2.377227    , 3.3         , 3           , 11          , 0.00692464737, 0.006924651
0.390013367 , 0.0228300579, -9.792775   , -0.00296150777, -0.00074873527, -0.00134103047, -0.1841715  , -0.161386   , 0.420453    , -0.00245924131, 0.03917257  , 2.37721372  , 3.31        , 3           , 12          , 0.0555701666, 0
0.383832872 , 0.00302129332, -9.78477    , -0.000707343, 0.000392806367, -0.0007636843, -0.184373736, -0.161453411, 0.420520425 , -0.00246661552, 0.0391764753, 2.377206    , 3.32        , 3           , 50          , 0           , 0
0.3895386   , 0.025942022 , -9.777399   , -0.000713245245, 0.00151906512, -0.00132702361, -0.1841715  , -0.161318585, 0.4208575   , -0.00247426913, 0.03919164  , 2.37719274  , 3.33        , 3           , 11          , 0.00692464737, 0.006924651
0.396815419 , 0.0316856541, -9.766471   , -0.0009878865, 0.000109333632, 8.217705E-05, -0.184036672, -0.161453411, 0.420722663 , -0.0024841167, 0.03919273  , 2.37719369  , 3.34        , 3           , 12          , 0.0555701666, 0
0.370423675 , 0.04475851  , -9.804585   , 0.00128210208, -0.00184633816, 0.00150236243, -0.184036672, -0.161453411, 0.420722663 , -0.00247070356, 0.0391743034, 2.377209    , 3.35        , 3           , 50          , 0           , 0
0.3836722   , 0.05005597  , -9.815762   , 0.0009838516, 0.00124896527, 0.0006582063, -0.184441149, -0.161318585, 0.420655251 , -0.00246060919, 0.0391868055, 2.37721562  , 3.36        , 3           , 11          , 0.00692464737, 0.006924651
0.3689975   , 0.0438267961, -9.791041   , -0.00096665 , -0.00411414076, 0.000640743063, -0.184036672, -0.160981536, 0.420655251 , -0.00247002067, 0.039145682 , 2.3772223   , 3.37        , 3           , 12          , 0.0555701666, 0
0.379416466 , 0.0152162239, -9.773001   , 0.000143630008, -0.0004461613, -0.00160864787, -0.183969259, -0.161386   , 0.420520425 , -0.00246921228, 0.03914118  , 2.377206    , 3.38        , 3           , 50          , 0           , 0
0.38795352  , 0.0341807678, -9.806303   , 0.00267578778, 0.001823556 , 0.0009495131, -0.183969259, -0.161386   , 0.420520425 , -0.002442083, 0.039159447 , 2.37721562  , 3.39        , 3           , 11          , 0.00692464737, 0.006924651
0.367114842 , 0.03530945  , -9.801035   , -0.00074348005, 0.000389093882, -0.0018951745, -0.184238911, -0.161588237, 0.4203856   , -0.00253031333, 0.0391549021, 2.37719369  , 3.4         , 3           , 12          , 0.0565922149, 0
0.3731521   , 0.050538674 , -9.788722   , -0.0007375034, -0.00045559273, 0.00121143588, -0.1841715  , -0.161116362, 0.420790076 , -0.00253721187, 0.0391503759, 2.37720561  , 3.41        , 3           , 50          , 0           , 0
0.368583083 , 0.01269283  , -9.789818   , -0.00103255059, 0.00179501076, -0.00132924679, -0.184036672, -0.161520824, 0.420520425 , -0.00254806085, 0.03916829  , 2.37719226  , 3.42        , 3           , 11          , 0.006836923 , 0.006836925
0.3612876   , 0.00693408074, -9.796225   , 0.00123662211, -0.0001606649, -0.00132174883, -0.184036672, -0.161520824, 0.420520425 , -0.00253621279, 0.03916665  , 2.37717938  , 3.43        , 3           , 12          , 0.0565922149, 0
0.3740825   , 0.048762735 , -9.800473   , 0.000952222967, 0.00040055922, 9.048931E-05, -0.1841715  , -0.161318585, 0.420587838 , -0.00252665579, 0.0391706638, 2.37717986  , 3.44        , 3           , 50          , 0           , 0
0.3757758   , 0.0406116843, -9.797783   , 0.000947877765, 0.00124525349, -0.000190746126, -0.184306324, -0.161251172, 0.420453    , -0.00251725246, 0.0391831063, 2.377178    , 3.45        , 3           , 11          , 0.006836923 , 0.006836925
0.387929767 , 0.0399641   , -9.781873   , 0.00209382386, -0.00212588953, -0.00103829813, -0.184104085, -0.16165565 , 0.420453    , -0.00249671866, 0.0391618162, 2.377168    , 3.46        , 3           , 12          , 0.0565922149, 0
0.3740111   , 0.05049024  , -9.777416   , -0.000735368, -0.00101872615, 8.04180454E-05, -0.184104085, -0.16165565 , 0.420453    , -0.00250404 , 0.03915163  , 2.37716842  , 3.47        , 3           , 50          , 0           , 0
0.37917313  , 0.0287817717, -9.780631   , -0.00328991865, 0.00149816915, -0.0002100662, -0.184373736, -0.161251172, 0.420453    , -0.00253702281, 0.039166607 , 2.377166    , 3.48        , 3           , 11          , 0.006836923 , 0.006836925
0.37553516  , 0.0252407975, -9.788356   , 0.00150773372, 0.002093765 , -0.001599498, -0.184036672, -0.161318585, 0.420587838 , -0.0025225752, 0.0391875021, 2.3771503   , 3.49        , 3           , 12          , 0.0565922149, 0
0.386833966 , 0.024644658 , -9.784657   , -0.0007760715, -0.0010516675, 0.0009264497, -0.184238911, -0.161453411, 0.420587838 , -0.00262569753, 0.0391005166, 2.3771565   , 3.5         , 3           , 50          , 0           , 0
0.372772366 , 0.0234499387, -9.782962   , -0.00022581048, 0.00176780031, -0.00019672676, -0.184238911, -0.161453411, 0.420587838 , -0.00262803421, 0.0391181856, 2.37715459  , 3.51        , 3           , 11          , 0.00675164443, 0.006751644
0.390046656 , 0.0250888318, -9.79367    , 0.0003528201, -0.00104403147, -0.000480969728, -0.1841715  , -0.161183774, 0.420520425 , -0.002624692, 0.0391077437, 2.37714934  , 3.52        , 3           , 12          , 0.05762255  , 0
0.391111821 , 0.03413449  , -9.803568   , -0.001066373, 0.000635815552, 0.00177534879, -0.184373736, -0.161520824, 0.420722663 , -0.0026346615, 0.0391141362, 2.377167    , 3.53        , 3           , 50          , 0           , 0
0.398489058 , 0.03951314  , -9.818403   , -0.00163155282, 0.000631994 , 0.00120764  , -0.184104085, -0.161520824, 0.420587838 , -0.00265050377, 0.0391204879, 2.37717938  , 3.54        , 3           , 11          , 0.00675164443, 0.006751644
0.376042038 , 0.03286725  , -9.77702    , 0.00259673782, 0.00206846348, -0.0007481985, -0.184238911, -0.161520824, 0.420587838 , -0.00262483023, 0.0391411558, 2.37717175  , 3.55        , 3           , 12          , 0.05762255  , 0
0.372495919 , 0.0151916342, -9.741866   , 0.00232529966, -0.00018596786, -0.00103552442, -0.184238911, -0.161520824, 0.420587838 , -0.002601983, 0.03913927  , 2.37716126  , 3.56        , 3           , 50          , 0           , 0
0.394556135 , 0.022788994 , -9.796357   , 6.407581E-05, 0.000361887185, 0.0006500328, -0.1841715  , -0.161116362, 0.420587838 , -0.00260108756, 0.0391429067, 2.377168    , 3.57        , 3           , 11          , 0.00675164443, 0.006751644
0.381912142 , 0.0260898434, -9.794632   , 0.00261567533, -0.00159187848, 0.0006588476, -0.1841715  , -0.161251172, 0.420655251 , -0.00257467036, 0.039126996 , 2.37717462  , 3.58        , 3           , 12          , 0.05762255  , 0
0.4000475   , 0.0178623311, -9.826166   , -0.00190127047, -0.00190400088, 0.0014849552, -0.184508562, -0.161116362, 0.420520425 , -0.00259310124, 0.039107997 , 2.37718987  , 3.59        , 3           , 50          , 0           , 0
0.380064517 , 0.0247425325, -9.79013252 , -0.0005038633, 8.768716E-05, 0.000646914938, -0.184508562, -0.161116362, 0.420520425 , -0.00260859984, 0.0391356163, 2.377196    , 3.6         , 3           , 11          , 0.00666831853, 0.00666831573
0.3797662   , 0.0120029505, -9.758096   , -0.000222904826, 8.959009E-05, -0.00189460535, -0.184306324, -0.16165565 , 0.420587838 , -0.00261156936, 0.03913646  , 2.37717748  , 3.61        , 3           , 12          , 0.0586605   , 0
0.381243557 , 0.0441465154, -9.794561   , -0.002759007, -0.00105385925, -0.00162565592, -0.184238911, -0.161588237, 0.420790076 , -0.00263979612, 0.03912588  , 2.37716126  , 3.62        , 3           , 50          , 0           , 0
0.3876542   , 0.0477009676, -9.800374   , 5.45985822E-05, 0.00121776341, -0.000761402654, -0.184306324, -0.161251172, 0.420453    , -0.00263954885, 0.039138034 , 2.37715364  , 3.63        , 3           , 11          , 0.00666831853, 0.00666831573
0.39019078  , 0.03591798  , -9.794076   , 0.00174760213, 0.00151078752, -0.00103560463, -0.184306324, -0.161251172, 0.420453    , -0.00262248 , 0.03915311  , 2.37714314  , 3.64        , 3           , 12          , 0.0586605   , 0
0.376505435 , 0.0346559621, -9.773847   , 0.00118569983, 0.0009438383, -0.000756568857, -0.183969259, -0.161386   , 0.420587838 , -0.00261092116, 0.0391625278, 2.37713552  , 3.65        , 3           , 50          , 0           , 0
0.384643346 , 0.0305331778, -9.783745   , 0.00174711284, 0.00151078519, -0.001883217, -0.184373736, -0.161318585, 0.420790076 , -0.00259418669, 0.0391775854, 2.37711644  , 3.66        , 3           , 11          , 0.00666831853, 0.00666831573
0.40698275  , 0.0379846245, -9.796198   , -0.00418336131, 0.00147067825, -0.00106326025, -0.184238911, -0.161318585, 0.420655251 , -0.00263643614, 0.0391922742, 2.377106    , 3.67        , 3           , 12          , 0.0586605   , 0
0.3880771   , 0.0124839107, -9.795546   , 0.00287238625, 0.00264469115, 0.000101548561, -0.184238911, -0.161318585, 0.420655251 , -0.00260767248, 0.03921872  , 2.377107    , 3.68        , 3           , 50          , 0           , 0
0.409387529 , 0.0118116457, -9.803972   , 0.00231155171, 0.00179617491, -0.000184924356, -0.1841715  , -0.161453411, 0.420655251 , -0.00258463249, 0.0392366759, 2.377105    , 3.69        , 3           , 11          , 0.00666831853, 0.00666831573
0.3852973   , 0.0129110152, -9.778841   , -0.00078939693, -0.000449252344, 7.95092637E-05, -0.184104085, -0.161318585, 0.420655251 , -0.00260622264, 0.03930126  , 2.377105    , 3.7         , 3           , 12          , 0.0597054176, 0
0.363501966 , 0.0028501628, -9.797129   , -0.00192451722, 0.0006693689, 0.000358514779, -0.184036672, -0.161588237, 0.420790076 , -0.00262532546, 0.0393079631, 2.37710881  , 3.71        , 3           , 50          , 0           , 0
0.374045253 , 0.0162231363, -9.785241   , 0.00204061042, -0.00155641173, 0.000373480376, -0.184036672, -0.161588237, 0.420790076 , -0.00260477164, 0.03929241  , 2.37711263  , 3.72        , 3           , 11          , 0.006587106 , 0.00658710161
0.3651197   , 0.0208984111, -9.80246449 , 0.00034498176, -0.00128630549, 0.000931087648, -0.1841715  , -0.161520824, 0.4203856   , -0.00260095461, 0.03927957  , 2.37712216  , 3.73        , 3           , 12          , 0.0597054176, 0
0.374192834 , 0.0292868689, -9.77931    , -0.00191787351, -0.000738458068, -0.000208729631, -0.184306324, -0.161386   , 0.4208575   , -0.00262021413, 0.0392721854, 2.37712026  , 3.74        , 3           , 50          , 0           , 0
0.378296524 , 0.0301549342, -9.783343   , -0.00106067187, -0.002703683, 7.472087E-05, -0.1841715  , -0.161520824, 0.420655251 , -0.00263078837, 0.0392451473, 2.37712121  , 3.75        , 3           , 11          , 0.006587106 , 0.00658710161
0.356081665 , 0.0272679236, -9.786688   , 5.82985558E-05, -0.0007250923, -0.00161219854, -0.184036672, -0.161386   , 0.420520425 , -0.002630837, 0.0392378569, 2.377105    , 3.76        , 3           , 12          , 0.0597054176, 0
0.3769021   , 0.0216609929, -9.80192    , 0.000345396838, -0.001567875, -0.0007645709, -0.184036672, -0.161386   , 0.420520425 , -0.002627683, 0.0392221548, 2.37709737  , 3.77        , 3           , 50          , 0           , 0
0.37067467  , 0.03655537  , -9.781568   , -0.000509431935, 0.000115789357, 0.0006467691, -0.184845626, -0.161183774, 0.420655251 , -0.002632521, 0.0392233357, 2.377104    , 3.78        , 3           , 11          , 0.006587106 , 0.00658710161
0.37694782  , 0.0306250565, -9.784256   , 0.00146829744, -0.000152409018, -0.000474596047, -0.1841715  , -0.161520824, 0.420790076 , -0.00261802226, 0.03922179  , 2.3770988   , 3.79        , 3           , 12          , 0.0597054176, 0
0.36964336  , 0.0253053624, -9.78704548 , 0.00174179429, 0.00122298428, 0.0009414661, -0.1841715  , -0.161453411, 0.420587838 , -0.00260723033, 0.03914722  , 2.37710881  , 3.8         , 3           , 50          , 0           , 0
0.3879056   , 0.0426226258, -9.767399   , 0.002013811 , 0.00319584738, -0.0001843291, -0.1841715  , -0.161453411, 0.420587838 , -0.00258716755, 0.0391791724, 2.377107    , 3.81        , 3           , 11          , 0.00650796341, 0.00650795968
0.387837082 , 0.0305156168, -9.789596   , 0.005398587 , 0.00406346051, -0.000449761545, -0.184575975, -0.161183774, 0.420790076 , -0.00253336225, 0.0392198   , 2.37710214  , 3.82        , 3           , 12          , 0.06075672  , 0
0.380010247 , 0.0193423275, -9.794223   , -0.0007884054, -0.00104672369, 0.0017737546, -0.184441149, -0.161116362, 0.420790076 , -0.0025405488, 0.039209377 , 2.37711978  , 3.83        , 3           , 50          , 0           , 0
0.375421524 , 0.0126508893, -9.80106449 , -0.00275603542, -0.00331262243, -0.00134684739, -0.184036672, -0.161453411, 0.420655251 , -0.00256863469, 0.0391762145, 2.37710643  , 3.84        , 3           , 11          , 0.00650796341, 0.00650795968
0.3714152   , 0.0225741677, -9.786139   , 0.00259260461, 0.0003840159, -0.000186034566, -0.184036672, -0.161453411, 0.420655251 , -0.00254278188, 0.03918005  , 2.377104    , 3.85        , 3           , 12          , 0.06075672  , 0
0.395396024 , 0.0222788341, -9.781889   , 0.00287380069, 0.000667491753, 9.825356E-05, -0.184643388, -0.161251172, 0.420587838 , -0.00251400587, 0.0391867235, 2.37710547  , 3.86        , 3           , 50          , 0           , 0
0.396026582 , 0.0006205011, -9.784233   , -0.000233799234, 0.0009280496, 0.0009318136, -0.184238911, -0.161183774, 0.4209249   , -0.00251597888, 0.03919603  , 2.37711453  , 3.87        , 3           , 11          , 0.00650796341, 0.00650795968
0.396880478 , 0.0339701436, -9.775049   , 0.00118735153, -0.000751788146, 0.00206594472, -0.184238911, -0.161386   , 0.420655251 , -0.00250329333, 0.0391885638, 2.37713552  , 3.88        , 3           , 12          , 0.06075672  , 0
0.37425     , 0.0284405015, -9.796037   , 0.002027336 , 0.000661765749, 0.00150699029, -0.184238911, -0.161386   , 0.420655251 , -0.00248242915, 0.0391952172, 2.37715077  , 3.89        , 3           , 50          , 0           , 0
0.3847501   , 0.03374415  , -9.79955    , -0.0007963394, 0.0006401392, -0.00189649255, -0.184238911, -0.161183774, 0.420722663 , -0.00248449552, 0.03919503  , 2.37713218  , 3.9         , 3           , 11          , 0.006430562 , 0.00643055746
0.37793383  , 0.0360357948, -9.786486   , -0.000214683314, -0.00245324965, 0.0006442052, -0.184238911, -0.161116362, 0.420722663 , -0.0024863882, 0.0391705148, 2.37713838  , 3.91        , 3           , 12          , 0.0618138351, 0
0.388820052 , 0.0292286426, -9.812645   , 0.000889116141, 0.0026225578, -0.0007554035, -0.184104085, -0.161183774, 0.4208575   , -0.002477796, 0.0391967222, 2.37713075  , 3.92        , 3           , 50          , 0           , 0
0.394437969 , 0.0494001433, -9.792632   , 0.002583099 , 0.00291558681, 0.000665619271, -0.184104085, -0.161183774, 0.4208575   , -0.00245170458, 0.0392258875, 2.37713742  , 3.93        , 3           , 11          , 0.006430562 , 0.00643055746
0.390157849 , 0.03678399  , -9.783225   , -0.00108278508, 0.00148292514, -0.00161397026, -0.184104085, -0.161251172, 0.420520425 , -0.0024631673, 0.0392406844, 2.37712121  , 3.94        , 3           , 12          , 0.0618138351, 0
0.3822856   , 0.0246811789, -9.779719   , -0.0005153953, 0.00120518554, 0.0003659919, -0.184238911, -0.161183774, 0.420655251 , -0.002468178, 0.0392527469, 2.377125    , 3.95        , 3           , 50          , 0           , 0
0.396339    , 0.0325645469, -9.757885   , 0.00146077678, 0.00121855142, -0.00103747682, -0.184104085, -0.161520824, 0.420655251 , -0.0024539798, 0.0392649025, 2.37711453  , 3.96        , 3           , 11          , 0.006430562 , 0.00643055746
0.381874382 , 0.0229348056, -9.795549   , -0.0019240001, 0.000350937422, -0.000772044354, -0.184104085, -0.161520824, 0.420655251 , -0.00247352477, 0.0392683931, 2.377107    , 3.97        , 3           , 12          , 0.0618138351, 0
0.392917842 , 0.004724117 , -9.78605    , -0.0002484657, 0.004304311 , 8.95446137E-05, -0.184238911, -0.161588237, 0.420520425 , -0.00247597857, 0.03931144  , 2.37710786  , 3.98        , 3           , 50          , 0           , 0
0.3703062   , 0.03707533  , -9.80055    , -0.007554088, -0.0033476064, -0.000238949142, -0.184238911, -0.161048949, 0.420655251 , -0.00255160988, 0.03927796  , 2.37710547  , 3.99        , 3           , 11          , 0.006430562 , 0.00643055746
0.39318642  , 0.0277056228, -9.777815   , 3.08507879E-05, 0.00289840833, -0.00160678977, -0.184306324, -0.161588237, 0.420520425 , -0.00257623568, 0.03930694  , 2.37708879  , 4           , 3           , 12          , 0.06287625  , 0
0.40954268  , 0.00263816863, -9.760619   , 0.00287373085, -0.0007428358, -0.000751649146, -0.184104085, -0.161318585, 0.420453    , -0.00254779262, 0.0392994843, 2.37708116  , 4.01        , 3           , 50          , 0           , 0
0.383897275 , 0.04718803  , -9.769218   , 0.00116924848, 0.00121665909, -0.00103905075, -0.184104085, -0.161318585, 0.420453    , -0.00253651245, 0.03931163  , 2.37707067  , 4.02        , 3           , 11          , 0.006355565 , 0.006355561
0.390044719 , 0.0224091411, -9.801816   , 0.00258744834, 9.995102E-05, -0.00018658927, -0.184373736, -0.161116362, 0.420790076 , -0.00251070946, 0.0393126234, 2.37706876  , 4.03        , 3           , 12          , 0.06287625  , 0
0.387913257 , 0.0301309917, -9.80948448 , 4.32336819E-05, 0.0003643217, -0.00189323281, -0.184373736, -0.161251172, 0.420587838 , -0.00251102285, 0.03931622  , 2.37704968  , 4.04        , 3           , 50          , 0           , 0
0.37998575  , 0.0215542428, -9.781106   , 0.0008967426, -0.000756205642, -0.0007608676, -0.183969259, -0.161386   , 0.420520425 , -0.00250235433, 0.03930864  , 2.37704253  , 4.05        , 3           , 11          , 0.006355565 , 0.006355561
0.373275518 , 0.03107337  , -9.770721   , -0.00109197525, 0.00176451413, 0.000646506436, -0.183969259, -0.161386   , 0.420520425 , -0.0025130203, 0.0393263   , 2.37704873  , 4.06        , 3           , 12          , 0.06287625  , 0
0.3644969   , 0.0229977146, -9.754099   , 0.0006086511, 0.0006497161, 0.00150028488, -0.183969259, -0.161453411, 0.420655251 , -0.00250634365, 0.0393328369, 2.377064    , 4.07        , 3           , 50          , 0           , 0
0.3717683   , 0.016239129 , -9.782095   , -0.003632749, 0.00146575784, 6.91450841E-05, -0.184306324, -0.161453411, 0.420655251 , -0.00254264544, 0.0393474959, 2.37706447  , 4.08        , 3           , 11          , 0.006355565 , 0.006355561
0.404729247 , 0.042036783 , -9.785804   , 0.0020366977, -0.002719519, 8.89747753E-05, -0.184036672, -0.161453411, 0.420587838 , -0.00252224132, 0.03932031  , 2.377066    , 4.09        , 3           , 12          , 0.06287625  , 0
0.3957548   , 0.0462261327, -9.792635   , -0.000522604561, -0.0010494031, 0.00120952469, -0.184036672, -0.161453411, 0.420587838 , -0.00255370955, 0.0393041149, 2.37707686  , 4.1         , 3           , 50          , 0           , 0
0.394103885 , 0.02100936  , -9.802243   , -0.00136275182, -0.00246295729, 0.0014859417, -0.184238911, -0.16165565 , 0.420790076 , -0.002566751, 0.03927952  , 2.37709165  , 4.11        , 3           , 11          , 0.00628589932, 0.006285895
0.412289351 , 0.0302300844, -9.789863   , 0.00102295715, 0.000368923385, -0.0001937499, -0.184373736, -0.161453411, 0.420790076 , -0.00255659851, 0.0392832048, 2.37708974  , 4.12        , 3           , 12          , 0.06394347  , 0
0.368515939 , 0.0126384031, -9.773547   , 0.0003188179, -5.81998975E-05, -0.000480230665, -0.183969259, -0.161318585, 0.420587838 , -0.002553598, 0.0392826125, 2.377085    , 4.13        , 3           , 50          , 0           , 0
0.3749978   , 0.0166969113, -9.795176   , -0.0003860998, -0.000344541069, -0.000907763, -0.183969259, -0.161318585, 0.420587838 , -0.00255781738, 0.0392791443, 2.377076    , 4.14        , 3           , 11          , 0.00628589932, 0.006285895
0.382881224 , 0.0288088024, -9.80139351 , -0.000246977375, 7.876151E-05, -0.000906453643, -0.184104085, -0.161183774, 0.420655251 , -0.00256064232, 0.0392799042, 2.37706685  , 4.15        , 3           , 12          , 0.06394347  , 0
0.3869774   , 0.00207119761, -9.781586   , -0.0008140852, 0.0004972884, -0.001190974, -0.184508562, -0.161318585, 0.420453    , -0.00256925123, 0.03928485  , 2.377055    , 4.16        , 3           , 50          , 0           , 0
0.405219823 , 0.00241101673, -9.811727   , -0.0006760304, 0.00120215758, -0.0006241559, -0.184238911, -0.161183774, 0.420655251 , -0.00257625966, 0.039296858 , 2.37704873  , 4.17        , 3           , 11          , 0.00628589932, 0.006285895
0.389255315 , 0.035904415 , -9.786851   , -0.0008136402, 0.0006380763, 0.000787005061, -0.184238911, -0.161183774, 0.420655251 , -0.00258408766, 0.0393032581, 2.37705636  , 4.18        , 3           , 12          , 0.06394347  , 0
0.4118517   , 0.0356038623, -9.776284   , -0.00123728032, 0.000635211356, 0.000785029668, -0.184104085, -0.161386   , 0.420520425 , -0.00259615271, 0.039309632 , 2.37706447  , 4.19        , 3           , 50          , 0           , 0
0.401569724 , 0.00778723042, -9.787778   , 0.0006004993, 0.00123506912, -0.0004767233, -0.1841715  , -0.161116362, 0.420587838 , -0.002574815, 0.03939024  , 2.37706017  , 4.2         , 3           , 11          , 0.00621492229, 0.00621491671
0.378130734 , 0.0202008784, -9.774797   , 0.001731519 , 0.000961143465, -0.000613158045, -0.184238911, -0.161520824, 0.420520425 , -0.002557742, 0.0393998325, 2.377054    , 4.21        , 3           , 12          , 0.06501503  , 0
0.385854244 , 0.01254375  , -9.805505   , 0.000890059164, -0.000170845538, -0.000195038388, -0.184238911, -0.161520824, 0.420520425 , -0.002548918, 0.0393981226, 2.377052    , 4.22        , 3           , 50          , 0           , 0
0.3935203   , 0.0155524882, -9.78780651 , 0.00187925017, -0.000304943271, -0.0001906461, -0.184104085, -0.161386   , 0.420587838 , -0.00253020017, 0.0393950678, 2.37705016  , 4.23        , 3           , 11          , 0.00621492229, 0.00621491671
0.4117707   , 0.0319674425, -9.768164   , 0.00158661313, 0.00180488592, 0.000235097628, -0.184238911, -0.161048949, 0.420587838 , -0.0025142415, 0.0394131243, 2.37705255  , 4.24        , 3           , 12          , 0.06501503  , 0
0.3812963   , 0.0148042832, -9.791067   , 3.293918E-05, 0.00179437955, -0.000337220466, -0.184104085, -0.161386   , 0.420722663 , -0.00251404569, 0.0394310579, 2.37704921  , 4.25        , 3           , 50          , 0           , 0
0.381759167 , 0.01837794  , -9.782009   , -9.867937E-05, -0.000177531649, -0.000623454049, -0.184104085, -0.161251172, 0.420587838 , -0.00251527783, 0.0394292623, 2.377043    , 4.26        , 3           , 11          , 0.00621492229, 0.00621491671
0.407223374 , 0.02575588  , -9.783592   , -0.0005171959, -0.00116587314, -0.000203141972, -0.184104085, -0.161251172, 0.420587838 , -0.00252052979, 0.0394176   , 2.377041    , 4.27        , 3           , 12          , 0.06501503  , 0
0.3864739   , 0.0340984464, -9.776937   , -0.00136201468, -0.001734735, -0.0007730355, -0.184036672, -0.161318585, 0.420655251 , -0.00253445283, 0.03940023  , 2.37703347  , 4.28        , 3           , 50          , 0           , 0
0.370876074 , 0.0167069547, -9.783908   , 0.000324427121, -3.38831342E-05, -0.000338724174, -0.184306324, -0.161251172, 0.420655251 , -0.00253134477, 0.03939989  , 2.37702966  , 4.29        , 3           , 11          , 0.00621492229, 0.00621491671
0.393464923 , 0.00613424554, -9.80457    , 0.00173528225, 0.00209705532, -4.59466828E-05, -0.183969259, -0.161318585, 0.420587838 , -0.002488039, 0.0394486375, 2.37703061  , 4.3         , 3           , 12          , 0.06609052  , 0
0.377451777 , 0.0342319757, -9.785141   , 0.00343820686, 0.000419124553, -4.06486834E-05, -0.183969259, -0.161318585, 0.420587838 , -0.00245367526, 0.03945283  , 2.37703013  , 4.31        , 3           , 50          , 0           , 0
0.379220784 , 0.0301594213, -9.787855   , 0.004854604 , -0.000416020484, 0.000105902953, -0.184306324, -0.161116362, 0.420655251 , -0.00240508746, 0.0394486673, 2.37703156  , 4.32        , 3           , 11          , 0.006145325 , 0.00614532
0.381792128 , 0.017511921 , -9.792861   , 0.003583395 , -0.0002838309, 0.000806537457, -0.1841715  , -0.161183774, 0.4208575   , -0.00236893119, 0.0394458622, 2.37703919  , 4.33        , 3           , 12          , 0.06609052  , 0
0.357485    , 0.0250566956, -9.804767   , 0.00203144155, -0.0005759008, 0.0007988604, -0.1841715  , -0.161318585, 0.420520425 , -0.002348301, 0.0394401141, 2.3770473   , 4.34        , 3           , 50          , 0           , 0
0.409064    , 0.03290012  , -9.767729   , 0.000617587 , -0.0003038871, 0.000227634664, -0.1841715  , -0.161318585, 0.420520425 , -0.00234203576, 0.0394370779, 2.37704968  , 4.35        , 3           , 11          , 0.006145325 , 0.00614532
0.40397495  , 0.0199266132, -9.783189   , 0.00245639426, -0.000854601269, 0.000659133 , -0.1841715  , -0.161520824, 0.420587838 , -0.00231721159, 0.039428547 , 2.37705636  , 4.36        , 3           , 12          , 0.06609052  , 0
0.360466957 , 0.0159405246, -9.788058   , 0.001183753 , -0.0005816326, 8.85658446E-05, -0.184104085, -0.161116362, 0.420587838 , -0.00230533932, 0.03942274  , 2.37705731  , 4.37        , 3           , 50          , 0           , 0
0.380802155 , 0.0143297249, -9.782485   , -0.002068293, 0.000100312231, -0.00105564389, -0.183969259, -0.161453411, 0.420520425 , -0.0023264403, 0.03942372  , 2.37704682  , 4.38        , 3           , 11          , 0.006145325 , 0.00614532
0.398745716 , 0.0339927264, -9.788142   , -0.00150667957, 0.000808045967, -0.000628119044, -0.183969259, -0.161453411, 0.420520425 , -0.0023417545, 0.039431788 , 2.37704015  , 4.39        , 3           , 12          , 0.06609052  , 0
0.384866834 , 0.0454438478, -9.790461   , -0.000941309554, 0.00067059003, 0.000221877053, -0.184238911, -0.161183774, 0.4203856   , -0.002353056, 0.0394370258, 2.377042    , 4.4         , 3           , 50          , 0           , 0
0.382227957 , 0.0224027466, -9.772949   , 0.000191185711, 0.000115099807, 0.000226276927, -0.184104085, -0.161318585, 0.420655251 , -0.002351057, 0.03943818  , 2.377045    , 4.41        , 3           , 11          , 0.00607761741, 0.006077613
0.3869971   , 0.0310257841, -9.804064   , -0.000229911209, -0.0004508964, -0.000200372509, -0.1841715  , -0.161723062, 0.420790076 , -0.00235343212, 0.03943367  , 2.377043    , 4.42        , 3           , 12          , 0.0671694949, 0
0.3992944   , 0.0376359224, -9.799875   , 0.001039    , -1.99534952E-05, -5.25266041E-05, -0.1841715  , -0.161723062, 0.420790076 , -0.00234306254, 0.0394334644, 2.377042    , 4.43        , 3           , 50          , 0           , 0
0.402642    , 0.0266584288, -9.767803   , 0.00286075263, 0.00280811172, -0.000180895935, -0.184373736, -0.161386   , 0.4203856   , -0.00231452938, 0.0394615419, 2.37704015  , 4.44        , 3           , 11          , 0.00607761741, 0.006077613
0.360276163 , 0.002395403 , -9.784952   , 3.9887982E-05, 0.00208509876, -0.00033641886, -0.1841715  , -0.161183774, 0.420655251 , -0.00231426558, 0.03948239  , 2.37703729  , 4.45        , 3           , 12          , 0.0671694949, 0
0.390945375 , 0.0232872032, -9.797738   , -0.0030518882, -0.000751556945, 0.0013399804, -0.183969259, -0.161183774, 0.420790076 , -0.00234425277, 0.0394749045, 2.37705064  , 4.46        , 3           , 50          , 0           , 0
0.400380284 , 0.02713313  , -9.766914   , -0.004453975, -0.00287284679, 0.000623797532, -0.183969259, -0.161183774, 0.420790076 , -0.002388543, 0.0394461863, 2.37705684  , 4.47        , 3           , 11          , 0.00607761741, 0.006077613
0.383681476 , 0.0300518386, -9.771551   , -0.00233556633, -0.002999307, -0.0002141549, -0.1841715  , -0.161386   , 0.4203856   , -0.00241198065, 0.0394161865, 2.37705445  , 4.48        , 3           , 12          , 0.0671694949, 0
0.3804999   , 0.0238303822, -9.788775   , -0.00107026612, -0.001723666, 0.0009238739, -0.184373736, -0.161116362, 0.420520425 , -0.00242231647, 0.0393989831, 2.377064    , 4.49        , 3           , 50          , 0           , 0
0.3982362   , 0.0227933414, -9.81034    , -0.00192553585, -0.00102289813, 0.000214595057, -0.184104085, -0.161386   , 0.420520425 , -0.00245386269, 0.039396558 , 2.377066    , 4.5         , 3           , 11          , 0.00601194473, 0.00601193868
0.4097994   , 0.014451256 , -9.785427   , 0.000192583786, -0.00100857392, 8.320326E-05, -0.184036672, -0.161251172, 0.420520425 , -0.00245190552, 0.03938648  , 2.37706685  , 4.51        , 3           , 12          , 0.06825162  , 0
0.38555932  , 0.0269602034, -9.797764   , 0.0007579268, -0.00100475154, 0.000933449541, -0.184036672, -0.161251172, 0.420520425 , -0.00244395714, 0.0393764526, 2.37707639  , 4.52        , 3           , 50          , 0           , 0
0.3835151   , 0.0392162465, -9.812192   , -0.000938354468, -0.0007346478, 0.000360907 , -0.184238911, -0.161453411, 0.420520425 , -0.00245319749, 0.0393691137, 2.3770802   , 4.53        , 3           , 11          , 0.00601194473, 0.00601193868
0.3932241   , -0.00432689674, -9.779304   , -0.00135711569, -0.00172299042, 0.00035741282, -0.1841715  , -0.161251172, 0.4208575   , -0.0024666267, 0.0393518955, 2.377084    , 4.54        , 3           , 12          , 0.06825162  , 0
0.384245127 , 0.00119776279, -9.780706   , -0.000509916747, -0.001717261, 0.000220094909, -0.184036672, -0.161386   , 0.4203856   , -0.00247163582, 0.03933472  , 2.377086    , 4.55        , 3           , 50          , 0           , 0
0.382634819 , 0.01566494  , -9.78337    , 0.000184590361, 0.0005400326, -0.000479484879, -0.184036672, -0.161386   , 0.4203856   , -0.002469979, 0.03934011  , 2.37708116  , 4.56        , 3           , 11          , 0.00601194473, 0.00601193868
0.387067169 , 0.015088059 , -9.761642   , -0.000102100057, 0.00138281763, -0.0006207688, -0.184238911, -0.161183774, 0.420587838 , -0.002471246, 0.0393539146, 2.37707448  , 4.57        , 3           , 12          , 0.06825162  , 0
0.382251054 , 0.0157261882, -9.80009651 , 0.001165788 , 0.00195454154, -0.001037781, -0.184104085, -0.161116362, 0.420790076 , -0.00245999941, 0.0393734351, 2.377064    , 4.58        , 3           , 50          , 0           , 0
0.3863792   , 0.0219702832, -9.792808   , 0.00229951437, 0.00111748523, -0.00131635251, -0.1841715  , -0.161183774, 0.420790076 , -0.00243752473, 0.0393845774, 2.377051    , 4.59        , 3           , 11          , 0.00601194473, 0.00601193868
0.364853919 , 0.0496216752, -9.755795   , 0.0021871326, -0.00127312576, -0.000331147079, -0.1841715  , -0.161183774, 0.420790076 , -0.00236499775, 0.039383132 , 2.37704968  , 4.6         , 3           , 12          , 0.0693365037, 0
0.38573125  , 0.04272178  , -9.78911    , 0.0009094046, 0.000126105529, -5.23660674E-05, -0.184104085, -0.161183774, 0.4203856   , -0.00235592481, 0.0393843874, 2.37704968  , 4.61        , 3           , 50          , 0           , 0
0.38775003  , 0.0237498712, -9.790077   , -0.00135591254, 0.00123708439, -0.0006262407, -0.184238911, -0.161116362, 0.420520425 , -0.00236973353, 0.03939674  , 2.377043    , 4.62        , 3           , 11          , 0.00594816869, 0.00594816264
0.390636176 , 0.0309968665, -9.80810452 , -0.00191957969, 0.00109248434, 0.000218520814, -0.1841715  , -0.161183774, 0.420453    , -0.002388843, 0.03940767  , 2.377045    , 4.63        , 3           , 12          , 0.0693365037, 0
0.385988533 , 0.0278284661, -9.78917    , -0.000936498633, 0.00222543068, 0.000507403165, -0.1841715  , -0.161183774, 0.420453    , -0.002398012, 0.03942994  , 2.37705016  , 4.64        , 3           , 50          , 0           , 0
0.380595148 , 0.0341735929, -9.77878952 , 0.00160370383, 0.002524184 , 9.588332E-05, -0.184238911, -0.161251172, 0.4203856   , -0.00238193944, 0.0394551866, 2.377051    , 4.65        , 3           , 11          , 0.00594816869, 0.00594816264
0.371456057 , 0.0248389915, -9.78884    , 0.002745342 , 0.000138521136, 0.000238731358, -0.1841715  , -0.161183774, 0.420790076 , -0.00235439255, 0.03945658  , 2.3770535   , 4.66        , 3           , 12          , 0.0693365037, 0
0.3735561   , 0.0424595   , -9.802763   , 0.00105799583, -0.00128076284, 0.0006524663, -0.183834434, -0.161183774, 0.420453    , -0.00234355265, 0.0394437872, 2.37706017  , 4.67        , 3           , 50          , 0           , 0
0.3762595   , 0.0446485877, -9.792337   , 0.001899537 , -0.000148773514, 0.000375615462, -0.183834434, -0.161183774, 0.420453    , -0.00232441025, 0.03944231  , 2.377064    , 4.68        , 3           , 11          , 0.00594816869, 0.00594816264
0.376073569 , 0.02753659  , -9.801902   , 0.00162646046, -0.002121641, -0.000335082557, -0.1841715  , -0.161116362, 0.420453    , -0.00230827718, 0.03942109  , 2.37706065  , 4.69        , 3           , 12          , 0.0693365037, 0
0.384969145 , 0.0201589428, -9.786045   , 0.00174464029, -0.00213764957, -0.000193937318, -0.1841715  , -0.161048949, 0.420655251 , -0.00236405083, 0.0393460654, 2.37705684  , 4.7         , 3           , 50          , 0           , 0
0.40151912  , 0.009977969 , -9.768333   , 0.000182231815, -0.0003179811, -0.000198359863, -0.184104085, -0.161251172, 0.420520425 , -0.00236230763, 0.0393428765, 2.377055    , 4.71        , 3           , 11          , 0.00588625763, 0.005886253
0.3908951   , 0.0183366369, -9.801374   , -0.0024959438, -0.00132160354, -0.00021238951, -0.1841715  , -0.161386   , 0.420587838 , -0.00238734949, 0.0393296629, 2.37705255  , 4.72        , 3           , 12          , 0.070423834 , 0
0.376131177 , 0.0298150275, -9.808672   , -0.0005176438, -0.0015897993, -0.000344873668, -0.1841715  , -0.161386   , 0.420587838 , -0.00239265966, 0.0393137522, 2.37704968  , 4.73        , 3           , 50          , 0           , 0
0.380796283 , 0.0414781943, -9.804521   , -0.0005211288, -0.0008858866, -0.000343788881, -0.184104085, -0.161386   , 0.420453    , -0.00239800569, 0.039304886 , 2.37704587  , 4.74        , 3           , 11          , 0.00588625763, 0.005886253
0.391687959 , 0.0146638807, -9.785565   , -0.00108807348, -0.000467358856, -0.0003457718, -0.1841715  , -0.161116362, 0.420790076 , -0.0024090223, 0.0393002033, 2.37704253  , 4.75        , 3           , 12          , 0.070423834 , 0
0.3878623   , 0.0318751223, -9.791398   , 3.978753E-05, -3.73702278E-05, 8.395305E-05, -0.1841715  , -0.161251172, 0.420655251 , -0.0024085925, 0.0392998345, 2.37704349  , 4.76        , 3           , 50          , 0           , 0
0.392828345 , 0.03225117  , -9.78638649 , 0.00131275482, -0.000310337346, 0.0012195952, -0.1841715  , -0.161251172, 0.420655251 , -0.00239498448, 0.0392967649, 2.37705541  , 4.77        , 3           , 11          , 0.00588625763, 0.005886253
0.384515762 , 0.0468706526, -9.810796   , 0.00229998073, -0.000162872631, 0.00023554037, -0.183969259, -0.161251172, 0.420722663 , -0.00237189047, 0.0392951481, 2.37705827  , 4.78        , 3           , 12          , 0.070423834 , 0
0.382770628 , 0.0229166187, -9.793283   , 0.000745491241, -0.000173382941, -0.00174946513, -0.184036672, -0.161183774, 0.420587838 , -0.00236512139, 0.0392933637, 2.37704062  , 4.79        , 3           , 50          , 0           , 0
0.383045852 , 0.0147331245, -9.776138   , -0.000256772269, -0.00060136267, -0.0009076923, -0.184036672, -0.161251172, 0.420722663 , -0.00242096838, 0.0392907076, 2.37702966  , 4.8         , 3           , 11          , 0.005825977 , 0.00582597032
0.3904795   , 0.0232819375, -9.794579   , 0.00129095488, 0.000676188269, 0.0002316535, -0.184036672, -0.161251172, 0.420722663 , -0.00240796781, 0.0392974727, 2.37703252  , 4.81        , 3           , 12          , 0.07151328  , 0
0.3889195   , 0.04537787  , -9.785007   , 0.00073135097, -0.000453893561, -0.000337791, -0.184104085, -0.161251172, 0.420520425 , -0.002400786, 0.03929293  , 2.3770287   , 4.82        , 3           , 50          , 0           , 0
0.392335862 , 0.018833831 , -9.819893   , 0.000462945784, -0.00327145355, -0.000202178635, -0.183969259, -0.161251172, 0.4208575   , -0.00239623268, 0.0392602161, 2.3770268   , 4.83        , 3           , 11          , 0.005825977 , 0.00582597032
0.376737267 , 0.0130467908, -9.789302   , 0.00172640709, -0.00185503578, -0.00104169524, -0.1841715  , -0.161048949, 0.420722663 , -0.002379375, 0.039241638 , 2.37701631  , 4.84        , 3           , 12          , 0.07151328  , 0
0.37705797  , 0.0057928185, -9.78029    , 0.002139103 , 0.0002595646, -0.00188407756, -0.1841715  , -0.161048949, 0.420722663 , -0.00235872273, 0.0392441861, 2.37699771  , 4.85        , 3           , 50          , 0           , 0
0.395841062 , 0.0142329233, -9.805874   , 0.00185827038, 0.000116876414, -0.000331655552, -0.184104085, -0.161386   , 0.420587838 , -0.00234027253, 0.03924535  , 2.37699437  , 4.86        , 3           , 11          , 0.005825977 , 0.00582597032
0.3935454   , 0.0142337978, -9.798207   , 0.00185449608, 0.0009615737, 0.00037598997, -0.184238911, -0.160914123, 0.420453    , -0.00232157949, 0.03925497  , 2.37699819  , 4.87        , 3           , 12          , 0.07151328  , 0
0.3764371   , 0.0279053245, -9.778847   , 0.00170500029, 0.0026500097, 0.0005192039, -0.184036672, -0.161116362, 0.420587838 , -0.00230432535, 0.0392814949, 2.377003    , 4.88        , 3           , 50          , 0           , 0
0.3480568   , 0.0354994461, -9.791236   , 0.000865757465, 0.0009548878, -5.24254574E-05, -0.184036672, -0.161116362, 0.420587838 , -0.00229569059, 0.03929103  , 2.377003    , 4.89        , 3           , 11          , 0.005825977 , 0.00582597032
0.383606076 , 0.01883202  , -9.789226   , 0.00171912543, -0.0008823293, -0.0007576433, -0.184373736, -0.161318585, 0.420722663 , -0.00228725933, 0.0392400026, 2.37699533  , 4.9         , 3           , 12          , 0.0726045445, 0
0.3976503   , 0.021798078 , -9.78097    , 0.000584946945, 9.551053E-05, -5.50486875E-05, -0.1841715  , -0.160981536, 0.420790076 , -0.002281432, 0.0392409563, 2.37699485  , 4.91        , 3           , 50          , 0           , 0
0.382886052 , 0.03282985  , -9.789624   , -0.00139150722, -5.86425922E-05, -0.000347021676, -0.184104085, -0.161318585, 0.420587838 , -0.00229548337, 0.03924036  , 2.37699151  , 4.92        , 3           , 11          , 0.00576714939, 0.00576714054
0.3757287   , 0.009849474 , -9.774407   , -0.000402316218, -0.000192740234, -0.000342629355, -0.184104085, -0.161318585, 0.420587838 , -0.002299641, 0.03923843  , 2.3769877   , 4.93        , 3           , 12          , 0.0726045445, 0
0.372988582 , 0.008523373 , -9.773078   , 0.000161224947, 9.264518E-05, -0.000198292837, -0.1841715  , -0.161251172, 0.420453    , -0.00229810644, 0.039239347 , 2.37698579  , 4.94        , 3           , 50          , 0           , 0
0.374715865 , 0.028445771 , -9.799197   , -0.000404407241, 0.0002296074, -0.0003419784, -0.184036672, -0.161116362, 0.420655251 , -0.002302287, 0.0392416343, 2.376983    , 4.95        , 3           , 11          , 0.00576714939, 0.00576714054
0.39245832  , 0.02562831  , -9.828      , -0.0002566761, -0.00103647914, 8.053349E-05, -0.184104085, -0.161251172, 0.420722663 , -0.00230481941, 0.03923128  , 2.376984    , 4.96        , 3           , 12          , 0.0726045445, 0
0.384450316 , 0.0165399313, -9.781545   , 0.000309489958, -0.00131422468, -5.853532E-05, -0.184104085, -0.161183774, 0.4203856   , -0.002301745, 0.03921813  , 2.376983    , 4.97        , 3           , 50          , 0           , 0
0.3835723   , 0.0134484405, -9.798288   , -0.000262986316, 8.977752E-05, -0.00118914945, -0.184104085, -0.161183774, 0.4203856   , -0.002304841, 0.0392190032, 2.37697148  , 4.98        , 3           , 11          , 0.00576714939, 0.00576714054
0.386010766 , 0.0251684319, -9.803191   , -0.0009728647, 0.000788913632, -0.001756432, -0.184036672, -0.161048949, 0.420655251 , -0.00231525837, 0.0392268449, 2.37695336  , 4.99        , 3           , 12          , 0.0726045445, 0
0.373402029 , 0.0383174978, -9.778376   , -0.000398671953, -5.55195147E-05, -0.0007659643, -0.184036672, -0.161251172, 0.4203856   , -0.00230402872, 0.03921427  , 2.37694669  , 5           , 3           , 50          , 0           , 0
0.386914372 , 0.030066032 , -9.786893   , 0.00101255754, 0.000235597734, 8.866661E-05, -0.183969259, -0.161251172, 0.420250773 , -0.00229386985, 0.0392166227, 2.37694764  , 5.01        , 3           , 11          , 0.00570982927, 0.0057098195
0.383943975 , 0.0147164483, -9.774324   , 0.001005632 , 0.00150263763, -0.0010395305, -0.183969259, -0.161251172, 0.420250773 , -0.00228422252, 0.0392316245, 2.37693763  , 5.02        , 3           , 12          , 0.07369735  , 0
0.395234823 , 0.0359109081, -9.809403   , 0.0005892064, 9.194833E-05, -0.00061986933, -0.184104085, -0.161183774, 0.420453    , -0.00227857265, 0.03923253  , 2.37693143  , 5.03        , 3           , 50          , 0           , 0
0.3928988   , 0.03677176  , -9.78908    , 3.13600358E-05, -0.001178911, 0.000646962668, -0.184036672, -0.161116362, 0.420453    , -0.002278004, 0.0392207578, 2.376938    , 5.04        , 3           , 11          , 0.00570982927, 0.0057098195
0.391091377 , 0.0367960446, -9.789997   , -0.000815305, -0.00132542371, 0.0005015261, -0.184036672, -0.161251172, 0.420655251 , -0.00228596 , 0.0392075144, 2.37694287  , 5.05        , 3           , 12          , 0.07369735  , 0
0.396837056 , 0.0557320081, -9.805243   , -0.000816862157, -0.00104385952, 0.000219422742, -0.184036672, -0.161251172, 0.420655251 , -0.00229404075, 0.03919708  , 2.37694526  , 5.06        , 3           , 50          , 0           , 0
0.394756347 , 0.0390198566, -9.793123   , 0.0004543477, -0.00117604889, -0.000481211668, -0.1841715  , -0.161116362, 0.420453    , -0.00228968426, 0.0391853154, 2.37694049  , 5.07        , 3           , 11          , 0.00570982927, 0.0057098195
