Acc X       , Acc Y       , Acc Z       , Gyro X      , Gyro Y      , Gyro Z      , Magn X      , Magn Y      , Magn Z      , Euler X     , Euler Y     , Euler Z     , Time        , Status      , LowRate X   , LowRate Y   , LowRate Z    
-0.100219309, 0.08084411  , -9.771875   , -0.0006424556, -0.00117499055, -0.000146095277, -0.223944992, -0.129702032, 0.4539571   , -0.009542467, -0.00908265 , 2.63897777  , 0           , 3           , 11          , 0.0346410163, 0.0346410163
-0.0841882452, 0.09196557  , -9.780295   , -0.0007972383, 0.00149892119, -0.0007077064, -0.223944992, -0.129297554, 0.453889728 , -0.009550373, -0.009067728, 2.63897061  , 0.01        , 3           , 12          , 0.0346410163, 0
-0.09325963 , 0.08848838  , -9.788064   , -0.00107413356, 0.0005115366, 0.000419607764, -0.2234731  , -0.129702032, 0.454091936 , -0.009561152, -0.009062576, 2.63897443  , 0.02        , 3           , 50          , 0           , 0
-0.0782475  , 0.09506512  , -9.78340149 , -0.00120653061, -0.0013195927, -7.677363E-06, -0.2234731  , -0.129702032, 0.454091936 , -0.009573218, -0.009075771, 2.638975    , 0.03        , 3           , 11          , 0.0346410163, 0.0346410163
-0.102371536, 0.0907809   , -9.767332   , -0.0009248008, -0.00117690023, -6.14340934E-06, -0.223944992, -0.129634619, 0.454091936 , -0.00958246551, -0.009087539, 2.638975    , 0.04        , 3           , 12          , 0.0346410163, 0
-0.0976984  , 0.09307724  , -9.795309   , -0.000643070962, -0.00103420776, -4.609524E-06, -0.22367534 , -0.1295672  , 0.4543616   , -0.009588897, -0.009097883, 2.638975    , 0.05        , 3           , 50          , 0           , 0
-0.09520929 , 0.110194407 , -9.795219   , -0.00204790849, -0.00245158118, 0.000551711069, -0.223607928, -0.129364967, 0.454091936 , -0.009609427, -0.009122344, 2.63898063  , 0.06        , 3           , 11          , 0.0346410163, 0.0346410163
-0.07352795 , 0.10721872  , -9.790998   , -0.00275032758, -0.0031602683, 0.0008298713, -0.223607928, -0.129364967, 0.454091936 , -0.009637009, -0.009153864, 2.63898921  , 0.07        , 3           , 12          , 0.0346410163, 0
-0.06402349 , 0.08173603  , -9.760748   , -8.047136E-05, -0.0006080408, -0.0002838623, -0.223810166, -0.129702032, 0.4539571   , -0.00963779 , -0.009159973, 2.63898683  , 0.08        , 3           , 50          , 0           , 0
-0.08651743 , 0.0843513   , -9.788933   , 0.00146746321, 0.000528725039, 7.65408E-06 , -0.223877579, -0.1294998  , 0.4539571   , -0.009623115, -0.009154684, 2.63898683  , 0.09        , 3           , 11          , 0.0346410163, 0.0346410163
-0.100645237, 0.109363452 , -9.797524   , -0.0003638028, -0.0003283835, 0.0005628679, -0.223742753, -0.129836857, 0.454159349 , -0.009626804, -0.009157912, 2.63899255  , 0.1         , 3           , 12          , 0.0346410163, 0
-0.09290469 , 0.1173424   , -9.782064   , -0.001065154, -0.00131863693, 0.000275519327, -0.223742753, -0.129836857, 0.454159349 , -0.009637482, -0.009171072, 2.63899541  , 0.11        , 3           , 50          , 0           , 0
-0.08905706 , 0.0970244855, -9.791612   , 0.0003517775, -0.00229456485, 0.000139316428, -0.22367534 , -0.1295672  , 0.454226762 , -0.009633979, -0.009194006, 2.63899684  , 0.12        , 3           , 11          , 0.0346410163, 0.0346410163
-0.09425325 , 0.1129028   , -9.798817   , 0.000908882648, -0.0007421376, 3.06830543E-06, -0.223742753, -0.12990427 , 0.454159349 , -0.009624892, -0.009201425, 2.63899684  , 0.13        , 3           , 12          , 0.0346410163, 0
-0.111701235, 0.09059104  , -9.812151   , 0.00103722385, 0.00179290154, -0.000557442661, -0.223742753, -0.1294998  , 0.4539571   , -0.009614466, -0.009183551, 2.638991    , 0.14        , 3           , 50          , 0           , 0
-0.0863577  , 0.09876394  , -9.781639   , 0.000330459676, 0.0019289091, -0.000560518063, -0.223742753, -0.1294998  , 0.4539571   , -0.00961110648, -0.009164317, 2.638985    , 0.15        , 3           , 11          , 0.0346410163, 0.0346410163
-0.108898588, 0.07597338  , -9.769251   , -0.00149928639, 0.0006494501, -0.000994837, -0.223810166, -0.129364967, 0.453889728 , -0.009626008, -0.009157917, 2.63897538  , 0.16        , 3           , 12          , 0.0346410163, 0
-0.103540316, 0.0700461343, -9.769687   , -0.0006461852, -0.0004710791, -0.0005688158, -0.223877579, -0.129364967, 0.454091936 , -0.009632418, -0.009162684, 2.63896966  , 0.17        , 3           , 50          , 0           , 0
-0.097703   , 0.102000475 , -9.765442   , 6.320365E-05, -0.00117021764, -0.0008491458, -0.223338276, -0.129634619, 0.454091936 , -0.009631709, -0.009174467, 2.638961    , 0.18        , 3           , 11          , 0.0346410163, 0.0346410163
-0.08953802 , 0.091650784 , -9.802032   , -0.0006458146, -0.000611863157, -0.00113410782, -0.223338276, -0.129634619, 0.454091936 , -0.009638064, -0.009180694, 2.63894963  , 0.19        , 3           , 12          , 0.0346410163, 0
-0.0900700539, 0.09293093  , -9.778529   , 5.4469685E-05, 0.000659954152, -0.0002812517, -0.223742753, -0.129634619, 0.454024523 , -0.009637471, -0.009174205, 2.63894677  , 0.2         , 3           , 50          , 0           , 0
-0.0861069262, 0.08520445  , -9.775819   , -0.001077247, 0.00107466232, -0.0001445998, -0.223742753, -0.1295672  , 0.454091936 , -0.00964823 , -0.009163475, 2.63894582  , 0.21        , 3           , 11          , 0.0346699134, 0.0346699134
-0.08763264 , 0.100632876 , -9.796105   , -0.00135897682, 0.0009319698, -0.0001461337, -0.223540515, -0.129364967, 0.4539571   , -0.009661805, -0.009154168, 2.638944    , 0.22        , 3           , 12          , 0.0346687734, 0
-0.09216368 , 0.09889807  , -9.801118   , -0.0006495064, 0.000232831648, -0.000285194925, -0.223540515, -0.129364967, 0.4539571   , -0.009668275, -0.009151868, 2.638941    , 0.23        , 3           , 50          , 0           , 0
-0.09021796 , 0.07942058  , -9.785818   , -0.000369785965, 0.000797872257, -0.000141741388, -0.223607928, -0.1294998  , 0.4539571   , -0.009671956, -0.009143903, 2.63893962  , 0.24        , 3           , 11          , 0.0346699134, 0.0346699134
-0.07235341 , 0.09812685  , -9.775208   , -0.000511978345, 0.000796912471, -0.00183762459, -0.223944992, -0.129364967, 0.4539571   , -0.009676908, -0.009136111, 2.638921    , 0.25        , 3           , 12          , 0.0346687734, 0
-0.0784680247, 0.119361542 , -9.762059   , -0.00163680676, -0.000196205132, -0.00184441125, -0.223742753, -0.129702032, 0.454091936 , -0.009693107, -0.009138253, 2.638903    , 0.26        , 3           , 50          , 0           , 0
-0.08139984 , 0.13075009  , -9.78373    , -0.000787605532, -0.000331251882, 0.00027835372, -0.223742753, -0.129702032, 0.454091936 , -0.009701009, -0.009141537, 2.63890576  , 0.27        , 3           , 11          , 0.0346699134, 0.0346699134
-0.0941816  , 0.116531633 , -9.804677   , 0.002314744 , 0.0005344523, 1.16042884E-05, -0.223944992, -0.129702032, 0.4539571   , -0.009677862, -0.0091361925, 2.63890576  , 0.28        , 3           , 12          , 0.0346687734, 0
-0.0797209442, 0.08561444  , -9.78571    , 0.001889139 , 0.0008131497, -0.0009788183, -0.22367534 , -0.1295672  , 0.454024523 , -0.00965888 , -0.009128155, 2.63889575  , 0.29        , 3           , 50          , 0           , 0
-0.0813107342, 0.0751768   , -9.762715   , 0.0008801491, -0.000167792648, 4.28135536E-06, -0.223810166, -0.1295672  , 0.454091936 , -0.0101845469, -0.008898749, 2.63890052  , 0.3         , 3           , 11          , 0.034753494 , 0.0347534865
-0.08466845 , 0.09016325  , -9.779402   , 0.00158806238, -0.000585366564, -0.000416883471, -0.223810166, -0.1295672  , 0.454091936 , -0.0101686316, -0.008904647, 2.63889623  , 0.31        , 3           , 12          , 0.0347538032, 0
-0.09182513 , 0.09567573  , -9.783503   , 0.000318498351, -0.00101631251, -0.00169487926, -0.223944992, -0.129634619, 0.4539571   , -0.0101652965, -0.008914981, 2.63887954  , 0.32        , 3           , 50          , 0           , 0
-0.112799183, 0.0850895941, -9.782804   , 0.001302069 , 0.000116635783, -0.000558384345, -0.223742753, -0.129297554, 0.4539571   , -0.0101522245, -0.008913872, 2.63887429  , 0.33        , 3           , 11          , 0.034753494 , 0.0347534865
-0.116749242, 0.0852387249, -9.813115   , 0.003420678 , 0.000130962508, 0.000157836272, -0.22367534 , -0.12943238 , 0.454159349 , -0.0101180328, -0.008912546, 2.63887572  , 0.34        , 3           , 12          , 0.0347538032, 0
-0.0781253353, 0.09382504  , -9.817304   , 0.00144758285, -0.000586318, 0.000853876758, -0.22367534 , -0.12943238 , 0.454159349 , -0.0101036336, -0.008918322, 2.63888431  , 0.35        , 3           , 50          , 0           , 0
-0.0815973356, 0.113182411 , -9.79194    , -0.002506474, -0.0006130579, 0.000694171 , -0.223742753, -0.1295672  , 0.4537549   , -0.0101287607, -0.008924382, 2.63889146  , 0.36        , 3           , 11          , 0.034753494 , 0.0347534865
-0.08257301 , 0.109119073 , -9.787895   , -0.00293232384, -0.0003343617, -0.000720057869, -0.223742753, -0.129364967, 0.454091936 , -0.010158021, -0.008927799, 2.63888383  , 0.37        , 3           , 12          , 0.0347538032, 0
-0.08859066 , 0.09524482  , -9.800655   , -0.003918275, -0.000904177839, -0.00114934123, -0.223877579, -0.1295672  , 0.454024523 , -0.0101971  , -0.008936957, 2.63887239  , 0.38        , 3           , 50          , 0           , 0
-0.08411439 , 0.09604256  , -9.785251   , -0.00264663831, -0.000965972547, -0.000507814169, -0.223877579, -0.1295672  , 0.454024523 , -0.0102235237, -0.008946668, 2.63886762  , 0.39        , 3           , 11          , 0.034753494 , 0.0347534865
-0.07305635 , 0.0773973539, -9.780723   , 0.0008887445, 0.0006735601, 0.000782422547, -0.223877579, -0.1295672  , 0.454024523 , -0.0101011358, -0.008970669, 2.63887429  , 0.4         , 3           , 12          , 0.034895245 , 0
-0.08896305 , 0.108259432 , -9.778457   , -0.0007992172, -0.0006049411, 0.00133764313, -0.223810166, -0.129634619, 0.454159349 , -0.0101092495, -0.00897658151, 2.63888764  , 0.41        , 3           , 50          , 0           , 0
-0.07211571 , 0.109478205 , -9.796854   , 0.0006768207, 0.00074252  , 0.00120534957, -0.223742753, -0.12943238 , 0.454091936 , -0.0101025887, -0.008969036, 2.6389      , 0.42        , 3           , 11          , 0.01772644  , 0.0177265387
-0.06716493 , 0.109395541 , -9.789584   , 0.0008138779, 0.00137699139, -0.000558874861, -0.223742753, -0.12943238 , 0.454091936 , -0.0100943986, -0.008955323, 2.63889432  , 0.43        , 3           , 12          , 0.034895245 , 0
-0.07652216 , 0.130161852 , -9.760191   , -0.000875603757, 0.0005208408, 0.0009858777, -0.22367534 , -0.129769444, 0.4539571   , -0.0101032425, -0.008950015, 2.63890386  , 0.44        , 3           , 50          , 0           , 0
-0.09328435 , 0.09293186  , -9.767705   , 0.003716991 , -0.00015203646, 0.0004411181, -0.223877579, -0.1294998  , 0.454159349 , -0.0100661125, -0.008951493, 2.63890862  , 0.45        , 3           , 11          , 0.01772644  , 0.0177265387
-0.09556861 , 0.08044411  , -9.803029   , 0.00329319132, -0.000295688049, -0.001044396, -0.223877579, -0.129634619, 0.454091936 , -0.0100330878, -0.008954551, 2.63889813  , 0.46        , 3           , 12          , 0.034895245 , 0
-0.09505758 , 0.08361047  , -9.80708    , 0.000677458243, 0.0005313442, 0.0004986804, -0.22367534 , -0.129971683, 0.453889728 , -0.0100263581, -0.00894918852, 2.638903    , 0.47        , 3           , 50          , 0           , 0
-0.0796491  , 0.0945996642, -9.774374   , -0.00017379671, 0.00122952461, -0.000351797935, -0.22367534 , -0.129971683, 0.453889728 , -0.0100280643, -0.00893693 , 2.638899    , 0.48        , 3           , 11          , 0.01772644  , 0.0177265387
-0.0738638341, 0.08909256  , -9.767121   , -2.41005764E-05, -0.000318124337, 0.00105916127, -0.223810166, -0.12990427 , 0.454226762 , -0.0100283995, -0.008940005, 2.63891     , 0.49        , 3           , 12          , 0.034895245 , 0
-0.08652937 , 0.11595837  , -9.79513    , -0.0007911452, 0.00125142175, 0.0006342232, -0.223810166, -0.1294998  , 0.454091936 , -0.009951855, -0.008801248, 2.6389153   , 0.5         , 3           , 50          , 0           , 0
-0.0856488  , 0.112356678 , -9.800562   , -0.0025529277, 0.000465178367, -0.000152178909, -0.223540515, -0.1295672  , 0.4539571   , -0.0099773705, -0.008796612, 2.63891387  , 0.51        , 3           , 11          , 0.01345214  , 0.0134521695
-0.102982685, 0.105759658 , -9.791229   , -0.000289676129, -0.000434631656, -0.00134383794, -0.223540515, -0.1295672  , 0.4539571   , -0.0099801505, -0.008801092, 2.63890052  , 0.52        , 3           , 12          , 0.035091985 , 0
-0.08920197 , 0.0799457654, -9.811118   , 0.002957613 , -0.000131098248, 1.37936468E-05, -0.223742753, -0.129634619, 0.4539571   , -0.00995057449, -0.008802401, 2.63890052  , 0.53        , 3           , 50          , 0           , 0
-0.0803406462, 0.09656912  , -9.820473   , -0.000299953273, 0.001888286 , 0.0007787729, -0.223742753, -0.129634619, 0.454159349 , -0.009953641, -0.008783442, 2.63890862  , 0.54        , 3           , 11          , 0.01345214  , 0.0134521695
-0.09436625 , 0.1012061   , -9.808809   , 0.000273427664, 0.000202716285, 0.00106134068, -0.223742753, -0.129702032, 0.4539571   , -0.009950999, -0.008781309, 2.638919    , 0.55        , 3           , 12          , 0.035091985 , 0
-0.114615448, 0.08064319  , -9.795941   , -0.0009974894, 5.33355669E-05, -0.000145586659, -0.223742753, -0.129702032, 0.4539571   , -0.009960963, -0.008780791, 2.63891721  , 0.56        , 3           , 50          , 0           , 0
-0.102828629, 0.0747141   , -9.818025   , -0.001642604, 0.00194960122, -0.000569426862, -0.223810166, -0.1294998  , 0.454091936 , -0.009977337, -0.008761352, 2.63891149  , 0.57        , 3           , 11          , 0.01345214  , 0.0134521695
-0.09124936 , 0.0654923841, -9.799894   , -0.00142182654, 0.000191253188, -0.000147345228, -0.223810166, -0.129297554, 0.454294175 , -0.009991543, -0.008759455, 2.63891     , 0.58        , 3           , 12          , 0.035091985 , 0
-0.07999517 , 0.0702163354, -9.76815    , 0.000354329881, -0.002049331, -0.00042512326, -0.22367534 , -0.129702032, 0.4539571   , -0.009987963, -0.00877999 , 2.63890576  , 0.59        , 3           , 50          , 0           , 0
-0.08220636 , 0.101009667 , -9.792898   , 0.0027077517, 0.000386420375, 0.0005060834, -0.22367534 , -0.129702032, 0.4539571   , -0.009644717, -0.008905445, 2.63890815  , 0.6         , 3           , 11          , 0.01136084  , 0.01136085
-0.0957628042, 0.102530129 , -9.795256   , 0.001574048 , 0.00115308363, 0.000219471447, -0.22367534 , -0.1294998  , 0.453889728 , -0.00962899253, -0.008893894, 2.63891053  , 0.61        , 3           , 12          , 0.03534268  , 0
-0.08778781 , 0.09247285  , -9.784389   , -0.00152799429, 0.000216988177, 0.000415478018, -0.223810166, -0.1295672  , 0.454091936 , -0.009644311, -0.008891685, 2.63891435  , 0.62        , 3           , 50          , 0           , 0
-0.0573937222, 0.09930488  , -9.775088   , -0.00257915724, -0.00154995965, -0.0009342255, -0.223540515, -0.129769444, 0.453889728 , -0.00967002 , -0.008907273, 2.63890481  , 0.63        , 3           , 11          , 0.01136084  , 0.01136085
-0.06695703 , 0.08821333  , -9.797807   , -0.00202525174, 0.0007063819, -0.0005749482, -0.223540515, -0.129769444, 0.453889728 , -0.009690221, -0.008900266, 2.638899    , 0.64        , 3           , 12          , 0.03534268  , 0
-0.09017186 , 0.08124333  , -9.791234   , 9.602307E-05, 0.000157577844, -7.149866E-05, -0.223877579, -0.1294998  , 0.454024523 , -0.009689254, -0.008898697, 2.63889861  , 0.65        , 3           , 50          , 0           , 0
-0.07968664 , 0.096801    , -9.758093   , 0.000309522671, -0.000122553363, 0.000423495658, -0.223810166, -0.12943238 , 0.454159349 , -0.009686196, -0.00889988 , 2.638903    , 0.66        , 3           , 11          , 0.01136084  , 0.01136085
-0.09991199 , 0.108320504 , -9.758653   , 0.0001666297, 0.00015805538, -7.116931E-05, -0.223810166, -0.1294998  , 0.454024523 , -0.009684524, -0.008898307, 2.638902    , 0.67        , 3           , 12          , 0.03534268  , 0
-0.104821593, 0.103526667 , -9.791704   , -0.00322585483, 0.000839049 , 0.000126015264, -0.223810166, -0.1294998  , 0.454024523 , -0.009716792, -0.008889904, 2.63890338  , 0.68        , 3           , 50          , 0           , 0
-0.078694   , 0.08838026  , -9.806483   , -0.00540123461, -0.0019210137, -0.000170959189, -0.223742753, -0.129702032, 0.454024523 , -0.009770792, -0.00890913047, 2.638902    , 0.69        , 3           , 11          , 0.01136084  , 0.01136085
-0.09030283 , 0.10561233  , -9.791586   , -0.00361507386, -0.00310399779, -0.00115357619, -0.223944992, -0.129702032, 0.454091936 , -0.009773708, -0.008936615, 2.6388905   , 0.7         , 3           , 12          , 0.0356457569, 0
-0.08588779 , 0.09921886  , -9.784348   , 4.33692549E-05, -0.000193120592, 0.000916388351, -0.223742753, -0.1295672  , 0.454024523 , -0.009773356, -0.008938456, 2.638899    , 0.71        , 3           , 50          , 0           , 0
-0.07804166 , 0.1113005   , -9.781525   , 0.0012374731, 0.00101164693, 0.000429388834, -0.223742753, -0.1295672  , 0.454024523 , -0.009761019, -0.008928298, 2.63890386  , 0.72        , 3           , 11          , 0.0101382909, 0.0101382844
-0.06976269 , 0.113987334 , -9.804049   , 0.000675285 , 0.000444696256, 0.000213983963, -0.223810166, -0.1295672  , 0.454024523 , -0.009754284, -0.008923831, 2.63890576  , 0.73        , 3           , 12          , 0.0356457569, 0
-0.085222885, 0.10875877  , -9.805545   , 0.000255990017, -0.0004028631, 0.0004932443, -0.22367534 , -0.12943238 , 0.454159349 , -0.00975177 , -0.00892781 , 2.63891053  , 0.74        , 3           , 50          , 0           , 0
-0.09253153 , 0.1078992   , -9.79295    , -0.0006588421, -0.00104259246, 0.000346719171, -0.223742753, -0.1294998  , 0.454024523 , -0.00975839 , -0.008938203, 2.63891435  , 0.75        , 3           , 11          , 0.0101382909, 0.0101382844
-0.0891734958, 0.09335936  , -9.774903   , 0.0009681041, -0.00159473938, 0.0007065954, -0.223742753, -0.1294998  , 0.454024523 , -0.009748774, -0.00895408 , 2.6389215   , 0.76        , 3           , 12          , 0.0356457569, 0
-0.0782635957, 0.0883568   , -9.801056   , 0.00202435744, -0.00109483988, 5.949846E-06, -0.223877579, -0.129364967, 0.4539571   , -0.009728531, -0.008965027, 2.638922    , 0.77        , 3           , 50          , 0           , 0
-0.08688397 , 0.08755097  , -9.799769   , -0.00102111476, 0.0005740135, -0.00177146285, -0.22367534 , -0.129702032, 0.454024523 , -0.009738582, -0.008959459, 2.63890386  , 0.78        , 3           , 11          , 0.0101382909, 0.0101382844
-0.07300259 , 0.08458251  , -9.770749   , -0.00102950109, 0.002333797 , -0.00120367575, -0.2240124  , -0.129836857, 0.453889728 , -0.009748768, -0.008936239, 2.63889146  , 0.79        , 3           , 12          , 0.0356457569, 0
-0.06894124 , 0.08363085  , -9.77027    , -0.000467081059, 0.0026014233, 6.0496177E-07, -0.2240124  , -0.129836857, 0.453889728 , -0.009756888, -0.008822968, 2.63889146  , 0.8         , 3           , 50          , 0           , 0
-0.09605179 , 0.07462227  , -9.814357   , -0.000604212633, 0.00168537942, -0.0007784419, -0.223877579, -0.129836857, 0.4538223   , -0.00976286 , -0.008806191, 2.63888335  , 0.81        , 3           , 11          , 0.009387852 , 0.009387846
-0.125080362, 0.08518776  , -9.769337   , -0.00277658156, -0.00156741962, -8.729469E-05, -0.223742753, -0.1295672  , 0.4539571   , -0.009790619, -0.008821873, 2.63888288  , 0.82        , 3           , 12          , 0.03599948  , 0
-0.09335721 , 0.09019472  , -9.758677   , -0.002851637, -0.000652810151, 5.505509E-05, -0.223877579, -0.129634619, 0.4538223   , -0.009819141, -0.008828395, 2.63888335  , 0.83        , 3           , 50          , 0           , 0
-0.08164813 , 0.1100168   , -9.789693   , -0.00369889173, -0.0008697187, -0.00171508023, -0.223877579, -0.129634619, 0.4538223   , -0.009855978, -0.008837261, 2.63886619  , 0.84        , 3           , 11          , 0.009387852 , 0.009387846
-0.107119419, 0.103079423 , -9.784945   , -0.00214663427, -0.0005072544, -0.000577144849, -0.22367534 , -0.129769444, 0.453889728 , -0.009877394, -0.00884239 , 2.638861    , 0.85        , 3           , 12          , 0.03599948  , 0
-0.1075841  , 0.109770358 , -9.760513   , -0.0015138617, 0.000130566579, 0.000203772564, -0.223877579, -0.129634619, 0.454024523 , -0.00989255 , -0.008841065, 2.63886285  , 0.86        , 3           , 50          , 0           , 0
-0.09670814 , 0.06910643  , -9.782294   , -0.00151014689, -0.00078452396, -0.00121032516, -0.223607928, -0.1294998  , 0.454024523 , -0.009907546, -0.008849029, 2.63885045  , 0.87        , 3           , 11          , 0.009387852 , 0.009387846
-0.0983300954, 0.0728518   , -9.816641   , -0.00193774654, 0.000127700434, -0.000222009054, -0.223607928, -0.1294998  , 0.454024523 , -0.009926905, -0.008847774, 2.63884854  , 0.88        , 3           , 12          , 0.03599948  , 0
-0.1060035  , 0.115290679 , -9.797089   , -0.000813838, 0.00119120663, -0.00120399508, -0.223607928, -0.12943238 , 0.4539571   , -0.009934935, -0.00883598253, 2.63883615  , 0.89        , 3           , 50          , 0           , 0
-0.103022523, 0.104834668 , -9.784454   , -0.003082298, -0.00191764126, -0.00277513987, -0.223607928, -0.1294998  , 0.454024523 , -0.009898497, -0.009046902, 2.638808    , 0.9         , 3           , 11          , 0.008920337 , 0.008920327
-0.0810667  , 0.0901041   , -9.774403   , -0.00167062343, -0.001485736, 5.74705628E-05, -0.223877579, -0.129364967, 0.454024523 , -0.009915208, -0.009061753, 2.63880849  , 0.91        , 3           , 12          , 0.03640197  , 0
-0.08907801 , 0.09388307  , -9.796597   , 0.000370349619, -0.00013445456, 6.907967E-05, -0.223540515, -0.1295672  , 0.4538223   , -0.00991151 , -0.009063091, 2.63880944  , 0.92        , 3           , 50          , 0           , 0
-0.11478857 , 0.100960895 , -9.799024   , -0.000274516671, 0.00162102666, -0.00113195553, -0.223540515, -0.1295672  , 0.4538223   , -0.009914152, -0.009046994, 2.638798    , 0.93        , 3           , 11          , 0.008920337 , 0.008920327
-0.10259822 , 0.09141576  , -9.820665   , -0.000195323388, 2.507545E-06, -0.000145240469, -0.223810166, -0.1294998  , 0.453889728 , -0.009916091, -0.009046984, 2.63879657  , 0.94        , 3           , 12          , 0.03640197  , 0
-0.0719302148, 0.088277854 , -9.799652   , 0.000576838444, 0.0009932393, 0.000495609245, -0.223877579, -0.129769444, 0.4538223   , -0.009910369, -0.009037002, 2.63880181  , 0.95        , 3           , 50          , 0           , 0
-0.06542188 , 0.07547063  , -9.771179   , 0.00121477921, 0.0005047982, 0.0005684473, -0.223810166, -0.1295672  , 0.4538223   , -0.00989827048, -0.009031897, 2.638807    , 0.96        , 3           , 11          , 0.008920337 , 0.008920327
-0.0586010627, 0.10435304  , -9.795868   , 0.0002970995, 0.000357805868, -0.000283662026, -0.223810166, -0.1295672  , 0.4538223   , -0.009895274, -0.009028347, 2.6388042   , 0.97        , 3           , 12          , 0.03640197  , 0
-0.07313475 , 0.1022553   , -9.792372   , -0.0004736906, -0.000844098337, -0.00035976214, -0.223810166, -0.1295672  , 0.4539571   , -0.00989998 , -0.009036823, 2.63880086  , 0.98        , 3           , 50          , 0           , 0
-0.073993966, 0.07693566  , -9.774404   , 0.000227679178, 0.0002165481, 0.0005634042, -0.224079818, -0.12943238 , 0.453889728 , -0.00989775453, -0.009034602, 2.63880658  , 0.99        , 3           , 11          , 0.008920337 , 0.008920327
-0.08526037 , 0.07845074  , -9.78307152 , 0.00101432868, -0.00129998743, 0.0002113655, -0.22367534 , -0.12943238 , 0.4536875   , -0.009796253, -0.00892491 , 2.638808    , 1           , 3           , 12          , 0.0368512161, 0
-0.07956546 , 0.0942210853, -9.79607    , 0.000312180346, -0.00221985183, -0.0008528525, -0.22367534 , -0.12943238 , 0.4536875   , -0.009793055, -0.00894719 , 2.6388      , 1.01        , 3           , 50          , 0           , 0
-0.09993072 , 0.09803926  , -9.78717    , 0.000866086 , 3.64895423E-05, -0.0004935753, -0.223877579, -0.129364967, 0.4538223   , -0.00978435 , -0.008946874, 2.63879466  , 1.02        , 3           , 11          , 0.008641221 , 0.008641217
-0.100253463, 0.1075233   , -9.788489   , 0.001574348 , -0.000451475644, -0.0009148485, -0.223944992, -0.129364967, 0.4538223   , -0.009768524, -0.008951476, 2.6387856   , 1.03        , 3           , 12          , 0.0368512161, 0
-0.104751386, 0.11027883  , -9.787158   , 0.00214098115, -0.0006588259, 0.000358878431, -0.22367534 , -0.1294998  , 0.4538223   , -0.00974714849, -0.00895803 , 2.63878942  , 1.04        , 3           , 50          , 0           , 0
-0.106452025, 0.113514081 , -9.80388    , 0.0029201163, -0.00121670519, -0.000203442731, -0.22367534 , -0.1294998  , 0.4538223   , -0.00971793 , -0.008970215, 2.63878751  , 1.05        , 3           , 11          , 0.008641221 , 0.008641217
-0.09107731 , 0.1191197   , -9.780236   , 0.00122073584, -0.0001722941, 0.0004966265, -0.223742753, -0.12943238 , 0.453889728 , -0.009705767, -0.00897189 , 2.63879228  , 1.06        , 3           , 12          , 0.0368512161, 0
-0.101404712, 0.0903735459, -9.783597   , 0.00143552956, -0.0008043839, 0.000214100291, -0.223742753, -0.129297554, 0.4538223   , -0.009691431, -0.008979914, 2.63879466  , 1.07        , 3           , 50          , 0           , 0
-0.07807325 , 0.106365047 , -9.789681   , -0.00144794874, -0.00307648024, 0.0006209365, -0.223810166, -0.12943238 , 0.453889728 , -0.009705969, -0.009010616, 2.63880086  , 1.08        , 3           , 11          , 0.008641221 , 0.008641217
-0.0811563656, 0.104686864 , -9.816378   , 0.00129150948, -0.000312601624, -0.000421507866, -0.223810166, -0.12943238 , 0.453889728 , -0.009693017, -0.009013783, 2.638797    , 1.09        , 3           , 12          , 0.0368512161, 0
-0.0912791938, 0.100655749 , -9.790257   , 0.0007656052, -0.000476153131, 0.000212749874, -0.223877579, -0.12943238 , 0.4538223   , -0.009806925, -0.009041934, 2.6388      , 1.1         , 3           , 50          , 0           , 0
-0.0923267156, 0.08760719  , -9.797551   , -1.69487157E-05, 0.0005744604, -0.0009193943, -0.22367534 , -0.129162729, 0.4537549   , -0.009807011, -0.00903628 , 2.63879132  , 1.11        , 3           , 11          , 0.008484628 , 0.00848462153
-0.09700155 , 0.10799922  , -9.806994   , 0.000754964771, 0.00170597713, 0.0004986503, -0.223742753, -0.129297554, 0.453889728 , -0.009799506, -0.009019172, 2.638796    , 1.12        , 3           , 12          , 0.0373451374, 0
-0.09361364 , 0.09348357  , -9.796181   , 0.000186607489, 0.002335677 , -0.000138716423, -0.223742753, -0.129297554, 0.453889728 , -0.009797625, -0.00899583 , 2.63879418  , 1.13        , 3           , 50          , 0           , 0
-0.06339049 , 0.08589388  , -9.791461   , 0.0007694609, -0.00132084952, -0.000353626732, -0.223877579, -0.129364967, 0.4536875   , -0.009789898, -0.00900907349, 2.63879085  , 1.14        , 3           , 11          , 0.008484628 , 0.00848462153
-0.0845431462, 0.0982991   , -9.783888   , -0.00255251722, -0.0007097721, -0.0009331994, -0.22367534 , -0.129230142, 0.453889728 , -0.009815341, -0.009016261, 2.63878179  , 1.15        , 3           , 12          , 0.0373451374, 0
-0.0885817856, 0.09971551  , -9.788433   , -0.00227500638, 0.000136829549, -0.0022019993, -0.22367534 , -0.1294998  , 0.454024523 , -0.009837891, -0.00901511 , 2.63875937  , 1.16        , 3           , 50          , 0           , 0
-0.104651146, 0.08722396  , -9.775047   , 0.000547719363, 0.00064867246, -0.0006341146, -0.22367534 , -0.1294998  , 0.454024523 , -0.009832357, -0.009008686, 2.63875318  , 1.17        , 3           , 11          , 0.008484628 , 0.00848462153
-0.103610605, 0.09580336  , -9.780428   , 0.00153385906, 0.00100731081, -0.00168847828, -0.223742753, -0.1295672  , 0.4537549   , -0.009816865, -0.008998779, 2.638736    , 1.18        , 3           , 12          , 0.0373451374, 0
-0.09719128 , 0.09847211  , -9.791216   , 0.000340734055, -0.000197452129, 0.00049374596, -0.223607928, -0.129297554, 0.4539571   , -0.0098135015, -0.009000705, 2.63874078  , 1.19        , 3           , 50          , 0           , 0
-0.08758141 , 0.106923304 , -9.788395   , -0.0009395546, -6.609828E-05, -0.001137062, -0.223810166, -0.12943238 , 0.4538223   , -0.009831195, -0.009082543, 2.63872981  , 1.2         , 3           , 11          , 0.008404057 , 0.008404038
-0.101242952, 0.09229003  , -9.817036   , 0.00110699446, 0.00015892279, -0.00112718856, -0.223810166, -0.12943238 , 0.4538223   , -0.009820022, -0.009081065, 2.63871884  , 1.21        , 3           , 12          , 0.0378816   , 0
-0.09831245 , 0.079115    , -9.800796   , -0.001290334, -0.00049083255, -0.0008568213, -0.223607928, -0.1295672  , 0.453620076 , -0.009832849, -0.009086056, 2.63871026  , 1.22        , 3           , 50          , 0           , 0
-0.0841899142, 0.0973204151, -9.762646   , 0.000181517986, 0.00184210984, 0.00021318793, -0.223877579, -0.129297554, 0.4538223   , -0.00983105 , -0.009067615, 2.63871217  , 1.23        , 3           , 11          , 0.008404057 , 0.008404038
-0.07615068 , 0.08329801  , -9.780269   , 0.002087981 , 0.00185500237, 0.00036334584, -0.223742753, -0.1294998  , 0.453889728 , -0.009810201, -0.009049031, 2.638715    , 1.24        , 3           , 12          , 0.0378816   , 0
-0.06573495 , 0.07782091  , -9.79784    , -0.0005041727, -0.00224535819, 0.000486140925, -0.223742753, -0.1294998  , 0.453889728 , -0.00981529 , -0.009071436, 2.63872075  , 1.25        , 3           , 50          , 0           , 0
-0.07885355 , 0.07932398  , -9.796578   , -0.00298409769, -0.000572681543, -8.78534E-05, -0.223810166, -0.129702032, 0.4536875   , -0.009845122, -0.009077171, 2.6387198   , 1.26        , 3           , 11          , 0.008404057 , 0.008404038
-0.09907525 , 0.08816831  , -9.806641   , -0.002634531, 0.000204011667, 0.000550695229, -0.223742753, -0.1295672  , 0.454024523 , -0.009871518, -0.009075076, 2.638725    , 1.27        , 3           , 12          , 0.0378816   , 0
-0.102894694, 0.113865256 , -9.786676   , -0.00172104815, 0.0009845202, -0.0004327124, -0.22367534 , -0.129634619, 0.4538223   , -0.009888688, -0.009065273, 2.63872075  , 1.28        , 3           , 50          , 0           , 0
-0.104098387, 0.0913168043, -9.786325   , -0.0008687663, 4.77300546E-06, -0.00021837739, -0.22367534 , -0.129634619, 0.4538223   , -0.009897357, -0.009065247, 2.63871837  , 1.29        , 3           , 11          , 0.008404057 , 0.008404038
-0.08737187 , 0.08797417  , -9.789828   , -0.0010013124, -0.00257960916, -0.0004362482, -0.223742753, -0.129769444, 0.4536875   , -0.009831953, -0.009146179, 2.6387136   , 1.3         , 3           , 12          , 0.03845844  , 0
-0.104644977, 0.08544356  , -9.782287   , 0.000111689114, 0.0007364192, -0.0009909567, -0.223742753, -0.129297554, 0.4539571   , -0.009830744, -0.009138913, 2.63870358  , 1.31        , 3           , 50          , 0           , 0
-0.0918701  , 0.09028308  , -9.789853   , -0.002003928, 0.000158963245, -0.0013548733, -0.223810166, -0.12943238 , 0.4539571   , -0.009850659, -0.009137456, 2.63869023  , 1.32        , 3           , 11          , 0.008365538 , 0.008365524
-0.0839737058, 0.09972736  , -9.807833   , -0.00199536 , -0.00153042644, -0.00100430509, -0.223810166, -0.12943238 , 0.4539571   , -0.009870523, -0.009152858, 2.6386807   , 1.33        , 3           , 12          , 0.03845844  , 0
-0.07667385 , 0.10638237  , -9.799614   , -0.004459977, -0.00274378667, 0.000183111639, -0.223607928, -0.129702032, 0.4536875   , -0.00991514 , -0.009180276, 2.6386826   , 1.34        , 3           , 50          , 0           , 0
-0.06332215 , 0.09264452  , -9.786462   , -0.00137461815, 0.00143030437, -0.00113805453, -0.223877579, -0.129364967, 0.4539571   , -0.009928782, -0.009166087, 2.63867116  , 1.35        , 3           , 11          , 0.008365538 , 0.008365524
-0.0548099652, 0.08577474  , -9.785972   , -0.0019339032, 0.0005817955, 0.00125957839, -0.223742753, -0.12943238 , 0.453889728 , -0.009948234, -0.009160144, 2.63868356  , 1.36        , 3           , 12          , 0.03845844  , 0
-0.08807358 , 0.1015405   , -9.796105   , -0.00150505756, -0.00040081577, 0.00182510994, -0.22367534 , -0.1295672  , 0.453620076 , -0.009963453, -0.00916397 , 2.63870168  , 1.37        , 3           , 50          , 0           , 0
-0.10082572 , 0.08957781  , -9.817043   , -0.000310560717, 0.000592774944, 0.0002076353, -0.22367534 , -0.1295672  , 0.453620076 , -0.009966577, -0.009158022, 2.63870358  , 1.38        , 3           , 11          , 0.008365538 , 0.008365524
-0.09523179 , 0.107498087 , -9.798395   , -0.000875785, 0.000729739 , 0.0007702933, -0.22367534 , -0.129230142, 0.4538223   , -0.009975406, -0.009150648, 2.63871121  , 1.39        , 3           , 12          , 0.03845844  , 0
-0.0724107847, 0.09361685  , -9.775679   , 0.0001556558, -0.00181836868, -0.0005709214, -0.223877579, -0.129162729, 0.4536875   , -0.009938798, -0.009112469, 2.63870549  , 1.4         , 3           , 50          , 0           , 0
-0.09764056 , 0.100712024 , -9.784882   , 0.00248608482, -0.00180260942, 0.000146286984, -0.223944992, -0.129836857, 0.453620076 , -0.009913951, -0.009130478, 2.6387074   , 1.41        , 3           , 11          , 0.008345688 , 0.00834567752
-0.09178145 , 0.09928191  , -9.782582   , 0.0029010796, -0.000251141377, -0.00154457579, -0.223944992, -0.129836857, 0.453620076 , -0.0098848  , -0.00913314149, 2.63869214  , 1.42        , 3           , 12          , 0.0390734933, 0
-0.07928918 , 0.114977069 , -9.796886   , 0.00135586609, -0.00173985888, -0.000141409735, -0.22367534 , -0.12943238 , 0.4536875   , -0.009871231, -0.00915055349, 2.63869071  , 1.43        , 3           , 50          , 0           , 0
-0.08741522 , 0.08481461  , -9.78939    , 0.0008466558, 0.00121323066, -0.000704232953, -0.223810166, -0.1295672  , 0.453889728 , -0.0098627  , -0.009138492, 2.63868356  , 1.44        , 3           , 11          , 0.008345688 , 0.00834567752
-0.0867153555, 0.106434308 , -9.780254   , 0.000205393328, 0.00240558526, -0.0004934487, -0.22367534 , -0.1294998  , 0.453889728 , -0.00986059848, -0.009114488, 2.63867831  , 1.45        , 3           , 12          , 0.0390734933, 0
-0.07105304 , 0.08511974  , -9.802822   , -0.0006350581, 0.0009216363, -0.00134729 , -0.22367534 , -0.1294998  , 0.453889728 , -0.009866824, -0.009105404, 2.63866448  , 1.46        , 3           , 50          , 0           , 0
-0.07823123 , 0.08927574  , -9.806025   , -0.00295756059, -0.00043155087, 0.000193739979, -0.223810166, -0.1295672  , 0.4538223   , -0.009896419, -0.009109699, 2.63866687  , 1.47        , 3           , 11          , 0.008345688 , 0.00834567752
-0.0714167655, 0.09724869  , -9.7856     , -0.00260644779, -0.000288386742, -0.001923428, -0.223877579, -0.129364967, 0.4538223   , -0.009922308, -0.00911277253, 2.63864732  , 1.48        , 3           , 12          , 0.0390734933, 0
-0.06119444 , 0.109841086 , -9.808519   , -0.0009797276, -0.0007701418, -0.00135153986, -0.223540515, -0.129634619, 0.453552663 , -0.009931985, -0.00912061147, 2.638634    , 1.49        , 3           , 50          , 0           , 0
-0.09108013 , 0.110190414 , -9.808295   , -0.000357949844, 0.000244703784, -0.0016987155, -0.223540515, -0.129634619, 0.453552663 , -0.009946193, -0.008926471, 2.63861728  , 1.5         , 3           , 11          , 0.00832933  , 0.008329327
-0.09699844 , 0.08218756  , -9.779983   , -0.0009189921, -0.0004630273, -0.0011373593, -0.223810166, -0.129297554, 0.4536875   , -0.009955281, -0.008931214, 2.63860583  , 1.51        , 3           , 12          , 0.03972461  , 0
-0.110786356, 0.09817592  , -9.789965   , -0.00367524172, 0.00022226751, 0.000404841441, -0.223742753, -0.1295672  , 0.4537549   , -0.0099920705, -0.008928951, 2.63861012  , 1.52        , 3           , 50          , 0           , 0
-0.06952157 , 0.09997364  , -9.797325   , -0.00134628429, 0.000378805533, -0.000219786089, -0.223810166, -0.129702032, 0.4537549   , -0.0100055123, -0.008925186, 2.63860774  , 1.53        , 3           , 11          , 0.00832933  , 0.008329327
-0.08958402 , 0.0925062   , -9.788019   , -0.000288084557, 0.0005267495, -0.0005678024, -0.223810166, -0.129702032, 0.4537549   , -0.0100083426, -0.008919974, 2.638602    , 1.54        , 3           , 12          , 0.03972461  , 0
-0.0965521038, 0.07592813  , -9.798535   , 0.0001410465, -0.0004558604, 0.000492169638, -0.22367534 , -0.12943238 , 0.4537549   , -0.0100069763, -0.008924483, 2.63860726  , 1.55        , 3           , 50          , 0           , 0
-0.112336934, 0.08018209  , -9.800899   , -0.00226833485, 0.00128768629, 0.0004130533, -0.223877579, -0.129702032, 0.4538223   , -0.0100296959, -0.008911566, 2.638611    , 1.56        , 3           , 11          , 0.00832933  , 0.008329327
-0.08983522 , 0.102940924 , -9.803797   , 6.39035061E-05, 0.0007403107, -0.000565830851, -0.223540515, -0.12943238 , 0.4536875   , -0.0100290058, -0.00890422 , 2.63860536  , 1.57        , 3           , 12          , 0.03972461  , 0
-0.0795739144, 0.0928752   , -9.798335   , 0.0006973544, 0.00116695627, -0.000420948025, -0.223540515, -0.12943238 , 0.4536875   , -0.0100219939, -0.008892593, 2.63860059  , 1.58        , 3           , 50          , 0           , 0
-0.09350848 , 0.0695400238, -9.788143   , -0.0007018222, -0.00151746324, -0.0009260957, -0.223810166, -0.129297554, 0.4537549   , -0.0100289313, -0.00890786 , 2.638592    , 1.59        , 3           , 11          , 0.00832933  , 0.008329327
-0.07893205 , 0.10150373  , -9.816827   , 0.0004003856, 0.000565994 , -0.000283953472, -0.223742753, -0.129364967, 0.453889728 , -0.009877831, -0.008943754, 2.63858771  , 1.6         , 3           , 12          , 0.0404097028, 0
-0.06881704 , 0.1126701   , -9.818059   , 0.000678140961, 0.00141259679, -0.00112894725, -0.223742753, -0.12943238 , 0.4537549   , -0.009870948, -0.00892974 , 2.63857627  , 1.61        , 3           , 50          , 0           , 0
-0.114852428, 0.09778469  , -9.793613   , -0.00155397179, -0.003952415, 0.00026495973, -0.223742753, -0.12943238 , 0.4537549   , -0.009886515, -0.008969237, 2.63857961  , 1.62        , 3           , 11          , 0.008307606 , 0.008307599
-0.05812651 , 0.0785512   , -9.773372   , -0.0007058756, -0.003946681, 0.00168159814, -0.22367534 , -0.129702032, 0.453620076 , -0.009893727, -0.009008536, 2.63859677  , 1.63        , 3           , 12          , 0.0404097028, 0
-0.06236885 , 0.096689716 , -9.785081   , 0.000115986564, 0.001127218 , 0.00112828473, -0.22367534 , -0.129297554, 0.4537549   , -0.009892669, -0.008997152, 2.63860774  , 1.64        , 3           , 50          , 0           , 0
-0.0804690644, 0.0969114155, -9.78793    , 0.0009627776, 0.00113294553, 0.000284622976, -0.223742753, -0.1294998  , 0.45348525  , -0.009883065, -0.008985795, 2.6386106   , 1.65        , 3           , 11          , 0.008307606 , 0.008307599
-0.09657244 , 0.08126785  , -9.776367   , -0.00185345276, -0.000575546, -0.0002962247, -0.223742753, -0.1294998  , 0.45348525  , -0.009901575, -0.00899158 , 2.63860726  , 1.66        , 3           , 12          , 0.0404097028, 0
-0.0937022  , 0.08716291  , -9.794851   , -0.0007225148, -0.000849472, -0.000573928352, -0.223742753, -0.1294998  , 0.453552663 , -0.009908749, -0.009000132, 2.638602    , 1.67        , 3           , 50          , 0           , 0
-0.08093743 , 0.0960114   , -9.787033   , 0.0006927336, -0.001403051, -3.13683972E-06, -0.223607928, -0.129230142, 0.4536875   , -0.00990182348, -0.009014162, 2.638602    , 1.68        , 3           , 11          , 0.008307606 , 0.008307599
-0.08782401 , 0.0888727158, -9.787117   , 0.0001353395, -0.00281469384, 0.0008396721, -0.22367534 , -0.129364967, 0.4536875   , -0.0099005485, -0.009042224, 2.638611    , 1.69        , 3           , 12          , 0.0404097028, 0
-0.100966223, 0.09124936  , -9.777264   , -8.291684E-05, -0.0007979871, -0.0005714703, -0.22367534 , -0.129364967, 0.4536875   , -0.009809678, -0.00899181 , 2.6386044   , 1.7         , 3           , 50          , 0           , 0
-0.106455892, 0.08323325  , -9.789541   , 0.000486118748, -0.00163886254, -0.0005701382, -0.223540515, -0.129230142, 0.45348525  , -0.00980476849, -0.009008253, 2.63859868  , 1.71        , 3           , 11          , 0.008275646 , 0.008275641
-0.0962746143, 0.09579239  , -9.802519   , -0.0006286696, -0.004462148, 0.00111547939, -0.223742753, -0.1290279  , 0.453620076 , -0.009811159, -0.009052763, 2.6386106   , 1.72        , 3           , 12          , 0.041126702 , 0
-0.0865531  , 0.0789662153, -9.797543   , -0.00148914859, -0.00193379563, -1.47159744E-05, -0.223742753, -0.1294998  , 0.453620076 , -0.00982605 , -0.009072101, 2.6386106   , 1.73        , 3           , 50          , 0           , 0
-0.0743718147, 0.085036    , -9.766689   , 0.0013393017, -0.00275939144, -2.848421E-06, -0.223742753, -0.1294998  , 0.453620076 , -0.009812659, -0.009099694, 2.638611    , 1.74        , 3           , 11          , 0.008275646 , 0.008275641
-0.0858261138, 0.101946935 , -9.790663   , -0.000941023, 0.00144880509, -6.874907E-06, -0.223607928, -0.12943238 , 0.453552663 , -0.009822067, -0.009085207, 2.6386106   , 1.75        , 3           , 12          , 0.041126702 , 0
-0.109454133, 0.0981387943, -9.783627   , -0.0051752897, 0.0008570221, -0.00115764653, -0.22367534 , -0.129297554, 0.453552663 , -0.009873712, -0.009076752, 2.63859868  , 1.76        , 3           , 50          , 0           , 0
-0.101195268, 0.103933789 , -9.791224   , -0.00150513533, 0.00116341689, -0.0011400925, -0.2234731  , -0.129364967, 0.453620076 , -0.009888659, -0.009065231, 2.63858724  , 1.77        , 3           , 11          , 0.008275646 , 0.008275641
-0.09988351 , 0.09629211  , -9.804354   , 0.004154879 , -0.00105090276, -0.0005521502, -0.2234731  , -0.129364967, 0.453620076 , -0.009847063, -0.009075794, 2.638582    , 1.78        , 3           , 12          , 0.041126702 , 0
-0.09909163 , 0.09127951  , -9.792616   , -0.00120704819, -0.00193188735, -0.0005784738, -0.2234731  , -0.129364967, 0.45348525  , -0.009859081, -0.009095168, 2.63857627  , 1.79        , 3           , 50          , 0           , 0
-0.0944776461, 0.09933045  , -9.787576   , -0.00174813741, 0.0005257946, -0.001708386, -0.223742753, -0.129297554, 0.4536875   , -0.009829446, -0.00918226 , 2.63855863  , 1.8         , 3           , 11          , 0.008232477 , 0.008232465
-0.0845044255, 0.102793977 , -9.778896   , -0.00118435163, 0.0008111811, -0.00114024314, -0.223742753, -0.129297554, 0.453620076 , -0.009841183, -0.009174261, 2.63854718  , 1.81        , 3           , 12          , 0.04187363  , 0
-0.0798913  , 0.104595318 , -9.79377    , 0.001076205 , 0.0008264663, 0.000848054653, -0.223742753, -0.129364967, 0.453283    , -0.009830498, -0.009165913, 2.63855577  , 1.82        , 3           , 50          , 0           , 0
-0.102773845, 0.09350522  , -9.770939   , -5.120377E-05, 0.000255693973, -5.693495E-06, -0.223742753, -0.129364967, 0.453283    , -0.0098310085, -0.009163357, 2.63855577  , 1.83        , 3           , 11          , 0.008232477 , 0.008232465
-0.09329353 , 0.08801454  , -9.781285   , -0.00175387668, 0.00165205391, -0.00198918767, -0.22367534 , -0.12943238 , 0.453620076 , -0.009848364, -0.009147033, 2.63853574  , 1.84        , 3           , 12          , 0.04187363  , 0
-0.09110159 , 0.08391249  , -9.776766   , 0.004163799 , 0.00450781826, -0.0008270427, -0.22367534 , -0.129364967, 0.453620076 , -0.009806646, -0.009102038, 2.63852715  , 1.85        , 3           , 50          , 0           , 0
-0.07402628 , 0.103616342 , -9.791469   , 0.00134494377, 0.00336245657, -0.00112448528, -0.223742753, -0.129364967, 0.453350425 , -0.009793092, -0.009068525, 2.63851571  , 1.86        , 3           , 11          , 0.008232477 , 0.008232465
-0.07229334 , 0.09103392  , -9.812752   , -0.003433845, -0.00117505353, -0.0008712786, -0.223742753, -0.129364967, 0.453350425 , -0.009827352, -0.009080362, 2.63850713  , 1.87        , 3           , 12          , 0.04187363  , 0
-0.08909648 , 0.116557829 , -9.829948   , -0.00315174437, -0.001173145, -0.00143503654, -0.223810166, -0.129297554, 0.453417838 , -0.00985874049, -0.009092234, 2.63849282  , 1.88        , 3           , 50          , 0           , 0
-0.0886567757, 0.124129862 , -9.802343   , -0.00341760647, -0.0045538363, -0.00172409823, -0.223607928, -0.129297554, 0.453417838 , -0.0098927645, -0.009137941, 2.63847566  , 1.89        , 3           , 11          , 0.008232477 , 0.008232465
-0.07660416 , 0.08999804  , -9.758551   , -0.000955337367, -0.0008515818, 0.000272008125, -0.2234731  , -0.129364967, 0.453350425 , -0.009984873, -0.009113856, 2.63847947  , 1.9         , 3           , 12          , 0.0426485725, 0
-0.0720797  , 0.09038847  , -9.756255   , 0.00328573631, -0.00166762515, 0.00113807281, -0.2234731  , -0.129364967, 0.453350425 , -0.00995212048, -0.009130418, 2.638491    , 1.91        , 3           , 50          , 0           , 0
-0.09488864 , 0.102940425 , -9.786207   , -0.002670067, 0.00307886675, -0.0008599681, -0.223540515, -0.129095316, 0.45348525  , -0.00997874048, -0.009099717, 2.63848233  , 1.92        , 3           , 11          , 0.008177006 , 0.008176988
-0.106379114, 0.0913297758, -9.782276   , -0.000102154525, -0.00197211048, 0.0008392981, -0.223742753, -0.129230142, 0.45348525  , -0.009979839, -0.009119354, 2.638491    , 1.93        , 3           , 12          , 0.0426485725, 0
-0.109881587, 0.102181785 , -9.776834   , -0.00179794629, -0.00170200481, 0.00111436809, -0.22367534 , -0.129297554, 0.453350425 , -0.009997922, -0.00913626 , 2.63850236  , 1.94        , 3           , 50          , 0           , 0
-0.09920559 , 0.11343053  , -9.804276   , 0.00185310747, 0.00226473156, -0.000557661464, -0.22367534 , -0.129297554, 0.453350425 , -0.009979337, -0.009113669, 2.63849616  , 1.95        , 3           , 11          , 0.008177006 , 0.008176988
-0.08586628 , 0.100575343 , -9.785245   , -0.00294159353, 0.00110600621, 0.00111343968, -0.223607928, -0.129095316, 0.453350425 , -0.0100088548, -0.009102499, 2.63850713  , 1.96        , 3           , 12          , 0.0426485725, 0
-0.102441065, 0.07733405  , -9.793603   , 0.00158708228, -0.00111596112, -0.00112926064, -0.22367534 , -0.1294998  , 0.453417838 , -0.009992882, -0.009113771, 2.63849616  , 1.97        , 3           , 50          , 0           , 0
-0.0586790033, 0.10741435  , -9.766929   , 0.00212938013, 0.00367447035, 0.000858512358, -0.223540515, -0.1295672  , 0.4532156   , -0.009971662, -0.009076943, 2.63850427  , 1.98        , 3           , 11          , 0.008177006 , 0.008176988
-0.08021213 , 0.08157149  , -9.789348   , 0.00129784865, 0.000289955118, -0.0008458704, -0.223540515, -0.1295672  , 0.4532156   , -0.009958605, -0.009074128, 2.63849568  , 1.99        , 3           , 12          , 0.0426485725, 0
-0.06425832 , 0.08905955  , -9.79055    , -0.0009371991, -0.00139270432, -1.13036658E-05, -0.223540515, -0.12943238 , 0.453283    , -0.009946727, -0.009057899, 2.63849568  , 2           , 3           , 50          , 0           , 0
-0.0610647053, 0.09395175  , -9.780563   , -0.00120954169, -0.00336556765, 0.0005494169, -0.22367534 , -0.129230142, 0.453283    , -0.009958875, -0.00909149647, 2.63850141  , 2.01        , 3           , 11          , 0.008114277 , 0.008114271
-0.08325796 , 0.087511465 , -9.800646   , -0.00150377315, -0.00111496064, -0.0005785783, -0.223607928, -0.1294998  , 0.4532156   , -0.009973861, -0.009102703, 2.63849568  , 2.02        , 3           , 12          , 0.0434497   , 0
-0.095922105, 0.08365436  , -9.81703    , 0.001872551 , 0.00172361534, 0.00141932652, -0.223607928, -0.1294998  , 0.4532156   , -0.009955263, -0.00908532552, 2.63851     , 2.03        , 3           , 50          , 0           , 0
-0.0830269456, 0.0775067359, -9.778539   , 0.000461647549, 0.0014324995, 0.00112977042, -0.223810166, -0.12943238 , 0.453080773 , -0.009950747, -0.00907089 , 2.638521    , 2.04        , 3           , 11          , 0.008114277 , 0.008114271
-0.09150443 , 0.08083382  , -9.798928   , -0.0006501009, -0.00223548687, 0.0008363239, -0.223607928, -0.129297554, 0.453283    , -0.00995732751, -0.009093161, 2.63852954  , 2.05        , 3           , 12          , 0.0434497   , 0
-0.111516275, 0.07117565  , -9.809065   , 0.00159397931, 0.0008770085, 0.000851632562, -0.223810166, -0.129297554, 0.453417838 , -0.009941463, -0.009084307, 2.63853812  , 2.06        , 3           , 50          , 0           , 0
-0.09999128 , 0.0917412862, -9.79262    , -0.00290984148, -0.002250768, 0.000260713452, -0.223810166, -0.129297554, 0.453417838 , -0.009970587, -0.009106788, 2.638541    , 2.07        , 3           , 11          , 0.008114277 , 0.008114271
-0.08784057 , 0.08662754  , -9.790289   , -0.0003792267, -0.000262630172, -0.00226723379, -0.223607928, -0.1295672  , 0.4532156   , -0.009974174, -0.00910964 , 2.63851857  , 2.08        , 3           , 12          , 0.0434497   , 0
-0.09727311 , 0.0885861143, -9.803009   , 0.00131368823, 0.0003119653, -0.000280701846, -0.223944992, -0.12943238 , 0.453350425 , -0.009961012, -0.0091065485, 2.63851571  , 2.09        , 3           , 50          , 0           , 0
-0.09233055 , 0.08492598  , -9.805245   , -0.00141493208, 0.00421416061, -0.0011366281, -0.223810166, -0.129769444, 0.453417838 , -0.009810281, -0.009093881, 2.63850236  , 2.1         , 3           , 11          , 0.008038533 , 0.00803852547
-0.07841176 , 0.08466596  , -9.776666   , -0.002531767, 0.00167243637, -0.0005807263, -0.223810166, -0.129769444, 0.453417838 , -0.009835544, -0.009077214, 2.63849664  , 2.11        , 3           , 12          , 0.0442752652, 0
-0.08543906 , 0.0987639   , -9.784797   , 0.000299634354, 0.000283711473, -0.000287189119, -0.223877579, -0.1294998  , 0.4532156   , -0.00983252 , -0.009074405, 2.6384933   , 2.12        , 3           , 50          , 0           , 0
-0.09310865 , 0.1011085   , -9.784395   , 0.0005746017, 0.00169344421, -0.001131315, -0.22367534 , -0.129364967, 0.453283    , -0.00982667 , -0.009057582, 2.63848186  , 2.13        , 3           , 11          , 0.008038533 , 0.00803852547
-0.08190487 , 0.08793759  , -9.797922   , -0.00167981489, 0.0008334732, 0.000269534969, -0.22367534 , -0.129230142, 0.45348525  , -0.009843494, -0.009049222, 2.63848424  , 2.14        , 3           , 12          , 0.0442752652, 0
-0.0826023147, 0.107309937 , -9.786547   , 0.00171004818, 0.000574824866, -0.0008452455, -0.22367534 , -0.129230142, 0.45348525  , -0.009826316, -0.009043556, 2.63847613  , 2.15        , 3           , 50          , 0           , 0
-0.08649047 , 0.09062207  , -9.775347   , -0.0011090592, -0.000288965442, 0.000835508166, -0.223540515, -0.1294998  , 0.4532156   , -0.009837481, -0.009046363, 2.63848424  , 2.16        , 3           , 11          , 0.008038533 , 0.00803852547
-0.08941602 , 0.1029084   , -9.795657   , 0.00340714469, 0.000304725021, 0.00113998447, -0.223742753, -0.12943238 , 0.45348525  , -0.009803514, -0.009043204, 2.63849568  , 2.17        , 3           , 12          , 0.0442752652, 0
-0.08549096 , 0.0915802643, -9.795222   , -0.0008406467, 0.00224702316, -0.00170210679, -0.223742753, -0.129162729, 0.453350425 , -0.009811765, -0.009020901, 2.63847852  , 2.18        , 3           , 50          , 0           , 0
-0.08002662 , 0.103146605 , -9.765302   , -0.00111512467, 0.000837292464, -1.03686762E-05, -0.223742753, -0.129162729, 0.453350425 , -0.009822914, -0.009012531, 2.63847852  , 2.19        , 3           , 11          , 0.008038533 , 0.00803852547
-0.0964621454, 0.08671342  , -9.785834   , -0.000268359581, 0.00283581787, -0.0016984297, -0.22367534 , -0.12943238 , 0.453283    , -0.009810305, -0.008951977, 2.63846135  , 2.2         , 3           , 12          , 0.045123592 , 0
-0.0809958  , 0.09016155  , -9.791578   , -0.0005354524, -0.000263308175, -0.00170451985, -0.22367534 , -0.12943238 , 0.45348525  , -0.009815508, -0.008954778, 2.63844419  , 2.21        , 3           , 50          , 0           , 0
-0.106741711, 0.09988882  , -9.776819   , 0.00142922683, 0.00256572035, 0.00113441271, -0.223810166, -0.1294998  , 0.4536875   , -0.009801314, -0.00892901048, 2.63845563  , 2.22        , 3           , 11          , 0.007955334 , 0.007955319
-0.102317758, 0.09037813  , -9.781796   , 0.000323217682, -0.002228526, 0.001121768 , -0.223810166, -0.1294998  , 0.4536875   , -0.009798184, -0.008951185, 2.638467    , 2.23        , 3           , 12          , 0.045123592 , 0
-0.08604397 , 0.114640407 , -9.807334   , -0.000824359769, 0.00114260952, -0.0008560547, -0.223810166, -0.129702032, 0.4532156   , -0.009806349, -0.008939844, 2.63845849  , 2.24        , 3           , 50          , 0           , 0
-0.08600363 , 0.08618082  , -9.797961   , -0.0008060744, -0.00251773582, -0.000579158368, -0.223540515, -0.129364967, 0.453552663 , -0.009814361, -0.008965077, 2.63845277  , 2.25        , 3           , 11          , 0.007955334 , 0.007955319
-0.106271908, 0.0976655558, -9.788125   , -0.00110227824, 0.000296005979, -0.000293598452, -0.22367534 , -0.129364967, 0.4536875   , -0.009825356, -0.008962146, 2.63845     , 2.26        , 3           , 12          , 0.045123592 , 0
-0.0771627352, 0.105465733 , -9.793745   , 0.0003163365, -0.00110227207, -0.001136796, -0.223607928, -0.129634619, 0.453350425 , -0.009822092, -0.008973281, 2.63843846  , 2.27        , 3           , 50          , 0           , 0
-0.09578179 , 0.1020684   , -9.792093   , -0.00194324157, -0.00111755251, -0.00142986886, -0.223607928, -0.129634619, 0.453350425 , -0.009841398, -0.008984596, 2.63842416  , 2.28        , 3           , 11          , 0.007955334 , 0.007955319
-0.10925699 , 0.08007231  , -9.779181   , 2.74290214E-05, 0.000303645851, -0.000288330717, -0.223607928, -0.12943238 , 0.453417838 , -0.009841097, -0.008981588, 2.6384213   , 2.29        , 3           , 12          , 0.045123592 , 0
-0.101658344, 0.102591693 , -9.79304    , -0.00193425373, -0.000612451462, -0.0008645769, -0.2234731  , -0.12943238 , 0.45348525  , -0.0098427115, -0.009077162, 2.63841271  , 2.3         , 3           , 50          , 0           , 0
-0.09701416 , 0.1035255   , -9.818312   , -0.00194942462, 0.00248476514, -0.0005772661, -0.223742753, -0.12943238 , 0.453283    , -0.009862152, -0.009052373, 2.63840652  , 2.31        , 3           , 11          , 0.007867021 , 0.007867016
-0.09766581 , 0.09935253  , -9.783079   , -0.00108959817, -4.35906331E-05, -0.0005772207, -0.223742753, -0.12943238 , 0.453283    , -0.009872996, -0.009052866, 2.63840079  , 2.32        , 3           , 12          , 0.0459931158, 0
-0.06730363 , 0.100802518 , -9.783293   , -0.00165240513, -0.000328972528, 0.00054986123, -0.22367534 , -0.129364967, 0.453417838 , -0.009889569, -0.009056101, 2.638406    , 2.33        , 3           , 50          , 0           , 0
-0.089171946, 0.08532632  , -9.801152   , 0.0006156254, -0.00228465372, -0.001420403, -0.223742753, -0.129230142, 0.4536875   , -0.0098832855, -0.009079086, 2.63839269  , 2.34        , 3           , 11          , 0.007867021 , 0.007867016
-0.08717095 , 0.09751033  , -9.808319   , 0.0006156997, -0.00200308138, 0.001122868 , -0.223607928, -0.129297554, 0.453417838 , -0.009877232, -0.009099005, 2.63840413  , 2.35        , 3           , 12          , 0.0459931158, 0
-0.08780178 , 0.118722059 , -9.807331   , 0.00174359779, -0.00143230706, 0.00282422826, -0.223607928, -0.129297554, 0.453417838 , -0.00986005552, -0.009113047, 2.63843226  , 2.36        , 3           , 50          , 0           , 0
-0.07203531 , 0.1224875   , -9.77465248 , 0.000330573734, -0.0017234328, -0.00113831472, -0.223607928, -0.129230142, 0.45348525  , -0.009856647, -0.009130392, 2.6384213   , 2.37        , 3           , 11          , 0.007867021 , 0.007867016
-0.07706889 , 0.08642285  , -9.767156   , -0.000511709, -0.00257385382, 0.000269119919, -0.223810166, -0.129162729, 0.45348525  , -0.00986179151, -0.009156103, 2.63842416  , 2.38        , 3           , 12          , 0.0459931158, 0
-0.07855275 , 0.07294661  , -9.779879   , -0.00221807463, -0.000332796364, -0.0008654599, -0.223742753, -0.12943238 , 0.4532156   , -0.009883893, -0.009159518, 2.63841558  , 2.39        , 3           , 50          , 0           , 0
-0.104192078, 0.08052848  , -9.798122   , -0.00220780447, -0.00169359555, -0.0005846148, -0.223742753, -0.12943238 , 0.4532156   , -0.009900912, -0.00910125952, 2.63840985  , 2.4         , 3           , 11          , 0.007774561 , 0.007774556
-0.100614235, 0.0808963   , -9.785891   , -0.0005180038, -0.0005558715, 0.000837709755, -0.223742753, -0.1295672  , 0.453417838 , -0.00990617 , -0.009106736, 2.63841844  , 2.41        , 3           , 12          , 0.04688236  , 0
-0.101528689, 0.07643624  , -9.79812    , -0.00163918384, -0.00225290074, 0.001112376 , -0.22367534 , -0.129702032, 0.45348525  , -0.009922663, -0.009129153, 2.6384294   , 2.42        , 3           , 50          , 0           , 0
-0.102294683, 0.0837015659, -9.808943   , 4.652355E-05, -0.000552053156, 0.000275268627, -0.2234731  , -0.129634619, 0.4532156   , -0.009922223, -0.00913464651, 2.63843226  , 2.43        , 3           , 11          , 0.007774561 , 0.007774556
-0.07776431 , 0.0932990462, -9.796513   , -0.0008151864, 0.00225786539, -0.000571955, -0.2234731  , -0.129634619, 0.4532156   , -0.009930323, -0.009112125, 2.638426    , 2.44        , 3           , 12          , 0.04688236  , 0
-0.114663154, 0.111774914 , -9.79490948 , 0.00258541387, 2.82659166E-05, 5.45143848E-06, -0.223742753, -0.1295672  , 0.453417838 , -0.009904468, -0.009111841, 2.638426    , 2.45        , 3           , 50          , 0           , 0
-0.105952866, 0.0881785   , -9.785902   , -0.00136593683, -0.000561604567, -0.000296390732, -0.223810166, -0.129095316, 0.453552663 , -0.009918102, -0.009117487, 2.6384232   , 2.46        , 3           , 11          , 0.007774561 , 0.007774556
-0.08142695 , 0.08661361  , -9.808319   , -0.00192135887, -0.00253638159, -0.0008671371, -0.223877579, -0.12943238 , 0.453552663 , -0.009937239, -0.009142936, 2.638415    , 2.47        , 3           , 12          , 0.04688236  , 0
-0.12600407 , 0.108319759 , -9.801338   , -0.00136930321, 0.00028309453, 0.00111759827, -0.223877579, -0.12943238 , 0.453552663 , -0.009951034, -0.009139993, 2.638426    , 2.48        , 3           , 50          , 0           , 0
-0.0968820751, 0.118362077 , -9.802881   , -0.0008012463, -0.0005577854, -0.0005762944, -0.223540515, -0.129230142, 0.453417838 , -0.009958994, -0.009145629, 2.63842034  , 2.49        , 3           , 11          , 0.007774561 , 0.007774556
-0.07161716 , 0.110849015 , -9.803624   , 0.00117952586, -0.00174771948, -0.0005695075, -0.22367534 , -0.1294998  , 0.453620076 , -0.009950105, -0.009291183, 2.63841558  , 2.5         , 3           , 12          , 0.0477899127, 0
-0.0730992854, 0.102284014 , -9.80096    , -0.002223373, 0.00104501261, -0.00029843385, -0.22367534 , -0.129297554, 0.453350425 , -0.009972311, -0.009280763, 2.63841224  , 2.51        , 3           , 50          , 0           , 0
-0.07409008 , 0.06793079  , -9.779865   , -0.00333635183, -0.002341408, -0.000308908784, -0.22367534 , -0.129297554, 0.453350425 , -0.0100056464, -0.009304206, 2.63840938  , 2.52        , 3           , 11          , 0.00768017  , 0.007680162
-0.09510972 , 0.08624632  , -9.785827   , -0.0002435972, 0.0004952523, -0.000290083175, -0.223810166, -0.12943238 , 0.45348525  , -0.0100080566, -0.009299284, 2.63840652  , 2.53        , 3           , 12          , 0.0477899127, 0
-0.0706277341, 0.09089473  , -9.777484   , -0.00137109484, 0.00020605122, 0.00111690233, -0.223742753, -0.129162729, 0.4537549   , -0.01002187 , -0.009297111, 2.63841748  , 2.54        , 3           , 50          , 0           , 0
-0.088497825, 0.09978355  , -9.808771   , 0.0003164219, 0.00134376436, -0.00141629751, -0.22367534 , -0.1295672  , 0.453417838 , -0.0100185722, -0.00928381551, 2.63840318  , 2.55        , 3           , 11          , 0.00768017  , 0.007680162
-0.09469035 , 0.1164916   , -9.791121   , 0.000882995664, 0.00106602069, -0.00084902253, -0.22367534 , -0.1295672  , 0.453417838 , -0.0100096632, -0.009273242, 2.63839459  , 2.56        , 3           , 12          , 0.0477899127, 0
-0.08276075 , 0.09468375  , -9.788409   , 0.000610163843, -0.000906845555, -0.00113591459, -0.223540515, -0.1295672  , 0.453417838 , -0.0100034587, -0.009282423, 2.63838315  , 2.57        , 3           , 50          , 0           , 0
-0.0945125148, 0.0899288356, -9.80931    , 0.00145407813, -5.6416502E-05, 0.000282025285, -0.223877579, -0.129162729, 0.453620076 , -0.009988944, -0.00928296 , 2.638386    , 2.58        , 3           , 11          , 0.00768017  , 0.007680162
-0.109312125, 0.103610061 , -9.800778   , 0.00286686514, -4.68635262E-05, 0.00141875993, -0.223607928, -0.129364967, 0.45348525  , -0.009960406, -0.00928328652, 2.63840032  , 2.59        , 3           , 12          , 0.0477899127, 0
-0.113680042, 0.08065675  , -9.803167   , 0.0008790784, 0.002186564 , -0.00141238712, -0.223607928, -0.129364967, 0.45348525  , -0.009948058, -0.009271416, 2.63838649  , 2.6         , 3           , 50          , 0           , 0
-0.0944087356, 0.104296118 , -9.788458   , -0.00108610466, -7.93232757E-05, -0.000294927246, -0.22367534 , -0.12943238 , 0.45348525  , -0.00995889 , -0.009272239, 2.63838315  , 2.61        , 3           , 11          , 0.00758363772, 0.007583629
-0.06419915 , 0.126080424 , -9.796724   , 0.00116445648, 0.00162534439, -0.00112940068, -0.223742753, -0.129230142, 0.453620076 , -0.00994714 , -0.009256098, 2.63837171  , 2.62        , 3           , 12          , 0.04871446  , 0
-0.07859076 , 0.09694457  , -9.804186   , 0.00201845518, 0.0005048197, 0.000850576558, -0.22414723 , -0.129364967, 0.453620076 , -0.009927033, -0.009250966, 2.63838029  , 2.63        , 3           , 50          , 0           , 0
-0.08733414 , 0.0911292061, -9.788911   , 5.6474968E-05, -0.00260576745, 0.0002715098, -0.22414723 , -0.129364967, 0.453620076 , -0.009926496, -0.009276995, 2.63838315  , 2.64        , 3           , 11          , 0.00758363772, 0.007583629
-0.100220963, 0.103532463 , -9.809297   , -0.003068016, 0.00103357027, 0.0008277396, -0.223742753, -0.1294998  , 0.453552663 , -0.009957253, -0.009266578, 2.63839173  , 2.65        , 3           , 12          , 0.04871446  , 0
-0.0886949152, 0.09292858  , -9.782585   , 0.00117298367, -6.404509E-05, -0.000849466771, -0.223810166, -0.129297554, 0.4536875   , -0.009945444, -0.009267302, 2.63838315  , 2.66        , 3           , 50          , 0           , 0
-0.07809741 , 0.109023593 , -9.775207   , 0.000618540565, -0.00203881715, 0.000275011524, -0.223944992, -0.1295672  , 0.453552663 , -0.009939288, -0.009287662, 2.638386    , 2.67        , 3           , 11          , 0.00758363772, 0.007583629
-0.116553508, 0.105483085 , -9.795855   , 0.002297367 , 0.000788284466, -0.00282066 , -0.223944992, -0.1295672  , 0.453552663 , -0.009916051, -0.009280062, 2.6383574   , 2.68        , 3           , 12          , 0.04871446  , 0
-0.09214165 , 0.106057517 , -9.783461   , -0.00165456184, 0.00047998302, -0.00170938077, -0.223607928, -0.129634619, 0.453350425 , -0.009932438, -0.009275432, 2.63834071  , 2.69        , 3           , 50          , 0           , 0
-0.0839762539, 0.106420547 , -9.785658   , 0.00169985311, 0.0007723327, -0.00028022952, -0.223742753, -0.129297554, 0.453552663 , -0.009976431, -0.009289445, 2.63833833  , 2.7         , 3           , 11          , 0.00748740369, 0.007487393
-0.108549081, 0.09232519  , -9.80217552 , 0.00198834576, -0.000352015166, 0.0005669639, -0.22367534 , -0.129297554, 0.453620076 , -0.009956599, -0.009292909, 2.638344    , 2.71        , 3           , 12          , 0.0496547557, 0
-0.100196972, 0.0705961362, -9.810337   , -0.00337095745, -0.00179613079, 0.000257235 , -0.22367534 , -0.129297554, 0.453620076 , -0.009990335, -0.009310843, 2.638347    , 2.72        , 3           , 50          , 0           , 0
-0.0699225  , 0.0719750449, -9.7893095  , -0.0019434893, -0.004883797, 0.000259046355, -0.223540515, -0.129364967, 0.453283    , -0.0100097992, -0.009359653, 2.63834977  , 2.73        , 3           , 11          , 0.00748740369, 0.007487393
-0.07796444 , 0.07974635  , -9.791146   , -0.00169377716, 0.0015941069, -0.0008598059, -0.22367534 , -0.1294998  , 0.4537549   , -0.0100266552, -0.009343799, 2.63834119  , 2.74        , 3           , 12          , 0.0496547557, 0
-0.104884669, 0.09633394  , -9.799418   , -0.00170058373, 0.00300193322, -0.0005750988, -0.223877579, -0.129297554, 0.453620076 , -0.0100436043, -0.00931383949, 2.63833547  , 2.75        , 3           , 50          , 0           , 0
-0.102525286, 0.10441903  , -9.796655   , -0.000271558616, -0.000367297267, -0.0002911838, -0.223540515, -0.1295672  , 0.45348525  , -0.010046294, -0.00931754149, 2.63833261  , 2.76        , 3           , 11          , 0.00748740369, 0.007487393
-0.0962668657, 0.103832968 , -9.778531   , 0.00282021752, 0.00246935873, -0.001967583, -0.223540515, -0.1295672  , 0.45348525  , -0.0100179054, -0.009293047, 2.63831258  , 2.77        , 3           , 12          , 0.0496547557, 0
-0.0945730954, 0.0912187845, -9.790321   , -0.002831359, 0.00327585987, -1.48578256E-05, -0.223742753, -0.129364967, 0.453620076 , -0.0100462148, -0.009260291, 2.63831162  , 2.78        , 3           , 50          , 0           , 0
-0.09032317 , 0.06817657  , -9.79626    , -0.000281642948, 0.0016036568, -0.0008532213, -0.22367534 , -0.129364967, 0.45348525  , -0.010048951, -0.00924434 , 2.638303    , 2.79        , 3           , 11          , 0.00748740369, 0.007487393
-0.07571121 , 0.110435128 , -9.800493   , 0.00401278026, 0.00161321112, 0.0005785468, -0.223607928, -0.129364967, 0.453620076 , -0.009902897, -0.00926351547, 2.63830829  , 2.8         , 3           , 12          , 0.05060964  , 0
-0.0495810136, 0.09886164  , -9.80441    , 0.00119408837, 0.000467851147, 0.0005636417, -0.223607928, -0.129364967, 0.453620076 , -0.009891009, -0.009258782, 2.63831353  , 2.81        , 3           , 50          , 0           , 0
-0.08670272 , 0.103320092 , -9.793375   , 0.00205342565, -0.002060507, -0.000283925154, -0.223742753, -0.129297554, 0.45348525  , -0.00987045 , -0.009279414, 2.63831115  , 2.82        , 3           , 11          , 0.00739088235, 0.007390871
-0.08831941 , 0.114211328 , -9.805997   , 0.00203792844, 0.001036708 , -0.0005616894, -0.22367534 , -0.129162729, 0.4537549   , -0.009850018, -0.009269104, 2.63830543  , 2.83        , 3           , 12          , 0.05060964  , 0
-0.0852646157, 0.07264473  , -9.800723   , -0.000236330976, 0.004118646 , 0.0002801607, -0.223607928, -0.1294998  , 0.45348525  , -0.009852405, -0.009227891, 2.63830781  , 2.84        , 3           , 50          , 0           , 0
-0.111442536, 0.07257445  , -9.822618   , 0.0006181714, 0.00243498059, -0.00169625436, -0.223607928, -0.1294998  , 0.45348525  , -0.009846062, -0.00920371 , 2.63829064  , 2.85        , 3           , 11          , 0.00739088235, 0.007390871
-0.0743403  , 0.07970534  , -9.791571   , 7.348647E-05, -0.00151074759, -0.000574813341, -0.22367534 , -0.1294998  , 0.4536875   , -0.009845277, -0.00921887252, 2.638285    , 2.86        , 3           , 12          , 0.05060964  , 0
-0.0793303847, 0.084666    , -9.773509   , -0.000504817755, 0.00130108569, 0.00027450436, -0.223742753, -0.12943238 , 0.4538223   , -0.009850349, -0.009205836, 2.63828778  , 2.87        , 3           , 50          , 0           , 0
-0.06930567 , 0.08460046  , -9.7888     , 0.00175968348, 0.00019010283, -0.0005643081, -0.2234731  , -0.1294998  , 0.4537549   , -0.009832701, -0.00920399 , 2.638282    , 2.88        , 3           , 11          , 0.00739088235, 0.007390871
-0.06448476 , 0.105316907 , -9.79365    , 0.000349432783, -0.000101009755, 0.000276285515, -0.2234731  , -0.1294998  , 0.4537549   , -0.009829232, -0.00920497347, 2.638285    , 2.89        , 3           , 12          , 0.05060964  , 0
-0.103058271, 0.09677139  , -9.801662   , -0.00158800452, -0.000611370953, -0.000298538071, -0.223810166, -0.129297554, 0.4536875   , -0.009773992, -0.009084274, 2.638281    , 2.9         , 3           , 50          , 0           , 0
-0.08838017 , 0.102556974 , -9.828646   , -0.000193414307, 0.00277695619, -0.00169943366, -0.223742753, -0.129230142, 0.4536875   , -0.009775769, -0.00905667152, 2.638264    , 2.91        , 3           , 11          , 0.00729479827, 0.007294792
-0.08775501 , 0.09651658  , -9.7794     , 9.761401E-05, 0.00137104827, 0.00112508831, -0.223607928, -0.129634619, 0.4536875   , -0.00977489352, -0.009042852, 2.63827538  , 2.92        , 3           , 12          , 0.05157802  , 0
-0.0975417644, 0.08078047  , -9.762364   , 0.000948913337, 0.0005320822, 0.0008451998, -0.223607928, -0.129634619, 0.4536875   , -0.009765481, -0.009037449, 2.63828349  , 2.93        , 3           , 50          , 0           , 0
-0.1004457  , 0.08951352  , -9.799414   , 0.000376600277, 0.00193608529, -2.87688454E-06, -0.223810166, -0.1294998  , 0.453620076 , -0.009761711, -0.00901809 , 2.638283    , 2.94        , 3           , 11          , 0.00729479827, 0.007294792
-0.0979790241, 0.106612563 , -9.7939     , 0.000950885529, -3.10518735E-05, -0.0005683553, -0.223607928, -0.129634619, 0.4536875   , -0.009752152, -0.009018456, 2.63827729  , 2.95        , 3           , 12          , 0.05157802  , 0
-0.08170575 , 0.107738368 , -9.782923   , -0.005262342, -7.307043E-05, -0.000314790348, -0.223607928, -0.12943238 , 0.453552663 , -0.009804747, -0.009019216, 2.63827443  , 2.96        , 3           , 50          , 0           , 0
-0.08810353 , 0.0988381356, -9.797472   , -0.00243257126, -0.00146180321, -0.00284662819, -0.223607928, -0.12943238 , 0.453552663 , -0.009828817, -0.009034113, 2.63824582  , 2.97        , 3           , 11          , 0.00729479827, 0.007294792
-0.09098876 , 0.0826648548, -9.808409   , -0.00215606135, 0.000229509009, 0.00139535463, -0.223877579, -0.129364967, 0.453552663 , -0.009850505, -0.009031681, 2.63826013  , 2.98        , 3           , 12          , 0.05157802  , 0
-0.09276184 , 0.08628778  , -9.806148   , -0.0010389745, 0.00248966273, -0.00113874348, -0.223877579, -0.129230142, 0.453552663 , -0.00986078847, -0.009006898, 2.63824868  , 2.99        , 3           , 50          , 0           , 0
-0.103911191, 0.0999491662, -9.804368   , 0.00266870717, -2.94958882E-05, 0.00113453821, -0.22367534 , -0.129297554, 0.453620076 , -0.009790004, -0.009026729, 2.63826013  , 3           , 3           , 11          , 0.007199606 , 0.007199596
-0.114339277, 0.09872099  , -9.805357   , 0.000407661049, -4.478347E-05, -0.001701372, -0.22367534 , -0.129297554, 0.453620076 , -0.009785774, -0.009027341, 2.638243    , 3.01        , 3           , 12          , 0.052558884 , 0
-0.08849363 , 0.095323436 , -9.824157   , -0.00381398574, -0.00288907974, -0.000312777818, -0.223810166, -0.129230142, 0.45348525  , -0.009823888, -0.00905626 , 2.63824     , 3.02        , 3           , 50          , 0           , 0
-0.0915607661, 0.105263293 , -9.81736    , 0.0004216011, -0.00286043435, -0.00170571136, -0.22367534 , -0.129230142, 0.453552663 , -0.00981952 , -0.00908503 , 2.638223    , 3.03        , 3           , 11          , 0.007199606 , 0.007199596
-0.0851498544, 0.0816647261, -9.799781   , 0.0006852532, 0.000801818445, -0.00282890326, -0.224079818, -0.129230142, 0.45348525  , -0.009812409, -0.00907729 , 2.6381948   , 3.04        , 3           , 12          , 0.052558884 , 0
-0.08868349 , 0.0907060951, -9.792539   , 0.002952943 , -0.000590720738, -0.000560237444, -0.224079818, -0.129230142, 0.45348525  , -0.00978283 , -0.009083252, 2.63818955  , 3.05        , 3           , 50          , 0           , 0
-0.107293762, 0.0891013   , -9.787264   , 0.00013752823, -0.00229920843, 0.000271601864, -0.2240124  , -0.129230142, 0.453417838 , -0.009781481, -0.009106217, 2.63819242  , 3.06        , 3           , 11          , 0.007199606 , 0.007199596
-0.09694029 , 0.08268106  , -9.792635   , -0.001568674, -5.81501263E-05, -0.0005804405, -0.223944992, -0.1295672  , 0.453552663 , -0.009797115, -0.009106856, 2.63818669  , 3.07        , 3           , 12          , 0.052558884 , 0
-0.10254062 , 0.0936941952, -9.827435   , 0.000971031666, 0.0005221729, 0.000562429545, -0.223810166, -0.129297554, 0.4536875   , -0.009787455, -0.009101579, 2.638192    , 3.08        , 3           , 50          , 0           , 0
-0.110924482, 0.08020999  , -9.813995   , 0.00153957808, -0.000318704755, -0.000283850648, -0.223810166, -0.129297554, 0.4536875   , -0.009772033, -0.009104793, 2.638189    , 3.09        , 3           , 11          , 0.007199606 , 0.007199596
-0.08828819 , 0.0835126   , -9.801605   , 0.000727513048, -0.000377878139, 0.000276483246, -0.223742753, -0.1295672  , 0.45348525  , -0.009693231, -0.009218087, 2.63819146  , 3.1         , 3           , 12          , 0.0535512678, 0
-0.08844833 , 0.0838291943, -9.761378   , -0.00152911351, -0.000956288, 0.0002650799, -0.224079818, -0.129297554, 0.4537549   , -0.009708548, -0.009227625, 2.63819432  , 3.11        , 3           , 50          , 0           , 0
-0.06441568 , 0.0804513842, -9.779739   , -0.000121813973, -0.000102046113, -0.0008571833, -0.22414723 , -0.129297554, 0.4537549   , -0.009709687, -0.009228729, 2.63818574  , 3.12        , 3           , 11          , 0.00710654724, 0.00710654864
-0.05966255 , 0.09263222  , -9.795472   , 0.00101084448, -0.000657535566, -0.000570246, -0.22414723 , -0.129297554, 0.4537549   , -0.009699526, -0.009235359, 2.63818     , 3.13        , 3           , 12          , 0.0535512678, 0
-0.0957706  , 0.102077477 , -9.794806   , 0.00016512115, -0.000944829837, -0.000292093231, -0.2240124  , -0.1295672  , 0.45348525  , -0.009697852, -0.009244835, 2.63817716  , 3.14        , 3           , 50          , 0           , 0
-0.08594057 , 0.0933735445, -9.790247   , -0.000395550451, -0.001793345, -0.000296028884, -0.224282056, -0.129095316, 0.4536875   , -0.00970178 , -0.009262796, 2.6381743   , 3.15        , 3           , 11          , 0.00710654724, 0.00710654864
-0.09362864 , 0.125980839 , -9.79875851 , -0.00153608352, 0.0004515373, 0.0002672496, -0.224079818, -0.1295672  , 0.4536875   , -0.00971716549, -0.009258254, 2.63817716  , 3.16        , 3           , 12          , 0.0535512678, 0
-0.09909203 , 0.123342261 , -9.800167   , 0.0021374377, -8.676714E-05, -0.00112918532, -0.224079818, -0.1295672  , 0.4536875   , -0.00969568547, -0.009259231, 2.63816571  , 3.17        , 3           , 50          , 0           , 0
-0.06645787 , 0.0980653   , -9.777423   , 0.00353644718, 0.00273843762, 0.000294425874, -0.2240124  , -0.1295672  , 0.45348525  , -0.0096603455, -0.00923182 , 2.63816857  , 3.18        , 3           , 11          , 0.00710654724, 0.00710654864
-0.07972072 , 0.08338287  , -9.792953   , -0.000400637073, -0.0006670823, 0.0005533191, -0.2240124  , -0.129297554, 0.453620076 , -0.009664402, -0.009238437, 2.6381743   , 3.19        , 3           , 12          , 0.0535512678, 0
-0.0960594863, 0.07684779  , -9.805307   , 0.00127876317, -0.0006259614, 0.00112681522, -0.224079818, -0.129364967, 0.4536875   , -0.009684524, -0.009181806, 2.63818622  , 3.2         , 3           , 50          , 0           , 0
-0.0891005248, 0.09877469  , -9.775332   , -0.0006909283, -0.002047155, 0.00168050209, -0.224079818, -0.129297554, 0.453417838 , -0.009691589, -0.009202112, 2.63820338  , 3.21        , 3           , 11          , 0.007014771 , 0.007014759
-0.09888019 , 0.107519433 , -9.792094   , 0.002115307 , 0.00135071937, -0.000561421155, -0.224079818, -0.129297554, 0.453417838 , -0.009670382, -0.00918866 , 2.63819718  , 3.22        , 3           , 12          , 0.0545542836, 0
-0.08983381 , 0.107405558 , -9.789766   , 0.00183385855, 0.00134881411, 0.00113248662, -0.224079818, -0.129364967, 0.453552663 , -0.009652145, -0.009175064, 2.63820863  , 3.23        , 3           , 50          , 0           , 0
-0.09457554 , 0.09300223  , -9.783986   , -0.000142224511, 0.00105387683, 0.000275221682, -0.223944992, -0.129230142, 0.4538223   , -0.009653592, -0.009164499, 2.63821149  , 3.24        , 3           , 11          , 0.007014771 , 0.007014759
-0.09598403 , 0.09074579  , -9.779035   , -0.00126807613, 0.000201540184, -0.000296422571, -0.224079818, -0.129634619, 0.453417838 , -0.009666245, -0.009162512, 2.63820863  , 3.25        , 3           , 12          , 0.0545542836, 0
-0.08294161 , 0.106960855 , -9.815478   , 0.00127392856, 0.000218730711, -2.03293166E-06, -0.224079818, -0.129634619, 0.453417838 , -0.009653505, -0.009160326, 2.63820863  , 3.26        , 3           , 50          , 0           , 0
-0.0599917  , 0.106128253 , -9.782311   , 0.002120883 , 0.000224459043, -0.000563156849, -0.223944992, -0.129364967, 0.453620076 , -0.009632245, -0.009158134, 2.638203    , 3.27        , 3           , 11          , 0.007014771 , 0.007014759
-0.08265102 , 0.101914257 , -9.791994   , -0.0001380425, 0.000209181628, 0.000273919868, -0.224079818, -0.129364967, 0.4538223   , -0.009633649, -0.009156017, 2.63820577  , 3.28        , 3           , 12          , 0.0545542836, 0
-0.08022172 , 0.108716927 , -9.810479   , 0.000411313929, 0.00331021659, -1.21045741E-06, -0.223877579, -0.1295672  , 0.453417838 , -0.009629534, -0.009122917, 2.63820481  , 3.29        , 3           , 50          , 0           , 0
-0.0829042643, 0.08206965  , -9.793886   , -0.00328110741, -6.504631E-05, -0.00228317734, -0.223877579, -0.1295672  , 0.453417838 , -0.009741437, -0.009061866, 2.63818336  , 3.3         , 3           , 11          , 0.00692475354, 0.00692473864
-0.09646429 , 0.096531406 , -9.753703   , -0.001011119, -0.002020718, -0.000862991961, -0.223742753, -0.129364967, 0.4536875   , -0.009751473, -0.009082156, 2.63817477  , 3.31        , 3           , 12          , 0.0555670932, 0
-0.0995629355, 0.08635995  , -9.80394    , -0.00158277934, -0.000616711855, -0.0005809187, -0.22367534 , -0.129162729, 0.4537549   , -0.009767246, -0.00908838 , 2.638169    , 3.32        , 3           , 50          , 0           , 0
-0.101339087, 0.09087308  , -9.79805851 , -0.00328865554, 0.00162434787, -0.000867886352, -0.223742753, -0.129297554, 0.453620076 , -0.009800053, -0.009072223, 2.63816     , 3.33        , 3           , 11          , 0.00692475354, 0.00692473864
-0.08722189 , 0.099254474 , -9.790233   , 0.00122443459, 0.00278116739, -0.0011276172, -0.223742753, -0.129297554, 0.453620076 , -0.009787702, -0.009044521, 2.63814855  , 3.34        , 3           , 12          , 0.0555670932, 0
-0.07811604 , 0.101420544 , -9.795125   , 0.000390679 , 0.0002413562, 0.0005597514, -0.2234731  , -0.129162729, 0.4536875   , -0.009783846, -0.009042053, 2.63815427  , 3.35        , 3           , 50          , 0           , 0
-0.0887230039, 0.09022773  , -9.784406   , 0.00265567  , -0.0008696244, 0.0005685511, -0.22367534 , -0.129162729, 0.4538223   , -0.009757342, -0.009050692, 2.63816     , 3.36        , 3           , 11          , 0.00692475354, 0.00692473864
-0.0819667354, 0.07985316  , -9.808804   , -0.000724762, -0.00258193281, 0.0011152192, -0.223405689, -0.129297554, 0.453552663 , -0.009764692, -0.009076402, 2.63817143  , 3.37        , 3           , 12          , 0.0555670932, 0
-0.102123082, 0.09901652  , -9.801646   , -0.001025222, 0.0007949318, -0.00114119018, -0.223405689, -0.129297554, 0.453552663 , -0.00977483951, -0.009068564, 2.63816     , 3.38        , 3           , 50          , 0           , 0
-0.07439183 , 0.108155869 , -9.798233   , 0.00124337233, -0.000879175, 0.000279428961, -0.2234731  , -0.129162729, 0.4536875   , -0.00976243149, -0.009077328, 2.63816285  , 3.39        , 3           , 11          , 0.00692475354, 0.00692473864
-0.08239497 , 0.08791267  , -9.788886   , 0.00434560841, -0.0008487563, -0.00111857825, -0.223607928, -0.12896049 , 0.4538223   , -0.009727089, -0.009064726, 2.63815236  , 3.4         , 3           , 12          , 0.05658891  , 0
-0.103517994, 0.102573633 , -9.781302   , 0.00404669065, 0.00280968775, 0.0017111206, -0.223540515, -0.129297554, 0.4537549   , -0.009686774, -0.009036464, 2.638169    , 3.41        , 3           , 50          , 0           , 0
-0.08867955 , 0.096065484 , -9.776244   , 0.001785808 , 0.002794401 , -0.000842251931, -0.223540515, -0.129297554, 0.4537549   , -0.009668836, -0.009008602, 2.63816047  , 3.42        , 3           , 11          , 0.00683748955, 0.006837474
-0.0942993  , 0.103492096 , -9.81784    , -0.00244731712, 0.00220262352, -1.5261583E-05, -0.223338276, -0.129297554, 0.4538223   , -0.009693307, -0.008986579, 2.63816     , 3.43        , 3           , 12          , 0.05658891  , 0
-0.07619858 , 0.109073371 , -9.796434   , 0.00123743038, -0.000306629518, 0.00112810312, -0.223270863, -0.129095316, 0.4537549   , -0.009681034, -0.008989535, 2.63817143  , 3.44        , 3           , 50          , 0           , 0
-0.0692379847, 0.09045787  , -9.786516   , 0.00150436012, 0.00279249577, 0.0008516558, -0.223270863, -0.129230142, 0.4536875   , -0.009666067, -0.00896152947, 2.63817954  , 3.45        , 3           , 11          , 0.00683748955, 0.006837474
-0.09139022 , 0.09163877  , -9.792103   , 0.00151181954, 0.00138467259, 0.0016970986, -0.223270863, -0.129230142, 0.4536875   , -0.009651098, -0.00894752 , 2.63819623  , 3.46        , 3           , 12          , 0.05658891  , 0
-0.1090518  , 0.08782654  , -9.804458   , -0.00469976151, 0.0007795182, -2.79667438E-05, -0.223068625, -0.129162729, 0.4536875   , -0.009698092, -0.008939727, 2.63819623  , 3.47        , 3           , 50          , 0           , 0
-0.09094052 , 0.0925236642, -9.78848    , -0.00215685251, 0.0005151414, -0.000581623, -0.22320345 , -0.129095316, 0.4539571   , -0.009719608, -0.008934633, 2.63819051  , 3.48        , 3           , 11          , 0.00683748955, 0.006837474
-0.0870034844, 0.08477602  , -9.779443   , 0.00292806141, 0.00026795498, -0.000840889639, -0.22320345 , -0.129095316, 0.453889728 , -0.009690252, -0.008932035, 2.638182    , 3.49        , 3           , 12          , 0.05658891  , 0
-0.07300806 , 0.0796682239, -9.7852335  , -0.00326486025, -0.002598197, -0.00200444483, -0.22320345 , -0.129095316, 0.453889728 , -0.009706057, -0.00897788 , 2.638162    , 3.5         , 3           , 50          , 0           , 0
-0.0788222849, 0.0838128   , -9.78978    , -0.00045453207, 0.00023655346, -0.0019869362, -0.223001212, -0.12896049 , 0.453889728 , -0.009710423, -0.008975707, 2.63814235  , 3.51        , 3           , 11          , 0.006751622 , 0.00675161
-0.07754502 , 0.07748227  , -9.790249   , 0.0009562078, 0.0005276684, -0.00197991752, -0.223270863, -0.1290279  , 0.454091936 , -0.009700683, -0.008970623, 2.6381228   , 3.52        , 3           , 12          , 0.05761902  , 0
-0.0828189254, 0.0941902548, -9.775756   , 0.00266076461, -0.00115025451, 0.0008507551, -0.223068625, -0.12943238 , 0.453889728 , -0.009674153, -0.008982043, 2.63813138  , 3.53        , 3           , 50          , 0           , 0
-0.0755373761, 0.09368884  , -9.786098   , 0.000390939269, 0.0008054181, -0.000286892464, -0.223068625, -0.12943238 , 0.453889728 , -0.009670216, -0.00897401851, 2.638128    , 3.54        , 3           , 11          , 0.006751622 , 0.00675161
-0.09266099 , 0.0966355354, -9.797517   , 0.00348025351, 0.004205206 , -0.00139734894, -0.223068625, -0.1290279  , 0.453889728 , -0.00963528547, -0.00893210247, 2.63811374  , 3.55        , 3           , 12          , 0.05761902  , 0
-0.06518125 , 0.09084152  , -9.780608   , 0.0006723872, 0.000807323435, -0.00198080065, -0.223405689, -0.128893077, 0.454091936 , -0.009628383, -0.008924221, 2.63809371  , 3.56        , 3           , 50          , 0           , 0
-0.109938629, 0.09811841  , -9.775947   , -0.000168012062, -0.000324660446, 0.000273812679, -0.223270863, -0.12896049 , 0.4539571   , -0.009630087, -0.008927439, 2.63809657  , 3.57        , 3           , 11          , 0.006751622 , 0.00675161
-0.1226041  , 0.10006278  , -9.773324   , 0.00632067164, 0.00112709345, 2.373432E-05, -0.223270863, -0.12896049 , 0.4539571   , -0.009566883, -0.008916167, 2.638097    , 3.58        , 3           , 12          , 0.05761902  , 0
-0.101832591, 0.09129174  , -9.786762   , 0.000130075088, -0.00341996457, 0.0008354313, -0.223270863, -0.1290279  , 0.453889728 , -0.00956566 , -0.008950284, 2.63810563  , 3.59        , 3           , 50          , 0           , 0
-0.07743722 , 0.11722064  , -9.799575   , 0.0006690823, 0.00219021714, -0.0005661326, -0.223540515, -0.129162729, 0.454091936 , -0.009552091, -0.008988006, 2.6381      , 3.6         , 3           , 11          , 0.00666842563, 0.00666841632
-0.08733381 , 0.0915758163, -9.787553   , -0.00102366949, 0.00161562243, -0.002270127, -0.223270863, -0.129162729, 0.4539571   , -0.009562122, -0.008972069, 2.638077    , 3.61        , 3           , 12          , 0.0586567335, 0
-0.09163769 , 0.102076516 , -9.80878448 , -0.000731158361, -0.000353421521, -0.00170677272, -0.223270863, -0.129162729, 0.4539571   , -0.009569281, -0.008975766, 2.63805985  , 3.62        , 3           , 50          , 0           , 0
-0.07310994 , 0.10049     , -9.804131   , 0.0006697349, 0.0021902204, 0.000564017158, -0.223136038, -0.1290279  , 0.453889728 , -0.009562632, -0.008953809, 2.63806558  , 3.63        , 3           , 11          , 0.00666842563, 0.00666841632
-0.06337666 , 0.124663442 , -9.780905   , 0.0006802343, -6.230349E-05, -0.000569604046, -0.223338276, -0.129162729, 0.454024523 , -0.009555778, -0.008954488, 2.63805985  , 3.64        , 3           , 12          , 0.0586567335, 0
-0.07300551 , 0.115750536 , -9.780563   , 0.000113245267, 0.0004970099, 0.0005587797, -0.22320345 , -0.129230142, 0.4539571   , -0.009554695, -0.008949463, 2.63806558  , 3.65        , 3           , 50          , 0           , 0
-0.09367083 , 0.09432994  , -9.779454   , 0.000388049462, 0.001906742 , -0.0005678835, -0.223136038, -0.129095316, 0.4537549   , -0.009550761, -0.008930451, 2.63805938  , 3.66        , 3           , 11          , 0.00666842563, 0.00666841632
-0.0849432349, 0.09388362  , -9.81102848 , -0.00129552267, -0.000357239129, -0.000861794, -0.223136038, -0.129095316, 0.4537549   , -0.009563642, -0.008934107, 2.63805079  , 3.67        , 3           , 12          , 0.0586567335, 0
-0.07139975 , 0.09503074  , -9.796907   , 0.00208358956, 0.00191820657, 0.00113524287, -0.223136038, -0.1290279  , 0.4539571   , -0.009542904, -0.008914817, 2.63806176  , 3.68        , 3           , 50          , 0           , 0
-0.08179548 , 0.09472149  , -9.802864   , 0.002085473 , 0.00163664378, 0.00198242138, -0.2229338  , -0.129095316, 0.4539571   , -0.009522226, -0.008898262, 2.63808179  , 3.69        , 3           , 11          , 0.00666842563, 0.00666841632
-0.07206743 , 0.111749083 , -9.801364   , 0.00121552334, 0.000807712146, -0.0005652134, -0.223136038, -0.129162729, 0.4537549   , -0.009572428, -0.008837404, 2.63807654  , 3.7         , 3           , 12          , 0.0597014055, 0
-0.09032533 , 0.102915987 , -9.79476    , -0.00104012445, 0.000229307014, 0.001118608 , -0.223136038, -0.129162729, 0.4537549   , -0.009582928, -0.008835004, 2.63808751  , 3.71        , 3           , 50          , 0           , 0
-0.0884801745, 0.106046744 , -9.792925   , 0.001214945 , 0.001089281 , 0.000847907737, -0.223136038, -0.129230142, 0.453889728 , -0.009570852, -0.00882403 , 2.638096    , 3.72        , 3           , 11          , 0.00658766925, 0.006587649
-0.08017524 , 0.121252425 , -9.781499   , 0.0009264527, 0.00221362943, 7.140625E-07, -0.22320345 , -0.128825665, 0.454159349 , -0.009561585, -0.008801894, 2.638096    , 3.73        , 3           , 12          , 0.0597014055, 0
-0.08852528 , 0.105563842 , -9.783437   , -0.00131828047, -0.000898869534, -0.00114474446, -0.223068625, -0.1290279  , 0.453889728 , -0.00957466848, -0.008810991, 2.63808465  , 3.74        , 3           , 50          , 0           , 0
-0.0892424  , 0.08839367  , -9.774021   , -0.0010415928, 0.000229299971, -0.00142422912, -0.223068625, -0.1290279  , 0.453889728 , -0.009584959, -0.008808835, 2.63807034  , 3.75        , 3           , 11          , 0.00658766925, 0.006587649
-0.1116631  , 0.104458809 , -9.776837   , -0.00217327219, 0.0007847941, -1.59418851E-05, -0.223001212, -0.129364967, 0.453889728 , -0.00960669 , -0.008800989, 2.63807034  , 3.76        , 3           , 12          , 0.0597014055, 0
-0.09922545 , 0.114307135 , -9.796589   , 0.0009381828, -0.000320460385, -0.00141587853, -0.223136038, -0.128825665, 0.454091936 , -0.009597184, -0.00880433 , 2.638056    , 3.77        , 3           , 50          , 0           , 0
-0.08073949 , 0.109115958 , -9.793305   , 9.56483054E-05, -0.000889311137, 0.00196975237, -0.223136038, -0.12896049 , 0.4536875   , -0.009596401, -0.008813033, 2.638076    , 3.78        , 3           , 11          , 0.00658766925, 0.006587649
-0.08285424 , 0.08925179  , -9.783008   , 0.0009428543, -0.00116515334, -0.0005695679, -0.223136038, -0.12896049 , 0.4536875   , -0.009586924, -0.008824739, 2.63807034  , 3.79        , 3           , 12          , 0.0597014055, 0
-0.0951069742, 0.0849095   , -9.790804   , 0.00201202044, 0.003904525 , 0.0005739937, -0.223068625, -0.12896049 , 0.4539571   , -0.009658091, -0.008801165, 2.638077    , 3.8         , 3           , 50          , 0           , 0
-0.0894288  , 0.110932358 , -9.766697   , 0.000316969934, 0.00389306224, -0.000281520159, -0.22320345 , -0.12896049 , 0.4539571   , -0.009654893, -0.008762263, 2.63807321  , 3.81        , 3           , 11          , 0.0065086945, 0.006508682
-0.06439008 , 0.117445067 , -9.777779   , 0.005965507 , 0.003931262 , -0.000255181483, -0.223068625, -0.129230142, 0.4538223   , -0.009595212, -0.008722979, 2.63807034  , 3.82        , 3           , 12          , 0.0607524477, 0
-0.0925774  , 0.103844866 , -9.794773   , 0.00316977059, -0.00171913637, 0.0008531202, -0.223068625, -0.129230142, 0.4538223   , -0.00956358947, -0.008740086, 2.638079    , 3.83        , 3           , 50          , 0           , 0
-0.114904128, 0.0959574   , -9.786842   , -0.00218920573, -0.0031632504, 0.00110846641, -0.223270863, -0.1290279  , 0.4538223   , -0.009585582, -0.008771612, 2.63809037  , 3.84        , 3           , 11          , 0.0065086945, 0.006508682
-0.0845643  , 0.089801304 , -9.806069   , 0.003440304 , 0.0008168625, 0.00198849244, -0.223136038, -0.1290279  , 0.4538223   , -0.009551353, -0.008763252, 2.6381104   , 3.85        , 3           , 12          , 0.0607524477, 0
-0.09323658 , 0.089399755 , -9.790771   , -0.0005067756, -0.0008992745, -0.000575385347, -0.22320345 , -0.129162729, 0.4538223   , -0.00955637 , -0.008772301, 2.63810468  , 3.86        , 3           , 50          , 0           , 0
-0.106433086, 0.0863762   , -9.785008   , 0.000346080866, -0.002019805, -0.000573170255, -0.22320345 , -0.129162729, 0.4538223   , -0.009552861, -0.008792553, 2.638099    , 3.87        , 3           , 11          , 0.0065086945, 0.006508682
-0.0786456838, 0.125838682 , -9.808588   , 0.00204703351, -0.00313460152, 0.000845682749, -0.223136038, -0.1290279  , 0.453889728 , -0.00953246653, -0.008823816, 2.638108    , 3.88        , 3           , 12          , 0.0607524477, 0
-0.08055615 , 0.122655019 , -9.794604   , 0.00119786977, -0.00285876868, -5.446549E-06, -0.223338276, -0.1290279  , 0.4539571   , -0.00952049 , -0.008852402, 2.63810849  , 3.89        , 3           , 50          , 0           , 0
-0.0986289755, 0.08949679  , -9.8007555  , -0.001672481, -0.00260539562, -0.0005828786, -0.223136038, -0.12943238 , 0.4538223   , -0.009652362, -0.00890213251, 2.63810372  , 3.9         , 3           , 11          , 0.00643138727, 0.00643137563
-0.0953356  , 0.100718722 , -9.794807   , -0.0008240584, -0.00259966031, 0.0013988344, -0.223136038, -0.12943238 , 0.4538223   , -0.009660729, -0.008927993, 2.638118    , 3.91        , 3           , 12          , 0.06180929  , 0
-0.07487786 , 0.108580582 , -9.788743   , 0.000290893047, 0.000223626557, -4.245958E-06, -0.223338276, -0.129162729, 0.4536875   , -0.009657823, -0.008925756, 2.638118    , 3.92        , 3           , 50          , 0           , 0
-0.08349834 , 0.105096556 , -9.796055   , 0.00169761432, 0.00135943759, 0.0002866119, -0.223405689, -0.129230142, 0.453889728 , -0.009640869, -0.008912135, 2.638121    , 3.93        , 3           , 11          , 0.00643138727, 0.00643137563
-0.07553789 , 0.08788586  , -9.804653   , -0.00168969843, 0.0007733829, -0.00142528373, -0.223068625, -0.12896049 , 0.4538223   , -0.009657639, -0.008904539, 2.63810658  , 3.94        , 3           , 12          , 0.06180929  , 0
-0.09555316 , 0.07867126  , -9.812529   , 0.0005677438, 0.00135179679, -1.19328615E-06, -0.223068625, -0.12896049 , 0.4538223   , -0.00965196 , -0.008891022, 2.63810658  , 3.95        , 3           , 50          , 0           , 0
-0.0966330841, 0.0722917   , -9.790416   , -0.002525174, -0.00148486439, -0.000302556145, -0.223338276, -0.129095316, 0.4537549   , -0.009677186, -0.008905899, 2.63810372  , 3.96        , 3           , 11          , 0.00643138727, 0.00643137563
-0.101515755, 0.08135656  , -9.785444   , -0.0019682697, -7.322374E-05, -0.00199297769, -0.223405689, -0.12896049 , 0.453889728 , -0.00969669 , -0.008906824, 2.6380837   , 3.97        , 3           , 12          , 0.06180929  , 0
-0.09615288 , 0.116869509 , -9.764463   , 0.0005673431, 0.001070223 , -0.00310953963, -0.223338276, -0.12896049 , 0.4539571   , -0.00969074 , -0.008896424, 2.6380527   , 3.98        , 3           , 50          , 0           , 0
-0.07547232 , 0.103561245 , -9.770237   , -0.00308240531, -0.0028965068, 0.00082279  , -0.223338276, -0.12896049 , 0.4539571   , -0.009721639, -0.00892530847, 2.63806081  , 3.99        , 3           , 11          , 0.00643138727, 0.00643137563
-0.09453866 , 0.0974956   , -9.778544   , 0.00309738214, 0.00248870556, -0.000835124869, -0.223338276, -0.1290279  , 0.453552663 , -0.00970695447, -0.00891794 , 2.63805318  , 4           , 3           , 12          , 0.06287141  , 0
-0.080421336, 0.100967228 , -9.786557   , 0.0002986952, -0.00259856344, -8.492818E-06, -0.223338276, -0.1290279  , 0.4536875   , -0.009703969, -0.008943925, 2.63805318  , 4.01        , 3           , 50          , 0           , 0
-0.08280145 , 0.08750917  , -9.801546   , 0.00225616712, 0.00135671755, 6.80080848E-06, -0.223270863, -0.129162729, 0.4537549   , -0.009681406, -0.008930358, 2.63805318  , 4.02        , 3           , 11          , 0.006356543 , 0.00635651546
-0.10491626 , 0.09139849  , -9.807575   , 0.00226863148, -0.00117736845, -0.000138373158, -0.223270863, -0.129162729, 0.4537549   , -0.009658708, -0.008942144, 2.63805223  , 4.03        , 3           , 12          , 0.06287141  , 0
-0.07862994 , 0.09691283  , -9.794696   , 0.00240267464, 9.06249261E-05, -0.0016897181, -0.22320345 , -0.129095316, 0.453620076 , -0.00963453 , -0.008941401, 2.638035    , 4.04        , 3           , 50          , 0           , 0
-0.08329559 , 0.08703461  , -9.792965   , 0.0008547769, -0.000905355, -0.0007095988, -0.223270863, -0.128758252, 0.4537549   , -0.009625921, -0.008950522, 2.63802838  , 4.05        , 3           , 11          , 0.006356543 , 0.00635651546
-0.1086193  , 0.08557303  , -9.806724   , -0.000127814652, -0.00203829864, -0.000150868946, -0.22320345 , -0.128893077, 0.4539571   , -0.009627189, -0.008970919, 2.63802648  , 4.06        , 3           , 12          , 0.06287141  , 0
-0.0811513141, 0.106476329 , -9.8118515  , -0.00111987512, -0.00134107121, -0.000295662147, -0.22320345 , -0.128893077, 0.4539571   , -0.009638362, -0.008984357, 2.638024    , 4.07        , 3           , 50          , 0           , 0
-0.06765547 , 0.106245816 , -9.790504   , -0.00154823123, -0.000358457532, -1.358128E-05, -0.22320345 , -0.128825665, 0.453620076 , -0.009653841, -0.008987944, 2.63802361  , 4.08        , 3           , 11          , 0.006356543 , 0.00635651546
-0.06843402 , 0.0841160044, -9.782016   , 4.74556145E-06, -0.0002071686, 0.000558953732, -0.22320345 , -0.128758252, 0.453889728 , -0.009653846, -0.00898996 , 2.63802934  , 4.09        , 3           , 12          , 0.06287141  , 0
-0.08018735 , 0.08739412  , -9.776668   , -0.000556897, -0.0010389688, 0.000131466048, -0.22320345 , -0.128623426, 0.4538223   , -0.009661429, -0.008954592, 2.63803124  , 4.1         , 3           , 50          , 0           , 0
-0.08702735 , 0.112802595 , -9.794242   , -0.002110326, -0.001049474, -1.704583E-05, -0.22320345 , -0.128825665, 0.453552663 , -0.009682532, -0.008965088, 2.63803124  , 4.11        , 3           , 11          , 0.00628425041, 0.00628422666
-0.100424983, 0.09488652  , -9.787189   , -0.000418389944, -0.00047488336, 0.000274261 , -0.22320345 , -0.128825665, 0.453552663 , -0.009686742, -0.008969812, 2.638034    , 4.12        , 3           , 12          , 0.06393832  , 0
-0.09406611 , 0.0939355   , -9.79482651 , -0.000133582813, -0.00103610544, -0.000431633554, -0.22320345 , -0.128623426, 0.4537549   , -0.009688039, -0.008980214, 2.63803029  , 4.13        , 3           , 50          , 0           , 0
-0.0845935941, 0.08799216  , -9.804722   , 0.000140153774, 0.0006551935, -0.0009927879, -0.223338276, -0.1290279  , 0.453889728 , -0.00968655 , -0.008973758, 2.6380198   , 4.14        , 3           , 11          , 0.00628425041, 0.00628422666
-0.101622336, 0.100835465 , -9.807511   , 0.00126600522, 0.00150753011, -0.0004211435, -0.223270863, -0.12896049 , 0.453552663 , -0.009673849, -0.008958725, 2.63801551  , 4.15        , 3           , 12          , 0.06393832  , 0
-0.0883945748, 0.108347856 , -9.806475   , 0.0004263472, 9.397792E-05, 0.000702885969, -0.223270863, -0.12896049 , 0.453552663 , -0.009669648, -0.008957717, 2.63802266  , 4.16        , 3           , 50          , 0           , 0
-0.0775880963, 0.107278675 , -9.794644   , -0.00112786039, 0.000224254865, 0.0004133224, -0.223270863, -0.128893077, 0.4538223   , -0.009680963, -0.008955435, 2.63802648  , 4.17        , 3           , 11          , 0.00628425041, 0.00628422666
-0.05284674 , 0.09480372  , -9.794055   , -0.00324331131, -0.000493986066, -0.000869058, -0.223405689, -0.128893077, 0.4539571   , -0.00971332 , -0.00896046 , 2.638018    , 4.18        , 3           , 12          , 0.06393832  , 0
-0.0578301325, 0.0961990058, -9.789116   , -0.002113522, -0.000486345758, -0.0007225216, -0.223405689, -0.128893077, 0.453552663 , -0.00973439 , -0.008965393, 2.63801122  , 4.19        , 3           , 50          , 0           , 0
-0.06290844 , 0.09528564  , -9.768367   , -0.000286200317, -0.000582563167, -0.0007137265, -0.223405689, -0.128893077, 0.453552663 , -0.0097629  , -0.008881058, 2.63800454  , 4.2         , 3           , 11          , 0.00621283427, 0.00621279934
-0.09477583 , 0.109280743 , -9.793412   , -0.000283701462, -0.00100490882, -8.033749E-06, -0.223405689, -0.12896049 , 0.4538223   , -0.009765736, -0.00889110751, 2.63800454  , 4.21        , 3           , 12          , 0.06500956  , 0
-0.09561536 , 0.1129157   , -9.797923   , -0.00127441238, -0.000448460924, 0.000977106 , -0.223136038, -0.128893077, 0.4537549   , -0.009778567, -0.008895496, 2.638014    , 4.22        , 3           , 50          , 0           , 0
-0.08462235 , 0.0919860154, -9.78482    , -0.0011329914, -0.000588290859, 0.0001299351, -0.223270863, -0.128893077, 0.453620076 , -0.009789908, -0.008901365, 2.638016    , 4.23        , 3           , 11          , 0.00621283427, 0.00621279934
-0.0678827  , 0.09133212  , -9.782886   , 0.00125575066, 0.00168046122, -0.00112681813, -0.223270863, -0.128893077, 0.453620076 , -0.009777249, -0.008884672, 2.63800454  , 4.24        , 3           , 12          , 0.06500956  , 0
-0.0839486  , 0.105996609 , -9.793795   , 0.00110904279, 0.002805767 , -0.0009844721, -0.223405689, -0.12896049 , 0.4537549   , -0.00976607 , -0.008856711, 2.637994    , 4.25        , 3           , 50          , 0           , 0
-0.0963899046, 0.12374489  , -9.795172   , -0.000151712229, 0.000826218456, -0.000287092116, -0.223338276, -0.128825665, 0.4537549   , -0.009767559, -0.008848477, 2.63799119  , 4.26        , 3           , 11          , 0.00621283427, 0.00621279934
-0.08537595 , 0.09836869  , -9.801521   , -0.0009876775, -0.00143203128, -1.19769993E-05, -0.223068625, -0.128758252, 0.4536875   , -0.009777437, -0.008862798, 2.63799119  , 4.27        , 3           , 12          , 0.06500956  , 0
-0.09553196 , 0.079581134 , -9.814784   , -0.00253754016, -0.002146449, -2.030498E-05, -0.223068625, -0.128758252, 0.4536875   , -0.009802813, -0.008884263, 2.63799119  , 4.28        , 3           , 50          , 0           , 0
-0.07335748 , 0.0833281055, -9.79877949 , -0.00113704742, 0.000115619332, -0.0008578611, -0.223270863, -0.128825665, 0.4536875   , -0.009814108, -0.008883192, 2.63798261  , 4.29        , 3           , 11          , 0.00621283427, 0.00621279934
-0.05082682 , 0.1150374   , -9.779944   , 0.00124989753, 0.00267755473, -0.000136191462, -0.223405689, -0.128893077, 0.4538223   , -0.009806053, -0.008823018, 2.63798165  , 4.3         , 3           , 12          , 0.06608468  , 0
-0.07183041 , 0.104873687 , -9.770655   , 0.00181934109, 0.00183668127, 0.0005714842, -0.223068625, -0.129095316, 0.4536875   , -0.009787909, -0.008804597, 2.63798738  , 4.31        , 3           , 50          , 0           , 0
-0.08143619 , 0.08928421  , -9.797461   , 0.0002713249, 0.000699914934, 0.000138699033, -0.223068625, -0.129095316, 0.4536875   , -0.009785208, -0.008797584, 2.63798833  , 4.32        , 3           , 11          , 0.006143638 , 0.00614361046
-0.09257135 , 0.0993862748, -9.810611   , 0.0005543672, 0.000561041932, -1.46962975E-06, -0.22320345 , -0.128893077, 0.4538223   , -0.009779663, -0.008791974, 2.63798833  , 4.33        , 3           , 12          , 0.06608468  , 0
-0.06758947 , 0.08227053  , -9.772977   , 0.00238751667, 0.00113658758, 0.0002904958, -0.223270863, -0.128825665, 0.4539571   , -0.009755812, -0.00878058 , 2.63799119  , 4.34        , 3           , 50          , 0           , 0
-0.0776539445, 0.109010704 , -9.772943   , 0.000692177156, 0.0012659101, 0.0001415424, -0.223338276, -0.129230142, 0.4538223   , -0.009748901, -0.008767908, 2.63799262  , 4.35        , 3           , 11          , 0.006143638 , 0.00614361046
-0.106950156, 0.0800805   , -9.789558   , -0.0005737387, 0.000131052147, -0.000855000631, -0.223338276, -0.129230142, 0.4538223   , -0.009754564, -0.008766682, 2.637984    , 4.36        , 3           , 12          , 0.06608468  , 0
-0.103821151, 0.07822509  , -9.785475   , -0.000568859745, -0.000854425656, -0.0008565194, -0.223338276, -0.129162729, 0.4538223   , -0.009760177, -0.008775308, 2.637976    , 4.37        , 3           , 50          , 0           , 0
-0.101543218, 0.104470365 , -9.815178   , -0.0009932786, -0.0007165084, -0.0009995465, -0.223270863, -0.12896049 , 0.453889728 , -0.009770023, -0.00878257 , 2.63796544  , 4.38        , 3           , 11          , 0.006143638 , 0.00614361046
-0.09620683 , 0.104327969 , -9.79163551 , -0.000154198962, 0.0009786127, -0.000710454769, -0.22367534 , -0.128893077, 0.4536875   , -0.009771501, -0.008772857, 2.63795877  , 4.39        , 3           , 12          , 0.06608468  , 0
-0.0872733444, 0.0951956138, -9.790701   , 0.00112224068, -0.000291162083, -0.000141351833, -0.22367534 , -0.128893077, 0.4536875   , -0.009763443, -0.008809167, 2.63795781  , 4.4         , 3           , 50          , 0           , 0
-0.0996066  , 0.08275376  , -9.804858   , 0.00141294987, -0.001978643, -0.000283907139, -0.223405689, -0.128893077, 0.4537549   , -0.00974929 , -0.00882898 , 2.63795543  , 4.41        , 3           , 11          , 0.00607618876, 0.006076166
-0.08683768 , 0.0947300643, -9.787989   , -0.0005668257, -0.00142888271, -0.000292257784, -0.223338276, -0.128893077, 0.453889728 , -0.009754933, -0.008843297, 2.63795257  , 4.42        , 3           , 12          , 0.0671633   , 0
-0.09547691 , 0.08855274  , -9.799379   , 0.0001341994, -0.0004386307, -0.000569984142, -0.223338276, -0.1290279  , 0.453620076 , -0.009753542, -0.008847739, 2.63794732  , 4.43        , 3           , 50          , 0           , 0
-0.119444892, 0.09109023  , -9.799552   , 0.00252457988, 0.00154855743, -0.00140336528, -0.223338276, -0.1290279  , 0.453620076 , -0.009728171, -0.00883239 , 2.637933    , 4.44        , 3           , 11          , 0.00607618876, 0.006076166
-0.0883689746, 0.08523254  , -9.776288   , 0.00167537131, 0.00196517585, -0.00112412754, -0.223270863, -0.129297554, 0.453620076 , -0.009711315, -0.00881284848, 2.63792157  , 4.45        , 3           , 12          , 0.0671633   , 0
-0.0760386959, 0.101242766 , -9.749911   , 0.00196636259, 0.000418482 , 0.000428758765, -0.2234731  , -0.12896049 , 0.4539571   , -0.00969169 , -0.008808622, 2.63792539  , 4.46        , 3           , 50          , 0           , 0
-0.08521927 , 0.113671556 , -9.79061    , 0.0002815596, -0.00156393333, 0.000417819654, -0.223338276, -0.12896049 , 0.4537549   , -0.009688912, -0.008824221, 2.63793015  , 4.47        , 3           , 11          , 0.00607618876, 0.006076166
-0.118056573, 0.08618873  , -9.822612   , -0.00113344425, -0.00101035333, 0.0002708341, -0.223338276, -0.12896049 , 0.4537549   , -0.00970027 , -0.008834299, 2.637933    , 4.48        , 3           , 12          , 0.0671633   , 0
-0.09855335 , 0.09089711  , -9.81476    , -0.00100301218, 0.0011023382, -0.000290327851, -0.2234731  , -0.128758252, 0.4538223   , -0.009710275, -0.008823303, 2.63792968  , 4.49        , 3           , 50          , 0           , 0
-0.08600037 , 0.09064698  , -9.784383   , -0.00226640329, -5.84189365E-05, -0.00171076343, -0.223405689, -0.129230142, 0.453889728 , -0.00972440653, -0.008902213, 2.637914    , 4.5         , 3           , 11          , 0.00601063  , 0.006010609
-0.07499155 , 0.103578605 , -9.777014   , -0.000849108, -0.000893559656, -1.02557351E-05, -0.223540515, -0.129364967, 0.453889728 , -0.009732897, -0.008911152, 2.637914    , 4.51        , 3           , 12          , 0.06824502  , 0
-0.09332647 , 0.08888057  , -9.770434   , -0.000421863951, -0.00145382073, 0.00140353921, -0.223540515, -0.129364967, 0.453889728 , -0.009737243, -0.008925551, 2.63792825  , 4.52        , 3           , 50          , 0           , 0
-0.101809226, 0.09264973  , -9.788111   , -0.00126733538, -0.00202268572, -0.000296504382, -0.223405689, -0.129162729, 0.453620076 , -0.00974989 , -0.008945804, 2.63792539  , 4.53        , 3           , 11          , 0.00601063  , 0.006010609
-0.103517085, 0.0936473757, -9.81026649 , -0.002253575, -0.00245171739, -1.922699E-05, -0.2234731  , -0.12896049 , 0.4537549   , -0.009772426, -0.008970322, 2.63792539  , 4.54        , 3           , 12          , 0.06824502  , 0
-0.07588351 , 0.101814866 , -9.786067   , -0.00267656264, -0.002454579, 0.00110894744, -0.223405689, -0.129297554, 0.453620076 , -0.009799293, -0.008994758, 2.63793683  , 4.55        , 3           , 50          , 0           , 0
-0.07270834 , 0.112048306 , -9.754361   , 0.0015472935, 0.000108155975, 0.00113260688, -0.223270863, -0.129095316, 0.453620076 , -0.009783924, -0.008993568, 2.63794827  , 4.56        , 3           , 11          , 0.00601063  , 0.006010609
-0.0780877545, 0.109477766 , -9.776109   , 0.00239318  , 0.000395451032, 0.00113699154, -0.223270863, -0.129095316, 0.453620076 , -0.009760093, -0.008989502, 2.63795924  , 4.57        , 3           , 12          , 0.06824502  , 0
-0.0662542954, 0.103586458 , -9.809489   , 0.000132578993, 0.0005209515, 0.0002790607, -0.223540515, -0.12896049 , 0.453889728 , -0.009758792, -0.008984265, 2.637962    , 4.58        , 3           , 50          , 0           , 0
-0.112104312, 0.09733188  , -9.802634   , 0.000126387531, 0.00178799464, 0.000422282174, -0.223405689, -0.12896049 , 0.4538223   , -0.009757564, -0.008966344, 2.637966    , 4.59        , 3           , 11          , 0.00601063  , 0.006010609
-0.10818892 , 0.08554957  , -9.801296   , -0.0008718464, 0.00135777844, 0.0002759517, -0.223270863, -0.1290279  , 0.4536875   , -0.009802608, -0.008956399, 2.63796973  , 4.6         , 3           , 12          , 0.06932951  , 0
-0.09351228 , 0.102046356 , -9.793432   , 0.00025511728, 0.00178776286, -0.000848279567, -0.223270863, -0.1290279  , 0.4536875   , -0.009799977, -0.008938606, 2.63796067  , 4.61        , 3           , 50          , 0           , 0
-0.103959039, 0.100803077 , -9.789902   , 0.00180956966, 0.00165748724, -0.000134909758, -0.223270863, -0.129230142, 0.4537549   , -0.009781867, -0.008922044, 2.63795972  , 4.62        , 3           , 11          , 0.00594689  , 0.00594686
-0.09132324 , 0.08633684  , -9.825571   , -0.00114344736, -0.0008966537, -0.000293911726, -0.223405689, -0.129095316, 0.453889728 , -0.009793276, -0.008931039, 2.63795686  , 4.63        , 3           , 12          , 0.06932951  , 0
-0.09215267 , 0.09355077  , -9.821028   , -0.00115082529, 0.000511169666, -0.0009980857, -0.22320345 , -0.129364967, 0.4536875   , -0.009804696, -0.008926026, 2.63794637  , 4.64        , 3           , 50          , 0           , 0
-0.121590659, 0.09969323  , -9.800888   , 0.000669859641, 0.00362080149, -0.000560946064, -0.22320345 , -0.129364967, 0.4536875   , -0.009797942, -0.008889873, 2.63794065  , 4.65        , 3           , 11          , 0.00594689  , 0.00594686
-0.09241259 , 0.09512557  , -9.752322   , 0.0003982956, 0.00150715536, 0.000140826116, -0.2234731  , -0.128893077, 0.4537549   , -0.009793971, -0.008874788, 2.637942    , 4.66        , 3           , 12          , 0.06932951  , 0
-0.09271987 , 0.102836743 , -9.76314    , 0.0008309525, -0.000179366863, 0.00127034762, -0.223405689, -0.129162729, 0.453889728 , -0.009785772, -0.008876457, 2.637955    , 4.67        , 3           , 50          , 0           , 0
-0.0728615448, 0.123901479 , -9.789568   , 0.00083193864, -0.000460933923, 0.0005635701, -0.223338276, -0.129162729, 0.4537549   , -0.009777504, -0.008881011, 2.63796067  , 4.68        , 3           , 11          , 0.00594689  , 0.00594686
-0.06809375 , 0.103138439 , -9.804081   , 0.000277050567, -0.00257649436, -0.0002899306, -0.223338276, -0.129162729, 0.4537549   , -0.009774711, -0.008906802, 2.63795781  , 4.69        , 3           , 12          , 0.06932951  , 0
-0.07649109 , 0.08651884  , -9.797434   , 0.00167035987, -0.00200748234, 0.000141504686, -0.223405689, -0.12896049 , 0.4537549   , -0.009809476, -0.008938465, 2.6379602   , 4.7         , 3           , 50          , 0           , 0
-0.07786745 , 0.08741291  , -9.79021    , 0.00194463017, -0.000456966722, -0.0007024041, -0.223540515, -0.128893077, 0.454024523 , -0.009789967, -0.008943103, 2.637953    , 4.71        , 3           , 11          , 0.005884966 , 0.005884936
-0.0901934057, 0.0874747857, -9.765897   , 0.000530731457, -4.41673365E-05, -0.00014326282, -0.223405689, -0.129230142, 0.4539571   , -0.009784647, -0.008943559, 2.637952    , 4.72        , 3           , 12          , 0.07041641  , 0
-0.09236996 , 0.0871258   , -9.788513   , 0.000248260185, 9.470833E-05, 0.0009857871, -0.223405689, -0.129230142, 0.4539571   , -0.009782252, -0.008942515, 2.63796163  , 4.73        , 3           , 50          , 0           , 0
-0.07134456 , 0.09909261  , -9.797344   , -0.000309786556, -0.00131693785, 0.0006984461, -0.223338276, -0.129297554, 0.453889728 , -0.009785414, -0.008955616, 2.63796878  , 4.74        , 3           , 11          , 0.005884966 , 0.005884936
-0.1042253  , 0.116135448 , -9.786224   , -0.00115653314, -0.001463451, 0.000411740766, -0.223607928, -0.128893077, 0.4538223   , -0.009797015, -0.008970208, 2.637973    , 4.75        , 3           , 12          , 0.07041641  , 0
-0.071739465, 0.116998836 , -9.753881   , 0.00011774664, -0.0020179837, 0.00140568009, -0.223405689, -0.12896049 , 0.4537549   , -0.009795968, -0.008990249, 2.63798738  , 4.76        , 3           , 50          , 0           , 0
-0.07373876 , 0.09945997  , -9.764365   , 0.00167376339, -0.00271139527, -8.48922355E-07, -0.223405689, -0.12896049 , 0.4537549   , -0.009779232, -0.009017361, 2.63798738  , 4.77        , 3           , 11          , 0.005884966 , 0.005884936
-0.07612689 , 0.087780796 , -9.771663   , 0.000674080336, -0.000606345653, -0.00127362215, -0.223270863, -0.129095316, 0.4537549   , -0.009772377, -0.009023549, 2.637975    , 4.78        , 3           , 12          , 0.07041641  , 0
-0.0979637653, 0.107071251 , -9.796158   , -0.000745357363, 0.0010735   , 0.0005588903, -0.223338276, -0.1290279  , 0.454024523 , -0.009779881, -0.00901276 , 2.6379807   , 4.79        , 3           , 50          , 0           , 0
-0.132882535, 0.10208036  , -9.800514   , -0.00033019323, 0.0003811602, 0.000136242437, -0.2234731  , -0.129162729, 0.4538223   , -0.009821066, -0.008980796, 2.63798261  , 4.8         , 3           , 11          , 0.00582486438, 0.005824839
-0.106204085, 0.09861322  , -9.80168    , 0.0002375299, -0.0001781496, 0.0002792772, -0.2234731  , -0.129162729, 0.4538223   , -0.009818716, -0.00898255 , 2.63798547  , 4.81        , 3           , 12          , 0.071505405 , 0
-0.08032052 , 0.111315    , -9.777926   , -0.00116833125, -0.00145474239, 0.000270739867, -0.223405689, -0.129095316, 0.4537549   , -0.009830424, -0.008997069, 2.63798833  , 4.82        , 3           , 50          , 0           , 0
-0.100651436, 0.0759563   , -9.792691   , -0.00201068842, -0.00258673565, -0.0008650966, -0.223607928, -0.128893077, 0.4538223   , -0.009850455, -0.009023019, 2.63797975  , 4.83        , 3           , 11          , 0.00582486438, 0.005824839
-0.08384031 , 0.116350412 , -9.786971   , -0.0007524768, -4.405574E-05, -0.00113780249, -0.223405689, -0.1290279  , 0.453889728 , -0.009857877, -0.009023571, 2.6379683   , 4.84        , 3           , 12          , 0.071505405 , 0
-0.07474136 , 0.116725504 , -9.79594    , 8.934635E-05, 0.00122872076, 0.0002807884, -0.223405689, -0.1290279  , 0.453889728 , -0.009857007, -0.009011257, 2.63797116  , 4.85        , 3           , 50          , 0           , 0
-0.06196874 , 0.09351727  , -9.78238    , -0.00117813365, 0.0006569989, 0.00140414422, -0.223405689, -0.129095316, 0.4538223   , -0.009868915, -0.009004549, 2.63798547  , 4.86        , 3           , 11          , 0.00582486438, 0.005824839
-0.06763382 , 0.102692544 , -9.807243   , -0.000193161948, 0.00122681039, 0.000138202813, -0.2234731  , -0.128825665, 0.453889728 , -0.009870859, -0.008992268, 2.63798642  , 4.87        , 3           , 12          , 0.071505405 , 0
-0.086784035, 0.0992370546, -9.786613   , 0.00206211512, 0.0019459998, -0.0009803267, -0.223405689, -0.12896049 , 0.454024523 , -0.009850148, -0.008972905, 2.637977    , 4.88        , 3           , 50          , 0           , 0
-0.06236109 , 0.104730308 , -9.761092   , 0.00107526  , 0.00165775116, -0.0005615639, -0.223405689, -0.12896049 , 0.454024523 , -0.009839343, -0.008956384, 2.63797069  , 4.89        , 3           , 11          , 0.00582486438, 0.005824839
-0.0667602941, 0.10220959  , -9.800911   , -0.000203906064, 0.0005420521, -0.000568838033, -0.22320345 , -0.1294998  , 0.453889728 , -0.009886997, -0.008887759, 2.637966    , 4.9         , 3           , 12          , 0.0725962   , 0
-0.0608857162, 0.09900662  , -9.808111   , -0.0006205764, -0.0008686382, -0.0005729831, -0.223270863, -0.12896049 , 0.4539571   , -0.009893154, -0.008896504, 2.63796067  , 4.91        , 3           , 50          , 0           , 0
-0.0892174542, 0.0817186162, -9.80162    , -0.001186127, -0.0007316756, -0.0005754  , -0.223540515, -0.129162729, 0.4539571   , -0.009904964, -0.008903878, 2.637955    , 4.92        , 3           , 11          , 0.00576631632, 0.005766277
-0.09820504 , 0.090807125 , -9.789448   , -0.0003458165, 0.000681879639, -0.000569279538, -0.223540515, -0.129162729, 0.4539571   , -0.009908371, -0.008897115, 2.63794923  , 4.93        , 3           , 12          , 0.0725962   , 0
-0.104065008, 0.08598766  , -9.811659   , -0.0002029644, 0.000401270721, -0.000145248778, -0.223540515, -0.1290279  , 0.4539571   , -0.00991039 , -0.008893117, 2.63794732  , 4.94        , 3           , 50          , 0           , 0
-0.0635149255, 0.0764197   , -9.791502   , 0.000227972152, -0.0010036882, 0.000419631862, -0.223338276, -0.128758252, 0.454091936 , -0.009908146, -0.00890311 , 2.63795161  , 4.95        , 3           , 11          , 0.00576631632, 0.005766277
-0.08648476 , 0.09330478  , -9.768104   , -5.027264E-05, -0.00185029313, 0.000417013158, -0.2234731  , -0.12896049 , 0.454159349 , -0.009908687, -0.008921571, 2.637956    , 4.96        , 3           , 12          , 0.0725962   , 0
-0.0838721246, 0.113646552 , -9.787887   , -0.00132221659, -0.00171810715, -0.00015377102, -0.2234731  , -0.12896049 , 0.454159349 , -0.009921897, -0.008938767, 2.637955    , 4.97        , 3           , 50          , 0           , 0
-0.100965649, 0.08946441  , -9.783146   , 0.0006498923, -0.0007192598, -0.000143033714, -0.223270863, -0.12896049 , 0.453889728 , -0.009915386, -0.008945974, 2.637953    , 4.98        , 3           , 11          , 0.00576631632, 0.005766277
-0.101057604, 0.08358735  , -9.779555   , 0.00134735054, 0.0009749045, -0.000560943852, -0.22367534 , -0.128893077, 0.454024523 , -0.009901864, -0.00893628 , 2.63794732  , 4.99        , 3           , 12          , 0.0725962   , 0
-0.0766709  , 0.110401914 , -9.787393   , -0.000192810272, 0.000119251585, -0.000286850234, -0.223405689, -0.12896049 , 0.454024523 , -0.009873936, -0.008936638, 2.63794541  , 5           , 3           , 50          , 0           , 0
-0.04767903 , 0.108287334 , -9.79622    , -0.0006105482, -0.00100987207, 0.00027451347, -0.223405689, -0.12896049 , 0.454024523 , -0.009880068, -0.00894670747, 2.63794827  , 5.01        , 3           , 11          , 0.005709327 , 0.00570929376
-0.06814763 , 0.100863032 , -9.798216   , -0.000909495458, 0.00222621416, -0.0005694255, -0.223405689, -0.129095316, 0.453889728 , -0.00988911 , -0.008924502, 2.63794255  , 5.02        , 3           , 12          , 0.07368853  , 0
-0.0886431038, 0.08984612  , -9.805198   , -0.000909087539, 0.002226216 , 0.000136918155, -0.223405689, -0.129230142, 0.454091936 , -0.00989821 , -0.00890222751, 2.63794351  , 5.03        , 3           , 50          , 0           , 0
-0.0744379461, 0.0711455643, -9.795222   , -0.0007533187, -0.0007292629, -8.24848E-06, -0.223540515, -0.128758252, 0.454159349 , -0.009905743, -0.008909521, 2.63794351  , 5.04        , 3           , 11          , 0.005709327 , 0.00570929376
-0.07551475 , 0.09147541  , -9.798762   , 0.000233454819, -0.0004410144, -0.000568280229, -0.223338276, -0.1290279  , 0.4539571   , -0.009903358, -0.008913987, 2.63793778  , 5.05        , 3           , 12          , 0.07368853  , 0
-0.09432031 , 0.115526527 , -9.773948   , 0.00121436326, 0.00111427892, -0.00042001548, -0.223338276, -0.1290279  , 0.4539571   , -0.00989117753, -0.008902885, 2.637934    , 5.06        , 3           , 50          , 0           , 0
-0.0998384356, 0.104362942 , -9.789404   , 0.00136156066, -1.10243491E-05, 0.000285250921, -0.223338276, -0.128825665, 0.454091936 , -0.009877588, -0.008902967, 2.63793683  , 5.07        , 3           , 11          , 0.005709327 , 0.00570929376
-0.06183017 , 0.10702005  , -9.77283    , 0.00249610236, -0.000848076656, 0.00141936669, -0.2234731  , -0.1290279  , 0.454226762 , -0.009852753, -0.008911308, 2.63795114  , 5.08        , 3           , 12          , 0.07368853  , 0
-0.07006499 , 0.09588835  , -9.788307   , 0.00136504532, -0.0007149372, 0.000284166075, -0.223338276, -0.1290279  , 0.453889728 , -0.009839129, -0.008918429, 2.637954    , 5.09        , 3           , 50          , 0           , 0
-0.09692855 , 0.0884931   , -9.776791   , -0.0018844381, -0.00142178475, 0.000126980231, -0.223338276, -0.1290279  , 0.453889728 , -0.009875157, -0.008867067, 2.637956    , 5.1         , 3           , 11          , 0.005653745 , 0.00565370871
