Acc X       , Acc Y       , Acc Z       , Gyro X      , Gyro Y      , Gyro Z      , Magn X      , Magn Y      , Magn Z      , Euler X     , Euler Y     , Euler Z     , Time        , Status      , LowRate X   , LowRate Y   , LowRate Z    
0.007773578 , -0.009728614, -9.782274   , 0.00123878  , -0.0009757246, -0.0005105095, -0.514830768, -0.057233382, 0.324726969 , 0.002149861 , -0.000100568293, 3.029548    , 0           , 3           , 11          , 0.0346410163, 0.0346410163
-0.0129429847, -0.0374396257, -9.788875   , 0.0017255228, 0.000576226565, -0.000223280731, -0.514830768, -0.0570985563, 0.324794382 , 0.00216711638, -9.480123E-05, 3.02954555  , 0.01        , 3           , 12          , 0.0346410163, 0
-0.0166036338, -0.0490332954, -9.816974   , 0.00164962211, 0.00184279669, 0.00147356768, -0.514830768, -0.0570985563, 0.324794382 , 0.0021836115, -7.640541E-05, 3.02956033  , 0.02        , 3           , 14          , 0.000252292433, 0.0005850658
-0.005037575, -0.0284344  , -9.81047249 , 0.000469339284, -0.00231840834, 0.0005433234, -0.515707135, -0.05716597 , 0.3259404   , 0.00218830467, -9.960131E-05, 3.029566    , 0.03        , 3           , 15          , 0           , -6.61634E-05
-0.00157441373, -0.0344084054, -9.790584   , 0.0005407061, -0.00252910587, 4.88865226E-05, -0.516313851, -0.0570311435, 0.3249292   , 0.002193712 , -0.00012489337, 3.029566    , 0.04        , 3           , 50          , 0           , 0
0.002126431 , -0.0290310718, -9.79234    , 3.133265E-05, 0.0004239827, -0.000796474167, -0.5146285  , -0.05716597 , 0.3249292   , 0.00219402649, -0.00012063609, 3.02955842  , 0.05        , 3           , 11          , 0.0346410163, 0.0346410163
0.00825723  , -0.0159578249, -9.809867   , 2.58196123E-05, 0.0014798505, -0.0012892877, -0.5146285  , -0.05716597 , 0.3249292   , 0.00219428563, -0.000105809333, 3.029545    , 0.06        , 3           , 12          , 0.0346410163, 0
0.0171647128, -0.0300211031, -9.818444   , -0.000523440249, -0.00141000526, 0.000963930448, -0.5159094  , -0.0573007949, 0.3260078   , 0.0021890502, -0.000119930482, 3.029555    , 0.07        , 3           , 14          , 0.000252292433, 0.0005850658
0.009091671 , -0.0137943374, -9.785445   , 0.00136988319, 0.00120736333, 0.000694296148, -0.516246438, -0.0570311435, 0.324794382 , 0.00220274832, -0.000107872096, 3.02956223  , 0.08        , 3           , 15          , 0           , -6.61634E-05
0.00291893445, -0.008229002, -9.80852    , 0.0029313725, -0.000541916466, -0.0002900539, -0.5146285  , -0.0570311435, 0.3248618   , 0.00223206216, -0.000113284768, 3.02955937  , 0.09        , 3           , 50          , 0           , 0
0.00106739812, -0.007347773, -9.795875   , 0.00109082262, 0.000360754115, -0.0007210097, -0.5146285  , -0.0570311435, 0.3248618   , 0.00224297238, -0.00010964922, 3.02955174  , 0.1         , 3           , 11          , 0.0346410163, 0.0346410163
0.0080403965, -0.02684593 , -9.791834   , -0.000681770965, 0.00203821179, 0.0008979535, -0.515774548, -0.0570311435, 0.326075226 , 0.0022361537, -8.928725E-05, 3.0295608   , 0.11        , 3           , 12          , 0.0346410163, 0
-0.0161252487, -0.0120449448, -9.815008   , 0.0015069776, 0.001982621 , 0.0002017076, -0.516246438, -0.0570311435, 0.3249292   , 0.002251223 , -6.946559E-05, 3.02956319  , 0.12        , 3           , 14          , 0.000252292433, 0.000585065631
-0.0130728427, -0.016640529, -9.800993   , 0.00214473647, 0.00142378558, -0.000643809559, -0.514763355, -0.0573007949, 0.325198859 , 0.00227267086, -5.52131969E-05, 3.02955651  , 0.13        , 3           , 15          , 0           , -6.616358E-05
0.006103296 , -0.0358537436, -9.790078   , 0.00123373768, 9.752603E-06, -0.0007915281, -0.514763355, -0.0573007949, 0.325198859 , 0.00228500855, -5.50976256E-05, 3.029549    , 0.14        , 3           , 50          , 0           , 0
0.00347345974, -0.02414634 , -9.773778   , -0.00010951369, 0.000423029647, -0.000161423217, -0.5159768  , -0.057233382, 0.3260078   , 0.00228391378, -5.086366E-05, 3.029547    , 0.15        , 3           , 11          , 0.0346410163, 0.0346410163
0.009630349 , -0.0462394841, -9.800037   , -0.00024000874, -0.00161926926, 0.0008942877, -0.5164487  , -0.0570985563, 0.3249292   , 0.00228151283, -6.7076704E-05, 3.02955556  , 0.16        , 3           , 12          , 0.0346410163, 0
0.0159298349, -0.04679227 , -9.791857   , -0.0008057819, -0.00155270065, -9.711878E-05, -0.514763355, -0.05716597 , 0.325064033 , 0.00227345526, -8.260147E-05, 3.02955461  , 0.17        , 3           , 14          , 0.000252292433, 0.000585065631
0.00150941592, -0.004237366, -9.783202   , -0.00166736939, 0.00125721854, -0.0007324396, -0.514763355, -0.05716597 , 0.325064033 , 0.00225678226, -7.001273E-05, 3.029548    , 0.18        , 3           , 15          , 0           , -6.616358E-05
-0.00302763935, -0.009101509, -9.796818   , -0.000597420963, -0.00105853414, -0.001861231, -0.515841961, -0.05696373 , 0.326142639 , 0.00225080946, -8.055613E-05, 3.02952886  , 0.19        , 3           , 50          , 0           , 0
-0.0108250557, -0.0157874841, -9.794192   , -0.0003966935, 0.00126581278, -0.00115031877, -0.516246438, -0.0570985563, 0.324726969 , 0.00224684551, -6.786248E-05, 3.02951741  , 0.2         , 3           , 11          , 0.0346694328, 0.0346694328
0.010340658 , -0.02818212 , -9.80493    , -0.000674715731, 0.0004896014, -0.000163947741, -0.5148982  , -0.057233382, 0.325131446 , 0.00224009831, -6.296279E-05, 3.029516    , 0.21        , 3           , 12          , 0.0346692465, 0
0.01948975  , -0.025534654, -9.81886    , 0.0005325496, -0.0009804998, -0.0007963382, -0.5148982  , -0.057233382, 0.325131446 , 0.00224542455, -7.27499137E-05, 3.02950788  , 0.22        , 3           , 14          , 0.000252292375, 0.00058506534
0.007865169 , -0.0394857265, -9.789629   , 0.00285439217, 0.0006542559, -0.00106551591, -0.5159768  , -0.05696373 , 0.3260078   , 0.00227396935, -6.618332E-05, 3.02949739  , 0.23        , 3           , 15          , 0           , -6.616444E-05
0.007860456 , -0.0408285968, -9.792798   , -0.0003245111, 0.00105511874, -0.00023206808, -0.5160442  , -0.05696373 , 0.32499662  , 0.00227072416, -5.56268642E-05, 3.029495    , 0.24        , 3           , 50          , 0           , 0
-0.0267422274, -0.0165506117, -9.780306   , 0.000518732064, 0.00183515192, -0.000580095861, -0.5149656  , -0.0570985563, 0.325266272 , 0.002275912 , -3.72622162E-05, 3.02948928  , 0.25        , 3           , 11          , 0.0346694328, 0.0346694328
-0.02277371 , -0.02204099 , -9.77171    , 0.00101588934, 0.00127536443, -0.000366755965, -0.5149656  , -0.0570985563, 0.325266272 , 0.00228607119, -2.45002448E-05, 3.029486    , 0.26        , 3           , 12          , 0.0346692465, 0
-0.0129690394, -0.009861174, -9.80458    , 0.0005200372, 0.00183515786, 0.00168020383, -0.5161116  , -0.05696373 , 0.3260078   , 0.00229127123, -6.187198E-06, 3.02950215  , 0.27        , 3           , 14          , 0.000252292375, 0.00058506534
-0.0161891133, -0.0152211469, -9.809599   , 0.0008060527, 0.00106276281, 0.00125652121, -0.5159768  , -0.0570311435, 0.324794382 , 0.00229933159, 4.411573E-06, 3.029515    , 0.28        , 3           , 15          , 0           , -6.616444E-05
0.0108570764, -0.0227796659, -9.803095   , 0.002014056 , -0.0005481207, 0.0006945481, -0.514830768, -0.0573007949, 0.325198859 , 0.00231947168, -1.08566019E-06, 3.02952218  , 0.29        , 3           , 50          , 0           , 0
-0.009169632, -0.0221838262, -9.776579   , 0.00342590432, -0.0005385728, 0.000206691955, -0.514830768, -0.0573007949, 0.325198859 , 0.00235372852, -6.48741843E-06, 3.029524    , 0.3         , 3           , 11          , 0.0347551219, 0.0347551219
-0.00328682619, -0.0218093377, -9.774272   , 0.000174392175, 2.588797E-06, -0.00122027227, -0.5159768  , -0.05716597 , 0.326075226 , 0.00235547288, -6.43273233E-06, 3.02951169  , 0.31        , 3           , 12          , 0.03475475  , 0
-0.0123910131, -0.0293302685, -9.787029   , -0.00292888447, -0.000511155056, 0.0004597068, -0.5161116  , -0.05716597 , 0.324726969 , 0.00232618372, -1.15549483E-05, 3.02951646  , 0.32        , 3           , 14          , 0.000252292462, 0.000585065864
0.0009841556, -0.0216984339, -9.821698   , -0.00229768758, 0.000337837322, 0.000322703039, -0.5148982  , -0.0573007949, 0.325266272 , 0.002303207 , -8.184055E-06, 3.02951932  , 0.33        , 3           , 15          , 0           , -6.616402E-05
0.0182858724, -0.0106639815, -9.808865   , 0.00172603468, 0.000505836157, 5.91489079E-05, -0.5148982  , -0.0573007949, 0.325266272 , 0.00232046749, -3.12707562E-06, 3.02952027  , 0.34        , 3           , 50          , 0           , 0
0.020388484 , -0.0170701742, -9.789892   , -0.000459165924, -0.0002128783, 0.000259760767, -0.5159768  , -0.0570311435, 0.3260078   , 0.00231587584, -5.2619E-06 , 3.02952313  , 0.35        , 3           , 11          , 0.0347551219, 0.0347551219
0.0147927282, 0.000195587971, -9.805682   , -0.000741185, -0.0002147863, 0.000964787556, -0.516179   , -0.0570311435, 0.3248618   , 0.00230846368, -7.43204146E-06, 3.02953267  , 0.36        , 3           , 12          , 0.03475475  , 0
0.00147212576, -0.0118555343, -9.798602   , 0.000588559953, 0.00197641063, -0.0007208189, -0.514763355, -0.0570311435, 0.3254011   , 0.0023143494, 1.234869E-05, 3.029525    , 0.37        , 3           , 14          , 0.000252292462, 0.000585065864
0.0148669379, -0.0202022381, -9.778646   , 0.00199801  , 0.00247869827, -0.001137281, -0.514763355, -0.0570311435, 0.3254011   , 0.0023343293, 3.716202E-05, 3.029514    , 0.38        , 3           , 15          , 0           , -6.616402E-05
0.0110091278, -0.0489169843, -9.813598   , 0.00510208076, 0.00306283869, -0.000839389337, -0.516381264, -0.0570311435, 0.3260078   , 0.00238535018, 6.78101E-05 , 3.029506    , 0.39        , 3           , 50          , 0           , 0
-0.00142812636, -0.0307190754, -9.814522   , 9.931055E-05, 0.00112837786, 0.000688263564, -0.516179   , -0.0573682077, 0.3248618   , 0.00238633924, 7.909488E-05, 3.02951264  , 0.4         , 3           , 11          , 0.034897238 , 0.034897238
-0.0188337751, -0.000847657153, -9.781084   , -0.00271399086, -0.00107285019, 0.0009542687, -0.514830768, -0.0570985563, 0.325198859 , 0.0023591998, 6.83437538E-05, 3.02952218  , 0.41        , 3           , 12          , 0.03489667  , 0
0.003339314 , -0.00156532286, -9.77911    , 0.000604275963, -0.0009096234, 0.00174693763, -0.514830768, -0.0570985563, 0.325198859 , 0.00236524385, 5.920636E-05, 3.02953935  , 0.42        , 3           , 14          , 0.000252292724, 0.000585064758
0.006372897 , -0.0191203244, -9.802211   , 0.00201085652, 0.000155793925, 0.00119007472, -0.516179   , -0.0570985563, 0.325738162 , 0.0023853532, 6.073607E-05, 3.02955174  , 0.43        , 3           , 15          , 0           , -6.616554E-05
-0.0122606335, -0.0269928686, -9.811425   , 0.00144850509, -0.000411157554, 0.0006921323, -0.516179   , -0.05716597 , 0.3248618   , 0.00239983876, 5.660794E-05, 3.02955842  , 0.44        , 3           , 50          , 0           , 0
-0.0321492031, -0.0160190426, -9.785316   , 0.00250779116, -0.000474387227, 0.0004144248, -0.515033   , -0.0573007949, 0.325266272 , 0.002424917 , 5.18541128E-05, 3.02956223  , 0.45        , 3           , 11          , 0.034897238 , 0.034897238
0.00436164625, -0.0402396731, -9.821297   , 0.0006070489, -0.00168393261, -9.07491E-05, -0.515033   , -0.0573007949, 0.325266272 , 0.00243098731, 3.50170449E-05, 3.02956128  , 0.46        , 3           , 12          , 0.03489667  , 0
0.00701459171, -0.0407695845, -9.807267   , -0.000175857116, -0.000422141922, -2.17835313E-05, -0.5160442  , -0.057233382, 0.3259404   , 0.00242922874, 3.07961673E-05, 3.02956128  , 0.47        , 3           , 14          , 0.000252292724, 0.000585064758
0.00534025  , -0.0245688614, -9.788682   , 0.0002503858, -0.000912015035, 0.000261969777, -0.516246438, -0.0573007949, 0.324726969 , 0.0024317326, 2.16696644E-05, 3.02956414  , 0.48        , 3           , 15          , 0           , -6.616554E-05
0.0184641127, -0.0265140142, -9.792657   , 0.00250236341, 0.000440694945, -0.00113812089, -0.514763355, -0.0573682077, 0.325198859 , 0.00245675584, 2.61044333E-05, 3.0295527   , 0.49        , 3           , 50          , 0           , 0
0.000614485238, -0.00243270677, -9.780039   , 0.00235266029, 0.00226991624, -0.000147079292, -0.514763355, -0.0573682077, 0.325198859 , 0.002480286 , 4.881347E-05, 3.02955079  , 0.5         , 3           , 11          , 0.0350946635, 0.0350946635
0.00228915177, -0.0181868114, -9.797266   , 0.00165721111, 0.000153404064, 0.0001289115, -0.516313851, -0.0570311435, 0.325805575 , 0.00249685813, 5.03443225E-05, 3.0295527   , 0.51        , 3           , 12          , 0.0350939035, 0
0.0287785288, -0.03028782 , -9.779939   , 0.00088314357, -0.000485372322, -0.0007939332, -0.516179   , -0.0570311435, 0.324794382 , 0.002505689 , 4.551049E-05, 3.029544    , 0.52        , 3           , 14          , 0.0002522925, 0.000585064234
0.00804861449, -0.0232684687, -9.782328   , 0.00109562  , -0.000624722568, -0.0008637969, -0.5148982  , -0.0573682077, 0.325333685 , 0.00251664477, 3.928497E-05, 3.02953553  , 0.53        , 3           , 15          , 0           , -6.616396E-05
0.00276304968, 0.0152271073, -9.805712   , 0.000172527449, 0.00035454618, -0.00143163314, -0.5148982  , -0.0573682077, 0.325333685 , 0.00251836912, 4.28664644E-05, 3.02952123  , 0.54        , 3           , 50          , 0           , 0
0.0051329406, -0.0127595374, -9.810781   , 0.000653776 , 0.00303275813, -0.00100139994, -0.516179   , -0.05716597 , 0.325873    , 0.00252490677, 7.32192E-05 , 3.02951169  , 0.55        , 3           , 11          , 0.0350946635, 0.0350946635
-0.00612403965, -0.008558719, -9.81311    , -0.000319365179, -7.49423634E-07, -0.000374964584, -0.5161116  , -0.0570311435, 0.324659556 , 0.0025217128, 7.322119E-05, 3.02950788  , 0.56        , 3           , 12          , 0.0350939035, 0
-0.0166286081, -0.01743681 , -9.820007   , 0.00178067666, 0.00353313517, -0.00163108215, -0.514763355, -0.0570985563, 0.325198859 , 0.002539518 , 0.0001085937, 3.02949166  , 0.57        , 3           , 14          , 0.0002522925, 0.000585064234
-0.005404135, -0.0176468045, -9.796871   , -0.000459800067, -0.000142486766, -0.000234571256, -0.514763355, -0.0570985563, 0.325198859 , 0.00253492  , 0.000107174776, 3.02948928  , 0.58        , 3           , 15          , 0           , -6.616396E-05
0.0121760229, -0.0205958  , -9.786353   , 0.000100456469, 0.000987598 , 0.001465023 , -0.516246438, -0.057233382, 0.326075226 , 0.002535926 , 0.00011701358, 3.029504    , 0.59        , 3           , 50          , 0           , 0
-0.00480826851, -0.00816283 , -9.801347   , 0.000114230934, -0.0018280535, 0.00117814657, -0.515841961, -0.0570311435, 0.324659556 , 0.0025370426, 9.870493E-05, 3.0295155   , 0.6         , 3           , 11          , 0.0353460535, 0.0353460535
0.008137976 , -0.028552264, -9.82122    , 0.00010161056, 0.000424460275, -0.0013612191, -0.5148982  , -0.0570985563, 0.325333685 , 0.00253805728, 0.000102984028, 3.02950215  , 0.61        , 3           , 12          , 0.0353450961, 0
0.0172019955, -0.022402931, -9.803046   , 0.003502611 , -0.00152356538, 0.00232453365, -0.5148982  , -0.0570985563, 0.325333685 , 0.00257308548, 8.76890263E-05, 3.029525    , 0.62        , 3           , 14          , 0.0002522949, 0.000585064059
0.00310571957, -0.0200549662, -9.781448   , 0.00179895968, -0.000127209962, -0.0013541854, -0.516313851, -0.0573007949, 0.325738162 , 0.002591074 , 8.645191E-05, 3.02951169  , 0.63        , 3           , 15          , 0           , -6.616434E-05
0.00130918063, -0.02046822 , -9.786436   , 0.000396494666, -0.001826144, 0.000896926038, -0.516381264, -0.05716597 , 0.324659556 , 0.00259503978, 6.81672755E-05, 3.02952075  , 0.64        , 3           , 50          , 0           , 0
0.0114337318, -0.0115258517, -9.797169   , -0.00186882226, -0.00071516505, 0.000323051354, -0.5149656  , -0.0570985563, 0.325333685 , 0.002576352 , 6.10072966E-05, 3.029524    , 0.65        , 3           , 11          , 0.0353460535, 0.0353460535
-0.011342003, -0.0269929152, -9.814583   , -0.001018917, -0.001272566, 4.35970323E-05, -0.5149656  , -0.0570985563, 0.325333685 , 0.002566163 , 4.828057E-05, 3.029524    , 0.66        , 3           , 12          , 0.0353450961, 0
-0.0117925918, -0.0265394729, -9.81368    , 0.00406590756, -0.00123818114, 0.002045064 , -0.516313851, -0.0570985563, 0.325805575 , 0.00260682264, 3.58458856E-05, 3.02954459  , 0.67        , 3           , 14          , 0.0002522949, 0.000585064059
0.0180148613, -0.0318620428, -9.810762   , -0.000453410728, -0.001268743, 0.00117638055, -0.5161116  , -0.0568963178, 0.324794382 , 0.00260228873, 2.31278536E-05, 3.02955651  , 0.68        , 3           , 15          , 0           , -6.616434E-05
0.01925413  , -0.0315281339, -9.780469   , -0.00187177339, -0.000152035675, 4.13819653E-05, -0.514830768, -0.05716597 , 0.3254011   , 0.002583571 , 2.16064363E-05, 3.02955651  , 0.69        , 3           , 50          , 0           , 0
0.008150024 , -0.0222935975, -9.804018   , -0.000177702517, -0.00014057642, -0.0007983297, -0.514830768, -0.05716597 , 0.3254011   , 0.00258178846, 2.023809E-05, 3.029549    , 0.7         , 3           , 11          , 0.03564985  , 0.03564985
-0.00329645444, -0.0298514441, -9.79781    , 0.00122901867, 0.0009952344, -0.000507471734, -0.516381264, -0.05696373 , 0.3259404   , 0.00259407866, 3.02035332E-05, 3.029544    , 0.71        , 3           , 12          , 0.0356486849, 0
0.0006448948, -0.00419347174, -9.793153   , -0.00159533811, 0.00125770608, 0.00174009264, -0.5159094  , -0.057233382, 0.324794382 , 0.00257812557, 4.27355553E-05, 3.02956128  , 0.72        , 3           , 14          , 0.0002522955, 0.0005850623
-0.0148499748, -0.0134672523, -9.799186   , -0.00272635068, 0.00125005993, -0.0005254749, -0.5149656  , -0.05696373 , 0.3254685   , 0.00255086157, 5.524957E-05, 3.029556    , 0.73        , 3           , 15          , 0           , -6.616361E-05
-0.00901532 , -0.0202733912, -9.808208   , -0.001301997, -0.00127447746, -0.00108787057, -0.5149656  , -0.05696373 , 0.3254685   , 0.00253784144, 4.253252E-05, 3.029545    , 0.74        , 3           , 50          , 0           , 0
-0.0189138781, -0.0485979  , -9.804334   , -0.000185413955, 0.00154881726, 0.000334423676, -0.516313851, -0.05696373 , 0.325873    , 0.00253598718, 5.801215E-05, 3.02954841  , 0.75        , 3           , 11          , 0.03564985  , 0.03564985
-0.007203953, -0.02252622 , -9.815436   , -0.00356387324, -0.00072662544, -0.000532463251, -0.516179   , -0.0570311435, 0.324592143 , 0.002500348 , 5.075933E-05, 3.02954316  , 0.76        , 3           , 12          , 0.0356486849, 0
-0.0101165129, -0.0378289334, -9.816878   , -0.000191316256, 0.002675076 , -0.000228915349, -0.5149656  , -0.0570985563, 0.3254011   , 0.00249843486, 7.751574E-05, 3.02954125  , 0.77        , 3           , 14          , 0.0002522955, 0.0005850623
-0.0140679432, -0.0242904015, -9.803744   , -0.000177539376, -0.000140575634, -0.00051579217, -0.5149656  , -0.0570985563, 0.3254011   , 0.00249665929, 7.612288E-05, 3.02953553  , 0.78        , 3           , 15          , 0           , -6.616361E-05
-0.009493705, -0.0144862588, -9.783329   , -0.00300468435, 0.000685026171, 0.00173264  , -0.516246438, -0.0570311435, 0.325805575 , 0.002466614 , 8.293013E-05, 3.02955317  , 0.79        , 3           , 50          , 0           , 0
0.0160450879, -0.007047853, -9.80299    , 0.000962089049, -0.00210389355, -0.000231021957, -0.5161116  , -0.0568963178, 0.324726969 , 0.00247623469, 6.187172E-05, 3.02955079  , 0.8         , 3           , 11          , 0.0360043123, 0.0360043123
-0.0154664638, -0.0256460477, -9.798338   , 0.00376142818, 0.00298337848, 7.24956844E-05, -0.5149656  , -0.05716597 , 0.325333685 , 0.002513849 , 9.17035941E-05, 3.02955174  , 0.81        , 3           , 12          , 0.03600294  , 0
0.0028660344, -0.009164567, -9.79858    , 0.00122869248, 0.0009952299, -0.00107254414, -0.5149656  , -0.05716597 , 0.325333685 , 0.00252613472, 0.000101682876, 3.02954078  , 0.82        , 3           , 14          , 0.00025229546, 0.0005850653
0.007261444 , -0.0169129949, -9.790895   , -0.0010273559, 0.000135250972, -0.002497069, -0.516381264, -0.05696373 , 0.325738162 , 0.00251585874, 0.000103098326, 3.029516    , 0.83        , 3           , 15          , 0           , -6.61661E-05
-0.001625021, -0.0322176628, -9.771139   , 0.00151579082, 0.00015244697, -0.000224916614, -0.5160442  , -0.057233382, 0.324592143 , 0.00253101625, 0.000104628467, 3.0295136   , 0.84        , 3           , 50          , 0           , 0
0.006780737 , -0.049439732, -9.777926   , -0.000188691381, 0.00211194227, -0.000512318162, -0.514763355, -0.0570985563, 0.3254011   , 0.00252912869, 0.000125760766, 3.02950883  , 0.85        , 3           , 11          , 0.0360043123, 0.0360043123
0.01779793  , -0.0454283245, -9.801329   , -0.00130322785, -0.0009929145, -0.000804896757, -0.514763355, -0.0570985563, 0.3254011   , 0.00251609553, 0.000115851959, 3.02950025  , 0.86        , 3           , 12          , 0.03600294  , 0
-0.00262761954, -0.0149521409, -9.802714   , 0.00122106983, 0.00240305252, -0.00220052456, -0.516246438, -0.057233382, 0.325670749 , 0.0025283033, 0.000139937925, 3.02947831  , 0.87        , 3           , 14          , 0.00025229546, 0.0005850653
-0.0142487353, -0.00174717885, -9.797776   , 8.758117E-05, 0.00352168153, 0.00090385566, -0.516179   , -0.0570311435, 0.324659556 , 0.00252918061, 0.000175131747, 3.02948785  , 0.88        , 3           , 15          , 0           , -6.61661E-05
-0.000161523, -0.03125571 , -9.793723   , 0.00180477218, -0.0009718986, 0.00146988919, -0.5148982  , -0.0570985563, 0.3254685   , 0.0025472308, 0.000165375488, 3.02950215  , 0.89        , 3           , 50          , 0           , 0
0.00570589863, -0.0264301877, -9.773319   , 0.00151005131, 0.00127870543, -0.000505718, -0.5148982  , -0.0570985563, 0.3254685   , 0.00256232778, 0.000178167073, 3.02949739  , 0.9         , 3           , 11          , 0.03640756  , 0.0364075638
-0.01127391 , -0.0104227867, -9.777903   , 0.00348778022, 0.00101050711, -0.00162708329, -0.516246438, -0.05716597 , 0.325805575 , 0.00259720278, 0.000188314079, 3.02948117  , 0.91        , 3           , 12          , 0.0364059769, 0
-0.00252237916, -0.0112960581, -9.81671    , 0.0006606353, 0.00183610921, 0.000621348736, -0.5159768  , -0.0570985563, 0.324457318 , 0.00260381028, 0.000206658966, 3.02948737  , 0.92        , 3           , 14          , 0.00025229578, 0.000585066329
-0.00135277025, -0.0194992535, -9.796848   , -0.00186513062, -0.001559865, -0.0005258606, -0.514830768, -0.0570311435, 0.3254011   , 0.00258515775, 0.00019107401, 3.02948213  , 0.93        , 3           , 15          , 0           , -6.616646E-05
0.0149384672, -0.0116636269, -9.768667   , 0.00124238024, -0.0015388513, 0.000901313 , -0.514830768, -0.0570311435, 0.3254011   , 0.00259758322, 0.0001756622, 3.02949071  , 0.94        , 3           , 50          , 0           , 0
0.01574069  , -0.0229167547, -9.779555   , -0.00328734913, 0.0004015392, -0.00109448261, -0.516381264, -0.05716597 , 0.325738162 , 0.00256470777, 0.0001797058, 3.02948022  , 0.95        , 3           , 11          , 0.03640756  , 0.0364075638
0.007696976 , -0.0124687795, -9.772342   , -0.00272839773, 0.00153161818, -0.001655188, -0.5161116  , -0.057233382, 0.324659556 , 0.00253742025, 0.00019506416, 3.02946353  , 0.96        , 3           , 12          , 0.0364059769, 0
0.008230652 , -0.0115158549, -9.789057   , 9.143655E-05, 0.00267698336, 0.0003374792, -0.5148982  , -0.0570311435, 0.3254685   , 0.00253833551, 0.000221825336, 3.02946687  , 0.97        , 3           , 14          , 0.00025229578, 0.000585066329
-0.008450972, -0.005458745, -9.787804   , 0.000105376595, -0.000138667354, 0.000333139847, -0.5148982  , -0.0570311435, 0.3254685   , 0.00253939  , 0.000220430171, 3.02947068  , 0.98        , 3           , 15          , 0           , -6.616646E-05
0.00386290229, -0.00419137068, -9.80488    , -0.001307247, -0.000148219551, -0.000521057053, -0.5164487  , -0.0570985563, 0.3259404   , 0.002526316 , 0.000218961184, 3.029465    , 0.99        , 3           , 50          , 0           , 0
-0.0242188834, -0.00610092841, -9.810075   , -0.000171894528, -0.0009852676, 0.0020257486, -0.5161116  , -0.05696373 , 0.324794382 , 0.00252456358, 0.000209059479, 3.02948546  , 1           , 3           , 11          , 0.036857605 , 0.0368576124
-0.006754145, -0.01896315 , -9.803215   , 0.00236741127, -0.000686518266, 6.02728869E-05, -0.514763355, -0.05696373 , 0.325333685 , 0.00254823756, 0.000202192779, 3.029486    , 1.01        , 3           , 12          , 0.0368557945, 0
0.0008918717, -0.0280221086, -9.819465   , 0.002343298 , 0.004381658 , 0.0017633083, -0.514763355, -0.05696373 , 0.325333685 , 0.002571675 , 0.000245964067, 3.029504    , 1.02        , 3           , 14          , 0.000252301 , 0.000585066038
0.0139029361, 0.006467915 , -9.78939152 , -0.000182053191, 0.0007041143, -0.00107955979, -0.5165161  , -0.0570311435, 0.325670749 , 0.00256985147, 0.000253032951, 3.02949262  , 1.03        , 3           , 15          , 0           , -6.61691156E-05
0.0205064286, -0.006262192, -9.783971   , -0.00186850212, -0.000715165457, 0.000888131151, -0.515774548, -0.05696373 , 0.324659556 , 0.00255116867, 0.000245858566, 3.02950215  , 1.04        , 3           , 50          , 0           , 0
0.0132211717, -0.0133517217, -9.797162   , -0.00156778994, -0.00437360071, 0.00116634427, -0.5149656  , -0.05716597 , 0.325333685 , 0.00253549358, 0.000202093055, 3.0295136   , 1.05        , 3           , 11          , 0.036857605 , 0.0368576124
-0.0177400112, 0.009113911 , -9.795046   , 0.004344072 , -0.000673150062, -0.0004955835, -0.5149656  , -0.05716597 , 0.325333685 , 0.002578933 , 0.000195374247, 3.02950835  , 1.06        , 3           , 12          , 0.0368557945, 0
-0.00445604231, -0.00289342413, -9.759739   , -0.000463990553, 0.0007022066, -0.000233264276, -0.5165835  , -0.05696373 , 0.325873    , 0.00257429271, 0.0002024023, 3.029506    , 1.07        , 3           , 14          , 0.000252301 , 0.000585066038
0.0242364369, -0.0369414464, -9.79808    , -0.000167460559, -0.00211153342, 4.62508033E-05, -0.5159768  , -0.05696373 , 0.324659556 , 0.00257261842, 0.000181285839, 3.02950644  , 1.08        , 3           , 15          , 0           , -6.61691156E-05
0.00073648477, -0.03395058 , -9.800507   , 0.0018014895, -0.0004087716, 0.0006231477, -0.514830768, -0.0568289049, 0.325266272 , 0.00259063416, 0.000177182053, 3.02951264  , 1.09        , 3           , 50          , 0           , 0
0.00691059325, -0.0101298271, -9.794033   , 0.0009618265, -0.00182232261, 0.00174718082, -0.514830768, -0.0568289049, 0.325266272 , 0.002600221 , 0.0001589209, 3.02952981  , 1.1         , 3           , 11          , 0.03735236  , 0.037352372
0.006004369 , -0.0110124266, -9.796756   , 0.0001138935, -0.00182805583, 0.00061308  , -0.516313851, -0.0568289049, 0.325603336 , 0.002601361 , 0.000140624456, 3.02953649  , 1.11        , 3           , 12          , 0.0373503119, 0
-0.0134893255, -0.0103568994, -9.789671   , -0.00269200047, -0.005789072, -0.00138392672, -0.5159768  , -0.0570985563, 0.324794382 , 0.00257443963, 8.276976E-05, 3.02952218  , 1.12        , 3           , 14          , 0.000252306054, 0.000585064932
-0.0113642942, -0.0243328772, -9.80056    , -0.0007430561, -0.000144401332, -0.001648567, -0.514695942, -0.0568963178, 0.3254685   , 0.00256700744, 8.136812E-05, 3.029506    , 1.13        , 3           , 15          , 0           , -6.617271E-05
0.00296748336, -0.0331111327, -9.789639   , -0.000184445613, 0.00154881936, 0.00202965783, -0.514695942, -0.0568963178, 0.3254685   , 0.00256516482, 9.68041859E-05, 3.029526    , 1.14        , 3           , 50          , 0           , 0
0.000502496958, -0.02037746 , -9.810396   , -0.00159690587, 0.001539268 , 0.00145799806, -0.5165161  , -0.0568289049, 0.325738162 , 0.00254919729, 0.000112159512, 3.02954078  , 1.15        , 3           , 11          , 0.03735236  , 0.037352372
-0.00266228523, -0.0189973842, -9.807251   , 0.00263433577, 0.00241260813, -0.0002161708, -0.5159768  , -0.0570985563, 0.32452473  , 0.00257554022, 0.00013629107, 3.02953839  , 1.16        , 3           , 12          , 0.0373503119, 0
-0.00135221519, -0.0212842  , -9.802731   , 0.00265278388, -0.00124773651, 0.000343262771, -0.514830768, -0.05696373 , 0.3254011   , 0.00260206847, 0.000123804857, 3.02954221  , 1.17        , 3           , 14          , 0.000252306054, 0.000585064932
-0.0118155386, -0.0247726664, -9.802373   , -0.00129266456, -0.00296386564, 0.000604759553, -0.514830768, -0.05696373 , 0.3254011   , 0.00258914265, 9.415061E-05, 3.029548    , 1.18        , 3           , 15          , 0           , -6.617271E-05
-0.009535475, -0.0256788637, -9.809139   , 0.000387303677, -0.000136758317, -0.0005131492, -0.516381264, -0.05696373 , 0.325805575 , 0.002593015 , 9.279633E-05, 3.02954316  , 1.19        , 3           , 50          , 0           , 0
0.00644586142, -0.013705   , -9.802639   , 0.00123211986, 0.000432100846, 5.674865E-05, -0.516246438, -0.05696373 , 0.324592143 , 0.00260531926, 9.710034E-05, 3.02954316  , 1.2         , 3           , 11          , 0.0378896967, 0.0378897041
-0.0282874983, 0.0002010446, -9.791548   , -0.00243434217, -0.0007189914, -0.00080971967, -0.514695942, -0.05716597 , 0.3254685   , 0.00258097542, 8.993145E-05, 3.02953553  , 1.21        , 3           , 12          , 0.0378874019, 0
-0.00904301647, -0.0122615239, -9.775633   , 0.00123441848, -0.000131031586, -0.0007917318, -0.514695942, -0.05716597 , 0.3254685   , 0.00259331916, 8.864164E-05, 3.02952743  , 1.22        , 3           , 14          , 0.000252308644, 0.0005850673
0.0161984228, -0.0238107666, -9.783624   , 0.002068575 , 0.0026903532, 0.000629245653, -0.5164487  , -0.05716597 , 0.325738162 , 0.00261400524, 0.000115528688, 3.02953362  , 1.23        , 3           , 15          , 0           , -6.61768863E-05
0.0281878   , -0.0179706179, -9.817406   , 0.000395413255, -0.00154458068, 0.00146244757, -0.5159768  , -0.05696373 , 0.32452473  , 0.002617961 , 0.000100044665, 3.02954841  , 1.24        , 3           , 50          , 0           , 0
-0.0156708267, -0.00981718 , -9.808217   , -0.00131308788, 0.00125961029, 0.00145888526, -0.515033   , -0.05716597 , 0.3254011   , 0.00260483217, 0.000112602625, 3.02956319  , 1.25        , 3           , 11          , 0.0378896967, 0.0378897041
-0.009813165, -0.008124005, -9.795509   , 0.000392462 , -0.0009814512, 0.00118077791, -0.515033   , -0.05716597 , 0.3254011   , 0.002608758 , 0.000102757374, 3.02957463  , 1.26        , 3           , 12          , 0.0378874019, 0
0.007825134 , -0.04576706 , -9.800051   , -0.0004511259, -0.001831879, 0.0003279128, -0.516313851, -0.0570311435, 0.325738162 , 0.00260424661, 8.44300957E-05, 3.029578    , 1.27        , 3           , 14          , 0.000252308644, 0.0005850673
0.009430242 , -0.0246046111, -9.792267   , 0.00236477866, -0.0001233886, 0.000343685737, -0.5160442  , -0.05696373 , 0.324726969 , 0.00262789475, 8.31872239E-05, 3.02958131  , 1.28        , 3           , 15          , 0           , -6.61768863E-05
0.0009971508, -0.00651198858, -9.775985   , -0.004120213, -0.00241984 , -0.0002551499, -0.5151004  , -0.0570311435, 0.325603336 , 0.00258669234, 5.89955671E-05, 3.029579    , 1.29        , 3           , 50          , 0           , 0
-0.0122889793, -0.0198742282, -9.781565   , -0.000452361041, -0.00155031274, 0.0006108852, -0.5151004  , -0.0570311435, 0.325603336 , 0.00258214283, 4.347817E-05, 3.02958512  , 1.3         , 3           , 11          , 0.0384674519, 0.03846746
-0.0148760946, -0.0134884277, -9.792857   , -0.000164358178, -0.00267466274, 0.000610466464, -0.5165835  , -0.05696373 , 0.325873    , 0.00258049951, 1.67158723E-05, 3.02959085  , 1.31        , 3           , 12          , 0.0384649   , 0
-0.0174708031, -0.00219891127, -9.786504   , -0.000450803869, -0.00183187693, 0.0008929889, -0.5159768  , -0.0568963178, 0.324592143 , 0.002575992 , -1.62587094E-06, 3.0296      , 1.32        , 3           , 14          , 0.000252312922, 0.0005850671
0.00200901181, -0.03403607 , -9.779707   , -0.002154871, -0.000153951783, -0.00109007128, -0.514830768, -0.0570985563, 0.3254685   , 0.00255444273, -3.13743658E-06, 3.029589    , 1.33        , 3           , 15          , 0           , -6.617789E-05
-0.0177095383, -0.025156226, -9.801968   , 0.00096641673, -0.00294858962, 5.0225517E-05, -0.514830768, -0.0570985563, 0.3254685   , 0.002564107 , -3.26245063E-05, 3.02958941  , 1.34        , 3           , 50          , 0           , 0
-0.0263631642, -0.0255426653, -9.791188   , -0.001014753, -0.00211726455, 4.23087768E-05, -0.5164487  , -0.0570985563, 0.325805575 , 0.00255395914, -5.379817E-05, 3.02959     , 1.35        , 3           , 11          , 0.0384674519, 0.03846746
0.0100955088, -0.0395395122, -9.781476   , -0.000168377039, -0.001829967, 0.0008943058, -0.5159094  , -0.0570985563, 0.32452473  , 0.002552275 , -7.21206161E-05, 3.02959847  , 1.36        , 3           , 12          , 0.0384649   , 0
0.00627226941, -0.0241117142, -9.793644   , -0.002150689, -0.0009986471, -0.00109137315, -0.515302658, -0.05716597 , 0.3254011   , 0.00253076875, -8.207932E-05, 3.029588    , 1.37        , 3           , 14          , 0.000252312922, 0.0005850671
0.0060478393, -0.012762608, -9.813035   , -0.00129783247, -0.00211917749, -0.00108915812, -0.515302658, -0.05716597 , 0.3254011   , 0.00251779146, -0.000103243525, 3.02957654  , 1.38        , 3           , 15          , 0           , -6.617789E-05
0.00373926666, -0.0176820625, -9.818045   , 0.00124326767, -0.00182041957, 5.32781851E-05, -0.5164487  , -0.05696373 , 0.325805575 , 0.00253022416, -0.000121448989, 3.02957749  , 1.39        , 3           , 50          , 0           , 0
-0.00501927547, -0.0212779641, -9.791911   , -0.00157993508, -0.00212108647, -0.0005253949, -0.516246438, -0.0570311435, 0.324726969 , 0.00251441123, -0.000142648874, 3.02957177  , 1.4         , 3           , 11          , 0.03908347  , 0.03908348
0.00237020385, -0.04705976 , -9.799192   , 0.000674719 , -0.0009795423, 0.0008995636, -0.5151004  , -0.0570311435, 0.325535923 , 0.00252115657, -0.0001524669, 3.02958083  , 1.41        , 3           , 12          , 0.0390806459, 0
0.0156255   , -0.0350615568, -9.790455   , -0.000193145184, 0.00323820533, 0.00146719674, -0.5151004  , -0.0570311435, 0.325535923 , 0.00251922314, -0.000120121927, 3.02959561  , 1.42        , 3           , 14          , 0.0002523153, 0.0005850675
-0.00683922134, -0.0154612754, -9.771109   , 0.0009546098, -0.0006960727, -0.00107644778, -0.516381264, -0.05696373 , 0.325805575 , 0.00252877083, -0.000127055464, 3.02958512  , 1.43        , 3           , 15          , 0           , -6.618307E-05
0.002650314 , -0.0236225724, -9.792315   , -0.000740366231, -0.000425962731, 0.0006113092, -0.5159094  , -0.05696373 , 0.3249292   , 0.002521366 , -0.000131330511, 3.02959085  , 1.44        , 3           , 50          , 0           , 0
-0.00387650635, 0.00211381819, -9.77463    , 0.00235886965, 0.00100287  , -0.000219647045, -0.5151004  , -0.05696373 , 0.325535923 , 0.002544955 , -0.000121296267, 3.029589    , 1.45        , 3           , 11          , 0.03908347  , 0.03908348
-0.0051102126, 0.009372378 , -9.781841   , 0.00348825031, 0.00101050828, -0.000779454364, -0.5151004  , -0.05696373 , 0.325535923 , 0.00257983827, -0.000111171277, 3.02958131  , 1.46        , 3           , 12          , 0.0390806459, 0
-0.003921584, -0.005957013, -9.789578   , -0.000746757956, 0.000700293633, -0.0007996423, -0.5164487  , -0.05716597 , 0.325873    , 0.002572372 , -0.000104147737, 3.02957273  , 1.47        , 3           , 14          , 0.0002523153, 0.0005850675
0.0128854495, -0.001200093, -9.786719   , 0.002362725 , 0.00015817309, -0.0007860239, -0.516179   , -0.0570311435, 0.3249292   , 0.00259599974, -0.000102545673, 3.029565    , 1.48        , 3           , 15          , 0           , -6.618307E-05
0.00326471031, -0.009213726, -9.78547    , -0.00187343976, 0.000411096582, 0.00202003075, -0.515167832, -0.05716597 , 0.325603336 , 0.00257726316, -9.84869839E-05, 3.02958512  , 1.49        , 3           , 50          , 0           , 0
-0.008305634, -0.0280307028, -9.785185   , -0.00159125961, 0.000131435 , -0.00080446183, -0.515167832, -0.05716597 , 0.325603336 , 0.0025612975, -9.714355E-05, 3.02957749  , 1.5         , 3           , 11          , 0.0397356078, 0.03973562
0.0116887335, 0.005642079 , -9.804327   , 0.0006770082, -0.00154267333, 5.10826176E-05, -0.5166509  , -0.0568963178, 0.3259404   , 0.00256806775, -0.000112571506, 3.02957749  , 1.51        , 3           , 12          , 0.0397325   , 0
0.00250906125, -0.008188916, -9.818918   , -0.000749718456, 0.00126342452, -0.00108131266, -0.5160442  , -0.05696373 , 0.324726969 , 0.00256057153, -9.990958E-05, 3.029567    , 1.52        , 3           , 14          , 0.00025232468, 0.000585066038
0.0296788588, -0.0374443  , -9.801657   , 0.004623109 , 0.000173458946, 0.0009197355, -0.5149656  , -0.0568963178, 0.325333685 , 0.00260680169, -9.819878E-05, 3.02957654  , 1.53        , 3           , 15          , 0           , -6.6182256E-05
0.0413672775, -0.0127290962, -9.811859   , 0.0006961979, -0.005484586, -0.0005200674, -0.5149656  , -0.0568963178, 0.325333685 , 0.002613764 , -0.00015303088, 3.02957082  , 1.54        , 3           , 50          , 0           , 0
0.0181117263, -0.0192857422, -9.793986   , 0.00180548453, -0.00125346752, 0.00033932153, -0.5164487  , -0.057233382, 0.325738162 , 0.00263181841, -0.000165574427, 3.02957416  , 1.55        , 3           , 11          , 0.0397356078, 0.03973562
-0.006637313, -0.00458527263, -9.785527   , 0.0009411499, 0.00211958215, -0.000224496791, -0.5161116  , -0.05716597 , 0.3249292   , 0.00264123059, -0.000144372767, 3.02957177  , 1.56        , 3           , 12          , 0.0397325   , 0
0.004132145 , 0.0196833611, -9.793931   , -0.003292138, 0.00152780383, 0.000319956045, -0.5151004  , -0.05716597 , 0.3254685   , 0.00260830857, -0.000129103166, 3.02957559  , 1.57        , 3           , 14          , 0.00025232468, 0.000585066038
-0.004640702, -0.000885443762, -9.818943   , -0.000449258456, -0.00211344054, 0.00117509672, -0.5151004  , -0.05716597 , 0.3254685   , 0.00260381447, -0.000150268126, 3.029587    , 1.58        , 3           , 15          , 0           , -6.6182256E-05
0.00724226  , -0.0227310937, -9.804931   , -0.0007434899, 0.000137167226, 4.71015519E-05, -0.516381264, -0.057233382, 0.325805575 , 0.00259637926, -0.000148897685, 3.02958751  , 1.59        , 3           , 50          , 0           , 0
0.00407823268, -0.0177796  , -9.790471   , -0.000752355, 0.00182656175, -0.00079790724, -0.5159768  , -0.0570985563, 0.324659556 , 0.00258879131, -0.000130577464, 3.0295794   , 1.6         , 3           , 11          , 0.0404217765, 0.0404217876
0.0213839114, -0.008973692, -9.785783   , -0.00131458393, 0.00125961064, -0.00108394644, -0.515033   , -0.0570311435, 0.325535923 , 0.00257564732, -0.000117953416, 3.029569    , 1.61        , 3           , 12          , 0.0404183641, 0
0.0137070883, -0.008866693, -9.790813   , 0.000101643433, 0.000706036459, 0.00118207  , -0.515033   , -0.0570311435, 0.325535923 , 0.002576662 , -0.0001109235, 3.02958035  , 1.62        , 3           , 14          , 0.000252336351, 0.00058506
-0.0008192296, -0.0136365779, -9.797724   , 0.000958518649, -0.0012591898, 0.0009004459, -0.5167183  , -0.0570985563, 0.3259404   , 0.002586246 , -0.00012353863, 3.02958941  , 1.63        , 3           , 15          , 0           , -6.618237E-05
0.00798717048, -0.0282281078, -9.783253   , 0.000947945 , 0.000711761764, -0.0005092039, -0.5160442  , -0.0570985563, 0.324659556 , 0.002595726 , -0.000116407842, 3.02958417  , 1.64        , 3           , 50          , 0           , 0
0.00818203948, -0.0142333433, -9.785905   , 0.00208978355, -0.00153311435, 0.00118781708, -0.5149656  , -0.0570311435, 0.325603336 , 0.00261662249, -0.000131769877, 3.02959657  , 1.65        , 3           , 11          , 0.0404217765, 0.0404217876
-0.00256585237, -0.009545885, -9.800431   , 0.00151082641, 0.00127871579, 0.000906985137, -0.5149656  , -0.0570311435, 0.325603336 , 0.0026317297, -0.000119006567, 3.02960515  , 1.66        , 3           , 12          , 0.0404183641, 0
0.00562890153, -0.03988309 , -9.797782   , -0.00242649531, -0.002408377, -0.00165993045, -0.5164487  , -0.0570311435, 0.325873    , 0.002607467 , -0.000143046811, 3.029589    , 1.67        , 3           , 14          , 0.000252336351, 0.00058506
0.0143364044, -0.0372212343, -9.814428   , -0.00382445217, -0.00495200465, 0.0011549542, -0.5159768  , -0.057233382, 0.324794382 , 0.00256922026, -0.000192596577, 3.02960038  , 1.68        , 3           , 15          , 0           , -6.618237E-05
-0.0300366767, -0.03179056 , -9.798925   , -0.000183319411, 0.0009856861, -0.0007965752, -0.515033   , -0.0568963178, 0.325805575 , 0.00256738882, -0.000182719275, 3.02959228  , 1.69        , 3           , 50          , 0           , 0
-0.008990768, -0.0122191925, -9.788289   , 0.00124119525, -0.00153884781, -0.00107642938, -0.515033   , -0.0568963178, 0.325805575 , 0.00257978984, -0.000198065725, 3.02958131  , 1.7         , 3           , 11          , 0.0411399268, 0.0411399342
0.002577872 , -0.0232349187, -9.77333    , -0.00158028491, -0.00212107785, -0.00109046663, -0.5165835  , -0.05696373 , 0.3260078   , 0.00256398949, -0.000219248381, 3.02957082  , 1.71        , 3           , 12          , 0.0411361866, 0
-0.0186792016, -0.0260902289, -9.789324   , -0.0013048281, -0.0007113423, -0.00108698 , -0.5159768  , -0.0570311435, 0.3249292   , 0.00255094352, -0.000226333985, 3.02955937  , 1.72        , 3           , 14          , 0.00025233865, 0.000585057365
-0.009554561, -0.0288187861, -9.814576   , -0.000171680236, -0.00126682944, 4.75698034E-05, -0.515302658, -0.057233382, 0.325603336 , 0.00254922663, -0.000239003435, 3.02956033  , 1.73        , 3           , 15          , 0           , -6.618631E-05
0.0245447662, -0.015713159, -9.805222   , 0.000103939732, 0.000142906618, 0.000333593634, -0.515302658, -0.057233382, 0.325603336 , 0.00255026529, -0.000237582877, 3.02956319  , 1.74        , 3           , 50          , 0           , 0
-0.0007911436, -0.0109357173, -9.795904   , -0.00129983039, -0.00155603362, 0.000324405351, -0.5167183  , -0.0570311435, 0.325873    , 0.00253726612, -0.0002531514, 3.02956653  , 1.75        , 3           , 11          , 0.0411399268, 0.0411399342
-0.0280913487, -0.01920528 , -9.791175   , 0.000115907482, -0.00210961024, 0.00174280966, -0.5159768  , -0.05716597 , 0.3248618   , 0.002538421 , -0.000274291669, 3.02958417  , 1.76        , 3           , 12          , 0.0411361866, 0
0.0029490497, -0.035357818, -9.79236    , 0.00010451796, -0.00013866229, -0.00107952743, -0.514830768, -0.0568289049, 0.325670749 , 0.0025394687, -0.000275650877, 3.0295732   , 1.77        , 3           , 14          , 0.00025233865, 0.000585057365
-0.0106384354, 0.00221774681, -9.781913   , -0.0004645177, 0.000702213 , -0.00108085957, -0.514830768, -0.0568289049, 0.325670749 , 0.00253482629, -0.000268601347, 3.02956223  , 1.78        , 3           , 15          , 0           , -6.618631E-05
0.00809932  , -0.02278103 , -9.793174   , -0.00129597471, -0.0024007305, -0.000241971167, -0.5165161  , -0.0570311435, 0.326075226 , 0.00252186717, -0.000292602461, 3.02955985  , 1.79        , 3           , 50          , 0           , 0
0.009560691 , -0.0120011047, -9.783626   , -0.000727684936, -0.002960037, 0.0008899502, -0.5161116  , -0.057233382, 0.324794382 , 0.002514563 , -0.0003222223, 3.029569    , 1.8         , 3           , 11          , 0.0418880731, 0.0418880843
0.00487495866, -0.0263590813, -9.791405   , 0.00264438265, 0.000441661919, 0.000345885637, -0.515033   , -0.056761492, 0.325535923 , 0.00254100584, -0.0003178144, 3.02957225  , 1.81        , 3           , 12          , 0.04188399  , 0
-0.000576794147, -0.0258637983, -9.785568   , 0.000107375752, -0.000420219847, 0.00146288134, -0.515033   , -0.056761492, 0.325535923 , 0.00254207477, -0.000322053762, 3.029587    , 1.82        , 3           , 14          , 0.000252343219, 0.000585056841
-0.00224452652, -0.0159066282, -9.788704   , 0.0003959569, -0.00182613917, 4.93414227E-05, -0.5165835  , -0.0570311435, 0.3260078   , 0.00254603452, -0.000340316328, 3.029587    , 1.83        , 3           , 15          , 0           , -6.619193E-05
0.0163027477, -0.0112284226, -9.768656   , 0.000100242585, 0.0009876046, 0.00118251343, -0.5161116  , -0.0568289049, 0.3248618   , 0.00254703267, -0.000330470444, 3.02959943  , 1.84        , 3           , 50          , 0           , 0
-0.00512936339, -0.004033655, -9.820314   , -0.00328198331, -0.0007247124, -0.00137873052, -0.5151004  , -0.0568963178, 0.325670749 , 0.00251421751, -0.000337682664, 3.02958512  , 1.85        , 3           , 11          , 0.0418880731, 0.0418880843
-0.000306178816, -0.0153784612, -9.818066   , -0.0032701788, -0.00297723 , -0.000252051919, -0.5151004  , -0.0568963178, 0.325670749 , 0.00248151645, -0.0003674486, 3.02958274  , 1.86        , 3           , 12          , 0.04188399  , 0
-0.004289656, -0.00231224857, -9.798607   , -0.002167032, 0.00209857454, -0.002781811, -0.5165835  , -0.05696373 , 0.326075226 , 0.00245985645, -0.0003463942, 3.02955461  , 1.87        , 3           , 14          , 0.000252343219, 0.000585056841
-0.0207766723, -0.0152163664, -9.79517    , -0.00186436228, -0.00155985146, 0.0008868521, -0.5161116  , -0.0570985563, 0.3249292   , 0.00244120951, -0.00036201434, 3.02956367  , 1.88        , 3           , 15          , 0           , -6.619193E-05
0.00806190353, -0.0254894532, -9.792732   , -0.0007399047, -0.000425949751, 0.00145893055, -0.515033   , -0.05696373 , 0.325670749 , 0.00243380526, -0.000366309367, 3.02957845  , 1.89        , 3           , 50          , 0           , 0
-0.006825474, -0.022145398, -9.795996   , -0.00158194243, -0.00155793969, 0.0008881735, -0.515033   , -0.05696373 , 0.325670749 , 0.00241794554, -0.000381899881, 3.029587    , 1.9         , 3           , 11          , 0.04266431  , 0.04266432
0.0152277062, -0.0363507271, -9.80809    , -0.000459368282, -0.0001424751, 0.0006130734, -0.516246438, -0.0570985563, 0.3259404   , 0.00241334946, -0.0003833395, 3.02959323  , 1.91        , 3           , 12          , 0.0426598676, 0
-0.007765318, -0.0154672805, -9.766145   , 0.00320955552, 0.000445485377, 0.0009135989, -0.5159768  , -0.057233382, 0.3248618   , 0.00244544144, -0.000378906872, 3.02960229  , 1.92        , 3           , 14          , 0.000252350175, 0.0005850549
-0.01813525 , -0.0162019655, -9.779787   , 0.002646096 , 0.000160100288, 0.0009105312, -0.5149656  , -0.0570985563, 0.325603336 , 0.00247189915, -0.000377328251, 3.02961183  , 1.93        , 3           , 15          , 0           , -6.619635E-05
-0.006434229, -0.0297885314, -9.805517   , -0.00215244642, -0.000717071351, -0.00165599585, -0.5149656  , -0.0570985563, 0.325603336 , 0.002450381 , -0.0003844581, 3.02959466  , 1.94        , 3           , 50          , 0           , 0
0.00403007772, -0.0249602254, -9.801802   , -0.00102266483, -0.00042785937, 0.0008925431, -0.516381264, -0.057233382, 0.3259404   , 0.00244015083, -0.000388758664, 3.0296042   , 1.95        , 3           , 11          , 0.04266431  , 0.04266432
0.00373867643, -0.008309183, -9.787722   , 9.66319058E-05, 0.00155073288, -0.000229301382, -0.5161116  , -0.05716597 , 0.3248618   , 0.002441118 , -0.000373245653, 3.02960134  , 1.96        , 3           , 12          , 0.0426598676, 0
0.00160320383, -0.03354634 , -9.789652   , 0.00208140537, 0.000156281167, 0.00119043468, -0.515033   , -0.05696373 , 0.325805575 , 0.00246192748, -0.000371711969, 3.02961373  , 1.97        , 3           , 14          , 0.000252350175, 0.0005850549
0.00134705007, -0.0222229362, -9.801358   , 0.00322152348, -0.00180703145, 0.00232281466, -0.515033   , -0.05696373 , 0.325805575 , 0.00249413378, -0.0003898398, 3.02963662  , 1.98        , 3           , 15          , 0           , -6.619635E-05
-0.00767323328, -0.014499967, -9.785576   , -0.000735151349, -0.001552212, 4.451204E-05, -0.5167183  , -0.0568289049, 0.326075226 , 0.00248678215, -0.000405362982, 3.029637    , 1.99        , 3           , 50          , 0           , 0
-0.007798639, -0.0253139846, -9.789689   , 0.000393069466, -0.0009814338, 0.00231095823, -0.516246438, -0.056761492, 0.325064033 , 0.00249068439, -0.00041522464, 3.02966046  , 2           , 3           , 11          , 0.0434668176, 0.04346682
-0.00630652858, -0.0158482  , -9.791899   , 0.000103598351, 0.000142909412, -0.000231460159, -0.5151004  , -0.0573007949, 0.325805575 , 0.00249172142, -0.000413789821, 3.029658    , 2.01        , 3           , 12          , 0.0434619859, 0
0.0122065321, -0.0196783766, -9.790869   , -0.0001802225, 0.000422564568, -0.00023234314, -0.5151004  , -0.0573007949, 0.325805575 , 0.00248992047, -0.000409558415, 3.02965569  , 2.02        , 3           , 14          , 0.000252353755, 0.000585053
0.008146981 , -0.0289913211, -9.824837   , -0.00271648774, -0.000720885466, -0.000245931267, -0.5165835  , -0.0568289049, 0.3260078   , 0.00246275682, -0.000416761177, 3.02965331  , 2.03        , 3           , 15          , 0           , -6.620724E-05
-0.005146647, -0.03477168 , -9.804172   , -0.00215500058, 0.000127633568, 0.00117069157, -0.5159768  , -0.0568963178, 0.32499662  , 0.00244120159, -0.000415513467, 3.02966523  , 2.04        , 3           , 50          , 0           , 0
0.007814527 , -0.0123735415, -9.800816   , 0.0006681257, 0.000146727776, -0.00079390133, -0.5151004  , -0.05716597 , 0.325805575 , 0.00244788663, -0.000414026785, 3.02965665  , 2.05        , 3           , 11          , 0.0434668176, 0.04346682
0.003802998 , -0.009596109, -9.807614   , 0.0009544082, -0.000696058967, -0.0013589611, -0.5151004  , -0.05716597 , 0.325805575 , 0.002457436 , -0.000420953962, 3.0296433   , 2.06        , 3           , 12          , 0.0434619859, 0
-0.00270464458, -0.0208171066, -9.802739   , 0.00208648853, -0.0009699795, 0.000341097359, -0.5166509  , -0.05696373 , 0.3264123   , 0.0024782992, -0.000430662127, 3.02964664  , 2.07        , 3           , 14          , 0.000252353755, 0.000585053
-0.005950609, -0.0284298062, -9.808671   , 0.000958175166, -0.00125918444, 0.000335395685, -0.516313851, -0.0568963178, 0.325131446 , 0.00248787948, -0.000443262339, 3.02965     , 2.08        , 3           , 15          , 0           , -6.620724E-05
-0.0250244439, -0.0269135758, -9.790731   , 0.00207501044, 0.00128253957, -0.000220505884, -0.515167832, -0.05696373 , 0.3260078   , 0.00250863051, -0.0004304314, 3.029648    , 2.09        , 3           , 50          , 0           , 0
0.0237306878, -0.00536232442, -9.794337   , 0.000390694477, -0.000699873432, 0.000616170757, -0.515167832, -0.05696373 , 0.3260078   , 0.00251252321, -0.000437445648, 3.02965379  , 2.1         , 3           , 11          , 0.0442938469, 0.0442938544
0.0218628179, -0.008957838, -9.792107   , 0.0029248246, 0.00100670988, 0.00176077685, -0.5165835  , -0.0568963178, 0.326277465 , 0.00254176371, -0.000427423132, 3.029672    , 2.11        , 3           , 12          , 0.0442886   , 0
-0.0150471628, -0.0230003968, -9.781599   , -0.000173254666, -0.0009852608, -0.000234509251, -0.5161116  , -0.0570311435, 0.325064033 , 0.00254003238, -0.000437269744, 3.029669    , 2.12        , 3           , 14          , 0.000252355938, 0.000585053
0.00757238828, -0.034887258, -9.814018   , -0.000731879671, -0.002115338, 0.000891270931, -0.5151004  , -0.0570311435, 0.3260078   , 0.00253270939, -0.000458445662, 3.029678    , 2.13        , 3           , 15          , 0           , -6.621081E-05
0.0232918169, -0.0418723226, -9.804435   , -0.00158243754, -0.00155794 , 4.05756946E-05, -0.5151004  , -0.0570311435, 0.3260078   , 0.00251688459, -0.000474026, 3.02967858  , 2.14        , 3           , 50          , 0           , 0
-0.004673467, -0.0298506171, -9.7933     , 0.0009508766, 0.000148639316, -0.000227505778, -0.5167183  , -0.0570311435, 0.326344877 , 0.00252639456, -0.0004725338, 3.0296762   , 2.15        , 3           , 11          , 0.0442938469, 0.0442938544
-0.00591188576, -0.0239349268, -9.80368    , -0.00158678275, -0.0007132456, -0.000240659982, -0.5159768  , -0.05716597 , 0.325064033 , 0.00251052785, -0.000479660142, 3.02967381  , 2.16        , 3           , 12          , 0.0442886   , 0
-0.0164430365, -0.0283710547, -9.789768   , 0.00180110836, -0.000408760068, 5.81146451E-05, -0.515033   , -0.0568963178, 0.325873    , 0.002528539 , -0.000483749143, 3.02967477  , 2.17        , 3           , 14          , 0.000252355938, 0.000585053
-0.0128873056, -0.0026533315, -9.801386   , -0.00298948539, -0.00269375229, -0.0008153573, -0.515033   , -0.0568963178, 0.325873    , 0.00249864836, -0.000510666, 3.02966619  , 2.18        , 3           , 15          , 0           , -6.621081E-05
0.00346164312, 0.0101389028, -9.771377   , -0.0007337631, -0.00183377531, 4.40925651E-05, -0.5165161  , -0.056761492, 0.326344877 , 0.00249131  , -0.0005290047, 3.02966666  , 2.19        , 3           , 50          , 0           , 0
0.0181654766, -0.0121005848, -9.784012   , -0.0015819557, -0.00155793421, 0.000888200651, -0.5161116  , -0.05716597 , 0.32499662  , 0.002475447 , -0.000544588547, 3.02967572  , 2.2         , 3           , 11          , 0.04514375  , 0.045143757
0.00867721252, -0.0200068746, -9.814852   , -0.0007436917, 0.000137183 , -0.000235394677, -0.515235245, -0.05696373 , 0.325873    , 0.00246801157, -0.00054321083, 3.02967286  , 2.21        , 3           , 12          , 0.04513806  , 0
0.00381386746, -0.0100336522, -9.811685   , 0.00124674663, -0.00266510015, -0.00107812788, -0.515235245, -0.05696373 , 0.325873    , 0.002480485 , -0.000569835247, 3.02966237  , 2.22        , 3           , 14          , 0.000252363359, 0.0005850495
0.012211374 , -0.0232452545, -9.803539   , 0.000389129855, -0.0004183057, 0.0003340799, -0.5167183  , -0.0570985563, 0.326210052 , 0.00248437421, -0.000574026431, 3.02966571  , 2.23        , 3           , 15          , 0           , -6.622351E-05
-0.007139136, -0.0104222456, -9.792335   , 0.000101126992, 0.0007060446, 0.0003344987, -0.5161116  , -0.0570311435, 0.325064033 , 0.00248538353, -0.0005669743, 3.029669    , 2.24        , 3           , 50          , 0           , 0
-0.02450704 , -0.02017128 , -9.784824   , -0.00101882231, -0.00127255067, 0.000326193462, -0.515033   , -0.05696373 , 0.3260078   , 0.002475193 , -0.0005797078, 3.029672    , 2.25        , 3           , 11          , 0.04514375  , 0.045143757
-0.0309776  , -0.0291304663, -9.781747   , 0.00237366627, -0.00209433027, -0.00107199233, -0.515033   , -0.05696373 , 0.3260078   , 0.00249893637, -0.0006006244, 3.02966142  , 2.26        , 3           , 12          , 0.04513806  , 0
0.0256347619, 0.00183331221, -9.79384    , 0.0023657917, -0.000404937426, -0.000221776267, -0.5165835  , -0.0573682077, 0.3264797   , 0.002522596 , -0.0006046682, 3.02965951  , 2.27        , 3           , 14          , 0.000252363359, 0.0005850495
0.0171938483, -0.01571428 , -9.779515   , 0.000948407454, 0.00071177457, 0.0003384495, -0.516246438, -0.0573007949, 0.325266272 , 0.00253207772, -0.000597559, 3.02966237  , 2.28        , 3           , 15          , 0           , -6.622351E-05
0.004687717 , -0.0100699905, -9.803994   , 0.00321479235, -0.000680771, 0.00034681533, -0.5151004  , -0.0570311435, 0.326075226 , 0.00256422372, -0.0006043755, 3.02966619  , 2.29        , 3           , 50          , 0           , 0
0.00257083122, -0.002782655, -9.816636   , 0.000391165639, -0.000699859345, 0.00146379729, -0.5151004  , -0.0570311435, 0.326075226 , 0.00256806938, -0.0006113686, 3.02968049  , 2.3         , 3           , 11          , 0.0460149571, 0.04601496
-0.009949109, -0.0180538725, -9.794196   , -0.00270577148, -0.00269182422, 0.00144627353, -0.5167183  , -0.0570311435, 0.326075226 , 0.00254100282, -0.0006383238, 3.0296948   , 2.31        , 3           , 12          , 0.0460087955, 0
-0.0213548951, -0.0184371471, -9.774849   , -0.00101637142, -0.00183567428, -0.0002397478, -0.5161116  , -0.05716597 , 0.325131446 , 0.00253084069, -0.0006566743, 3.029693    , 2.32        , 3           , 14          , 0.000252374273, 0.000585041242
-0.0316877477, -0.016910024, -9.790289   , 0.00264263153, 0.00072324113, -0.000218722227, -0.515167832, -0.05716597 , 0.325805575 , 0.00255726837, -0.000649436435, 3.0296905   , 2.33        , 3           , 15          , 0           , -6.622488E-05
0.00372918346, -0.0385945439, -9.772029   , -0.00103137922, 0.00126154313, 0.000330100243, -0.515167832, -0.05716597 , 0.325805575 , 0.00254695187, -0.000636829471, 3.02969384  , 2.34        , 3           , 50          , 0           , 0
-0.0024998514, -0.03352118 , -9.782903   , -0.00215583667, 0.000127641426, -0.000241977978, -0.5165161  , -0.0570985563, 0.326210052 , 0.00252539548, -0.0006355469, 3.02969146  , 2.35        , 3           , 11          , 0.0460149571, 0.04601496
-0.007798969, -0.0257606078, -9.791047   , -0.0007438658, 0.000137190451, -0.0005179308, -0.5159094  , -0.05696373 , 0.3254011   , 0.00251795957, -0.0006341619, 3.02968621  , 2.36        , 3           , 12          , 0.0460087955, 0
0.023228243 , -0.0370139778, -9.77323    , 0.000386167783, 0.0001448319, 5.24119059E-05, -0.5151004  , -0.0570311435, 0.3260078   , 0.002521821 , -0.0006327149, 3.02968669  , 2.37        , 3           , 14          , 0.000252374273, 0.000585041242
-0.00362910214, -0.0185900219, -9.790985   , -0.00130716222, -0.0001481937, -0.0002384611, -0.5151004  , -0.0570311435, 0.3260078   , 0.00250875112, -0.0006341908, 3.02968431  , 2.38        , 3           , 15          , 0           , -6.622488E-05
0.003034453 , 0.00436240574, -9.796263   , 0.000662366 , 0.0012729991, -0.00107468537, -0.5164487  , -0.0570311435, 0.326210052 , 0.00251538143, -0.000621433835, 3.02967381  , 2.39        , 3           , 50          , 0           , 0
0.0026386613, -0.01916851 , -9.77512    , 0.00291438936, 0.00297767972, 0.0006336841, -0.516179   , -0.0570985563, 0.325266272 , 0.00254448922, -0.0005916437, 3.02968     , 2.4         , 3           , 11          , 0.0469059832, 0.04690599
-0.00321870577, -0.0128271366, -9.762031   , 0.0006503032, 0.00380709278, -0.000223161784, -0.515167832, -0.05696373 , 0.3259404   , 0.00255099381, -0.0005535672, 3.02967763  , 2.41        , 3           , 12          , 0.0468993224, 0
-0.020693168, -0.010685198, -9.801026   , -0.00412709173, -0.00101198221, 2.961096E-05, -0.515167832, -0.05696373 , 0.3259404   , 0.00250972249, -0.000563687761, 3.029678    , 2.42        , 3           , 14          , 0.000252380472, 0.0005850356
-0.00187511742, -0.0253528543, -9.798683   , 0.0006805562, -0.00210576924, 0.00146295037, -0.5165161  , -0.0568963178, 0.326210052 , 0.00251651974, -0.0005847822, 3.029693    , 2.43        , 3           , 15          , 0           , -6.623061E-05
0.0135913361, -0.01922654 , -9.795828   , 0.00067621097, -0.00126107456, 0.00118171459, -0.516313851, -0.0568289049, 0.325266272 , 0.00252327533, -0.000597422651, 3.02970433  , 2.44        , 3           , 50          , 0           , 0
0.00597870443, -0.0154967252, -9.80491    , -0.001020886, -0.0009909749, -0.0008035153, -0.515033   , -0.057233382, 0.326142639 , 0.00251307129, -0.0006073121, 3.0296967   , 2.45        , 3           , 11          , 0.0469059832, 0.04690599
-0.0126254251, -0.01888195 , -9.806875   , 0.00320469076, 0.00129019679, -0.000215214779, -0.515033   , -0.057233382, 0.326142639 , 0.00254511926, -0.0005944048, 3.02969432  , 2.46        , 3           , 12          , 0.0468993224, 0
-0.0318013  , -0.0268217474, -9.794398   , 0.004064265 , -0.0009565884, 0.00176302681, -0.5165161  , -0.0570985563, 0.326344877 , 0.0025857517, -0.000604015833, 3.029712    , 2.47        , 3           , 14          , 0.000252380472, 0.0005850356
0.00517896656, -0.0385364071, -9.794165   , -0.0007317411, -0.00211532 , 0.00117382815, -0.516179   , -0.0570985563, 0.325266272 , 0.002578427 , -0.0006251992, 3.02972341  , 2.48        , 3           , 15          , 0           , -6.623061E-05
-0.01148456 , -0.0306792334, -9.791547   , 0.000946833054, 0.0009933528, 5.63533176E-05, -0.515302658, -0.0570311435, 0.3259404   , 0.00258789514, -0.0006152671, 3.02972436  , 2.49        , 3           , 50          , 0           , 0
0.0106193628, -0.0265430845, -9.75701    , -0.00383925415, -0.00213633315, -0.0002533443, -0.515302658, -0.0570311435, 0.3259404   , 0.00254949485, -0.000636622368, 3.0297215   , 2.5         , 3           , 11          , 0.0478154421, 0.0478154458
0.008215331 , -0.0395741947, -9.764766   , -0.00384852244, -0.000165375124, 0.0005973055, -0.5166509  , -0.05696373 , 0.326344877 , 0.00251100585, -0.0006382913, 3.0297277   , 2.51        , 3           , 12          , 0.0478082448, 0
-0.000763643533, -0.0416374579, -9.7906065  , -0.004126767, -0.00101198035, 0.0005946867, -0.5161116  , -0.0568289049, 0.325198859 , 0.002469734 , -0.000648426, 3.029734    , 2.52        , 3           , 14          , 0.000252382248, 0.0005850353
-0.00502418727, -0.0279771984, -9.812279   , -0.00328752445, 0.0006831415, 0.001166316 , -0.515167832, -0.0570985563, 0.326210052 , 0.00243685115, -0.0006416231, 3.02974534  , 2.53        , 3           , 15          , 0           , -6.62316452E-05
-0.00400626846, -0.0171843879, -9.804995   , -0.0030064024, 0.0006850454, -0.00109266653, -0.515167832, -0.0570985563, 0.326210052 , 0.00240679458, -0.0006347462, 3.02973437  , 2.54        , 3           , 50          , 0           , 0
0.0162648074, -0.0197398216, -9.78677    , 0.00152906578, -0.00238160486, 0.00118393078, -0.5167183  , -0.05696373 , 0.326210052 , 0.00242207735, -0.000658590754, 3.02974629  , 2.55        , 3           , 11          , 0.0478154421, 0.0478154458
-0.00127446745, -0.04703538 , -9.79379749 , 0.00153431564, -0.00350786652, 0.00061712  , -0.5159094  , -0.0570311435, 0.325131446 , 0.00243741623, -0.000693684269, 3.029752    , 2.56        , 3           , 12          , 0.0478082448, 0
-0.0129835084, -0.0316699035, -9.760376   , 0.00263483776, 0.002131069 , -0.00162923336, -0.515235245, -0.05696373 , 0.3260078   , 0.002463776 , -0.0006723338, 3.0297358   , 2.57        , 3           , 14          , 0.000252382248, 0.0005850353
-0.009954704, -0.0180584081, -9.792839   , 9.83200953E-05, 0.001269189 , 0.000335374731, -0.515235245, -0.05696373 , 0.3260078   , 0.00246475684, -0.00065965025, 3.02973962  , 2.58        , 3           , 15          , 0           , -6.62316452E-05
-0.0263795964, -0.0326975845, -9.810201   , -0.0012906054, -0.00352696935, -0.000526199059, -0.5166509  , -0.0568963178, 0.326344877 , 0.002451854 , -0.0006949068, 3.029734    , 2.59        , 3           , 50          , 0           , 0
0.005731821 , -0.0317653865, -9.79684448 , -0.00357027212, 0.0006812302, 0.000599934836, -0.516313851, -0.05696373 , 0.325131446 , 0.00241617463, -0.000688108557, 3.02974     , 2.6         , 3           , 11          , 0.0487420149, 0.0487420224
0.000449269573, -0.02175964 , -9.801815   , 0.00235462585, 0.00184759765, -0.00021828599, -0.515033   , -0.05696373 , 0.325805575 , 0.002439722 , -0.000669627334, 3.02973771  , 2.61        , 3           , 12          , 0.048734244 , 0
0.00420376752, -0.01187533 , -9.802197   , 0.00209097378, -0.00181465538, 0.000904905668, -0.515033   , -0.05696373 , 0.325805575 , 0.00246062572, -0.000687796, 3.02974725  , 2.62        , 3           , 14          , 0.000252377 , 0.0005850352
-0.0102283033, -0.007641839, -9.803194   , -0.00101202913, -0.00268036244, 4.150534E-05, -0.516853154, -0.0568289049, 0.326142639 , 0.00245050527, -0.0007146005, 3.02974725  , 2.63        , 3           , 15          , 0           , -6.624232E-05
-0.013609889, -0.0247377958, -9.806455   , -0.000170161438, -0.00154837151, 0.000329729141, -0.5160442  , -0.0573682077, 0.325131446 , 0.00244880118, -0.0007300923, 3.02975059  , 2.64        , 3           , 50          , 0           , 0
-0.006984006, -0.03744977 , -9.806457   , -0.001017442, -0.00155410147, 0.000325778325, -0.515167832, -0.05716597 , 0.325805575 , 0.00243862439, -0.0007456412, 3.029754    , 2.65        , 3           , 11          , 0.0487420149, 0.0487420224
-0.006008287, 0.00180112477, -9.808094   , -0.001870536, -0.000715144, -0.00250224536, -0.515167832, -0.05716597 , 0.325805575 , 0.002419938 , -0.00075273175, 3.02972865  , 2.66        , 3           , 12          , 0.048734244 , 0
-0.0157466717, -0.008985937, -9.78697    , -0.0010140012, -0.00211722869, 0.00145506044, -0.5167183  , -0.0570985563, 0.3264123   , 0.002409787 , -0.0007739392, 3.02974343  , 2.67        , 3           , 14          , 0.000252377 , 0.0005850352
-0.0145166675, -0.02383544 , -9.803294   , 0.000117515134, -0.00267272349, -0.000235764412, -0.516179   , -0.0570311435, 0.32499662  , 0.00241096388, -0.000800660637, 3.02974057  , 2.68        , 3           , 15          , 0           , -6.624232E-05
0.0132735148, -0.0106312083, -9.801219   , 0.0001119391, -0.00154646311, -0.000234028674, -0.5151004  , -0.0568963178, 0.325670749 , 0.002412085 , -0.0008161197, 3.02973866  , 2.69        , 3           , 50          , 0           , 0
0.0145886317, -0.0111285355, -9.79217148 , 0.001233113 , 0.000150569889, -0.000508688565, -0.5151004  , -0.0568963178, 0.325670749 , 0.00242438749, -0.0008145828, 3.02973342  , 2.7         , 3           , 11          , 0.0496844724, 0.04968448
0.01763226  , -0.0175166484, -9.781778   , 0.00178516842, 0.00297004636, 0.00147604686, -0.5165161  , -0.057233382, 0.326142639 , 0.00244222721, -0.0007849183, 3.0297482   , 2.71        , 3           , 12          , 0.0496760942, 0
0.00274017081, -0.0155154616, -9.788213   , 0.000111932779, -0.00154645951, -0.0002340224, -0.5161116  , -0.05696373 , 0.325131446 , 0.00244334829, -0.000800377165, 3.02974582  , 2.72        , 3           , 14          , 0.000252383325, 0.0005850316
-0.004438989, -0.0126993116, -9.795486   , -0.00187292963, 0.000129563385, 0.0006069749, -0.5151004  , -0.0573007949, 0.325873    , 0.00242461427, -0.0007990963, 3.029752    , 2.73        , 3           , 15          , 0           , -6.624859E-05
0.006082506 , -0.008717364, -9.808498   , -0.0007337905, -0.00183375378, 4.413035E-05, -0.5151004  , -0.0573007949, 0.325873    , 0.00241727615, -0.000817434862, 3.029752    , 2.74        , 3           , 50          , 0           , 0
0.003997837 , -0.0307888985, -9.812674   , 0.00123065128, 0.0007137017, 5.725429E-05, -0.5164487  , -0.05716597 , 0.326344877 , 0.002429582 , -0.00081029936, 3.029753    , 2.75        , 3           , 11          , 0.0496844724, 0.04968448
-0.002494784, -0.03931962 , -9.80281448 , 0.00151881727, -0.000410647859, 0.000339372724, -0.5159768  , -0.0570985563, 0.325064033 , 0.00244476763, -0.000814414, 3.02975631  , 2.76        , 3           , 12          , 0.0496760942, 0
0.00576144364, -0.0295096282, -9.796835   , 0.0006766976, -0.00126106828, 0.00202934514, -0.5151004  , -0.0570311435, 0.3260078   , 0.00245151785, -0.0008270742, 3.02977681  , 2.77        , 3           , 14          , 0.000252383325, 0.0005850316
0.00193840265, -0.00872546 , -9.791805   , -0.000463583478, 0.0007022434, 0.0006144274, -0.5151004  , -0.0570311435, 0.3260078   , 0.00244687684, -0.0008200669, 3.02978253  , 2.78        , 3           , 15          , 0           , -6.624859E-05
-0.0163201485, -0.0184517689, -9.787918   , 0.0006538298, 0.00296239834, -0.00135459565, -0.516381264, -0.0570985563, 0.326277465 , 0.002453426 , -0.0007904098, 3.02976918  , 2.79        , 3           , 50          , 0           , 0
0.0103342757, -0.0241701379, -9.790449   , -0.002991653, -0.00213058968, 0.0003157016, -0.5160442  , -0.05716597 , 0.3249292   , 0.00242348039, -0.0008116794, 3.029772    , 2.8         , 3           , 11          , 0.05064166  , 0.0506416671
0.0004857057, -0.02039107 , -9.806329   , -0.000174518, -0.0007036652, 4.85033634E-05, -0.515167832, -0.0573007949, 0.3259404   , 0.00242173462, -0.000818717235, 3.029773    , 2.81        , 3           , 12          , 0.050632637 , 0
-0.0165085364, -0.03378033 , -9.791147   , -0.00186965743, -0.000433556037, 0.00145372283, -0.515167832, -0.0573007949, 0.3259404   , 0.002403026 , -0.0008230878, 3.0297873   , 2.82        , 3           , 14          , 0.000252388418, 0.000585023256
0.007644111 , -0.0209922791, -9.786841   , -0.000737073, -0.00127061759, -0.0008026109, -0.5166509  , -0.0568963178, 0.3259404   , 0.00239566178, -0.0008357747, 3.0297792   , 2.83        , 3           , 15          , 0           , -6.6252E-05
0.0228056051, -0.0116164107, -9.809737   , -0.00214888086, -0.00128016586, -0.000244120529, -0.5156397  , -0.05716597 , 0.325198859 , 0.00237417524, -0.0008485706, 3.02977681  , 2.84        , 3           , 50          , 0           , 0
0.0100054881, -0.01781544 , -9.800369   , -0.0010200782, -0.0009909587, 0.000609193346, -0.515167832, -0.0573682077, 0.325873    , 0.002363969 , -0.000858494663, 3.02978253  , 2.85        , 3           , 11          , 0.05064166  , 0.0506416671
-0.009169275, -0.0293251425, -9.79966    , 9.340499E-05, 0.001832321 , -0.00333672413, -0.515167832, -0.0573682077, 0.325873    , 0.0023649314, -0.000840092835, 3.02974963  , 2.86        , 3           , 12          , 0.050632637 , 0
-0.010827248, -0.0162356142, -9.795098   , -0.00441789 , 0.0006755107, 3.091902E-05, -0.516785741, -0.05696373 , 0.3260078   , 0.002320752 , -0.000833338359, 3.02975     , 2.87        , 3           , 14          , 0.000252388418, 0.000585023256
-0.000541016459, -0.0253884569, -9.792799   , -0.001024097, -0.00014626261, 0.0008930327, -0.5161116  , -0.0568963178, 0.324794382 , 0.00231050351, -0.0008348216, 3.02975869  , 2.88        , 3           , 15          , 0           , -6.6252E-05
0.02239937  , -0.0315849967, -9.77456951 , 0.0006779233, -0.00154262583, 0.001746377 , -0.515235245, -0.05716597 , 0.325805575 , 0.0023172684, -0.000850288256, 3.02977633  , 2.89        , 3           , 50          , 0           , 0
0.00559509033, -0.0376787335, -9.782406   , 0.00237789773, -0.00265741185, 0.00147000444, -0.515235245, -0.05716597 , 0.325805575 , 0.002341037 , -0.000876816, 3.029791    , 2.9         , 3           , 11          , 0.0516124964, 0.0516125076
-0.010994684, -0.0284227468, -9.793343   , -0.000462193973, 0.0004207019, 0.000613996 , -0.5165161  , -0.05696373 , 0.326142639 , 0.00233640964, -0.0008726232, 3.02979684  , 2.91        , 3           , 12          , 0.0516027845, 0
-0.006909763, -0.0226600431, -9.777017   , -0.000320365158, 0.0002808739, 0.0004731687, -0.516179   , -0.0570985563, 0.3249292   , 0.0023332017, -0.0008698255, 3.02980161  , 2.92        , 3           , 14          , 0.000252387865, 0.0005850081
0.0009382609, -0.01816482 , -9.799085   , -0.00187412044, 0.000270367134, -0.000240418012, -0.5151004  , -0.0570985563, 0.325873    , 0.00231446256, -0.0008671162, 3.0297997   , 2.93        , 3           , 15          , 0           , -6.62510647E-05
0.0068219495, -0.0191286616, -9.801303   , -0.001162559, -0.0008511187, -0.0003801302, -0.5151004  , -0.0570985563, 0.325873    , 0.00230284035, -0.000875618658, 3.029796    , 2.94        , 3           , 50          , 0           , 0
0.0100312829, -0.0182408951, -9.808055   , 0.000523104041, 0.0009905148, -8.68705E-05, -0.5164487  , -0.057233382, 0.326277465 , 0.002308072 , -0.0008657114, 3.029795    , 2.95        , 3           , 11          , 0.0516124964, 0.0516125076
0.010905819 , -0.0249719229, -9.822087   , 0.000232024016, 0.00281877979, 0.0006209769, -0.5160442  , -0.0568963178, 0.325064033 , 0.002310387 , -0.000837538042, 3.02980065  , 2.96        , 3           , 12          , 0.0516027845, 0
0.0109019568, -0.0200652  , -9.805345   , -4.85565142E-05, 0.00239452138, 0.000195202767, -0.515235245, -0.0573007949, 0.325873    , 0.00230989954, -0.000813597464, 3.029803    , 2.97        , 3           , 14          , 0.000252387865, 0.0005850081
0.009232823 , -0.0319061838, -9.767439   , -0.00173487212, 0.0005528846, -0.00122820667, -0.515235245, -0.0573007949, 0.325873    , 0.00229256065, -0.0008080402, 3.02979064  , 2.98        , 3           , 15          , 0           , -6.62510647E-05
-0.0115153939, -0.03204327 , -9.788389   , 0.0003831212, 0.0007079942, -0.000370500376, -0.5165835  , -0.05716597 , 0.326075226 , 0.00229639467, -0.0008009518, 3.0297873   , 2.99        , 3           , 50          , 0           , 0
-0.0005681189, -0.0267494675, -9.79054451 , 0.00418776739, 0.00242318469, 7.369178E-05, -0.5159768  , -0.0570985563, 0.32499662  , 0.00233829161, -0.000776645262, 3.02978778  , 3           , 3           , 11          , 0.05259597  , 0.05259598
0.0122719342, -0.01694727 , -9.798089   , 0.00150913955, 0.00156034587, 0.0004836853, -0.5149656  , -0.0570985563, 0.325805575 , 0.002353379 , -0.0007610533, 3.029793    , 3.01        , 3           , 12          , 0.05258552  , 0
-0.0152398767, -0.0116255814, -9.808673   , -0.000463873468, 0.0008430656, 0.00132099423, -0.5149656  , -0.0570985563, 0.325805575 , 0.00234873057, -0.0007526537, 3.029806    , 3.02        , 3           , 14          , 0.0002523842, 0.000584993861
-0.008664144, -0.02660994 , -9.803713   , 0.00151619152, 0.000152520792, 0.00062278437, -0.516381264, -0.0570985563, 0.326277465 , 0.00236388762, -0.00075114303, 3.029812    , 3.03        , 3           , 15          , 0           , -6.625478E-05
-0.0102234231, -0.03613016 , -9.785233   , 0.00249657361, 0.00156702555, -0.001348199, -0.516246438, -0.0568963178, 0.3248618   , 0.00238886336, -0.000735440932, 3.02979875  , 3.04        , 3           , 50          , 0           , 0
-0.0116773006, -0.0117164971, -9.794183   , 0.0006588711, 0.001976959 , -0.00107357081, -0.515167832, -0.05696373 , 0.325873    , 0.00239546015, -0.000715645554, 3.02978826  , 3.05        , 3           , 11          , 0.05259597  , 0.05259598
0.00980623253, -0.0327064544, -9.799529   , -0.0003185152, -0.000141460667, 4.87154139E-05, -0.515167832, -0.05696373 , 0.325873    , 0.00239227433, -0.0007170614, 3.02978826  , 3.06        , 3           , 12          , 0.05258552  , 0
0.0156300142, -0.0390750431, -9.80448151 , -0.0003174103, -0.0002822412, 0.0007548422, -0.5166509  , -0.05696373 , 0.326142639 , 0.00238909479, -0.0007199018, 3.029796    , 3.07        , 3           , 14          , 0.0002523842, 0.000584993861
0.0163749885, -0.0169724356, -9.804837   , 0.000393617316, -0.00126294361, 0.000897884544, -0.5159768  , -0.05716597 , 0.325266272 , 0.00239302451, -0.0007325526, 3.029805    , 3.08        , 3           , 15          , 0           , -6.625478E-05
0.00174176786, -0.02004355 , -9.780103   , 0.00124651822, -0.0025242595, -0.00023026728, -0.515033   , -0.0573007949, 0.3259404   , 0.002405492 , -0.000757789647, 3.02980256  , 3.09        , 3           , 50          , 0           , 0
-0.0298978817, -0.0205193311, -9.796618   , 0.001245081 , -0.00210189424, 0.000900525 , -0.515033   , -0.0573007949, 0.3259404   , 0.00241794134, -0.0007787519, 3.02981162  , 3.1         , 3           , 11          , 0.0535911322, 0.05359115
-0.007235801, -0.0176421739, -9.791913   , 0.00124380575, -0.00167954294, 0.00231386325, -0.516381264, -0.0570985563, 0.3260078   , 0.00243036146, -0.0007956033, 3.029835    , 3.11        , 3           , 12          , 0.0535799041, 0
-0.008884807, -0.0401792526, -9.793374   , 0.0027940385, -0.00110590959, 0.00175689929, -0.516179   , -0.057233382, 0.32499662  , 0.00245828764, -0.000806705269, 3.02985215  , 3.12        , 3           , 14          , 0.0002523831, 0.0005849793
-0.00247995462, -0.0419857167, -9.815029   , 0.0037775347, -0.0002545333, 0.0003501231, -0.515033   , -0.05716597 , 0.325805575 , 0.00249606022, -0.000809259131, 3.029856    , 3.13        , 3           , 15          , 0           , -6.624636E-05
0.0243757572, -0.0198672563, -9.777217   , 0.000248556724, -0.000700758945, -0.000938408, -0.515033   , -0.05716597 , 0.325805575 , 0.0024985536, -0.000816243235, 3.02984643  , 3.14        , 3           , 50          , 0           , 0
-0.00145228114, 0.0147149377, -9.773204   , -0.0014385822, -0.002260828, -0.00137250253, -0.5166509  , -0.0570311435, 0.326210052 , 0.002484179 , -0.0008388172, 3.02983212  , 3.15        , 3           , 11          , 0.0535911322, 0.05359115
0.01023882  , -0.03228179 , -9.793196   , 0.0006849062, -0.003231979, -0.000657800643, -0.5161116  , -0.0570985563, 0.325064033 , 0.00249103364, -0.0008711205, 3.029826    , 3.16        , 3           , 12          , 0.0535799041, 0
0.0196049456, -0.0133898538, -9.80796051 , -0.000167171675, -0.00225223042, -0.000518963847, -0.515167832, -0.057233382, 0.325805575 , 0.00248936657, -0.000893629855, 3.02982068  , 3.17        , 3           , 14          , 0.0002523831, 0.0005849793
-0.00717128161, -0.0135727432, -9.794607   , -0.00201450614, -1.2126884E-05, -0.00123039621, -0.515167832, -0.057233382, 0.325805575 , 0.00246923231, -0.000893720658, 3.02980828  , 3.18        , 3           , 15          , 0           , -6.624636E-05
0.00107640121, -0.00778682437, -9.799493   , -0.00173290237, 0.000271350844, -0.000239764224, -0.5166509  , -0.0570311435, 0.326142639 , 0.00245190552, -0.000891001138, 3.029806    , 3.19        , 3           , 50          , 0           , 0
0.0068583847, -0.0177600868, -9.805817   , -0.000172267217, -0.00112595223, 0.0003303912, -0.5159768  , -0.0570985563, 0.325131446 , 0.00245013251, -0.000902182539, 3.02980924  , 3.2         , 3           , 11          , 0.0545971021, 0.05459712
0.0061030956, -0.0412101075, -9.807277   , 0.00278501352, 0.0005834938, 0.0006293601, -0.515302658, -0.0570311435, 0.325873    , 0.002477977 , -0.0008963633, 3.02981544  , 3.21        , 3           , 12          , 0.05458504  , 0
0.0148083447, -0.02382052 , -9.775951   , 0.00348751433, 0.001292181 , 0.0004924686, -0.515302658, -0.0570311435, 0.325873    , 0.00251284754, -0.000883453642, 3.02982068  , 3.22        , 3           , 14          , 0.0002523918, 0.0005849635
0.009512312 , -0.0169501565, -9.787714   , 0.00137649057, -0.000270754157, -0.000367407454, -0.5166509  , -0.0570985563, 0.326075226 , 0.00252661575, -0.0008861518, 3.02981687  , 3.23        , 3           , 15          , 0           , -6.625334E-05
0.02783358  , -0.035665296, -9.787652   , -0.000320776919, 0.000280916516, -0.000233172483, -0.5159768  , -0.0570311435, 0.3248618   , 0.00252341013, -0.000883336761, 3.02981448  , 3.24        , 3           , 50          , 0           , 0
-0.00260195555, -0.0104678376, -9.79455948 , 0.000242845839, 0.0005663023, 5.243268E-05, -0.514830768, -0.05696373 , 0.325805575 , 0.002525838 , -0.0008776751, 3.029815    , 3.25        , 3           , 11          , 0.0545971021, 0.05459712
-0.0146721257, 0.00274546025, -9.790529   , 0.0006616886, 0.00155464537, 0.0001971956, -0.514830768, -0.05696373 , 0.325805575 , 0.002532453 , -0.000862133747, 3.02981687  , 3.26        , 3           , 12          , 0.05458504  , 0
0.0111208875, -0.0287406612, -9.776      , 0.0003818867, 0.0009896045, -8.7526576E-05, -0.5166509  , -0.05696373 , 0.326210052 , 0.0025362724, -0.000852235535, 3.029816    , 3.27        , 3           , 14          , 0.0002523918, 0.0005849635
0.000357974321, -0.0267434735, -9.795508   , 0.0006712835, -0.000416310853, -8.837931E-05, -0.5159768  , -0.0570985563, 0.32499662  , 0.00254298584, -0.000856396335, 3.029815    , 3.28        , 3           , 15          , 0           , -6.625334E-05
-0.00378059782, 0.00576233724, -9.786366   , 0.0009480899, 0.000852645142, 0.00104504032, -0.5149656  , -0.057233382, 0.325738162 , 0.00255245785, -0.0008478966, 3.02982545  , 3.29        , 3           , 50          , 0           , 0
0.008948818 , -0.0255152062, -9.788206   , 0.00137450569, 0.0002923963, 0.00104613916, -0.5149656  , -0.057233382, 0.325738162 , 0.00256612641, -0.00084490946, 3.029836    , 3.3         , 3           , 11          , 0.0556130558, 0.055613067
0.0125741744, -0.0264479313, -9.791798   , 0.0002539855, -0.0016862019, 4.89528138E-05, -0.516381264, -0.0570985563, 0.326075226 , 0.00256866566, -0.0008617725, 3.029837    , 3.31        , 3           , 12          , 0.055600103 , 0
-0.00640801247, -0.027089186, -9.803246   , 0.000537888031, -0.00196585665, 0.000191104438, -0.5159768  , -0.0570985563, 0.325064033 , 0.002574043 , -0.0008814358, 3.0298388   , 3.32        , 3           , 14          , 0.000252404163, 0.0005849471
-0.00111518148, -0.0108260876, -9.827093   , 0.002089886 , -0.00181457237, -0.00093158544, -0.515167832, -0.0568963178, 0.325738162 , 0.00259495014, -0.0008995574, 3.02982926  , 3.33        , 3           , 15          , 0           , -6.624482E-05
-0.000489556231, -0.021329606, -9.792329   , 0.00138131983, -0.00139700167, -0.00164057047, -0.515167832, -0.0568963178, 0.325738162 , 0.00260877842, -0.000913484546, 3.02981257  , 3.34        , 3           , 50          , 0           , 0
-0.0164037552, -0.0256611165, -9.790661   , 0.000529116 , -0.000276468141, -0.000512635568, -0.5165161  , -0.0570311435, 0.3259404   , 0.002614074 , -0.0009162359, 3.02980733  , 3.35        , 3           , 11          , 0.0556130558, 0.055613067
-0.00294730626, -0.00635832176, -9.807652   , 0.00095090986, 0.000148745559, -8.620302E-05, -0.5159768  , -0.05716597 , 0.3248618   , 0.002623584 , -0.0009147463, 3.02980638  , 3.36        , 3           , 12          , 0.055600103 , 0
0.0141989542, -0.0115184421, -9.808898   , -0.00017531238, -0.0005628069, -9.25555942E-05, -0.514695942, -0.0570311435, 0.325873    , 0.00262183161, -0.000920371967, 3.02980542  , 3.37        , 3           , 14          , 0.000252404163, 0.0005849471
0.00317220436, -0.0133058392, -9.775996   , -0.00200547348, -0.00156069582, 0.0011687841, -0.514695942, -0.0570311435, 0.325873    , 0.002601766 , -0.0009360093, 3.02981734  , 3.38        , 3           , 15          , 0           , -6.624482E-05
-0.0117113106, -0.0148685044, -9.796003   , -0.000738898, -0.000707406667, 0.0008934746, -0.5165835  , -0.057233382, 0.326075226 , 0.00259436877, -0.000943106541, 3.0298264   , 3.39        , 3           , 50          , 0           , 0
-0.008838491, -0.0405880772, -9.806032   , 0.0008099722, 7.019071E-06, -0.000793424435, -0.516246438, -0.0570311435, 0.3248618   , 0.00260240049, -0.0009429442, 3.0298183   , 3.4         , 3           , 11          , 0.0566382073, 0.0566382259
0.0117848106, -0.02054059 , -9.801271   , 0.000102140351, 0.000424593338, -0.000230991063, -0.5151004  , -0.05696373 , 0.325738162 , 0.00260342425, -0.000938692363, 3.029816    , 3.41        , 3           , 12          , 0.05662432  , 0
-0.004356958, -0.04023241 , -9.79334    , 0.0005224588, 0.00113137183, 5.46066076E-05, -0.5151004  , -0.05696373 , 0.325738162 , 0.002608648 , -0.000927380053, 3.02981687  , 3.42        , 3           , 14          , 0.0002524177, 0.0005849342
0.00159740448, -0.0389072374, -9.805493   , 0.000389564957, -0.000418188079, 0.00118171133, -0.5167183  , -0.05716597 , 0.325873    , 0.002612533 , -0.0009315931, 3.02982831  , 3.43        , 3           , 15          , 0           , -6.624248E-05
0.009924959 , -0.025915   , -9.806731   , 0.00110075541, -0.0013988897, 0.001607291 , -0.5161116  , -0.0573682077, 0.3248618   , 0.00262352568, -0.000945623848, 3.02984452  , 3.44        , 3           , 50          , 0           , 0
0.00139071606, -0.0186167527, -9.800438   , 0.0017978875, 0.000295273057, 0.0006243059, -0.515167832, -0.0570985563, 0.325805575 , 0.00264149858, -0.0009426874, 3.02985072  , 3.45        , 3           , 11          , 0.0566382073, 0.0566382259
-0.006852578, -0.0235064067, -9.793742   , -0.000328469847, 0.001829554 , -0.0002307968, -0.515167832, -0.0570985563, 0.325805575 , 0.00263821566, -0.0009243858, 3.02984834  , 3.46        , 3           , 12          , 0.05662432  , 0
-0.008687972, -0.0235048011, -9.787881   , -0.000749403669, 0.00126355828, -0.000374908879, -0.516381264, -0.0570311435, 0.326075226 , 0.0026307255, -0.000911740237, 3.02984452  , 3.47        , 3           , 14          , 0.0002524177, 0.0005849342
-0.00848957 , -0.01486338 , -9.808634   , 0.0008103357, 0.0001478067, 0.00104328594, -0.5160442  , -0.0570985563, 0.324794382 , 0.00263881916, -0.0009102895, 3.029855    , 3.48        , 3           , 15          , 0           , -6.624248E-05
-0.00991958 , -0.0184762962, -9.802784   , 0.00151328836, 0.000715710339, 0.000482371252, -0.515235245, -0.0570985563, 0.325873    , 0.00265394757, -0.000903145352, 3.02985978  , 3.49        , 3           , 50          , 0           , 0
0.005166822 , -0.00469777454, -9.79312    , -0.000193698477, 0.00309755933, -0.000510727637, -0.515235245, -0.0570985563, 0.325873    , 0.00265198271, -0.000872111646, 3.029855    , 3.5         , 3           , 11          , 0.057671845 , 0.05767186
0.0171196051, -0.030504   , -9.808956   , -0.000185089724, 0.00140817  , -8.952513E-05, -0.5165161  , -0.0570985563, 0.326142639 , 0.0026501324, -0.0008580276, 3.029854    , 3.51        , 3           , 12          , 0.0576569624, 0
0.000684042461, -0.0393492728, -9.805051   , 0.00124742056, -0.00266497349, 0.000193304979, -0.516179   , -0.05696373 , 0.325064033 , 0.00266260514, -0.0008846824, 3.029856    , 3.52        , 3           , 14          , 0.000252423517, 0.0005849262
-0.0009867968, -0.0209139623, -9.780127   , 0.00110436091, -0.00224357937, 0.0006171037, -0.515302658, -0.0570311435, 0.325805575 , 0.00267364341, -0.0009071343, 3.02986217  , 3.53        , 3           , 15          , 0           , -6.623789E-05
0.00485070329, -0.0263787322, -9.785529   , 0.0009505199, 0.000289550779, 0.000479081849, -0.515302658, -0.0570311435, 0.325805575 , 0.00268314383, -0.000904251647, 3.029867    , 3.54        , 3           , 50          , 0           , 0
0.0176703613, -0.0215029269, -9.803942   , 0.00165347266, 0.000857454143, -8.183278E-05, -0.5166509  , -0.0570985563, 0.326210052 , 0.00269967946, -0.0008956749, 3.02986646  , 3.55        , 3           , 11          , 0.057671845 , 0.05767186
-0.008169984, -0.0261353832, -9.812294   , 0.0008059846, 0.0009925092, 0.000762045733, -0.5159768  , -0.05696373 , 0.3248618   , 0.00270773284, -0.0008857706, 3.029874    , 3.56        , 3           , 12          , 0.0576569624, 0
-0.0103351809, -0.0135309938, -9.795987   , -0.000892098469, 0.001544176 , -0.0005164068, -0.515167832, -0.0570985563, 0.325873    , 0.00269881566, -0.000870315, 3.02986836  , 3.57        , 3           , 14          , 0.000252423517, 0.0005849262
0.009976486 , -0.01159004 , -9.773225   , -0.00130802707, -0.000148082618, -0.00165113562, -0.515167832, -0.0570985563, 0.325873    , 0.00268575  , -0.0008717513, 3.02985215  , 3.58        , 3           , 15          , 0           , -6.623789E-05
0.0009668051, -0.0199270919, -9.811747   , 0.000945440668, 0.00113424147, -0.00107357244, -0.5165835  , -0.05716597 , 0.3259404   , 0.00269521354, -0.0008603801, 3.02984166  , 3.59        , 3           , 50          , 0           , 0
-0.000927742571, -0.0217588115, -9.797306   , 0.002063453 , 0.00353520014, -0.0007820807, -0.5159768  , -0.057233382, 0.32499662  , 0.002715803 , -0.0008249205, 3.029834    , 3.6         , 3           , 11          , 0.0587133   , 0.05871331
-0.00357797253, -0.0149777858, -9.791874   , 0.0008096682, 0.000147826679, -8.68703646E-05, -0.515235245, -0.0570985563, 0.325805575 , 0.0027239006, -0.0008234399, 3.029833    , 3.61        , 3           , 12          , 0.05869736  , 0
0.0005145734, -0.0217067227, -9.817633   , -0.00130094762, -0.00141510624, -0.000240402733, -0.515235245, -0.0570985563, 0.325805575 , 0.002710893 , -0.0008375843, 3.02983022  , 3.62        , 3           , 14          , 0.0002524326, 0.000584911
0.0134307062, -0.0323008522, -9.798595   , -0.0004665394, 0.00112470775, -0.0007976215, -0.5165835  , -0.0570985563, 0.325873    , 0.00270623481, -0.0008263158, 3.02982259  , 3.63        , 3           , 15          , 0           , -6.623595E-05
-0.0192140527, -0.0337393619, -9.79387951 , 0.00220606034, 0.00325459079, -0.0007818561, -0.5161116  , -0.05716597 , 0.325064033 , 0.00272830133, -0.0007937487, 3.029815    , 3.64        , 3           , 50          , 0           , 0
-0.0157112218, -0.008957213, -9.795558   , -0.000185795856, 0.00154896756, -8.931009E-05, -0.515033   , -0.0573007949, 0.325670749 , 0.002726444 , -0.0007782566, 3.029814    , 3.65        , 3           , 11          , 0.0587133   , 0.05871331
-0.0236345977, -0.0246722512, -9.791163   , -0.00172868825, -0.000573275553, -9.980772E-05, -0.515033   , -0.0573007949, 0.325670749 , 0.00270915823, -0.000783986645, 3.029813    , 3.66        , 3           , 12          , 0.05869736  , 0
-0.01761376 , -0.0165979564, -9.797864   , -0.0007412993, -0.0004258102, -0.0008013251, -0.5165161  , -0.05696373 , 0.3260078   , 0.00270175142, -0.000788223, 3.02980447  , 3.67        , 3           , 14          , 0.0002524326, 0.000584911
0.0186287   , -0.0156682469, -9.798035   , -0.000461045, -1.55300768E-06, -0.0009406261, -0.5161116  , -0.0570311435, 0.3249292   , 0.00269714813, -0.000788213161, 3.02979541  , 3.68        , 3           , 15          , 0           , -6.623595E-05
0.01848696  , -0.0309590027, -9.812563   , 0.0005240454, 0.0007090449, -0.0007936632, -0.515033   , -0.0570985563, 0.325738162 , 0.002702395 , -0.000781101349, 3.0297873   , 3.69        , 3           , 50          , 0           , 0
-0.01201699 , -0.0401118062, -9.802439   , 0.0009457952, 0.000993484 , -0.00163887162, -0.515033   , -0.0570985563, 0.325738162 , 0.00271182437, -0.000771057035, 3.029771    , 3.7         , 3           , 11          , 0.0597619265, 0.0597619452
-0.0006782729, -0.0371047854, -9.796916   , 0.0012334272, 9.917949E-06, -0.00107399863, -0.5165161  , -0.0573007949, 0.326075226 , 0.002724167 , -0.000770928746, 3.0297606   , 3.71        , 3           , 12          , 0.0597448759, 0
0.0101920757, -0.03499777 , -9.790495   , 0.0009525131, -0.000132770772, 0.000337154866, -0.516179   , -0.0573682077, 0.32499662  , 0.00273368973, -0.000772265834, 3.02976346  , 3.72        , 3           , 14          , 0.0002524397, 0.0005848996
0.0268321279, -0.004115631, -9.773517   , -0.00285958918, -0.000440123957, -0.00095247617, -0.5148982  , -0.05716597 , 0.325873    , 0.00270510116, -0.000776641, 3.029754    , 3.73        , 3           , 15          , 0           , -6.623066E-05
-0.008728696, -0.0230914429, -9.776579   , -0.004405351, -0.001999237, -0.00110337441, -0.5148982  , -0.05716597 , 0.325873    , 0.002661056 , -0.0007966036, 3.02974343  , 3.74        , 3           , 50          , 0           , 0
-0.0205427855, -0.03146766 , -9.79388    , -0.000461793185, 0.0002800267, 0.00018995248, -0.5166509  , -0.0570985563, 0.326075226 , 0.00265643653, -0.000793808431, 3.02974534  , 3.75        , 3           , 11          , 0.0597619265, 0.0597619452
0.00773861539, -0.0218084082, -9.812608   , 0.00207873574, 0.0005787819, 0.000343507418, -0.5159094  , -0.0570985563, 0.3249292   , 0.00267722132, -0.0007880298, 3.0297482   , 3.76        , 3           , 12          , 0.0597448759, 0
0.0136462012, -0.0156112816, -9.797621   , 0.00363650941, -0.000255407416, 0.000773254957, -0.5151004  , -0.057233382, 0.325873    , 0.00271358015, -0.0007906048, 3.02975583  , 3.77        , 3           , 14          , 0.0002524397, 0.0005848996
-0.0157670677, -0.0139123164, -9.797838   , 0.00348668732, 0.001433027 , 0.000351394 , -0.5151004  , -0.057233382, 0.325873    , 0.00274844421, -0.0007762843, 3.02975965  , 3.78        , 3           , 15          , 0           , -6.623066E-05
0.0160975978, -0.0341585241, -9.792255   , 0.000947389344, 0.000852705969, -8.513248E-05, -0.5166509  , -0.0570311435, 0.326142639 , 0.00275791832, -0.0007677548, 3.02975869  , 3.79        , 3           , 50          , 0           , 0
0.0130617525, -0.02731776 , -9.803098   , -0.00130940555, 0.0002743104, -0.000379068428, -0.5159094  , -0.0570311435, 0.3248618   , 0.00274479622, -0.0007649124, 3.02975488  , 3.8         , 3           , 11          , 0.060817156 , 0.0608171672
-0.0076967706, -0.0288022477, -9.825862   , -0.00102915126, 0.000698567543, -0.000518369139, -0.5149656  , -0.05696373 , 0.325805575 , 0.00273450883, -0.0007579125, 3.02975     , 3.81        , 3           , 12          , 0.06079892  , 0
-0.00452599861, -0.0194650628, -9.795967   , 0.00122501352, 0.00184010935, 5.897696E-05, -0.5149656  , -0.05696373 , 0.325805575 , 0.00274675852, -0.0007395132, 3.02975059  , 3.82        , 3           , 14          , 0.000252444937, 0.0005848843
0.008878205 , -0.000204592958, -9.800304   , -0.00019331192, 0.00309760263, 0.000195613626, -0.5167183  , -0.0570985563, 0.3260078   , 0.00274482369, -0.0007085426, 3.029753    , 3.83        , 3           , 15          , 0           , -6.623552E-05
0.002743478 , -0.0186372325, -9.799072   , -0.00103308854, 0.0015432639, -9.32613038E-05, -0.5161116  , -0.0570985563, 0.3249292   , 0.00273449323, -0.000693107431, 3.029752    , 3.84        , 3           , 50          , 0           , 0
-0.0103383875, -0.00773104327, -9.776528   , 0.000383145933, 0.0007081182, -0.000229247031, -0.5151004  , -0.05696373 , 0.325805575 , 0.00273832632, -0.000686020066, 3.02974916  , 3.85        , 3           , 11          , 0.060817156 , 0.0608171672
-0.0175544061, -0.009408266, -9.789246   , 0.0005253827, 0.0005682923, 0.0003362693, -0.5151004  , -0.05696373 , 0.325805575 , 0.00274357782, -0.000680346333, 3.029753    , 3.86        , 3           , 12          , 0.06079892  , 0
-0.0068879  , -0.0284448825, -9.800995   , 0.0006679901, 0.000287682225, 0.000336493831, -0.5165161  , -0.05716597 , 0.3259404   , 0.0027502554, -0.0006774788, 3.02975631  , 3.87        , 3           , 14          , 0.000252444937, 0.0005848843
-0.0137018729, -0.0230269227, -9.778425   , 0.001093395 , -0.000131802, -0.000227256533, -0.5161116  , -0.05716597 , 0.32499662  , 0.00276119076, -0.000678790442, 3.029754    , 3.88        , 3           , 15          , 0           , -6.623552E-05
0.004978759 , -0.0195797216, -9.79499149 , -0.000587841263, -0.00281812972, -9.801188E-05, -0.515033   , -0.0573007949, 0.325805575 , 0.002755313 , -0.000706969, 3.029753    , 3.89        , 3           , 50          , 0           , 0
-3.556162E-05, -0.022226641, -9.795492   , -0.001579588, -0.00212089485, 0.000322255772, -0.515033   , -0.0573007949, 0.325805575 , 0.00273944065, -0.000728151761, 3.02975583  , 3.9         , 3           , 11          , 0.0618784167, 0.0618784353
-0.0173208825, -0.00118473452, -9.819944   , -0.00116714416, 0.000275276368, 0.00145806954, -0.5165835  , -0.0570985563, 0.326075226 , 0.00272775837, -0.000725438935, 3.02977061  , 3.91        , 3           , 12          , 0.0618589371, 0
0.002966105 , -0.0023882268, -9.801264   , -0.000737601658, -0.000848117459, 0.00202338421, -0.5160442  , -0.0570311435, 0.3248618   , 0.00272036786, -0.000733975146, 3.029791    , 3.92        , 3           , 14          , 0.000252457539, 0.000584878435
0.00591147132, -0.04315078 , -9.766606   , 0.000250729 , -0.000841433532, 0.001745456 , -0.5151004  , -0.05696373 , 0.325738162 , 0.00272286241, -0.0007424369, 3.02980828  , 3.93        , 3           , 15          , 0           , -6.622151E-05
0.0167763121, -0.0210366081, -9.805303   , 0.00109452452, -0.00013179073, 0.00175049156, -0.5151004  , -0.05696373 , 0.325738162 , 0.00273379427, -0.0007438026, 3.02982545  , 3.94        , 3           , 50          , 0           , 0
0.0173695013, -0.0427251719, -9.798608   , 0.000959013 , -0.00139979133, 0.0007589994, -0.5165161  , -0.056761492, 0.3260078   , 0.00274337875, -0.000757821137, 3.029833    , 3.95        , 3           , 11          , 0.0618784167, 0.0618784353
-0.0263717026, -0.0295667425, -9.802052   , -0.00172305561, -0.00169950316, 3.971096E-05, -0.5160442  , -0.05696373 , 0.324794382 , 0.002726148 , -0.0007748171, 3.02983356  , 3.96        , 3           , 12          , 0.0618589371, 0
-0.015110149, -0.0275149345, -9.780714   , -0.00257599354, -0.000578973035, -0.000103772851, -0.515033   , -0.0570985563, 0.325873    , 0.00270038913, -0.0007806041, 3.0298326   , 3.97        , 3           , 14          , 0.000252457539, 0.000584878435
-0.0140053211, -0.0126345521, -9.781549   , -0.00130552531, -0.000429594424, 0.000326176436, -0.515033   , -0.0570985563, 0.325873    , 0.002687331 , -0.0007849087, 3.029836    , 3.98        , 3           , 15          , 0           , -6.622151E-05
-0.00372016872, -0.0258054174, -9.79192    , -0.00173203507, 0.000130670363, 0.000183800148, -0.5167183  , -0.05716597 , 0.326075226 , 0.00267000985, -0.000783607, 3.02983785  , 3.99        , 3           , 50          , 0           , 0
-0.00259753969, -0.01715951 , -9.817186   , -0.00186915311, -0.000714975642, 4.05702631E-05, -0.5161116  , -0.05696373 , 0.324794382 , 0.00265128864, -0.000790730352, 3.02983785  , 4           , 3           , 11          , 0.06294521  , 0.0629452243
-0.0012864843, -0.01810649 , -9.808593   , 0.000110785913, -0.00126473524, 0.000331458432, -0.5151004  , -0.05716597 , 0.326075226 , 0.002652394 , -0.0008033866, 3.02984166  , 4.01        , 3           , 12          , 0.0629244149, 0
0.008110415 , -0.0254501384, -9.804483   , 0.0002434722, 0.000425609469, 5.21831644E-05, -0.5151004  , -0.05716597 , 0.326075226 , 0.00265482836, -0.0007991318, 3.02984166  , 4.02        , 3           , 14          , 0.000252462458, 0.000584873836
0.007795672 , -0.0177450217, -9.813494   , -0.00200934312, -0.000856711646, 0.0006047698, -0.5165835  , -0.0570311435, 0.3259404   , 0.00263473042, -0.0008077149, 3.02984786  , 4.03        , 3           , 15          , 0           , -6.62206658E-05
0.00643168855, -0.0101456763, -9.787709   , -0.001727161, -0.0008548028, 0.000182280433, -0.515774548, -0.0570985563, 0.3249292   , 0.00261745718, -0.0008162677, 3.02984977  , 4.04        , 3           , 50          , 0           , 0
-0.02232224 , -0.0238327719, -9.777139   , -0.0007403058, -0.000566554, -0.000236482549, -0.5148982  , -0.056761492, 0.325738162 , 0.0026100562, -0.000821927038, 3.02984738  , 4.05        , 3           , 11          , 0.06294521  , 0.0629452243
-0.0225507542, -0.04812085 , -9.799388   , 0.00110214949, -0.00182118011, 0.000476468471, -0.5148982  , -0.056761492, 0.325738162 , 0.00262107374, -0.0008401512, 3.02985215  , 4.06        , 3           , 12          , 0.0629244149, 0
0.002688256 , -0.0151111744, -9.77419949 , 0.000244658673, 0.0002848294, 0.0008995784, -0.516785741, -0.05716597 , 0.326075226 , 0.00262351264, -0.0008373266, 3.02986073  , 4.07        , 3           , 14          , 0.000252462458, 0.000584873836
-0.00105007179, -0.0334630422, -9.805038   , 0.000662170467, 0.00148434483, 0.000550226134, -0.516179   , -0.0570311435, 0.3249292   , 0.00263012946, -0.000822497648, 3.02986646  , 4.08        , 3           , 15          , 0           , -6.62206658E-05
0.007910177 , -0.0416810066, -9.807716   , -0.00075451273, 0.00231948867, -9.07658541E-05, -0.5151004  , -0.0570311435, 0.325738162 , 0.00262258481, -0.00079930044, 3.0298655   , 4.09        , 3           , 50          , 0           , 0
-0.00310387556, -0.0189829916, -9.809967   , -0.0007612499, 0.003516146 , -0.00150161178, -0.5151004  , -0.0570311435, 0.325738162 , 0.00261500268, -0.0007640421, 3.02985072  , 4.1         , 3           , 11          , 0.06401704  , 0.06401706
0.00271813944, -0.0226749126, -9.805869   , -0.000260221976, 0.002322841 , -1.78298487E-05, -0.5167183  , -0.05716597 , 0.3260078   , 0.00261240057, -0.000740813266, 3.02985072  , 4.11        , 3           , 12          , 0.06399486  , 0
0.00508138072, -0.0194965638, -9.819849   , 0.001082021 , 0.00226152386, 0.0006240264, -0.5159768  , -0.05696373 , 0.3249292   , 0.00262321625, -0.000718214433, 3.029857    , 4.12        , 3           , 14          , 0.000252459344, 0.000584864232
-0.00618236838, -0.0393300131, -9.787023   , 0.000456007372, 0.000497447967, 0.0018897698, -0.5151004  , -0.0570311435, 0.325873    , 0.00262776273, -0.0007132897, 3.029876    , 4.13        , 3           , 15          , 0           , -6.621776E-05
0.008213432 , -0.0146542694, -9.794947   , -0.00159711507, 0.00132828963, -0.000449410261, -0.5151004  , -0.0570311435, 0.325873    , 0.00261179428, -0.000699995144, 3.02987123  , 4.14        , 3           , 50          , 0           , 0
-0.003403497, -0.005909409, -9.805395   , -3.62265164E-05, -6.90284E-05, 0.000544544251, -0.516381264, -0.0570311435, 0.326142639 , 0.002611429 , -0.000700699631, 3.029877    , 4.15        , 3           , 11          , 0.06401704  , 0.06401706
-0.004528746, -0.0181282423, -9.790991   , 0.000679861871, -0.001964815, 0.00160442328, -0.5159768  , -0.0570985563, 0.32499662  , 0.002618216 , -0.0007203897, 3.02989316  , 4.16        , 3           , 12          , 0.06399486  , 0
0.0230662432, -0.0193653777, -9.787621   , 0.002790648 , -0.000683452643, -0.00036150933, -0.5148982  , -0.0570985563, 0.3259404   , 0.00264612515, -0.0007272147, 3.02988935  , 4.17        , 3           , 14          , 0.000252459344, 0.000584864232
0.00543747051, -0.0191338789, -9.794987   , 0.001792374 , 0.001351211 , 0.000202102281, -0.5148982  , -0.0570985563, 0.3259404   , 0.00266404753, -0.000713708, 3.02989125  , 4.18        , 3           , 15          , 0           , -6.621776E-05
-0.008003657, -0.0103783468, -9.802284   , 0.00122981879, 0.0007842584, -0.000649011869, -0.5165835  , -0.0573007949, 0.3259404   , 0.00267635  , -0.000705848041, 3.02988458  , 4.19        , 3           , 50          , 0           , 0
0.0108449021, -0.0241285861, -9.804457   , -0.00193560927, -0.00148973148, 0.000604110654, -0.516179   , -0.05716597 , 0.32499662  , 0.00265691336, -0.000720672251, 3.02989078  , 4.2         , 3           , 11          , 0.06509348  , 0.06509349
0.00628379  , -0.02365603 , -9.794998   , -0.0004595493, -0.000212663144, -9.33663759E-05, -0.515235245, -0.05716597 , 0.3259404   , 0.00265231845, -0.0007227964, 3.02988982  , 4.21        , 3           , 12          , 0.06506983  , 0
-0.007457546, -0.03522951 , -9.794248   , -0.0006837265, 0.00210881233, -0.0015740958, -0.515235245, -0.05716597 , 0.3259404   , 0.002645492 , -0.0007016667, 3.029874    , 4.22        , 3           , 14          , 0.000252471829, 0.0005848496
-0.009038956, -0.0118118869, -9.775179   , 2.093931E-05, 0.002676724 , 0.0008316329, -0.516785741, -0.0570311435, 0.326075226 , 0.00264569558, -0.000674921554, 3.02988267  , 4.23        , 3           , 15          , 0           , -6.62086E-05
0.00581048336, -0.0236673411, -9.79003048 , 0.00206747348, 0.00269056647, -0.0009953131, -0.515841961, -0.0570985563, 0.325064033 , 0.002666377 , -0.0006479895, 3.02987266  , 4.24        , 3           , 50          , 0           , 0
0.00634369673, -0.018251285, -9.792263   , 0.000735437148, 0.0007809299, -0.000863228634, -0.514830768, -0.05716597 , 0.3259404   , 0.00267373677, -0.0006401572, 3.029864    , 4.25        , 3           , 11          , 0.06509348  , 0.06509349
-0.01978976 , 0.0240435936, -9.79952049 , 0.0009520102, -6.233008E-05, 0.000125338222, -0.514830768, -0.05716597 , 0.3259404   , 0.00268325582, -0.0006407838, 3.0298655   , 4.26        , 3           , 12          , 0.06506983  , 0
-0.0031958574, -0.0172721222, -9.781938   , 0.002084958 , -0.00075860403, -0.000294285, -0.5166509  , -0.0568963178, 0.326277465 , 0.00270410767, -0.0006483618, 3.02986264  , 4.27        , 3           , 14          , 0.000252471829, 0.0005848496
-0.004580533, -0.0226337072, -9.792817   , 0.00109393918, -0.000131764667, 0.0007615976, -0.5160442  , -0.05696373 , 0.32499662  , 0.00271504186, -0.0006497003, 3.02987027  , 4.28        , 3           , 15          , 0           , -6.62086E-05
-0.0002727257, -0.0104415026, -9.810361   , 3.529085E-05, -0.000279710745, 0.000332636 , -0.5151004  , -0.0568963178, 0.3260078   , 0.0027153925, -0.0006525063, 3.02987313  , 4.29        , 3           , 50          , 0           , 0
-0.0280488953, -0.0147073735, -9.787088   , -0.00059836643, -0.0006359561, 0.000470400526, -0.5151004  , -0.0568963178, 0.3260078   , 0.002709276 , -0.0006588299, 3.029878    , 4.3         , 3           , 11          , 0.06617409  , 0.0661741048
-0.0016831588, -0.0402990766, -9.782925   , -0.00327766547, -0.00156919123, -0.0008855736, -0.5165835  , -0.0570311435, 0.326277465 , 0.00267650536, -0.00067449786, 3.02986932  , 4.31        , 3           , 12          , 0.0661489   , 0
-0.00354504026, -0.0158438087, -9.802725   , -0.00265013915, 5.41058653E-05, -0.0007388465, -0.5160442  , -0.05716597 , 0.3249292   , 0.00265000877, -0.000673937146, 3.02986169  , 4.32        , 3           , 14          , 0.000252492842, 0.0005848417
0.00369622069, -0.012807087, -9.79181    , -0.001086648, -0.00183595007, 0.00053688616, -0.5151004  , -0.057233382, 0.3259404   , 0.00263913884, -0.0006923107, 3.029867    , 4.33        , 3           , 15          , 0           , -6.62100356E-05
-0.00196137186, -0.0285471976, -9.78785    , 0.00243657245, -0.000333857752, 0.0009087978, -0.5151004  , -0.057233382, 0.3259404   , 0.00266349851, -0.000695673341, 3.029876    , 4.34        , 3           , 50          , 0           , 0
0.005063247 , -0.0137087023, -9.796775   , 0.002641612 , 0.000864222238, -0.000571692, -0.5164487  , -0.0573007949, 0.326075226 , 0.0026899185, -0.0006870157, 3.02987027  , 4.35        , 3           , 11          , 0.06617409  , 0.0661741048
0.0121987425, -0.02013104 , -9.79042    , 0.00171591318, 0.00247701514, -0.000220305024, -0.5161116  , -0.05716597 , 0.325064033 , 0.002707079 , -0.000662239734, 3.02986836  , 4.36        , 3           , 12          , 0.0661489   , 0
0.0175679717, -0.02381764 , -9.786325   , 0.00192514528, 0.00318236463, 0.00133572367, -0.515167832, -0.0570311435, 0.325873    , 0.00272632181, -0.0006304526, 3.02988172  , 4.37        , 3           , 14          , 0.000252492842, 0.0005848417
-0.00600517541, -0.0240105223, -9.781082   , -0.00130884151, 0.000274356047, 0.0006804216, -0.515167832, -0.0570311435, 0.325873    , 0.00271322927, -0.000627727539, 3.02988839  , 4.38        , 3           , 15          , 0           , -6.62100356E-05
-0.00455834344, -0.0279719345, -9.815437   , -0.00243301736, -0.000718758558, 0.0018037851, -0.5165835  , -0.057233382, 0.326210052 , 0.002688888 , -0.0006349638, 3.02990651  , 4.39        , 3           , 50          , 0           , 0
-0.004719101, -0.0361364931, -9.802366   , -0.0003058642, -0.002604988, 0.00103374827, -0.5160442  , -0.0570985563, 0.325198859 , 0.00268576667, -0.000660963764, 3.029917    , 4.4         , 3           , 11          , 0.06725847  , 0.0672584847
0.009992655 , -0.0200575944, -9.804446   , -2.05456672E-05, -0.0032366002, 0.0006102825, -0.515167832, -0.05696373 , 0.3259404   , 0.002685557 , -0.0006933461, 3.02992272  , 4.41        , 3           , 12          , 0.06723166  , 0
0.00177404331, -0.0218027979, -9.79367    , 0.00235997327, 0.0007919358, 0.000203854011, -0.515167832, -0.05696373 , 0.3259404   , 0.002709155 , -0.0006854322, 3.02992463  , 4.42        , 3           , 14          , 0.000252501835, 0.000584829366
-0.0137224626, -0.03330967 , -9.806491   , 0.00319980574, 0.00255745323, 0.002400182 , -0.5164487  , -0.0568289049, 0.3260078   , 0.00274113729, -0.00065992336, 3.029949    , 4.43        , 3           , 15          , 0           , -6.62034E-05
0.0278865118, 0.000457815826, -9.795185   , 0.00321260374, -0.000258203, 0.000418080541, -0.5159768  , -0.05716597 , 0.325064033 , 0.00277326  , -0.000662516744, 3.02995324  , 4.44        , 3           , 50          , 0           , 0
-0.00775156729, -0.0221513957, -9.791032   , 0.0008826266, -0.000414745969, -0.000723150966, -0.5151004  , -0.05716597 , 0.326142639 , 0.00278209127, -0.0006666441, 3.02994561  , 4.45        , 3           , 11          , 0.06725847  , 0.0672584847
-0.0154174259, -0.0198037624, -9.79153252 , 0.00115433137, 0.00176929391, -0.0005772023, -0.5151004  , -0.05716597 , 0.326142639 , 0.0027936385, -0.000648935151, 3.02994     , 4.46        , 3           , 12          , 0.06723166  , 0
-0.0146654164, -0.0008199  , -9.803652   , -0.00123543374, -0.000358677033, 0.000114692855, -0.5165835  , -0.05716597 , 0.326075226 , 0.00278128334, -0.0006525251, 3.02994132  , 4.47        , 3           , 14          , 0.000252501835, 0.000584829366
-0.0110307261, -0.00174507918, -9.809504   , -0.0015200926, -8.633083E-06, -0.000733693945, -0.5160442  , -0.0568963178, 0.3249292   , 0.00276608672, -0.000652591058, 3.02993417  , 4.48        , 3           , 15          , 0           , -6.62034E-05
-0.0032758275, -0.0271566343, -9.794182   , -0.00151980692, -8.631759E-06, -0.000239253292, -0.515033   , -0.0570985563, 0.325873    , 0.00275089  , -0.0006526708, 3.02993131  , 4.49        , 3           , 50          , 0           , 0
-0.00192647241, -0.02673352 , -9.790554   , -0.000524932751, -0.0014097708, -0.00122570561, -0.515033   , -0.0570985563, 0.325873    , 0.0027455308, -0.000666708744, 3.029919    , 4.5         , 3           , 11          , 0.06834628  , 0.0683462843
0.00396627747, -0.0005368022, -9.818424   , -0.000815601146, 0.000277710147, -0.001012516, -0.516920567, -0.05716597 , 0.326075226 , 0.00273738173, -0.0006639039, 3.029909    , 4.51        , 3           , 12          , 0.06831775  , 0
-0.0130684553, -0.0157442726, -9.799181   , 0.00130661181, -0.000271089375, 0.00111552433, -0.5159768  , -0.0568289049, 0.32499662  , 0.0027504405, -0.000666645356, 3.02991986  , 4.52        , 3           , 14          , 0.000252520433, 0.000584825233
0.01669134  , -0.0576320477, -9.791444   , -0.00150430971, -0.00303544966, 0.000674317766, -0.515302658, -0.0570311435, 0.3260078   , 0.002735393 , -0.0006970182, 3.02992654  , 4.53        , 3           , 15          , 0           , -6.619275E-05
0.00970407  , -0.0372527428, -9.789153   , -0.00102500769, -5.2823907E-06, 0.0007519216, -0.515302658, -0.0570311435, 0.3260078   , 0.00272513786, -0.0006970916, 3.02993417  , 4.54        , 3           , 50          , 0           , 0
-0.003283588, 0.00757825328, -9.79132652 , -0.00131061161, 0.000626328751, 0.0006809466, -0.516920567, -0.0570985563, 0.3259404   , 0.002712027 , -0.0006908469, 3.02994084  , 4.55        , 3           , 11          , 0.06834628  , 0.0683462843
0.0184415281, 0.0108869635, -9.777588   , -0.0003179766, -0.000211681734, 0.000613619748, -0.516179   , -0.0573007949, 0.3249292   , 0.002708843 , -0.000692980364, 3.02994752  , 4.56        , 3           , 12          , 0.06831775  , 0
-0.0001745848, -0.0312663019, -9.79056    , -0.00222158828, -0.0008580973, -3.19550636E-05, -0.5151004  , -0.057233382, 0.325873    , 0.002686627 , -0.000701560464, 3.029947    , 4.57        , 3           , 14          , 0.000252520433, 0.000584825233
0.004277912 , -0.0425392725, -9.8082     , -0.00130681891, -0.000147975428, 0.0006091191, -0.5151004  , -0.057233382, 0.325873    , 0.00267355447, -0.0007030565, 3.02995324  , 4.58        , 3           , 15          , 0           , -6.619275E-05
0.000984678 , -0.01589546 , -9.803143   , 0.0007458176, -0.00111960515, 0.000899685547, -0.516785741, -0.05743562 , 0.326210052 , 0.00268100644, -0.0007142765, 3.02996182  , 4.59        , 3           , 50          , 0           , 0
0.009744855 , -0.0100664767, -9.822488   , 0.00039277313, -0.00112197455, 0.0008980224, -0.516179   , -0.0568289049, 0.3248618   , 0.00268485723, -0.000725404534, 3.029971    , 4.6         , 3           , 11          , 0.06943714  , 0.0694371462
-0.00552296359, -0.027116444, -9.798267   , -0.003912776, -0.00164384535, -0.000818045053, -0.515302658, -0.0570985563, 0.3259404   , 0.0026457354, -0.0007418212, 3.02996278  , 4.61        , 3           , 12          , 0.0694068149, 0
-0.0223793928, -0.0305743348, -9.784851   , -0.000806595664, -0.00141165918, 0.000115013405, -0.515302658, -0.0570985563, 0.3259404   , 0.002637669 , -0.000755940739, 3.02996373  , 4.62        , 3           , 14          , 0.0002525314, 0.0005848073
-0.0138749415, -0.0102971522, -9.805944   , -0.000814814935, 0.000207339064, -0.000235663276, -0.5166509  , -0.05696373 , 0.326075226 , 0.0026295227, -0.0007538612, 3.02996135  , 4.63        , 3           , 15          , 0           , -6.617577E-05
0.0131436922, -0.0147535531, -9.782706   , -0.00236400263, -0.0005774682, 0.000320975145, -0.515841961, -0.0570311435, 0.32499662  , 0.00260588  , -0.000759644143, 3.02996469  , 4.64        , 3           , 50          , 0           , 0
0.0124179022, -0.0310380664, -9.768314   , 4.293911E-05, -0.00182827632, 0.0004008507, -0.5149656  , -0.0570985563, 0.325805575 , 0.00260630623, -0.0007779373, 3.0299685   , 4.65        , 3           , 11          , 0.06943714  , 0.0694371462
0.00401040539, -0.0187272578, -9.7769165  , 0.00263859984, 0.00149777881, -0.000288212468, -0.5149656  , -0.0570985563, 0.325805575 , 0.00263269432, -0.0007629521, 3.02996564  , 4.66        , 3           , 12          , 0.0694068149, 0
-0.005874728, -0.0114070158, -9.772442   , 0.00193650741, 0.000789093436, 0.0005550228, -0.5167183  , -0.0570311435, 0.3260078   , 0.002652055 , -0.000755076, 3.02997136  , 4.67        , 3           , 14          , 0.0002525314, 0.0005848073
0.00188838318, -0.0159075949, -9.802683   , -0.000818852452, 0.0009816419, -0.000587641669, -0.515841961, -0.05743562 , 0.3248618   , 0.00264387112, -0.0007452439, 3.02996564  , 4.68        , 3           , 15          , 0           , -6.617577E-05
-0.000964474864, -0.0311619323, -9.818588   , -0.002021035, 0.00146626646, 0.000396401825, -0.515235245, -0.05716597 , 0.325873    , 0.002623658 , -0.0007305917, 3.02996945  , 4.69        , 3           , 50          , 0           , 0
-0.007301073, -0.0252830181, -9.800533   , -0.00151424808, -0.00120524818, -0.000806212251, -0.515235245, -0.05716597 , 0.325873    , 0.00260845851, -0.000742528238, 3.02996135  , 4.7         , 3           , 11          , 0.070530735 , 0.07053076
-0.0193755329, -0.0102877924, -9.789715   , -0.002362129, -0.0008590163, 0.00116814172, -0.516785741, -0.0570985563, 0.325873    , 0.0025848283, -0.00075114856, 3.02997327  , 4.71        , 3           , 12          , 0.0704985261, 0
-0.009608342, -0.0284160115, -9.800112   , -0.00144147233, -0.00148633216, 0.0005357363, -0.5160442  , -0.0570985563, 0.3249292   , 0.00257040979, -0.0007660257, 3.029978    , 4.72        , 3           , 14          , 0.000252541126, 0.000584792753
0.0002431087, -0.0384416543, -9.80505    , 0.0008811524, -0.000133144524, -0.0007933909, -0.515033   , -0.05716597 , 0.325805575 , 0.00257922732, -0.000767336751, 3.02997041  , 4.73        , 3           , 15          , 0           , -6.616388E-05
-0.009344565, -0.009455564, -9.803647   , 0.00129943923, 0.00106637459, 0.000199309783, -0.515033   , -0.05716597 , 0.325805575 , 0.0025922202, -0.00075667823, 3.02997231  , 4.74        , 3           , 50          , 0           , 0
0.00344422739, 0.00164414023, -9.794463   , -0.0002493592, 0.000211176462, 0.000826474163, -0.5165835  , -0.057233382, 0.326075226 , 0.0025897203, -0.0007545879, 3.029981    , 4.75        , 3           , 11          , 0.070530735 , 0.07053076
-0.0021766033, -0.0122807864, -9.79366    , 0.000524548639, 0.0007091662, 0.000265780283, -0.5161116  , -0.0573007949, 0.324794382 , 0.00259496388, -0.0007475031, 3.02998328  , 4.76        , 3           , 12          , 0.0704985261, 0
3.32463533E-05, -0.01993914 , -9.804975   , -0.00116372074, -0.000498943438, 0.000891743635, -0.515167832, -0.0570985563, 0.325873    , 0.00258332  , -0.000752515567, 3.02999234  , 4.77        , 3           , 14          , 0.000252541126, 0.000584792753
0.0009831395, -0.0154503519, -9.801332   , -0.0008142351, 0.000277749321, 0.00138902362, -0.515167832, -0.0570985563, 0.325873    , 0.00257516722, -0.0007497739, 3.03000617  , 4.78        , 3           , 15          , 0           , -6.616388E-05
0.004451142 , -0.0249912441, -9.794114   , -0.000254568178, 0.00133743859, 0.0014639193, -0.5167183  , -0.0570311435, 0.3259404   , 0.00257261074, -0.0007364373, 3.030021    , 4.79        , 3           , 50          , 0           , 0
-0.0120464154, -0.0370112  , -9.78525    , -0.000813162245, 6.658782E-05, 0.00145933568, -0.5161116  , -0.05696373 , 0.3249292   , 0.00256437948, -0.0007357298, 3.03003526  , 4.8         , 3           , 11          , 0.07162677  , 0.07162678
-0.00706424145, -0.03751478 , -9.787023   , -0.0001744616, -0.0006330287, 0.00103740755, -0.515033   , -0.056761492, 0.325805575 , 0.00256262743, -0.0007420867, 3.03004575  , 4.81        , 3           , 12          , 0.07159257  , 0
0.0211114921, -0.0346363932, -9.80171    , 0.000947949535, 0.0007824348, 0.00047976998, -0.515033   , -0.056761492, 0.325805575 , 0.0025721034, -0.0007342747, 3.03005052  , 4.82        , 3           , 14          , 0.000252554542, 0.000584780762
-0.00532184262, -0.0122239189, -9.79956    , -0.00109392451, -0.000428064872, 0.000115206261, -0.5165161  , -0.0570311435, 0.3260078   , 0.00256116339, -0.0007385583, 3.03005147  , 4.83        , 3           , 15          , 0           , -6.61667E-05
-0.021874791, -0.0336621143, -9.807459   , 0.00109381566, -0.000131696012, 0.0006909213, -0.5160442  , -0.057233382, 0.325131446 , 0.00257209642, -0.000739893, 3.03005862  , 4.84        , 3           , 50          , 0           , 0
0.00395194441, -0.02725529 , -9.79006    , 0.00165457267, 0.000576033664, -0.0003648755, -0.515302658, -0.0573007949, 0.325873    , 0.00258864462, -0.0007341232, 3.03005528  , 4.85        , 3           , 11          , 0.07162677  , 0.07162678
0.017823102 , -0.0115594538, -9.809323   , -0.000178639923, 7.088066E-05, -0.000162291733, -0.515302658, -0.0573007949, 0.325873    , 0.00258685928, -0.000733410241, 3.03005338  , 4.86        , 3           , 12          , 0.07159257  , 0
-0.02014486 , -0.03508823 , -9.792085   , -0.0009513765, -0.0007790681, -0.000591021439, -0.516381264, -0.0570985563, 0.3259404   , 0.00257735  , -0.0007411857, 3.03004766  , 4.87        , 3           , 14          , 0.000252554542, 0.000584780762
-0.0164352432, -0.0279183891, -9.790218   , -0.00270866929, -0.002480398, -0.00144946831, -0.516179   , -0.0570311435, 0.32499662  , 0.0025502746, -0.0007659524, 3.03003287  , 4.88        , 3           , 15          , 0           , -6.61667E-05
0.008254221 , -0.004801507, -9.77321    , 0.00116299151, 9.560563E-06, -0.00057995104, -0.515033   , -0.0568963178, 0.325873    , 0.00256190915, -0.0007658422, 3.03002715  , 4.89        , 3           , 50          , 0           , 0
0.00779125327, -0.01105335 , -9.790867   , 0.00136330153, 0.0024747   , 0.000625617453, -0.515033   , -0.0568963178, 0.325873    , 0.00257549947, -0.0007410484, 3.03003335  , 4.9         , 3           , 11          , 0.0727249458, 0.07272497
-0.0277865659, -0.0353991278, -9.807059   , 0.00158108713, 0.00127948122, 0.0006953951, -0.516785741, -0.0570311435, 0.326075226 , 0.00259130518, -0.0007282716, 3.03004     , 4.91        , 3           , 12          , 0.07268866  , 0
-0.004311749, -0.03707133 , -9.79423    , -0.0007332072, -0.00204466865, -0.000450718071, -0.5161116  , -0.057233382, 0.325064033 , 0.00258397637, -0.0007487066, 3.03003573  , 4.92        , 3           , 14          , 0.000252560159, 0.000584771333
0.014476411 , -0.0268417336, -9.815289   , -0.00327619468, -0.00192107807, -0.00123933156, -0.515235245, -0.0570985563, 0.325873    , 0.002551224 , -0.0007678854, 3.03002334  , 4.93        , 3           , 15          , 0           , -6.616634E-05
-0.0135268075, -0.0233314224, -9.822268   , -0.00151598756, -0.0009236634, -0.0013708506, -0.515235245, -0.0570985563, 0.325873    , 0.002536075 , -0.000777087233, 3.03000951  , 4.94        , 3           , 50          , 0           , 0
