Acc X       , Acc Y       , Acc Z       , Gyro X      , Gyro Y      , Gyro Z      , Magn X      , Magn Y      , Magn Z      , Euler X     , Euler Y     , Euler Z     , Time        , Status      , LowRate X   , LowRate Y   , LowRate Z    
-0.142669588, 0.0783097   , -9.809274   , -0.001749666, -0.00119497767, 0.0006308626, -0.180059329, -0.164621815, 0.4511258   , -0.009087329, -0.0124333473, 2.42870355  , 0           , 3           , 11          , 0.0346410163, 0.0346410163
-0.113319993, 0.0787908956, -9.78644848 , -0.00105757616, 0.001484662 , -0.0006331414, -0.1799245  , -0.1645544  , 0.450923562 , -0.009097823, -0.0124185616, 2.42869687  , 0.01        , 3           , 12          , 0.0346410163, 0
-0.108261012, 0.08638384  , -9.780954   , 0.0009192042, 0.00163881632, 0.000223906682, -0.179789677, -0.164419577, 0.451260626 , -0.009088658, -0.0124021517, 2.42869878  , 0.02        , 3           , 50          , 0           , 0
-0.138220564, 0.0826561749, -9.775775   , 0.000786644 , -0.000192313382, -0.000485915923, -0.1799245  , -0.164419577, 0.4511932   , -0.009080733, -0.01240412 , 2.428694    , 0.03        , 3           , 11          , 0.0346410163, 0.0346410163
-0.117525995, 0.09561979  , -9.81127    , 0.0007883642, -0.000473876862, 7.87249955E-05, -0.1799245  , -0.164621815, 0.450990975 , -0.00907286 , -0.0124088507, 2.428695    , 0.04        , 3           , 12          , 0.0346410163, 0
-0.109346472, 0.100011431 , -9.803957   , 7.647643E-05, 0.0006476074, -0.000346637826, -0.1799245  , -0.164621815, 0.450990975 , -0.009072051, -0.0124024069, 2.42869115  , 0.05        , 3           , 50          , 0           , 0
-0.109507881, 0.09095363  , -9.793601   , 0.000501799863, 0.000228122779, -0.0010516569, -0.1799245  , -0.1645544  , 0.4511258   , -0.009066902, -0.012400222, 2.42868066  , 0.06        , 3           , 11          , 0.0346410163, 0.0346410163
-0.1275858  , 0.0885153   , -9.81047249 , 0.00192016258, -0.000888584531, 8.33418E-05 , -0.180059329, -0.164284751, 0.4511258   , -0.009047711, -0.0124091  , 2.42868161  , 0.07        , 3           , 12          , 0.0346410163, 0
-0.117686659, 0.09013342  , -9.789598   , 0.001922172 , -0.00131093257, -5.85778253E-05, -0.1799245  , -0.164352164, 0.4510584   , -0.009028484, -0.0124222124, 2.42868161  , 0.08        , 3           , 50          , 0           , 0
-0.117025442, 0.07474886  , -9.779263   , 0.00177673937, -0.0006079785, -0.00132957 , -0.1799245  , -0.164352164, 0.4510584   , -0.0090105515, -0.0124284113, 2.42866826  , 0.09        , 3           , 11          , 0.0346410163, 0.0346410163
-0.123015516, 0.05777249  , -9.808757   , 0.00106903352, -0.000331189425, -0.00175623433, -0.18032898 , -0.164621815, 0.450923562 , -0.008999642, -0.0124318823, 2.42865062  , 0.1         , 3           , 12          , 0.0346410163, 0
-0.104129553, 0.08950615  , -9.784527   , 0.000928228 , -0.00033214243, -0.00105054909, -0.17985709 , -0.1645544  , 0.451328039 , -0.00899023 , -0.0124352966, 2.42864013  , 0.11        , 3           , 50          , 0           , 0
-0.129009262, 0.09383468  , -9.777467   , 0.0016361787, -0.000608930248, -0.000200078241, -0.179789677, -0.164352164, 0.450856149 , -0.008973844, -0.0124414042, 2.42863822  , 0.12        , 3           , 11          , 0.0346410163, 0.0346410163
-0.153035045, 0.081149444 , -9.812506   , 0.00191672193, -0.0003254576, -0.00104594 , -0.179789677, -0.164352164, 0.450856149 , -0.008954547, -0.0124447523, 2.42862773  , 0.13        , 3           , 12          , 0.0346410163, 0
-0.0999309048, 0.0926829   , -9.804368   , -7.121034E-05, 0.00177290849, -0.00189951633, -0.180126742, -0.1645544  , 0.4511258   , -0.008955022, -0.0124271931, 2.42860866  , 0.14        , 3           , 50          , 0           , 0
-0.134958208, 0.07956976  , -9.808307   , 0.000351117633, 0.00205733883, -0.00175583817, -0.179991916, -0.164486989, 0.451260626 , -0.008951289, -0.0124067776, 2.428591    , 0.15        , 3           , 11          , 0.0346410163, 0.0346410163
-0.139764488, 0.09360637  , -9.806025   , -0.0004915286, 0.00106612989, -0.002185114, -0.179991916, -0.164621815, 0.450923562 , -0.008955933, -0.0123963123, 2.428569    , 0.16        , 3           , 12          , 0.0346410163, 0
-0.103122264, 0.0985049456, -9.780414   , -0.00133475312, 0.000356490025, -0.00120126852, -0.179991916, -0.164621815, 0.450923562 , -0.008969132, -0.012392858, 2.42855668  , 0.17        , 3           , 50          , 0           , 0
-0.122141734, 0.09024553  , -9.80726    , -0.000485589233, 8.06572643E-05, -0.000350139133, -0.180059329, -0.1645544  , 0.450990975 , -0.008973943, -0.01239208 , 2.42855334  , 0.18        , 3           , 11          , 0.0346410163, 0.0346410163
-0.112154678, 0.08970314  , -9.814869   , -6.395842E-05, 0.0005058702, -0.000206244076, -0.180126742, -0.164419577, 0.450990975 , -0.008974559, -0.0123870391, 2.428551    , 0.19        , 3           , 12          , 0.0346410163, 0
-0.136751667, 0.07826629  , -9.816913   , -0.000199514543, -0.000621344254, -6.73678442E-05, -0.179991916, -0.164352164, 0.450990975 , -0.008976557, -0.0123932445, 2.428551    , 0.2         , 3           , 50          , 0           , 0
-0.153204113, 0.06672924  , -9.817538   , -0.001464407, -0.001896983, -0.000499052869, -0.179991916, -0.164352164, 0.450990975 , -0.008991143, -0.0124122575, 2.42854619  , 0.21        , 3           , 11          , 0.0346699134, 0.0346699134
-0.127346575, 0.08208803  , -9.778859   , 0.000224741059, -0.0007592622, -0.00020687822, -0.1799245  , -0.1645544  , 0.450990975 , -0.00898887 , -0.0124198692, 2.42854428  , 0.22        , 3           , 12          , 0.03466881  , 0
-0.110565737, 0.119333148 , -9.775864   , 0.00120269833, 0.00135916029, -0.000340283179, -0.17985709 , -0.164217338, 0.4510584   , -0.008976801, -0.0124063082, 2.42854047  , 0.23        , 3           , 50          , 0           , 0
-0.142001078, 0.09276239  , -9.8155365  , 0.00176722591, 0.0013629786, -0.000902724161, -0.17985709 , -0.164352164, 0.4511932   , -0.008959017, -0.01239276 , 2.42853141  , 0.24        , 3           , 11          , 0.0346699134, 0.0346699134
-0.116957992, 0.10017135  , -9.824806   , 0.0005057368, -0.0006165732, -0.00147676293, -0.17985709 , -0.164352164, 0.4511932   , -0.008953775, -0.0123990569, 2.42851663  , 0.25        , 3           , 12          , 0.03466881  , 0
-0.129769757, 0.09842637  , -9.798244   , -0.000194835957, -0.00174760865, -0.00162305974, -0.179991916, -0.164419577, 0.450990975 , -0.008955524, -0.0124166785, 2.42850041  , 0.26        , 3           , 50          , 0           , 0
-0.143880174, 0.09674574  , -9.786156   , 0.0003688241, -0.001321437, -6.581877E-05, -0.1799245  , -0.164419577, 0.4510584   , -0.00895183 , -0.0124298986, 2.4285      , 0.27        , 3           , 11          , 0.0346699134, 0.0346699134
-0.127921313, 0.0984353647, -9.80727    , -0.000339133665, -0.0007630775, 0.001485713 , -0.1799245  , -0.164689228, 0.450990975 , -0.008955408, -0.0124373939, 2.42851472  , 0.28        , 3           , 12          , 0.03466881  , 0
-0.124916412, 0.09514031  , -9.777431   , -0.00118751894, -0.000628026843, 0.0007756352, -0.1799245  , -0.164689228, 0.450990975 , -0.008967379, -0.0124436049, 2.42852283  , 0.29        , 3           , 50          , 0           , 0
-0.106685184, 0.0981492251, -9.796262   , -0.0010658328, -0.00149586971, 0.000209989143, -0.179789677, -0.164689228, 0.450788736 , -0.009459727, -0.0129549392, 2.42853141  , 0.3         , 3           , 11          , 0.03475341  , 0.0347534046
-0.121417426, 0.07446577  , -9.813648   , 5.72750723E-05, -0.000221188573, -0.0003478653, -0.179722264, -0.164419577, 0.450990975 , -0.009459109, -0.0129571827, 2.428528    , 0.31        , 3           , 12          , 0.0347538777, 0
-0.114713632, 0.109055921 , -9.791306   , 4.91186038E-05, 0.001327417 , -0.001193091, -0.17985709 , -0.164486989, 0.4511258   , -0.009458462, -0.0129440222, 2.42851567  , 0.32        , 3           , 50          , 0           , 0
-0.112932444, 0.106332287 , -9.79266    , 0.00174215948, 0.001761227 , -0.000195657442, -0.1799245  , -0.1645544  , 0.4510584   , -0.00944101252, -0.01292643 , 2.42851377  , 0.33        , 3           , 11          , 0.03475341  , 0.0347534046
-0.130900472, 0.08129326  , -9.798325   , 0.00386640383, 0.000719686737, 0.00122527976, -0.1799245  , -0.1645544  , 0.4510584   , -0.009402505, -0.0129191177, 2.42852616  , 0.34        , 3           , 12          , 0.0347538777, 0
-0.144021988, 0.07118887  , -9.833721   , 0.00168093655, 7.136408E-05, 0.00156726909, -0.1799245  , -0.164419577, 0.4510584   , -0.009385899, -0.0129182581, 2.42854142  , 0.35        , 3           , 50          , 0           , 0
-0.123718232, 0.0775869042, -9.79467    , -0.00185495266, 0.00110335683, 0.0009873594, -0.17985709 , -0.164689228, 0.4511932   , -0.00940457452, -0.0129071316, 2.428551    , 0.36        , 3           , 11          , 0.03475341  , 0.0347534046
-0.0973053947, 0.09034536  , -9.789442   , -0.0019259447, 0.00103248458, -0.000284496724, -0.179991916, -0.164419577, 0.450990975 , -0.009423795, -0.012896833, 2.428548    , 0.37        , 3           , 12          , 0.0347538777, 0
-0.130091965, 0.106125459 , -9.805447   , -0.00289734 , -0.002493765, -0.0008596051, -0.179991916, -0.164419577, 0.450990975 , -0.009452662, -0.01292185 , 2.42854     , 0.38        , 3           , 50          , 0           , 0
-0.139374584, 0.09176469  , -9.796538   , 0.000692587055, -5.71303644E-06, 0.00120937929, -0.179991916, -0.164419577, 0.4510584   , -0.009445892, -0.0129217934, 2.428552    , 0.39        , 3           , 11          , 0.03475341  , 0.0347534046
-0.12447504 , 0.08976954  , -9.791912   , 0.00224276586, 0.00163013872, 0.000230233723, -0.17985709 , -0.164621815, 0.4511258   , -0.009373699, -0.0128471125, 2.42855382  , 0.4         , 3           , 12          , 0.0348953567, 0
-0.131853774, 0.0772480741, -9.799705   , -0.000644646, 6.195249E-05, -0.000138823467, -0.17985709 , -0.164621815, 0.4510584   , -0.009380128, -0.0128465062, 2.42855239  , 0.41        , 3           , 50          , 0           , 0
-0.119141921, 0.0851609856, -9.781947   , 0.000696573756, 0.0001414163, -6.182523E-05, -0.17985709 , -0.164621815, 0.4510584   , -0.009373153, -0.012845098, 2.428552    , 0.42        , 3           , 11          , 0.017690232 , 0.0176903009
-0.139290228, 0.102545448 , -9.782481   , 0.00210870779, 0.000150966123, -5.52405727E-05, -0.1799245  , -0.164419577, 0.450856149 , -0.009352059, -0.0128435912, 2.428551    , 0.43        , 3           , 12          , 0.0348953567, 0
-0.1572604  , 0.104657933 , -9.811084   , 0.00147021457, 0.0007097977, -0.000481141848, -0.17985709 , -0.164149925, 0.4511258   , -0.009337296, -0.01283654 , 2.42854619  , 0.44        , 3           , 50          , 0           , 0
-0.129401326, 0.0876403   , -9.812298   , 0.00372616644, 0.00135859731, -0.00103470508, -0.180126742, -0.164217338, 0.4511258   , -0.009299899, -0.01282305 , 2.4285357   , 0.45        , 3           , 11          , 0.017690232 , 0.0176903009
-0.141150936, 0.09092145  , -9.807855   , 0.00182921707, -0.000625252258, -0.00161170692, -0.180126742, -0.164217338, 0.4511258   , -0.0092814  , -0.0128294518, 2.42852     , 0.46        , 3           , 12          , 0.0348953567, 0
-0.141814336, 0.08852436  , -9.764027   , 0.00365522574, 0.00163968978, 0.000801893242, -0.179654852, -0.164352164, 0.450990975 , -0.00924495 , -0.0128129814, 2.42852759  , 0.47        , 3           , 50          , 0           , 0
-0.124523208, 0.09017685  , -9.778804   , 0.000975533854, 0.000917631958, 0.0005763944, -0.17985709 , -0.164284751, 0.4511258   , -0.009235267, -0.012803752, 2.42853332  , 0.48        , 3           , 11          , 0.017690232 , 0.0176903009
-0.129632562, 0.0825430751, -9.772094   , -0.000227178723, 0.00140225352, 0.000642191153, -0.179722264, -0.164352164, 0.450990975 , -0.009237618, -0.01278967 , 2.42853951  , 0.49        , 3           , 12          , 0.0348953567, 0
-0.116431311, 0.07932158  , -9.799126   , 0.00147055346, 0.00150718552, -5.652163E-05, -0.179722264, -0.164352164, 0.450990975 , -0.009202352, -0.0130019421, 2.42853856  , 0.5         , 3           , 50          , 0           , 0
-0.101496734, 0.0742303655, -9.813044   , -0.0004990527, -5.4793396E-05, -0.000562567264, -0.179991916, -0.164419577, 0.450923562 , -0.009207269, -0.0130025418, 2.42853284  , 0.51        , 3           , 11          , 0.013431292 , 0.0134313181
-0.126774088, 0.09021402  , -9.781984   , -0.00155599939, -0.0005546961, -0.00106270588, -0.1799245  , -0.164284751, 0.451260626 , -0.009222692, -0.0130081847, 2.42852235  , 0.52        , 3           , 12          , 0.03509214  , 0
-0.115255743, 0.063981615 , -9.80369949 , 0.000698039541, 0.0007276307, 0.0005037384, -0.180059329, -0.164352164, 0.4510584   , -0.009215777, -0.0130008617, 2.42852759  , 0.53        , 3           , 50          , 0           , 0
-0.124951154, 0.08082894  , -9.815004   , 0.0008336176, 0.00178445282, -0.000200319511, -0.180059329, -0.164352164, 0.4510584   , -0.009207414, -0.012983039, 2.42852521  , 0.54        , 3           , 11          , 0.013431292 , 0.0134313181
-0.141383767, 0.07600322  , -9.798879   , 0.00168194354, 0.00157900888, -0.00019669428, -0.180194154, -0.164486989, 0.450923562 , -0.009190566, -0.0129672652, 2.4285233   , 0.55        , 3           , 12          , 0.03509214  , 0
-0.131370291, 0.0835165456, -9.787019   , 0.0009771445, 0.00143345422, 0.0007886776, -0.180126742, -0.164486989, 0.4511932   , -0.009180896, -0.0129528577, 2.428531    , 0.56        , 3           , 50          , 0           , 0
-0.134890869, 0.09256847  , -9.782941   , 0.00104484439, 0.00185627548, -0.00062302954, -0.180059329, -0.164486989, 0.4511932   , -0.00917036552, -0.0129343541, 2.42852473  , 0.57        , 3           , 11          , 0.013431292 , 0.0134313181
-0.117644832, 0.0861501545, -9.812666   , 0.00141198107, -0.000956987, -0.000343185355, -0.179789677, -0.164352164, 0.450856149 , -0.009156202, -0.0129439579, 2.42852139  , 0.58        , 3           , 12          , 0.03509214  , 0
-0.130014509, 0.07233974  , -9.82230949 , 0.001063378 , -0.00194485427, -0.00112332823, -0.179789677, -0.164352164, 0.450856149 , -0.009145426, -0.0129635064, 2.42851     , 0.59        , 3           , 50          , 0           , 0
-0.142400026, 0.102631025 , -9.79696751 , 0.00414662156, 0.00123997859, -0.00103448553, -0.1799245  , -0.164419577, 0.450990975 , -0.008916328, -0.0129610877, 2.42849755  , 0.6         , 3           , 11          , 0.0113484664, 0.01134848
-0.118792057, 0.101959415 , -9.813513   , 0.000968044333, 0.00164084276, 0.000364037143, -0.180194154, -0.164352164, 0.4511258   , -0.008906694, -0.0129446508, 2.428501    , 0.61        , 3           , 12          , 0.0353428721, 0
-0.112988614, 0.100930564 , -9.796298   , -0.000653018, 0.000996338 , -6.831764E-05, -0.179991916, -0.164419577, 0.450788736 , -0.008913213, -0.0129346913, 2.42850041  , 0.62        , 3           , 50          , 0           , 0
-0.129573539, 0.08928616  , -9.764834   , -0.00177419442, -0.0008414776, -0.0009946529, -0.179991916, -0.164419577, 0.450788736 , -0.00893082749, -0.0129431942, 2.4284904   , 0.63        , 3           , 11          , 0.0113484664, 0.01134848
-0.111494578, 0.07788849  , -9.792766   , -0.00234554731, 0.0004921372, -0.0007833223, -0.180194154, -0.164284751, 0.4510584   , -0.008954181, -0.0129383439, 2.42848229  , 0.64        , 3           , 12          , 0.0353428721, 0
-0.112956241, 0.1018495   , -9.801265   , 0.000125769 , 0.000508849858, -0.0006305304, -0.179991916, -0.164352164, 0.4511258   , -0.00895284 , -0.0129333129, 2.428476    , 0.65        , 3           , 50          , 0           , 0
-0.128844351, 0.0623515919, -9.808331   , -0.0005082123, 8.22019138E-05, -0.00169365993, -0.180059329, -0.164486989, 0.450990975 , -0.00895770453, -0.0129326405, 2.42845941  , 0.66        , 3           , 11          , 0.0113484664, 0.01134848
-0.129233092, 0.07847741  , -9.772107   , -0.002057978, -0.000421036384, 0.000276099745, -0.180059329, -0.164486989, 0.450990975 , -0.00897832 , -0.012936824, 2.42846227  , 0.67        , 3           , 12          , 0.0353428721, 0
-0.12205793 , 0.102811247 , -9.78732    , -7.683051E-05, -0.00118196907, 0.0008491999, -0.17985709 , -0.164419577, 0.4510584   , -0.00897919852, -0.012948568, 2.42847085  , 0.68        , 3           , 50          , 0           , 0
-0.115346588, 0.09731013  , -9.785032   , -0.0001534397, -0.00012658113, -0.000491554965, -0.1799245  , -0.164352164, 0.4511258   , -0.008980672, -0.01294988 , 2.4284656   , 0.69        , 3           , 11          , 0.0113484664, 0.01134848
-0.116903305, 0.08109674  , -9.788727   , -0.00255794381, -0.00178857776, -0.00177621609, -0.1799245  , -0.164621815, 0.450923562 , -0.00903036352, -0.0128756557, 2.42844844  , 0.7         , 3           , 12          , 0.03564599  , 0
-0.106116012, 0.07420945  , -9.790932   , 0.0007465422, 0.0013310865, 0.0005043311, -0.1799245  , -0.164621815, 0.450923562 , -0.009022963, -0.0128623  , 2.42845368  , 0.71        , 3           , 50          , 0           , 0
-0.110442638, 0.0842453837, -9.8081     , 0.00272457558, 0.00113328232, 0.0005132241, -0.1799245  , -0.164486989, 0.450990975 , -0.008995783, -0.0128509207, 2.42845845  , 0.72        , 3           , 11          , 0.0101308227, 0.0101308227
-0.106289446, 0.09408054  , -9.795371   , 0.00187275326, 0.00169067411, -0.00252713682, -0.17985709 , -0.164486989, 0.451260626 , -0.008976728, -0.0128342407, 2.42843318  , 0.73        , 3           , 12          , 0.03564599  , 0
-0.105508864, 0.0863806754, -9.78952    , 0.00194415706, 0.00162076252, -0.00174993766, -0.179991916, -0.1645544  , 0.4511258   , -0.00895706 , -0.01281819 , 2.42841554  , 0.74        , 3           , 50          , 0           , 0
-0.124039367, 0.089304015 , -9.789199   , -2.098534E-05, -0.0006451246, -0.000561843452, -0.179991916, -0.1645544  , 0.4511258   , -0.008957198, -0.0128246909, 2.42840981  , 0.75        , 3           , 11          , 0.0101308227, 0.0101308227
-0.136075735, 0.100312963 , -9.800546   , 0.0011830586, -0.00134091871, -0.000133525347, -0.179722264, -0.164419577, 0.450923562 , -0.008945352, -0.0128381131, 2.42840886  , 0.76        , 3           , 12          , 0.03564599  , 0
-0.117036805, 0.10457097  , -9.791342   , 0.000752818945, -7.674236E-05, -0.000698622956, -0.180126742, -0.164217338, 0.451260626 , -0.008937732, -0.012838942, 2.42840171  , 0.77        , 3           , 50          , 0           , 0
-0.109595351, 0.08865101  , -9.779599   , 0.000180402043, 0.00139765313, -0.00112278492, -0.17985709 , -0.164352164, 0.450990975 , -0.008935783, -0.0128250662, 2.42839026  , 0.78        , 3           , 11          , 0.0101308227, 0.0101308227
-0.104648262, 0.0809774   , -9.795865   , 0.00201033358, 0.00260672  , -0.0009711117, -0.17985709 , -0.164352164, 0.450990975 , -0.008915552, -0.0127990879, 2.42838025  , 0.79        , 3           , 12          , 0.03564599  , 0
-0.104119144, 0.09353174  , -9.774114   , 0.00176662707, 0.00384930684, -0.0006864125, -0.17985709 , -0.164352164, 0.450856149 , -0.00894163549, -0.0125657534, 2.42837358  , 0.8         , 3           , 50          , 0           , 0
-0.127268463, 0.0919710249, -9.766161   , 0.00192352664, 0.0005418692, -0.0018916371, -0.1799245  , -0.164352164, 0.4511258   , -0.008922162, -0.0125605045, 2.4283545   , 0.81        , 3           , 11          , 0.009376881 , 0.00937688
-0.109007128, 0.09277258  , -9.799465   , -0.0006868119, 0.000172247368, -0.0012686518, -0.17985709 , -0.164352164, 0.4511932   , -0.008928871, -0.0125588942, 2.428342    , 0.82        , 3           , 12          , 0.0359997563, 0
-0.124158584, 0.06912165  , -9.82499    , -0.000119088661, -0.000387062581, -0.00112561719, -0.17985709 , -0.164352164, 0.4511932   , -0.00892992 , -0.0125628626, 2.42833066  , 0.83        , 3           , 50          , 0           , 0
-0.112435862, 0.1050234   , -9.807575   , -0.00111145689, 0.000380556361, -0.00119966734, -0.179991916, -0.164352164, 0.450990975 , -0.008940886, -0.012559168, 2.42831874  , 0.84        , 3           , 11          , 0.009376881 , 0.00937688
-0.122231454, 0.120004162 , -9.800358   , 0.000727557752, -0.000310942734, -0.00161599857, -0.17985709 , -0.164419577, 0.451260626 , -0.008933407, -0.01256242 , 2.428303    , 0.85        , 3           , 12          , 0.0359997563, 0
-0.1313492  , 0.08174822  , -9.7978735  , -0.00019267232, 0.000386768079, 0.000358568621, -0.180194154, -0.164486989, 0.4511258   , -0.008935379, -0.0125585217, 2.42830634  , 0.86        , 3           , 50          , 0           , 0
-0.119696163, 0.0739253238, -9.793298   , -0.000323653279, -0.00179631868, -0.000634333934, -0.179789677, -0.1645544  , 0.4511258   , -0.008938537, -0.0125765381, 2.42830014  , 0.87        , 3           , 11          , 0.009376881 , 0.00937688
-0.110222317, 0.104956008 , -9.795357   , -0.00103324978, -0.000956395466, 0.000493825355, -0.179789677, -0.1645544  , 0.4511258   , -0.008948932, -0.0125860581, 2.428305    , 0.88        , 3           , 12          , 0.0359997563, 0
-0.119986542, 0.119515851 , -9.797178   , 0.000153046291, 0.00172658637, -0.0008385082, -0.179991916, -0.164689228, 0.4510584   , -0.008947295, -0.0125688678, 2.42829633  , 0.89        , 3           , 50          , 0           , 0
-0.101742387, 0.0922575444, -9.805739   , -0.0017799401, -0.0019499691, -0.0006388342, -0.179991916, -0.164352164, 0.4511932   , -0.00912707 , -0.0124952532, 2.42829251  , 0.9         , 3           , 11          , 0.008913067 , 0.008913067
-0.130779982, 0.0854080543, -9.814578   , -0.0008556169, -0.00321080373, -0.000353969372, -0.17985709 , -0.164689228, 0.450990975 , -0.009135585, -0.0125273932, 2.42828918  , 0.91        , 3           , 12          , 0.0364022851, 0
-0.14851138 , 0.0855563954, -9.797085   , -0.0009360482, -0.0010291473, 0.001344289 , -0.17985709 , -0.164689228, 0.450990975 , -0.009145114, -0.0125375623, 2.42830253  , 0.92        , 3           , 50          , 0           , 0
-0.11889106 , 0.09920112  , -9.798158   , 0.000322248467, 0.00137274689, 1.18507842E-05, -0.180126742, -0.164419577, 0.4511258   , -0.009141893, -0.0125238337, 2.42830253  , 0.93        , 3           , 11          , 0.008913067 , 0.008913067
-0.119696237, 0.1064347   , -9.79949    , 0.00208936632, 0.000891942938, -0.0008282901, -0.180261567, -0.164352164, 0.451260626 , -0.009120894, -0.0125149908, 2.42829442  , 0.94        , 3           , 12          , 0.0364022851, 0
-0.112287484, 0.08914918  , -9.784138   , 0.000396506948, 0.000528526667, -0.0009073685, -0.17985709 , -0.164621815, 0.450856149 , -0.009116815, -0.0125097893, 2.428285    , 0.95        , 3           , 50          , 0           , 0
-0.117010489, 0.067173034 , -9.807317   , 0.00180735113, 0.000749249 , -0.00132426457, -0.17985709 , -0.164621815, 0.450856149 , -0.009098573, -0.0125024188, 2.42827153  , 0.96        , 3           , 11          , 0.008913067 , 0.008913067
-0.124557294, 0.07675874  , -9.813662   , 0.0010351633, -3.030416E-05, -0.000198929774, -0.179991916, -0.164486989, 0.4510584   , -0.009088198, -0.0125027392, 2.42826962  , 0.97        , 3           , 12          , 0.0364022851, 0
-0.1218993  , 0.0780183151, -9.795105   , 0.0005503629, -0.00179342483, 0.00106747227, -0.179991916, -0.164352164, 0.4510584   , -0.00908283051, -0.0125205759, 2.42828059  , 0.98        , 3           , 50          , 0           , 0
-0.124113858, 0.0843337849, -9.78696    , 0.00202641962, -0.000375570729, 0.00157099648, -0.179789677, -0.164419577, 0.4511932   , -0.009062763, -0.0125241894, 2.42829633  , 0.99        , 3           , 11          , 0.008913067 , 0.008913067
-0.114019476, 0.08521742  , -9.816258   , -0.0008356252, 4.783599E-05, 0.000780912 , -0.179789677, -0.164419577, 0.4511932   , -0.009026851, -0.012497752, 2.42830348  , 1           , 3           , 12          , 0.0368515737, 0
-0.115278438, 0.09870441  , -9.797228   , -0.00238214713, -0.00130010175, 0.00112477958, -0.180261567, -0.1645544  , 0.4510584   , -0.009050815, -0.0125106517, 2.428315    , 1.01        , 3           , 50          , 0           , 0
-0.108256191, 0.08281697  , -9.793625   , -0.0008471184, 0.00208917656, -0.00161751057, -0.1799245  , -0.164621815, 0.451260626 , -0.009059082, -0.0124899065, 2.42829823  , 1.02        , 3           , 11          , 0.008635969 , 0.008635971
-0.113146827, 0.0860728   , -9.805401   , 0.00205166824, 0.00147523568, -0.000262935326, -0.1799245  , -0.164419577, 0.4511258   , -0.009038528, -0.0124751786, 2.42829537  , 1.03        , 3           , 12          , 0.0368515737, 0
-0.1551298  , 0.0982744   , -9.798891   , 0.00325704645, 0.000427483174, -0.0005415029, -0.1799245  , -0.164419577, 0.4511258   , -0.009005891, -0.0124709532, 2.42829061  , 1.04        , 3           , 50          , 0           , 0
-0.109347016, 0.101796389 , -9.798074   , 0.00149077014, 0.000697112351, -5.48593343E-05, -0.17985709 , -0.164419577, 0.450923562 , -0.008990976, -0.0124639878, 2.42828965  , 1.05        , 3           , 11          , 0.008635969 , 0.008635971
-0.100694425, 0.108430907 , -9.788489   , 0.00255585485, -0.000421983772, 0.0006546871, -0.180059329, -0.164352164, 0.451328039 , -0.0089655  , -0.0124681517, 2.42829633  , 1.06        , 3           , 12          , 0.0368515737, 0
-0.122148253, 0.09916725  , -9.776939   , 0.0012129962, -0.000219883543, 0.0001543165, -0.179991916, -0.164486989, 0.451328039 , -0.00895339 , -0.0124703357, 2.42829776  , 1.07        , 3           , 50          , 0           , 0
-0.117204234, 0.09238385  , -9.789586   , 0.000371744041, -0.00149265758, -0.0002753931, -0.179991916, -0.164486989, 0.451328039 , -0.008949638, -0.0124852862, 2.42829537  , 1.08        , 3           , 11          , 0.008635969 , 0.008635971
-0.1243673  , 0.101908311 , -9.779206   , 0.00177465414, 0.000347064517, -0.000548525248, -0.179991916, -0.164352164, 0.4510584   , -0.008931825, -0.0124818645, 2.42828965  , 1.09        , 3           , 12          , 0.0368515737, 0
-0.114982225, 0.08607441  , -9.799539   , 0.0002480389, 0.000101415913, 0.00107094343, -0.1799245  , -0.164217338, 0.451260626 , -0.009066788, -0.0124273179, 2.428302    , 1.1         , 3           , 50          , 0           , 0
-0.0944551155, 0.09443883  , -9.808839   , -0.002082494, 0.000156049166, 0.000777649635, -0.1799245  , -0.164486989, 0.451328039 , -0.009087708, -0.0124256881, 2.42830968  , 1.11        , 3           , 11          , 0.008481681 , 0.00848168
-0.131032526, 0.101644233 , -9.811348   , -0.000102673905, -0.000534496969, -0.000344366475, -0.1799245  , -0.164486989, 0.450990975 , -0.009088693, -0.0124310628, 2.42830682  , 1.12        , 3           , 12          , 0.0373455472, 0
-0.131218076, 0.08765702  , -9.810955   , 0.000313154742, 0.00108736823, 1.32757923E-05, -0.1799245  , -0.164486989, 0.450990975 , -0.009085562, -0.0124201877, 2.42830682  , 1.13        , 3           , 50          , 0           , 0
-0.111153878, 0.100035712 , -9.804875   , 0.00292560249, 0.00110503554, 2.545738E-05, -0.1799245  , -0.164419577, 0.4511258   , -0.009056306, -0.0124091357, 2.42830682  , 1.14        , 3           , 11          , 0.008481681 , 0.00848168
-0.117490478, 0.105914637 , -9.78682    , -0.0006051405, 0.001081159 , -0.000697347859, -0.1799245  , -0.164486989, 0.451395452 , -0.009062271, -0.0123983873, 2.42829967  , 1.15        , 3           , 12          , 0.0373455472, 0
-0.09276326 , 0.089411065 , -9.795738   , -0.0020974502, 0.00283090957, -0.00218487158, -0.1799245  , -0.164486989, 0.4511258   , -0.009082971, -0.0123702772, 2.42827773  , 1.16        , 3           , 50          , 0           , 0
-0.114577845, 0.1060415   , -9.834256   , 0.00214317115, 0.00215565  , -0.00089478353, -0.1799245  , -0.164486989, 0.4511258   , -0.009061427, -0.0123488018, 2.42826867  , 1.17        , 3           , 11          , 0.008481681 , 0.00848168
-0.106134288, 0.102240562 , -9.807088   , 0.002491982 , 0.00300273253, -0.00096246996, -0.1799245  , -0.164486989, 0.451260626 , -0.009036385, -0.0123188635, 2.42825866  , 1.18        , 3           , 12          , 0.0373455472, 0
-0.09173816 , 0.06725393  , -9.785427   , 0.00193321251, 0.001943047 , 0.000516590662, -0.1799245  , -0.164486989, 0.4511932   , -0.009017114, -0.0122993877, 2.428264    , 1.19        , 3           , 50          , 0           , 0
-0.112489671, 0.07023863  , -9.795517   , 0.000313587137, 0.000972003036, 1.55645466E-05, -0.179654852, -0.1645544  , 0.450990975 , -0.009095417, -0.0121011483, 2.42826486  , 1.2         , 3           , 11          , 0.008402436 , 0.008402437
-0.137101561, 0.0939772353, -9.791539   , 0.000244500465, 0.0005491752, -0.000974296767, -0.179654852, -0.1645544  , 0.450990975 , -0.00909285247, -0.0120957466, 2.42825532  , 1.21        , 3           , 12          , 0.0378820635, 0
-0.130743608, 0.101952493 , -9.770214   , -0.0015225322, 0.0008891935, -0.00119388837, -0.180059329, -0.164689228, 0.451260626 , -0.009107932, -0.0120869623, 2.428243    , 1.22        , 3           , 50          , 0           , 0
-0.111747555, 0.09099987  , -9.799493   , -0.0006798859, 0.00188040256, -0.000764612458, -0.179991916, -0.164419577, 0.451260626 , -0.009114636, -0.0120682288, 2.42823529  , 1.23        , 3           , 11          , 0.008402436 , 0.008402437
-0.1284678  , 0.09524027  , -9.794631   , 0.000234108418, 0.00259052077, -0.00146559149, -0.17985709 , -0.164756641, 0.451328039 , -0.009112115, -0.0120424582, 2.42822     , 1.24        , 3           , 12          , 0.0378820635, 0
-0.127540171, 0.09480117  , -9.801407   , -0.003632414, -0.0006737358, -7.600214E-05, -0.17985709 , -0.164756641, 0.451328039 , -0.009148431, -0.0120492009, 2.42821956  , 1.25        , 3           , 50          , 0           , 0
-0.104920588, 0.100768358 , -9.77635    , -0.00285708974, -0.000527704135, -0.00120231346, -0.1799245  , -0.164419577, 0.4510584   , -0.009176858, -0.0120545877, 2.42820764  , 1.26        , 3           , 11          , 0.008402436 , 0.008402437
-0.123013452, 0.0631303638, -9.792011   , -0.0017301105, 0.00011345918, -0.000489725731, -0.179991916, -0.164352164, 0.451260626 , -0.009194101, -0.0120534981, 2.42820287  , 1.27        , 3           , 12          , 0.0378820635, 0
-0.145670086, 0.0900889263, -9.812863   , -0.0005407227, 0.00230370532, -0.000692668837, -0.179991916, -0.164486989, 0.451260626 , -0.009199421, -0.012030527, 2.42819571  , 1.28        , 3           , 50          , 0           , 0
-0.128721982, 0.109243385 , -9.798192   , -0.0008125535, 0.0002604508, 0.000150480628, -0.179991916, -0.164486989, 0.451260626 , -0.00920756347, -0.0120279072, 2.42819715  , 1.29        , 3           , 11          , 0.008402436 , 0.008402437
-0.1203099  , 0.09559725  , -9.79502    , -0.0023201115, -0.001805691, -0.000354250224, -0.1799245  , -0.164621815, 0.451328039 , -0.009269363, -0.0121419746, 2.42819428  , 1.3         , 3           , 12          , 0.0384589545, 0
-0.123408765, 0.07032386  , -9.782945   , -0.00105941249, -3.732158E-05, -0.0029590833, -0.180059329, -0.164621815, 0.451328039 , -0.00927959848, -0.0121426228, 2.42816472  , 1.31        , 3           , 50          , 0           , 0
-0.12885651 , 0.09619023  , -9.807286   , -0.00176468608, 2.83001809E-05, -0.0009845053, -0.180126742, -0.1645544  , 0.4511932   , -0.009297125, -0.012142431, 2.42815518  , 1.32        , 3           , 11          , 0.008365407 , 0.008365409
-0.115975752, 0.113166988 , -9.801694   , -0.00260953419, -0.0001885969, 0.001412787 , -0.180126742, -0.1645544  , 0.4511932   , -0.009323394, -0.0121441865, 2.428169    , 1.33        , 3           , 12          , 0.0384589545, 0
-0.118683815, 0.07712566  , -9.809095   , -0.00127171434, 0.0004539942, 0.000431137567, -0.179991916, -0.164419577, 0.4510584   , -0.009336163, -0.0121396054, 2.4281733   , 1.34        , 3           , 50          , 0           , 0
-0.121110275, 0.07166435  , -9.78699    , 0.000283071538, 4.21483019E-05, -0.0006924199, -0.1799245  , -0.164419577, 0.4511932   , -0.009333247, -0.0121392487, 2.42816663  , 1.35        , 3           , 11          , 0.008365407 , 0.008365409
-0.125707   , 0.101939373 , -9.783735   , 5.56092346E-06, -0.000804453332, 0.0005763799, -0.17985709 , -0.1645544  , 0.451395452 , -0.009333264, -0.0121472394, 2.42817235  , 1.36        , 3           , 12          , 0.0384589545, 0
-0.15189302 , 0.100969806 , -9.80654    , 0.00127603288, -0.000795860658, -0.00019467184, -0.17985709 , -0.1645544  , 0.451395452 , -0.009320482, -0.0121552171, 2.42817044  , 1.37        , 3           , 50          , 0           , 0
-0.129146621, 0.0794401839, -9.790183   , 0.00282952166, -0.0007149623, 0.0006602921, -0.180059329, -0.164419577, 0.4511258   , -0.009292268, -0.0121623036, 2.428177    , 1.38        , 3           , 11          , 0.008365407 , 0.008365409
-0.139668062, 0.103057861 , -9.799206   , 0.000841834059, 0.00138340483, 0.000230521808, -0.1804638  , -0.164352164, 0.451260626 , -0.009283875, -0.0121484483, 2.428179    , 1.39        , 3           , 12          , 0.0384589545, 0
-0.116146915, 0.10097684  , -9.799034   , 0.002601367 , -0.001223432, 0.000163162331, -0.180059329, -0.164486989, 0.451260626 , -0.009278061, -0.0123367216, 2.42818141  , 1.4         , 3           , 50          , 0           , 0
-0.105299428, 0.107528828 , -9.772708   , -0.000150774489, -0.00166440441, -0.000839209766, -0.180059329, -0.1645544  , 0.4511258   , -0.009279467, -0.0123534417, 2.4281733   , 1.41        , 3           , 11          , 0.008345748 , 0.008345752
-0.105060451, 0.0854791   , -9.791329   , 0.002234768 , 0.00130826142, -0.00160043745, -0.180059329, -0.1645544  , 0.4511258   , -0.009256919, -0.0123405084, 2.428157    , 1.42        , 3           , 12          , 0.0390740633, 0
-0.1020505  , 0.07638561  , -9.781401   , 0.00237898855, 0.000957266 , 0.000589343952, -0.17985709 , -0.164419577, 0.4511932   , -0.009233202, -0.0123308823, 2.42816281  , 1.43        , 3           , 50          , 0           , 0
-0.115743957, 0.09914575  , -9.792711   , 0.00223023747, 0.00222334778, -0.00159902719, -0.180059329, -0.1645544  , 0.451395452 , -0.0092107  , -0.0123087969, 2.4281466   , 1.44        , 3           , 11          , 0.008345748 , 0.008345752
-0.118231691, 0.11900261  , -9.784964   , 0.00187832746, 0.00215057284, -0.000258728978, -0.180059329, -0.164486989, 0.451260626 , -0.009191882, -0.012287315, 2.42814374  , 1.45        , 3           , 12          , 0.0390740633, 0
-0.117269553, 0.09233093  , -9.77376652 , 0.001311342 , 0.00256910035, -0.000331346149, -0.180059329, -0.164486989, 0.451260626 , -0.009178726, -0.0122616552, 2.4281404   , 1.46        , 3           , 50          , 0           , 0
-0.112509325, 0.06888366  , -9.795072   , 0.0009730269, -0.000389720139, -0.000196280031, -0.179789677, -0.164352164, 0.4511932   , -0.009168971, -0.0122655714, 2.42813849  , 1.47        , 3           , 11          , 0.008345748 , 0.008345752
-0.0949832  , 0.09349045  , -9.793479   , -0.00121366419, -0.00103804877, -0.001973322, -0.180126742, -0.164486989, 0.451260626 , -0.009180869, -0.0122761326, 2.428119    , 1.48        , 3           , 12          , 0.0390740633, 0
-0.124016322, 0.09021539  , -9.791906   , -0.00106835389, -0.00174100359, -0.0009142326, -0.179991916, -0.164419577, 0.451260626 , -0.009191441, -0.0122936256, 2.42811     , 1.49        , 3           , 50          , 0           , 0
-0.108188815, 0.08822776  , -9.792698   , 2.87906914E-05, -0.0002477685, -0.000976389449, -0.179991916, -0.164419577, 0.451260626 , -0.009220609, -0.0122062378, 2.42810082  , 1.5         , 3           , 11          , 0.008329656 , 0.008329658
-0.115054011, 0.0873553   , -9.777839   , -0.000320824474, -0.000742890232, 0.000716429844, -0.179991916, -0.164486989, 0.4511932   , -0.009223906, -0.0122136  , 2.4281075   , 1.51        , 3           , 12          , 0.0397252478, 0
-0.125955939, 0.08031284  , -9.792415   , -0.001163037, -0.0019452757, -0.0007726869, -0.180126742, -0.164486989, 0.451260626 , -0.009235445, -0.0122331241, 2.42810035  , 1.52        , 3           , 50          , 0           , 0
-0.143630639, 0.108999386 , -9.807799   , 0.00115788262, -9.93457943E-05, -0.0008296359, -0.17985709 , -0.1645544  , 0.451530278 , -0.009223765, -0.0122341979, 2.42809224  , 1.53        , 3           , 11          , 0.008329656 , 0.008329658
-0.113182239, 0.121231638 , -9.794407   , -0.0007514274, 0.000380498474, -0.00168537849, -0.17985709 , -0.1645544  , 0.451530278 , -0.009231072, -0.0122305462, 2.428075    , 1.54        , 3           , 12          , 0.0397252478, 0
-0.120181724, 0.105074473 , -9.795884   , 3.63911131E-05, -0.001585198, 0.000716774 , -0.1799245  , -0.164689228, 0.451260626 , -0.009230799, -0.01224633 , 2.4280827   , 1.55        , 3           , 50          , 0           , 0
-0.142024681, 0.093635954 , -9.806946   , -0.00300673023, -0.0001275122, 0.00119933591, -0.179991916, -0.164284751, 0.451328039 , -0.009261014, -0.0122474981, 2.42809415  , 1.56        , 3           , 11          , 0.008329656 , 0.008329658
-0.132493928, 0.09845223  , -9.796457   , -0.00166938116, 0.0005854696, 5.89192268E-06, -0.180126742, -0.164621815, 0.451260626 , -0.009277709, -0.0122416411, 2.42809415  , 1.57        , 3           , 12          , 0.0397252478, 0
-0.121532023, 0.07839006  , -9.772953   , -0.000607904163, 0.0001702858, 0.000504619966, -0.180126742, -0.164621815, 0.451260626 , -0.00928385 , -0.012239892, 2.42809987  , 1.58        , 3           , 50          , 0           , 0
-0.1259893  , 0.0780540556, -9.79152    , 0.00115475734, 0.000886140449, 0.00220916071, -0.17985709 , -0.164621815, 0.4511932   , -0.009272571, -0.0122308256, 2.42812181  , 1.59        , 3           , 11          , 0.008329656 , 0.008329658
-0.135890648, 0.0759878   , -9.8133     , 0.000283656176, 0.002224232 , -5.331615E-05, -0.179991916, -0.164352164, 0.451462865 , -0.00928818248, -0.0122846132, 2.42812085  , 1.6         , 3           , 12          , 0.0404104   , 0
-0.112932868, 0.103207484 , -9.802616   , 1.656334E-05, -0.0008748938, -5.940636E-05, -0.180126742, -0.164486989, 0.4511258   , -0.009288012, -0.0122933658, 2.42812085  , 1.61        , 3           , 50          , 0           , 0
-0.126470566, 0.107421249 , -9.800894   , 0.000307517359, -0.00256237341, 0.000221844472, -0.180126742, -0.164486989, 0.4511258   , -0.009284966, -0.0123189688, 2.42812276  , 1.62        , 3           , 11          , 0.008308269 , 0.008308269
-0.11700476 , 0.105043307 , -9.7976675  , -0.00222981581, -0.00342425634, 0.0007737652, -0.1799245  , -0.1645544  , 0.4511258   , -0.009307363, -0.0123531371, 2.42813134  , 1.63        , 3           , 12          , 0.0404104   , 0
-0.138370678, 0.09361914  , -9.814601   , -0.00195993483, -0.0008882612, 0.0007789876, -0.180059329, -0.164352164, 0.451260626 , -0.00932706147, -0.0123619474, 2.428139    , 1.64        , 3           , 50          , 0           , 0
-0.123300686, 0.07532131  , -9.793319   , 0.0005756778, 0.000255185849, -0.000337574, -0.17985709 , -0.164352164, 0.451260626 , -0.00932126 , -0.0123594282, 2.42813563  , 1.65        , 3           , 11          , 0.008308269 , 0.008308269
-0.09917787 , 0.08808516  , -9.781782   , 0.00113511877, 0.00138526689, -5.066715E-05, -0.179991916, -0.164824054, 0.4511932   , -0.009309903, -0.0123455813, 2.42813516  , 1.66        , 3           , 12          , 0.0404104   , 0
-0.132490531, 0.09800863  , -9.798718   , -0.00196927786, 0.000801124668, -0.000913633441, -0.179991916, -0.164824054, 0.4511932   , -0.009329481, -0.0123376558, 2.42812562  , 1.67        , 3           , 50          , 0           , 0
-0.118981153, 0.0933255553, -9.795019   , 0.00397053873, -0.00084815413, -4.09692875E-05, -0.17985709 , -0.164419577, 0.451260626 , -0.009289771, -0.012346141, 2.42812562  , 1.68        , 3           , 11          , 0.008308269 , 0.008308269
-0.122373633, 0.0842550844, -9.769773   , 0.00284403516, -0.00170049374, -0.00174276344, -0.179991916, -0.164419577, 0.4511932   , -0.009261117, -0.0123633072, 2.42810845  , 1.69        , 3           , 12          , 0.0404104   , 0
-0.113605559, 0.0932149   , -9.780968   , -0.00111737777, -0.00174413563, 0.00191176822, -0.179789677, -0.164419577, 0.4511258   , -0.00928425 , -0.0124013089, 2.42812753  , 1.7         , 3           , 50          , 0           , 0
-0.123648234, 0.0789826959, -9.807319   , -0.00083068 , -0.00286849239, -0.000348950271, -0.179789677, -0.164419577, 0.4511258   , -0.009292517, -0.0124300262, 2.42812467  , 1.71        , 3           , 11          , 0.008276661 , 0.00827666
-0.131177485, 0.0921534151, -9.806417   , 1.53695582E-05, -0.00258119684, -6.20282954E-05, -0.180194154, -0.164352164, 0.451462865 , -0.00929235853, -0.0124558415, 2.42812371  , 1.72        , 3           , 12          , 0.04112747  , 0
-0.124212138, 0.110068329 , -9.790922   , -0.000837650034, -0.001460667, -0.0003467806, -0.180126742, -0.1645544  , 0.451395452 , -0.009300693, -0.012470481, 2.42812085  , 1.73        , 3           , 50          , 0           , 0
-0.137140408, 0.0943921059, -9.78069    , 0.000574232 , -0.00116954674, 0.00163800013, -0.1799245  , -0.164486989, 0.4511258   , -0.009295157, -0.0124820229, 2.428137    , 1.74        , 3           , 11          , 0.008276661 , 0.00827666
-0.121456832, 0.07666558  , -9.796915   , -0.0005553864, -0.00145875779, -0.0006280012, -0.1799245  , -0.164486989, 0.4511258   , -0.009300635, -0.0124966688, 2.42813087  , 1.75        , 3           , 12          , 0.04112747  , 0
-0.127753228, 0.07632816  , -9.808717   , -0.0014046391, -0.000901353953, 0.000781603041, -0.179991916, -0.164958879, 0.451328039 , -0.009314779, -0.0125056077, 2.428139    , 1.76        , 3           , 50          , 0           , 0
-0.105922133, 0.08686437  , -9.797658   , 0.001683118 , 0.00277999812, -0.0006109567, -0.17985709 , -0.164621815, 0.451260626 , -0.009297868, -0.0124778654, 2.4281323   , 1.77        , 3           , 11          , 0.008276661 , 0.00827666
-0.142858744, 0.10218519  , -9.796973   , 0.000862561166, -0.00229389546, 0.00220265659, -0.180126742, -0.1645544  , 0.451395452 , -0.009289522, -0.0125005981, 2.42815518  , 1.78        , 3           , 12          , 0.04112747  , 0
-0.135294273, 0.09886271  , -9.774781   , -0.00113696815, 0.001916203 , -0.0006254278, -0.180126742, -0.1645544  , 0.451395452 , -0.009300812, -0.0124814939, 2.42814851  , 1.79        , 3           , 50          , 0           , 0
-0.136562884, 0.10430757  , -9.779288   , -0.00255576661, 0.00128239533, -0.00176346477, -0.179991916, -0.164284751, 0.451328039 , -0.009337321, -0.0125464844, 2.42813087  , 1.8         , 3           , 11          , 0.00823385548, 0.008233854
-0.145830512, 0.117558524 , -9.796028   , -0.00142138777, 0.000445342448, -0.000911886338, -0.180059329, -0.164352164, 0.451395452 , -0.009351419, -0.0125421146, 2.42812181  , 1.81        , 3           , 12          , 0.0418744721, 0
-0.112128019, 0.09552728  , -9.802642   , 0.00225425418, -9.29518137E-05, 0.00136466569, -0.180059329, -0.164486989, 0.4511932   , -0.009329051, -0.0125429155, 2.42813516  , 1.82        , 3           , 50          , 0           , 0
-0.126582578, 0.0970644355, -9.806813   , 0.002827561 , -0.00206009368, -0.000896037731, -0.180059329, -0.164486989, 0.4511932   , -0.009300664, -0.0125636  , 2.42812657  , 1.83        , 3           , 11          , 0.00823385548, 0.008233854
-0.125817582, 0.08845926  , -9.800064   , -0.00198698277, 0.0007230907, 0.000216063432, -0.180059329, -0.1645544  , 0.4511258   , -0.00932056 , -0.0125563489, 2.42812848  , 1.84        , 3           , 12          , 0.0418744721, 0
-0.146238074, 0.120724946 , -9.796922   , -0.00254584523, -0.0006885593, -0.00148396485, -0.180126742, -0.1645544  , 0.4511932   , -0.009345832, -0.0125633748, 2.42811418  , 1.85        , 3           , 50          , 0           , 0
-0.122531667, 0.09967511  , -9.792308   , 0.0008372853, 0.0007421904, 0.000229232726, -0.179991916, -0.164352164, 0.4511932   , -0.009337487, -0.0125559308, 2.428116    , 1.86        , 3           , 11          , 0.00823385548, 0.008233854
-0.103001773, 0.102619722 , -9.796666   , -0.004812971, 0.0009855545, -0.0003617467, -0.179991916, -0.164352164, 0.4511932   , -0.009385571, -0.0125461118, 2.42811227  , 1.87        , 3           , 12          , 0.0418744721, 0
-0.124168634, 0.08339672  , -9.776569   , -0.00225883583, -0.00124977087, 0.00162439654, -0.1799245  , -0.164689228, 0.4511932   , -0.009408363, -0.0125584565, 2.428129    , 1.88        , 3           , 50          , 0           , 0
-0.122977473, 0.104149617 , -9.779637   , -0.00422097929, -0.0043603587, 0.0007627921, -0.180194154, -0.164149925, 0.4511932   , -0.009450673, -0.0126019856, 2.428137    , 1.89        , 3           , 11          , 0.00823385548, 0.008233854
-0.116745442, 0.09550787  , -9.780981   , -0.000361460261, -0.0001256179, 0.0005060183, -0.179991916, -0.164352164, 0.451260626 , -0.009551131, -0.0126235951, 2.42814374  , 1.9         , 3           , 12          , 0.0426494926, 0
-0.114948668, 0.09368956  , -9.783236   , 0.00357947988, 0.002435205 , -0.000319251529, -0.179991916, -0.164352164, 0.451260626 , -0.009515295, -0.0125992717, 2.42814     , 1.91        , 3           , 50          , 0           , 0
-0.0990674645, 0.0886209756, -9.80709    , -0.0003780995, 0.002971592 , -0.0017495082, -0.179991916, -0.164689228, 0.450990975 , -0.00951885153, -0.0125697237, 2.42812276  , 1.92        , 3           , 11          , 0.008177996 , 0.008177993
-0.09101181 , 0.08175349  , -9.8057     , 0.000210526559, -0.00152962259, 0.000789019861, -0.179991916, -0.1645544  , 0.450923562 , -0.009516846, -0.0125849461, 2.42813039  , 1.93        , 3           , 12          , 0.0426494926, 0
-0.113966167, 0.09686571  , -9.791802   , -0.0011965211, -0.0026654352, -6.6912995E-05, -0.17985709 , -0.164419577, 0.4511932   , -0.009528808, -0.0126116052, 2.42813039  , 1.94        , 3           , 50          , 0           , 0
-0.123976059, 0.09426517  , -9.788727   , -9.157948E-05, 0.00241037784, 0.000511240563, -0.1799245  , -0.164621815, 0.450923562 , -0.009529783, -0.0125874532, 2.42813516  , 1.95        , 3           , 11          , 0.008177996 , 0.008177993
-0.122816652, 0.104726262 , -9.817149   , -0.00206176052, 0.0009891818, 0.000217314824, -0.1799245  , -0.164621815, 0.450923562 , -0.009550429, -0.0125775412, 2.428137    , 1.96        , 3           , 12          , 0.0426494926, 0
-0.13517189 , 0.09539107  , -9.815927   , -0.0009395125, 0.00240464462, -0.00062286 , -0.180059329, -0.164689228, 0.4511932   , -0.009559742, -0.012553554, 2.42813039  , 1.97        , 3           , 50          , 0           , 0
-0.145764619, 0.09090506  , -9.787099   , -0.002057252, 0.00014448812, 0.000781087962, -0.179991916, -0.164621815, 0.451395452 , -0.009580413, -0.0125520341, 2.42813849  , 1.98        , 3           , 11          , 0.008177996 , 0.008177993
-0.118476704, 0.102735437 , -9.777349   , -0.000357604556, -0.000970314839, -6.03585759E-05, -0.1799245  , -0.164419577, 0.4511932   , -0.009583983, -0.0125617422, 2.428138    , 1.99        , 3           , 12          , 0.0426494926, 0
-0.09160705 , 0.080750674 , -9.774071   , -0.001519399, -0.00013232592, -0.000629015733, -0.1799245  , -0.164419577, 0.4511932   , -0.009636899, -0.0125618419, 2.4281323   , 2           , 3           , 50          , 0           , 0
-0.095923245, 0.09481219  , -9.780826   , -0.0012365717, 0.000151157641, 0.002480647 , -0.180059329, -0.164419577, 0.4510584   , -0.009649576, -0.012560091, 2.428157    , 2.01        , 3           , 11          , 0.008115325 , 0.008115324
-0.129039288, 0.0808662   , -9.811871   , 0.000190495863, -0.00321808225, -0.0006258874, -0.1799245  , -0.164217338, 0.451395452 , -0.009647598, -0.01259233 , 2.42815137  , 2.02        , 3           , 12          , 0.043450702 , 0
-0.109124094, 0.08330446  , -9.801313   , -0.0006805715, 0.00184436585, 0.00163827231, -0.179789677, -0.164149925, 0.4511932   , -0.009654608, -0.0125737283, 2.42816758  , 2.03        , 3           , 50          , 0           , 0
-0.110192589, 0.109889939 , -9.786748   , -0.00293227448, 0.000139692362, 0.0004949833, -0.179789677, -0.164149925, 0.4511932   , -0.009683993, -0.0125722848, 2.42817235  , 2.04        , 3           , 11          , 0.008115325 , 0.008115324
-0.135588929, 0.103459664 , -9.79872    , -0.00349917472, 0.000417434378, -0.000637366436, -0.17985709 , -0.164419577, 0.450990975 , -0.009718903, -0.01256817 , 2.42816615  , 2.05        , 3           , 12          , 0.043450702 , 0
-0.147927925, 0.09592304  , -9.795682   , 0.00412093662, 0.00159526465, -0.000317535974, -0.180126742, -0.164352164, 0.451328039 , -0.009677654, -0.0125522492, 2.42816281  , 2.06        , 3           , 50          , 0           , 0
-0.117742077, 0.088303104 , -9.781922   , -0.001494396, -0.004918926, 0.00162390724, -0.1799245  , -0.164419577, 0.451260626 , -0.009692806, -0.01260128 , 2.4281795   , 2.07        , 3           , 11          , 0.008115325 , 0.008115324
-0.111701816, 0.09996393  , -9.781828   , 0.00130733079, -0.0006763581, -0.00118178932, -0.1799245  , -0.164419577, 0.451260626 , -0.009679585, -0.0126081584, 2.42816758  , 2.08        , 3           , 12          , 0.043450702 , 0
-0.131696448, 0.09344415  , -9.7860775  , -0.00209450023, 0.00183480734, -0.00147622451, -0.1799245  , -0.1645544  , 0.450990975 , -0.009700342, -0.0125899529, 2.4281528   , 2.09        , 3           , 50          , 0           , 0
-0.119850308, 0.102292687 , -9.775101   , -0.00293511269, 0.0009966253, 0.000213877138, -0.180059329, -0.164284751, 0.451260626 , -0.009727574, -0.0125625273, 2.42815518  , 2.1         , 3           , 11          , 0.008038822 , 0.008038822
-0.129300952, 0.10245119  , -9.789185   , -0.00124382949, 0.0015712129, -0.000624965644, -0.180261567, -0.164352164, 0.4511932   , -0.009739931, -0.0125468764, 2.42814851  , 2.11        , 3           , 12          , 0.04427635  , 0
-0.124983296, 0.07767844  , -9.817278   , 0.000170024956, 0.00129919918, -5.3740132E-05, -0.180261567, -0.164352164, 0.4511932   , -0.009738223, -0.0125338919, 2.42814851  , 2.12        , 3           , 50          , 0           , 0
-0.141278535, 0.0796593   , -9.812874   , 0.00129366678, 0.002433097 , -0.000894348836, -0.1799245  , -0.164419577, 0.450990975 , -0.00972517 , -0.0125096487, 2.428139    , 2.13        , 3           , 11          , 0.008038822 , 0.008038822
-0.132289767, 0.07726699  , -9.803776   , -0.000109940156, 0.0007341575, -0.0006209997, -0.180194154, -0.164689228, 0.451260626 , -0.00972619 , -0.0125023685, 2.4281323   , 2.14        , 3           , 12          , 0.04427635  , 0
-0.123222768, 0.07984793  , -9.797819   , 0.000177321286, -0.000108624583, 0.0005091652, -0.180059329, -0.164419577, 0.451260626 , -0.00972448 , -0.012503406, 2.428138    , 2.15        , 3           , 50          , 0           , 0
-0.09857422 , 0.0980218   , -9.786708   , 0.00101221888, 0.00243119174, 0.0007995588, -0.180059329, -0.164419577, 0.451260626 , -0.009714454, -0.0124790184, 2.42814565  , 2.16        , 3           , 11          , 0.008038822 , 0.008038822
-0.124422356, 0.09293668  , -9.794611   , -9.920326E-05, -0.00123679335, 0.00107118755, -0.17985709 , -0.164486989, 0.450923562 , -0.009715581, -0.0124912811, 2.42815614  , 2.17        , 3           , 12          , 0.04427635  , 0
-0.119162723, 0.07710981  , -9.80277252 , 0.00101525884, 0.00158649089, -0.00117950514, -0.179991916, -0.164352164, 0.4511932   , -0.009705279, -0.0124755278, 2.42814469  , 2.18        , 3           , 50          , 0           , 0
-0.10298086 , 0.0705736056, -9.794088   , 0.000173554436, 0.0004545009, -0.00118519168, -0.179991916, -0.164486989, 0.4511932   , -0.009703394, -0.0124710994, 2.4281323   , 2.19        , 3           , 11          , 0.008038822 , 0.008038822
-0.117921636, 0.102366686 , -9.803561   , -0.000866599847, 0.00273253955, -0.0003402559, -0.179722264, -0.164419577, 0.450923562 , -0.009563501, -0.0123946816, 2.42812753  , 2.2         , 3           , 12          , 0.04512478  , 0
-0.140552863, 0.100853555 , -9.811424   , 0.001975301 , -0.0009087093, -0.00118034019, -0.179722264, -0.164419577, 0.450923562 , -0.009543602, -0.0124038812, 2.42811561  , 2.21        , 3           , 50          , 0           , 0
-0.123526342, 0.09515005  , -9.785103   , 0.000561609631, -0.0006366948, -0.0014690283, -0.180261567, -0.164352164, 0.451260626 , -0.009537804, -0.0124103874, 2.42810082  , 2.22        , 3           , 11          , 0.007956409 , 0.007956409
-0.1160768  , 0.105050817 , -9.803083   , -0.0005653984, -0.000925893662, 0.0007855697, -0.1799245  , -0.164284751, 0.451328039 , -0.009543558, -0.0124195712, 2.42810845  , 2.23        , 3           , 12          , 0.04512478  , 0
-0.117555425, 0.0987204   , -9.794082   , -0.000573436148, 0.000763498654, 0.00135324826, -0.1799245  , -0.164419577, 0.4510584   , -0.009549458, -0.0124118077, 2.42812228  , 2.24        , 3           , 50          , 0           , 0
-0.111190081, 0.0964355841, -9.807603   , 0.00141790684, -0.00232035224, -0.000337531237, -0.1799245  , -0.164419577, 0.4510584   , -0.00953524 , -0.0124350414, 2.428119    , 2.25        , 3           , 11          , 0.007956409 , 0.007956409
-0.101338781, 0.09890763  , -9.772263   , -0.000565724738, -0.0009258951, 0.0002204946, -0.17985709 , -0.164824054, 0.451328039 , -0.009540926, -0.0124442792, 2.42812181  , 2.26        , 3           , 12          , 0.04512478  , 0
-0.0991912559, 0.08762796  , -9.779976   , -0.00254164473, -0.00122083141, -0.0003542326, -0.180126742, -0.164419577, 0.451260626 , -0.009566298, -0.0124565214, 2.428118    , 2.27        , 3           , 50          , 0           , 0
-0.120214529, 0.101030722 , -9.800873   , -0.00199409761, 0.00244333851, 0.00106672966, -0.179991916, -0.164419577, 0.4510584   , -0.00958637 , -0.0124319866, 2.42812848  , 2.28        , 3           , 11          , 0.007956409 , 0.007956409
-0.149921641, 0.08597662  , -9.783083   , -0.000299774, 0.0021732254, -0.00175117736, -0.179991916, -0.164419577, 0.4510584   , -0.009589149, -0.0124104256, 2.42811084  , 2.29        , 3           , 12          , 0.04512478  , 0
-0.119456887, 0.09509769  , -9.783716   , -5.3497497E-06, 0.0004975274, -0.000622195366, -0.180059329, -0.164419577, 0.4511258   , -0.009584535, -0.0123873595, 2.42810464  , 2.3         , 3           , 50          , 0           , 0
-0.129807919, 0.0921465456, -9.809118   , -0.000856322644, 0.001336495 , 0.000222767834, -0.179991916, -0.164284751, 0.451260626 , -0.009593124, -0.0123739745, 2.42810655  , 2.31        , 3           , 11          , 0.007867535 , 0.007867534
-0.128958985, 0.09119733  , -9.798268   , 0.0002906909, -0.002316215, -0.00119029277, -0.179789677, -0.1645544  , 0.450923562 , -0.009590073, -0.0123972492, 2.428095    , 2.32        , 3           , 12          , 0.04599441  , 0
-0.12311966 , 0.0933219939, -9.779684   , 0.00196548388, 0.00191872648, 0.00080188  , -0.179789677, -0.1645544  , 0.450923562 , -0.009570513, -0.0123779858, 2.42810273  , 2.33        , 3           , 50          , 0           , 0
-0.1179302  , 0.10593053  , -9.789988   , 0.00027904936, -6.36965851E-05, -0.002034434, -0.1799245  , -0.164689228, 0.450923562 , -0.00956747 , -0.0123788174, 2.4280827   , 2.34        , 3           , 11          , 0.007867535 , 0.007867534
-0.121356308, 0.121754281 , -9.787235   , -0.001415111, 0.0002064172, 0.00106601068, -0.180194154, -0.164284751, 0.4511932   , -0.009581753, -0.01237665 , 2.42809319  , 2.35        , 3           , 12          , 0.04599441  , 0
-0.143352792, 0.104388833 , -9.779792   , 0.0008429984, 0.000221690731, -0.00118375348, -0.17985709 , -0.164352164, 0.4511932   , -0.0095731765, -0.0123745482, 2.42808175  , 2.36        , 3           , 50          , 0           , 0
-0.148795962, 0.101320259 , -9.78753    , -1.004606E-06, -0.000347167021, -0.0003409597, -0.17985709 , -0.164352164, 0.4511932   , -0.009573144, -0.0123780519, 2.428078    , 2.37        , 3           , 11          , 0.007867535 , 0.007867534
-0.11639744 , 0.0873833448, -9.781465   , -0.00197209 , -0.00148679537, 0.0002131608, -0.1799245  , -0.1645544  , 0.4511258   , -0.009592894, -0.012392899, 2.42808032  , 2.38        , 3           , 12          , 0.04599441  , 0
-0.138752624, 0.108857773 , -9.782903   , 0.000280606531, -0.000345260953, -0.00175233022, -0.180059329, -0.164284751, 0.451328039 , -0.009589872, -0.0123965172, 2.42806268  , 2.39        , 3           , 50          , 0           , 0
-0.109856412, 0.09327518  , -9.811673   , -0.0017581  , 0.0009809512, -0.000911710435, -0.179789677, -0.164284751, 0.4511258   , -0.009695755, -0.0124960355, 2.428055    , 2.4         , 3           , 11          , 0.007775552 , 0.007775551
-0.131177127, 0.0850121   , -9.829498   , -0.00119366171, 0.001266341 , 0.0007865821, -0.179789677, -0.164284751, 0.4511258   , -0.009707788, -0.0124832969, 2.42806268  , 2.41        , 3           , 12          , 0.0468837619, 0
-0.123087607, 0.09379431  , -9.786009   , -0.0003194057, -0.004077663, 0.00162990054, -0.1799245  , -0.164689228, 0.4510584   , -0.009711189, -0.0125239138, 2.42807984  , 2.42        , 3           , 50          , 0           , 0
-0.1209231  , 0.08788463  , -9.780594   , 0.000225279335, -0.000131935347, 0.000508459634, -0.179991916, -0.164352164, 0.4511932   , -0.00970900152, -0.0125251822, 2.42808461  , 2.43        , 3           , 11          , 0.007775552 , 0.007775551
-0.1412182  , 0.08818884  , -9.800182   , -0.00118381483, -0.0009861861, -0.001477189, -0.17985709 , -0.164486989, 0.4511258   , -0.009720655, -0.0125351865, 2.42807031  , 2.44        , 3           , 12          , 0.0468837619, 0
-0.107082777, 0.10221643  , -9.7967     , -0.00033546667, -0.00126202265, -0.00203874731, -0.17985709 , -0.164486989, 0.4511258   , -0.009723756, -0.0125480052, 2.4280498   , 2.45        , 3           , 50          , 0           , 0
-0.106498115, 0.111691333 , -9.798464   , -0.0003389961, -0.000417324278, -0.0009072954, -0.1799245  , -0.164419577, 0.450923562 , -0.009727032, -0.0125522669, 2.42804074  , 2.46        , 3           , 11          , 0.007775552 , 0.007775551
-0.120909773, 0.07807572  , -9.815436   , -0.002872147, -0.00212390278, -0.000356676464, -0.180059329, -0.164352164, 0.4511932   , -0.009755709, -0.0125735393, 2.42803741  , 2.47        , 3           , 12          , 0.0468837619, 0
-0.107225746, 0.09540531  , -9.783622   , -0.000898273662, -0.00154740445, -0.000911665033, -0.180126742, -0.164284751, 0.451260626 , -0.009764581, -0.0125891035, 2.42802835  , 2.48        , 3           , 50          , 0           , 0
-0.105040066, 0.09040548  , -9.780461   , -0.00147362682, 0.0007012993, 0.000219322246, -0.180059329, -0.1645544  , 0.4511258   , -0.009779343, -0.0125820665, 2.42803025  , 2.49        , 3           , 11          , 0.007775552 , 0.007775551
-0.1284881  , 0.09299208  , -9.796901   , -0.00116709515, -0.00121545326, 0.0005005457, -0.180059329, -0.1645544  , 0.4511258   , -0.009767515, -0.0125072477, 2.428036    , 2.5         , 3           , 12          , 0.04779143  , 0
-0.109361827, 0.09687455  , -9.810299   , -0.0008988458, 0.0013205345, -0.00231960672, -0.179789677, -0.164419577, 0.451260626 , -0.009776211, -0.0124942688, 2.42801213  , 2.51        , 3           , 50          , 0           , 0
-0.113673523, 0.1145105   , -9.806643   , -0.00285624317, -0.002353174, 0.000208370839, -0.179722264, -0.164419577, 0.451328039 , -0.009804803, -0.01251778 , 2.428015    , 2.52        , 3           , 11          , 0.007680648 , 0.007680646
-0.115780383, 0.09777719  , -9.788197   , -0.00342576834, -0.00151230115, -0.000640573446, -0.1799245  , -0.1645544  , 0.4510584   , -0.009838982, -0.0125329653, 2.42800832  , 2.53        , 3           , 12          , 0.04779143  , 0
-0.119859375, 0.09246564  , -9.804522   , 0.00108813739, -0.000355478318, 0.000512383063, -0.1799245  , -0.1645544  , 0.4510584   , -0.009828164, -0.0125364708, 2.428014    , 2.54        , 3           , 50          , 0           , 0
-0.13590613 , 0.07776067  , -9.803801   , 0.0013524422, 0.003306778 , 0.0005193411, -0.179789677, -0.164419577, 0.4511258   , -0.009814703, -0.012503352, 2.42801881  , 2.55        , 3           , 11          , 0.007680648 , 0.007680646
-0.122501038, 0.0956828   , -9.812663   , -0.00173636817, -0.0006561509, -0.00232659513, -0.17985709 , -0.164621815, 0.4511258   , -0.009831775, -0.0125101414, 2.427995    , 2.56        , 3           , 12          , 0.04779143  , 0
-0.116388366, 0.114543915 , -9.807116   , 0.000242992392, -0.0009243416, -0.0006225854, -0.179789677, -0.1645544  , 0.451328039 , -0.009829268, -0.0125194425, 2.42798924  , 2.57        , 3           , 50          , 0           , 0
-0.111308053, 0.09321554  , -9.789085   , -0.001455098, -9.11029056E-05, 0.0005009646, -0.179789677, -0.1645544  , 0.451328039 , -0.009843881, -0.0125203049, 2.427994    , 2.58        , 3           , 11          , 0.007680648 , 0.007680646
-0.09643109 , 0.08584589  , -9.796234   , 0.0008060368, -0.0003573867, 0.001076141 , -0.180059329, -0.164352164, 0.4510584   , -0.009835956, -0.0125237731, 2.428005    , 2.59        , 3           , 12          , 0.04779143  , 0
-0.112931669, 0.102315754 , -9.805783   , -0.00117202953, 0.00194326357, -0.00118933991, -0.180126742, -0.164689228, 0.4511932   , -0.009827917, -0.012398364, 2.427993    , 2.6         , 3           , 50          , 0           , 0
-0.146163523, 0.09318578  , -9.792968   , -0.0005997165, 0.000539260567, -0.00034126325, -0.179991916, -0.164689228, 0.4511258   , -0.00983387 , -0.0123930061, 2.42798972  , 2.61        , 3           , 11          , 0.00758407125, 0.00758406939
-0.117266789, 0.08340618  , -9.803183   , 0.00136603054, 0.00308672246, 0.00193216046, -0.179991916, -0.164689228, 0.4511258   , -0.009820447, -0.012361953, 2.42800879  , 2.62        , 3           , 12          , 0.04871609  , 0
-0.1318157  , 0.08084972  , -9.797429   , 0.00194458663, -6.68142457E-06, -0.000895353733, -0.180059329, -0.164621815, 0.450923562 , -0.00980089 , -0.0123621058, 2.42799973  , 2.63        , 3           , 50          , 0           , 0
-0.111792766, 0.08783879  , -9.798603   , -0.00284781586, -0.00172853889, -7.27329461E-05, -0.180126742, -0.164284751, 0.451260626 , -0.009829361, -0.0123793967, 2.42799926  , 2.64        , 3           , 11          , 0.00758407125, 0.00758406939
-0.114844531, 0.100915529 , -9.785465   , -0.0031367233, -0.000322621316, 0.0007757322, -0.179991916, -0.164689228, 0.451328039 , -0.009860826, -0.0123825455, 2.42800736  , 2.65        , 3           , 12          , 0.04871609  , 0
-0.131879464, 0.0803517   , -9.783421   , -0.00313212629, -0.00144888624, -0.0009212282, -0.179991916, -0.164689228, 0.451328039 , -0.009892035, -0.0123971244, 2.42799783  , 2.66        , 3           , 50          , 0           , 0
-0.116850331, 0.08471048  , -9.790068   , 0.000263387483, -0.00255222316, 0.00050552655, -0.179991916, -0.164419577, 0.450923562 , -0.009889467, -0.0124225961, 2.42800355  , 2.67        , 3           , 11          , 0.00758407125, 0.00758406939
-0.116654187, 0.0653041452, -9.789694   , -0.00117154012, 0.001943266 , -0.000341727457, -0.180059329, -0.164486989, 0.451328039 , -0.009901139, -0.0124031967, 2.42799973  , 2.68        , 3           , 12          , 0.04871609  , 0
-0.116892666, 0.08289075  , -9.785555   , -0.000314576, -0.000303531764, -0.00288408576, -0.17985709 , -0.164756641, 0.450990975 , -0.009903926, -0.0124065187, 2.42797112  , 2.69        , 3           , 50          , 0           , 0
-0.102107078, 0.103046641 , -9.79259    , 0.00146101089, 0.00113200932, -4.951697E-05, -0.17985709 , -0.164756641, 0.450990975 , -0.00973483548, -0.0123661365, 2.42796874  , 2.7         , 3           , 11          , 0.007486883 , 0.007486881
-0.116186425, 0.100498475 , -9.7909     , 0.00343997055, 0.000582245 , -0.00145385345, -0.179789677, -0.164621815, 0.450990975 , -0.009700253, -0.0123604536, 2.427954    , 2.71        , 3           , 12          , 0.04965651  , 0
-0.132531911, 0.0975287557, -9.790133   , -0.000504661759, -0.00113388035, 0.00022033049, -0.179991916, -0.164621815, 0.4511258   , -0.009705329, -0.012371771, 2.42795634  , 2.72        , 3           , 50          , 0           , 0
-0.1255663  , 0.105624169 , -9.806318   , -0.000776262837, -0.003388312, -0.000349532638, -0.179991916, -0.164419577, 0.4511258   , -0.009713053, -0.0124056861, 2.427953    , 2.73        , 3           , 11          , 0.007486883 , 0.007486881
-0.117569022, 0.100494772 , -9.785036   , 0.000332208117, 0.000842802 , -0.000902830856, -0.179789677, -0.164621815, 0.4510584   , -0.009709617, -0.0123973461, 2.427944    , 2.74        , 3           , 12          , 0.04965651  , 0
-0.136930689, 0.0981328562, -9.819996   , 0.002028816 , 0.0005726999, 0.000234786537, -0.179789677, -0.164621815, 0.4510584   , -0.009689356, -0.012391598, 2.42794633  , 2.75        , 3           , 50          , 0           , 0
-0.113871135, 0.101852581 , -9.799013   , 0.0037214926, 0.0008657225, -0.000604490167, -0.1799245  , -0.1645544  , 0.451260626 , -0.009652067, -0.0123829981, 2.42794013  , 2.76        , 3           , 11          , 0.007486883 , 0.007486881
-0.110886432, 0.0913995653, -9.787282   , 0.00116587477, 0.00366418459, -0.000329465751, -0.1799245  , -0.164824054, 0.4511258   , -0.009640363, -0.0123463906, 2.42793679  , 2.77        , 3           , 12          , 0.04965651  , 0
-0.122599363, 0.09381771  , -9.794593   , -0.00193040969, 0.001672222 , 0.000783160154, -0.17985709 , -0.1650937  , 0.4510584   , -0.009659762, -0.0123295924, 2.42794442  , 2.78        , 3           , 50          , 0           , 0
-0.128070861, 0.0902798548, -9.796908   , 0.0006149612, 0.000844713533, -0.000336438941, -0.17985709 , -0.1650937  , 0.4510584   , -0.009653568, -0.0123211788, 2.42794061  , 2.79        , 3           , 11          , 0.007486883 , 0.007486881
-0.143752843, 0.09238541  , -9.831371   , 5.266929E-05, 0.000555610051, 0.000225502867, -0.17985709 , -0.164891466, 0.4511258   , -0.009651507, -0.0123224948, 2.42794251  , 2.8         , 3           , 12          , 0.0506115332, 0
-0.113578424, 0.08698799  , -9.80766    , 0.0003341173, 0.0005575153, -0.00146840489, -0.1799245  , -0.164891466, 0.4511258   , -0.009647985, -0.0123170605, 2.42792821  , 2.81        , 3           , 50          , 0           , 0
-0.1156722  , 0.105452806 , -9.789972   , 0.00148415635, -0.00337675167, -5.65249939E-05, -0.179722264, -0.164689228, 0.4511258   , -0.009633139, -0.0123508321, 2.42792773  , 2.82        , 3           , 11          , 0.00739053264, 0.007390529
-0.140102968, 0.107094809 , -9.790604   , 0.002304951 , 0.00197871448, -4.432944E-05, -0.179722264, -0.164689228, 0.4511258   , -0.009610082, -0.0123310508, 2.42792726  , 2.83        , 3           , 12          , 0.0506115332, 0
-0.10754256 , 0.09775255  , -9.809377   , -0.0016498405, 0.00195197086, -0.00147545361, -0.17985709 , -0.164824054, 0.4510584   , -0.009626398, -0.0123116709, 2.427912    , 2.84        , 3           , 50          , 0           , 0
-0.118790247, 0.109548859 , -9.789526   , 0.002580823 , 0.00310688023, -0.00173650158, -0.17985709 , -0.164824054, 0.4511932   , -0.00960037 , -0.01228077 , 2.42789483  , 2.85        , 3           , 11          , 0.00739053264, 0.007390529
-0.102705032, 0.0957927257, -9.780421   , 0.00203876267, -0.00140197878, -0.0008984658, -0.179722264, -0.1645544  , 0.4511932   , -0.009579876, -0.0122948755, 2.42788577  , 2.86        , 3           , 12          , 0.0506115332, 0
-0.114450872, 0.0914889649, -9.80132    , 0.00175543083, -0.00112232147, -5.17366025E-05, -0.179722264, -0.1645544  , 0.4511932   , -0.009562316, -0.0123061035, 2.42788529  , 2.87        , 3           , 50          , 0           , 0
-0.13945502 , 0.08634332  , -9.794301   , -0.0007868254, -0.0008579414, 0.00163206994, -0.179654852, -0.164756641, 0.4510584   , -0.009570386, -0.0123145264, 2.42790151  , 2.88        , 3           , 11          , 0.00739053264, 0.007390529
-0.125283718, 0.09476855  , -9.799582   , -0.000520459551, 0.001959609 , -0.00203526113, -0.1799245  , -0.164284751, 0.4510584   , -0.009575338, -0.012295126, 2.42788148  , 2.89        , 3           , 12          , 0.0506115332, 0
-0.09409246 , 0.0961459056, -9.781258   , -0.00136580213, -0.000308311952, 0.0013478559, -0.1799245  , -0.164486989, 0.4511932   , -0.009610593, -0.01231665 , 2.42789578  , 2.9         , 3           , 50          , 0           , 0
-0.119098663, 0.08564238  , -9.790984   , 0.00144937518, 0.00111860293, -0.00230979221, -0.1799245  , -0.164486989, 0.4511932   , -0.009595814, -0.0123056844, 2.42787242  , 2.91        , 3           , 11          , 0.0072941673, 0.007294162
-0.134791747, 0.09041704  , -9.814136   , -0.00279416027, 0.002497778 , -0.002609914, -0.1799245  , -0.164621815, 0.4510584   , -0.009623432, -0.0122809587, 2.42784619  , 2.92        , 3           , 12          , 0.0515800565, 0
-0.117440686, 0.0725528449, -9.795546   , -0.00250722538, 0.00165499432, -0.00204482418, -0.179991916, -0.164352164, 0.450990975 , -0.009648251, -0.0122646075, 2.42782521  , 2.93        , 3           , 50          , 0           , 0
-0.105970055, 0.07745217  , -9.816229   , 0.0025812923, 0.0008446817, -0.000892271055, -0.179587439, -0.164689228, 0.4510584   , -0.009622327, -0.0122562461, 2.42781663  , 2.94        , 3           , 11          , 0.0072941673, 0.007294162
-0.127094954, 0.09211163  , -9.808194   , -0.002770388, -0.002007256, -7.401992E-05, -0.179587439, -0.164689228, 0.4510584   , -0.009650024, -0.0122763244, 2.42781568  , 2.95        , 3           , 12          , 0.0515800565, 0
-0.122902974, 0.0739323   , -9.784282   , -0.00220405171, -0.00256657274, -0.0023325535, -0.1799245  , -0.164689228, 0.450990975 , -0.00967178 , -0.0123022133, 2.42779279  , 2.96        , 3           , 50          , 0           , 0
-0.105432391, 0.0940306   , -9.783613   , -0.00109132426, 0.00110141863, -0.000343882275, -0.179789677, -0.164486989, 0.4511258   , -0.00968265 , -0.012291234, 2.427789    , 2.97        , 3           , 11          , 0.0072941673, 0.007294162
-0.111461081, 0.118012995 , -9.782657   , -0.00137063675, 0.0005363801, 0.000219007678, -0.17985709 , -0.164486989, 0.451328039 , -0.009696382, -0.0122858472, 2.42779136  , 2.98        , 3           , 12          , 0.0515800565, 0
-0.118134461, 0.124437585 , -9.791268   , 0.00172269635, 0.003091472 , -0.00117528788, -0.17985709 , -0.164486989, 0.451328039 , -0.009679006, -0.0122550474, 2.42777944  , 2.99        , 3           , 50          , 0           , 0
-0.138504326, 0.08681558  , -9.803783   , 0.0005896201, 0.000569643 , 0.0002286874, -0.179722264, -0.164419577, 0.450856149 , -0.00970635 , -0.0122098662, 2.4277823   , 3           , 3           , 11          , 0.007199572 , 0.00719956448
-0.133464873, 0.08814383  , -9.813683   , 0.0005793725, 0.002540596 , -0.0006158873, -0.1799245  , -0.164217338, 0.4510584   , -0.009700477, -0.0121845212, 2.42777562  , 3.01        , 3           , 12          , 0.0525610745, 0
-0.143647015, 0.112110585 , -9.793774   , -0.0039337175, 0.001383777 , -0.0003561565, -0.180059329, -0.164352164, 0.4511932   , -0.009739769, -0.01217072 , 2.42777181  , 3.02        , 3           , 50          , 0           , 0
-0.133350983, 0.09850216  , -9.808215   , 0.00144247652, -0.0005508875, 0.000230902428, -0.17985709 , -0.164419577, 0.450990975 , -0.009725373, -0.0121762054, 2.42777467  , 3.03        , 3           , 11          , 0.007199572 , 0.00719956448
-0.115410753, 0.08609938  , -9.805417   , 0.0011510331, 0.00113659  , -0.0008979606, -0.17985709 , -0.164419577, 0.450990975 , -0.009713751, -0.0121649262, 2.42776513  , 3.04        , 3           , 12          , 0.0525610745, 0
-0.113868713, 0.100069135 , -9.805347   , -0.0005477099, 0.00196982524, -0.000904560438, -0.179789677, -0.164352164, 0.450990975 , -0.009719116, -0.0121453172, 2.427756    , 3.05        , 3           , 50          , 0           , 0
-0.109442241, 0.0914531648, -9.808062   , -0.00166143035, -0.00113502727, 0.0002155483, -0.180261567, -0.164284751, 0.4510584   , -0.009735759, -0.0121566467, 2.42775846  , 3.06        , 3           , 11          , 0.007199572 , 0.00719956448
-0.11760731 , 0.09153675  , -9.804507   , -0.0005346744, -0.000564258138, -6.08535738E-05, -0.1799245  , -0.164352164, 0.4511258   , -0.009741099, -0.0121622952, 2.427758    , 3.07        , 3           , 12          , 0.0525610745, 0
-0.108125195, 0.101223454 , -9.766428   , 0.00115038047, 0.00113658677, -0.00202811067, -0.1799245  , -0.164352164, 0.4511258   , -0.009729348, -0.0121511286, 2.42773747  , 3.08        , 3           , 50          , 0           , 0
-0.09702176 , 0.108429208 , -9.800665   , -0.00137933006, -0.00113311876, -0.0003482095, -0.1799245  , -0.164419577, 0.450990975 , -0.0097431  , -0.0121624917, 2.42773414  , 3.09        , 3           , 11          , 0.007199572 , 0.00719956448
-0.111274287, 0.09859911  , -9.780024   , -0.00138707482, -0.00251760241, -0.000632430369, -0.179789677, -0.164082512, 0.4510584   , -0.009786754, -0.012139868, 2.427729    , 3.1         , 3           , 12          , 0.05355363  , 0
-0.09269063 , 0.09437977  , -9.797526   , -0.000539883156, -0.002230301, 0.00163225422, -0.179789677, -0.164217338, 0.450923562 , -0.009792355, -0.0121620083, 2.427745    , 3.11        , 3           , 50          , 0           , 0
-0.115622789, 0.104153767 , -9.806249   , -0.00167417293, -0.00167481927, -0.001480058, -0.179789677, -0.164217338, 0.450923562 , -0.009808918, -0.0121789007, 2.4277308   , 3.12        , 3           , 11          , 0.007106859 , 0.00710685458
-0.138057932, 0.09082226  , -9.7893     , -0.00140461873, 0.00086117466, -0.00203991076, -0.17985709 , -0.164419577, 0.4511932   , -0.009822716, -0.0121704908, 2.42771029  , 3.13        , 3           , 12          , 0.05355363  , 0
-0.124219857, 0.0771063   , -9.784279   , -0.00139035238, -0.00195447449, -0.00147917494, -0.1799245  , -0.164284751, 0.450923562 , -0.009836442, -0.012190178, 2.42769551  , 3.14        , 3           , 50          , 0           , 0
-0.12406791 , 0.091066286 , -9.776537   , 0.00141186384, 0.002288096 , -0.00343725877, -0.180059329, -0.164486989, 0.450923562 , -0.009821901, -0.0121676363, 2.42766118  , 3.15        , 3           , 11          , 0.007106859 , 0.00710685458
-0.125809908, 0.09382166  , -9.784674   , 0.000295266422, 2.79448E-05 , -5.55486477E-05, -0.180059329, -0.164486989, 0.450923562 , -0.009818942, -0.0121673625, 2.42766023  , 3.16        , 3           , 12          , 0.05355363  , 0
-0.122133531, 0.09382299  , -9.797753   , 0.00113910635, 0.0005968017, -0.00118087977, -0.179991916, -0.164419577, 0.450856149 , -0.009807406, -0.0121615082, 2.42764878  , 3.17        , 3           , 50          , 0           , 0
-0.141576052, 0.09050282  , -9.815995   , 0.00563816726, 0.004850843 , 0.000824462448, -0.17985709 , -0.1645544  , 0.450923562 , -0.00975112 , -0.012112922, 2.42765641  , 3.18        , 3           , 11          , 0.007106859 , 0.00710685458
-0.112027757, 0.107659973 , -9.788127   , 0.00142120686, 0.0005987101, -0.00174463773, -0.17985709 , -0.164486989, 0.450923562 , -0.009736695, -0.0121071059, 2.42763925  , 3.19        , 3           , 12          , 0.05355363  , 0
-0.114021882, 0.08700086  , -9.809922   , 0.00114924717, -0.00139064831, 0.000511174847, -0.17985709 , -0.164486989, 0.450923562 , -0.009726516, -0.0121558979, 2.42764449  , 3.2         , 3           , 50          , 0           , 0
-0.1036166  , 0.0850860849, -9.813467   , 0.00143552979, -0.0022334354, -5.38850436E-05, -0.179991916, -0.164284751, 0.450856149 , -0.009712156, -0.0121782366, 2.427644    , 3.21        , 3           , 11          , 0.00701492932, 0.007014925
-0.11384365 , 0.113926321 , -9.766871   , 0.005942629 , 0.000331213931, 0.00138377887, -0.1799245  , -0.164419577, 0.4510584   , -0.0096529  , -0.0121747935, 2.42765832  , 3.22        , 3           , 12          , 0.05455682  , 0
-0.11917071 , 0.114076287 , -9.792675   , 0.00198028935, 0.00199386477, 0.00136794546, -0.179991916, -0.164419577, 0.4510584   , -0.009633262, -0.01215472 , 2.42767167  , 3.23        , 3           , 50          , 0           , 0
-0.132540643, 0.0881483257, -9.818195   , 0.000863617053, -0.0005478585, 0.00220638467, -0.179991916, -0.164419577, 0.4510584   , -0.009624895, -0.0121599864, 2.42769361  , 3.24        , 3           , 11          , 0.00701492932, 0.007014925
-0.131214142, 0.0930164158, -9.794662   , 0.00226403563, 0.00143263745, -0.00117444294, -0.17985709 , -0.164689228, 0.450856149 , -0.009602109, -0.0121457735, 2.42768168  , 3.25        , 3           , 12          , 0.05455682  , 0
-0.119028687, 0.09462609  , -9.779195   , -0.0005453138, -0.001402108, 0.0005032732, -0.17985709 , -0.164284751, 0.4510584   , -0.009607626, -0.0121597461, 2.427687    , 3.26        , 3           , 50          , 0           , 0
-0.1231632  , 0.0848060548, -9.796443   , 0.002836349 , 2.86345039E-05, -0.000326366164, -0.179991916, -0.164352164, 0.4511258   , -0.009579223, -0.0121594891, 2.427684    , 3.27        , 3           , 11          , 0.00701492932, 0.007014925
-0.103224307, 0.08904891  , -9.785877   , 0.00141519785, 0.0017084718, -0.00146049727, -0.1799245  , -0.164284751, 0.450856149 , -0.009564892, -0.0121425465, 2.42766881  , 3.28        , 3           , 12          , 0.05455682  , 0
-0.115969792, 0.08869671  , -9.771061   , 0.00226304238, 0.00199577631, 0.0019343372, -0.1799245  , -0.164284751, 0.450856149 , -0.009542492, -0.0121224048, 2.427688    , 3.29        , 3           , 50          , 0           , 0
-0.126846254, 0.0807821751, -9.79468    , 0.00171287765, -0.000821218, -0.002310645, -0.1799245  , -0.164419577, 0.450856149 , -0.009518106, -0.0121253962, 2.42766547  , 3.3         , 3           , 11          , 0.00692510651, 0.00692510046
-0.121888638, 0.11499989  , -9.789528   , -0.00336794253, -0.00113715557, 0.00020805333, -0.17985709 , -0.164352164, 0.4510584   , -0.009551811, -0.0121367471, 2.42766786  , 3.31        , 3           , 12          , 0.0555698127, 0
-0.11611405 , 0.0725112   , -9.787852   , 6.58660429E-06, 0.00170141156, -0.000901953841, -0.179722264, -0.164419577, 0.450923562 , -0.009551634, -0.0121198213, 2.42765832  , 3.32        , 3           , 50          , 0           , 0
-0.133697376, 0.07367222  , -9.803349   , -0.001403249, 0.00112872943, -0.00175701885, -0.179722264, -0.164419577, 0.450923562 , -0.009565454, -0.0121087022, 2.42764068  , 3.33        , 3           , 11          , 0.00692510651, 0.00692510046
-0.125827655, 0.084880285 , -9.809118   , 0.00170056918, 0.0019944408, 0.0005190689, -0.179991916, -0.1645544  , 0.4511258   , -0.009548508, -0.0120887086, 2.427646    , 3.34        , 3           , 12          , 0.0555698127, 0
-0.0948015  , 0.104796432 , -9.801567   , -0.0008197838, -0.00252779434, -0.000912413641, -0.179991916, -0.164486989, 0.450990975 , -0.009556598, -0.0121140731, 2.42763686  , 3.35        , 3           , 50          , 0           , 0
-0.119279526, 0.0979195   , -9.818054   , 0.00114630384, -0.000543474569, -0.00287792017, -0.1799245  , -0.164352164, 0.4510584   , -0.009544789, -0.0121197822, 2.42760825  , 3.36        , 3           , 11          , 0.00692510651, 0.00692510046
-0.119526446, 0.08923877  , -9.785549   , -0.002797928, -0.00197802577, 0.00190461031, -0.1799245  , -0.164352164, 0.4510584   , -0.009572999, -0.012139379, 2.4276278   , 3.37        , 3           , 12          , 0.0555698127, 0
-0.100188144, 0.08265477  , -9.773677   , 0.00171533937, -0.00138434942, -0.00287658814, -0.17985709 , -0.164486989, 0.450923562 , -0.0095555  , -0.0121534979, 2.42759919  , 3.38        , 3           , 50          , 0           , 0
-0.124496594, 0.07814696  , -9.824052   , 0.000570372562, 0.00198679836, -0.000333811069, -0.180059329, -0.164284751, 0.450990975 , -0.009549753, -0.0121336635, 2.42759538  , 3.39        , 3           , 11          , 0.00692510651, 0.00692510046
-0.09695364 , 0.117411412 , -9.788424   , 0.00314709  , 0.000324415043, -0.001454834, -0.1799245  , -0.164352164, 0.450923562 , -0.009456912, -0.0121084172, 2.4275806   , 3.4         , 3           , 12          , 0.05659184  , 0
-0.117472105, 0.0805617   , -9.762066   , 0.0006049964, 0.000588795869, 0.0005115098, -0.1799245  , -0.164352164, 0.450923562 , -0.009450925, -0.0121024782, 2.42758584  , 3.41        , 3           , 50          , 0           , 0
-0.112976342, 0.104957655 , -9.786337   , -0.000807879143, 0.0008608142, 0.00163550884, -0.179789677, -0.164419577, 0.450990975 , -0.009459199, -0.0120937163, 2.427602    , 3.42        , 3           , 11          , 0.00683789747, 0.00683788676
-0.108752131, 0.109940529 , -9.806624   , -0.000808042241, 0.000860813365, 0.00135297154, -0.180194154, -0.164419577, 0.4511258   , -0.009467442, -0.01208498 , 2.4276154   , 3.43        , 3           , 12          , 0.05659184  , 0
-0.108204171, 0.0850908756, -9.79904    , 0.002019103 , 3.52116767E-05, -0.00089546066, -0.1799245  , -0.164486989, 0.4510584   , -0.009447142, -0.0120847113, 2.42760634  , 3.44        , 3           , 50          , 0           , 0
-0.135249585, 0.0962208062, -9.794228   , 0.0017311   , 0.001159562 , -0.000895041856, -0.1799245  , -0.164486989, 0.4510584   , -0.009429722, -0.0120732011, 2.42759728  , 3.45        , 3           , 11          , 0.00683789747, 0.00683788676
-0.112809688, 0.07838582  , -9.801814   , -0.000519298, -0.0005451052, 0.00022196873, -0.179991916, -0.164689228, 0.450990975 , -0.009434941, -0.01207863 , 2.42759967  , 3.46        , 3           , 12          , 0.05659184  , 0
-0.13558729 , 0.105692737 , -9.791932   , -0.00108431489, -0.000548925949, -6.32026058E-05, -0.179991916, -0.164352164, 0.450923562 , -0.009445779, -0.0120841265, 2.42759919  , 3.47        , 3           , 50          , 0           , 0
-0.123694405, 0.117257252 , -9.783656   , -0.0005177409, -0.0008266695, 0.000504072348, -0.1799245  , -0.164621815, 0.450856149 , -0.009451019, -0.0120923426, 2.427604    , 3.48        , 3           , 11          , 0.00683789747, 0.00683788676
-0.114858225, 0.09242379  , -9.809454   , 0.002577565 , 0.001165288 , -0.00230377866, -0.1799245  , -0.164621815, 0.450856149 , -0.009424963, -0.0120809115, 2.427581    , 3.49        , 3           , 12          , 0.05659184  , 0
-0.111521751, 0.109036848 , -9.796705   , -0.0033558947, -0.00253714155, -0.00120668253, -0.179991916, -0.164621815, 0.450788736 , -0.009507754, -0.0121109961, 2.42756963  , 3.5         , 3           , 50          , 0           , 0
-0.102110475, 0.103490241 , -9.790329   , 1.69886334E-05, 0.0008645615, -0.00033805953, -0.180126742, -0.164689228, 0.450923562 , -0.00950754248, -0.0121023832, 2.42756677  , 3.51        , 3           , 11          , 0.00675202627, 0.00675201463
-0.1098467  , 0.06880792  , -9.781943   , -0.0008217647, -0.000830558245, -6.2076695E-05, -0.179789677, -0.1645544  , 0.450856149 , -0.009515754, -0.0121106934, 2.42756581  , 3.52        , 3           , 12          , 0.05762215  , 0
-0.1150124  , 0.08560361  , -9.793666   , 0.00311843446, 0.002011833 , 0.000243237184, -0.179789677, -0.1645544  , 0.450856149 , -0.00948459748, -0.0120905526, 2.4275682   , 3.53        , 3           , 50          , 0           , 0
-0.11887902 , 0.10545978  , -9.780956   , 0.0003004832, 0.0005849048, -0.0009022515, -0.1799245  , -0.164486989, 0.4506539   , -0.009481482, -0.0120847914, 2.42755914  , 3.54        , 3           , 11          , 0.00675202627, 0.00675201463
-0.1341049  , 0.08710472  , -9.771205   , 9.039737E-06, 0.002272382 , -0.002031115, -0.1799245  , -0.164419577, 0.450990975 , -0.009481143, -0.0120622609, 2.42753816  , 3.55        , 3           , 12          , 0.05762215  , 0
-0.124730676, 0.07170838  , -9.787469   , -0.0008352895, 0.00170352287, -0.00175339612, -0.179789677, -0.164419577, 0.450923562 , -0.009489283, -0.0120453937, 2.427521    , 3.56        , 3           , 50          , 0           , 0
-0.108795315, 0.07694976  , -9.791394   , 0.00058988  , -0.0008210108, -0.000903104257, -0.1799245  , -0.164419577, 0.450788736 , -0.009483276, -0.0120536862, 2.427512    , 3.57        , 3           , 11          , 0.00675202627, 0.00675201463
-0.150740311, 0.09007484  , -9.791208   , 0.00114776369, 0.0005906347, -0.0008983007, -0.1799245  , -0.164419577, 0.450788736 , -0.009471691, -0.0120478682, 2.42750287  , 3.58        , 3           , 12          , 0.05762215  , 0
-0.143597737, 0.115721315 , -9.79421    , 2.81406683E-05, -0.001387959, -0.000341531, -0.1799245  , -0.164352164, 0.450923562 , -0.009471369, -0.0120617785, 2.42749953  , 3.59        , 3           , 50          , 0           , 0
-0.116780788, 0.09815732  , -9.763796   , 1.14298891E-05, 0.001673792 , -0.00174977013, -0.17985709 , -0.1645544  , 0.4510584   , -0.009472344, -0.0121299447, 2.427482    , 3.6         , 3           , 11          , 0.00666890666, 0.006668895
-0.116599612, 0.103660323 , -9.790439   , 0.000296318467, 0.00111257029, -0.0023143962, -0.1799245  , -0.164689228, 0.450856149 , -0.009469099, -0.01211904 , 2.427459    , 3.61        , 3           , 12          , 0.0586600676, 0
-0.115624271, 0.07208951  , -9.798245   , 0.000291231932, 0.00223883288, -0.001465048, -0.1799245  , -0.164689228, 0.450856149 , -0.009466006, -0.0120967915, 2.42744374  , 3.62        , 3           , 50          , 0           , 0
-0.128365636, 0.09978656  , -9.805008   , 0.00171173  , 0.0005589923, -0.001461067, -0.180059329, -0.164419577, 0.450923562 , -0.009448711, -0.01209134 , 2.42742944  , 3.63        , 3           , 11          , 0.00666890666, 0.006668895
-0.117039226, 0.106354423 , -9.78500652 , 0.000853623729, 0.00280578481, -0.0008964713, -0.180194154, -0.164149925, 0.450990975 , -0.0094400635, -0.0120633682, 2.42742     , 3.64        , 3           , 12          , 0.0586600676, 0
-0.122708015, 0.09060524  , -9.778337   , 0.00170582754, 0.001685251 , -0.00202440633, -0.180059329, -0.164486989, 0.450856149 , -0.00942275953, -0.0120467115, 2.42739987  , 3.65        , 3           , 50          , 0           , 0
-0.116386659, 0.0842676163, -9.794133   , 0.004236843 , 0.003954963 , -0.00144400727, -0.180059329, -0.164486989, 0.450856149 , -0.009380214, -0.0120072961, 2.42738461  , 3.66        , 3           , 11          , 0.00666890666, 0.006668895
-0.106444232, 0.07877919  , -9.806735   , -0.00167501892, 0.0002545123, 0.000217920577, -0.179789677, -0.164419577, 0.450721323 , -0.00939699 , -0.0120047312, 2.427387    , 3.67        , 3           , 12          , 0.0586600676, 0
-0.09517509 , 0.0759273   , -9.803045   , 0.00227124547, 0.00197064551, 0.00136911124, -0.179991916, -0.164284751, 0.4510584   , -0.00937444 , -0.0119848968, 2.42740083  , 3.68        , 3           , 50          , 0           , 0
-0.111867815, 0.08465351  , -9.790481   , 0.00340587576, 0.0008520219, 0.000242493232, -0.1799245  , -0.1645544  , 0.450923562 , -0.009340408, -0.0119763538, 2.42740273  , 3.69        , 3           , 11          , 0.00666890666, 0.006668895
-0.11551284 , 0.09181921  , -9.762004   , 0.00229346426, 0.0005738286, -4.576388E-05, -0.1799245  , -0.1645544  , 0.450923562 , -0.009277982, -0.0119435275, 2.42740226  , 3.7         , 3           , 12          , 0.0597049668, 0
-0.12081752 , 0.09198733  , -9.793231   , 0.0008869804, -0.000280409469, 0.00248918682, -0.1799245  , -0.164486989, 0.450923562 , -0.00926941 , -0.0119461  , 2.427427    , 3.71        , 3           , 50          , 0           , 0
-0.134698346, 0.09317082  , -9.828135   , 0.002582861 , -0.000832087, -4.66166239E-05, -0.180059329, -0.164352164, 0.450990975 , -0.009243576, -0.0119544249, 2.42742658  , 3.72        , 3           , 11          , 0.00658723  , 0.00658721849
-0.1267579  , 0.08174646  , -9.813206   , 0.00145224913, -0.000558159431, 0.000796162058, -0.180059329, -0.164149925, 0.450923562 , -0.00922915 , -0.0119599327, 2.42743516  , 3.73        , 3           , 12          , 0.0597049668, 0
-0.11496041 , 0.09546544  , -9.77464    , 0.000321562926, -0.000565803959, -0.0009043304, -0.180059329, -0.164149925, 0.450923562 , -0.009225828, -0.0119656743, 2.42742562  , 3.74        , 3           , 50          , 0           , 0
-0.121243954, 0.08978224  , -9.806803   , -0.00249852333, -0.00142959866, -0.000918801466, -0.17985709 , -0.164486989, 0.450721323 , -0.009250703, -0.0119800521, 2.427417    , 3.75        , 3           , 11          , 0.00658723  , 0.00658721849
-0.139676139, 0.09457066  , -9.824552   , 1.71583088E-05, 0.003937329 , -0.0003336294, -0.1799245  , -0.164352164, 0.4510584   , -0.009250487, -0.0119407112, 2.42741323  , 3.76        , 3           , 12          , 0.0597049668, 0
-0.116102368, 0.103244685 , -9.80264    , 0.00116301537, 0.000847756863, 0.00107955234, -0.1799245  , -0.164824054, 0.450856149 , -0.009238984, -0.0119321346, 2.42742372  , 3.77        , 3           , 50          , 0           , 0
-0.122794025, 0.07759139  , -9.799182   , -0.000526132644, -0.000289964024, 0.0007873773, -0.1799245  , -0.164824054, 0.450856149 , -0.00924434047, -0.01193496 , 2.42743182  , 3.78        , 3           , 11          , 0.00658723  , 0.00658721849
-0.147378072, 0.07107489  , -9.788549   , 0.001737627 , -0.00111937872, 0.00107914861, -0.17985709 , -0.164689228, 0.450788736 , -0.009227093, -0.0119460551, 2.42744279  , 3.79        , 3           , 12          , 0.0597049668, 0
-0.12053895 , 0.115869619 , -9.784543   , 0.00231102738, -0.000306150818, -0.000330112322, -0.180059329, -0.164419577, 0.450990975 , -0.009169663, -0.0120383287, 2.427439    , 3.8         , 3           , 50          , 0           , 0
-0.108186364, 0.121631868 , -9.796627   , 0.00258460036, 0.00138514722, -0.00117380428, -0.17985709 , -0.164419577, 0.450923562 , -0.009143675, -0.0120245889, 2.427427    , 3.81        , 3           , 11          , 0.00650833547, 0.00650832476
-0.114047475, 0.0927826762, -9.78504    , 0.00512209628, 0.00224703155, -0.00144318747, -0.1799245  , -0.164621815, 0.450856149 , -0.009092279, -0.0120022483, 2.42741227  , 3.82        , 3           , 12          , 0.06075624  , 0
-0.132680461, 0.083125174 , -9.800138   , -0.001361263, -4.941213E-05, 0.0007833512, -0.1799245  , -0.164621815, 0.450856149 , -0.009105984, -0.0120026721, 2.42742038  , 3.83        , 3           , 50          , 0           , 0
-0.111373991, 0.0846814662, -9.800421   , -0.000790180755, -0.00117184944, 0.00191439921, -0.179991916, -0.164284751, 0.450856149 , -0.009114118, -0.0120142139, 2.42743945  , 3.84        , 3           , 11          , 0.00650833547, 0.00650832476
-0.120231092, 0.09878554  , -9.804045   , 0.003157655 , -0.000300424057, -0.00145631144, -0.1799245  , -0.164891466, 0.451260626 , -0.009082366, -0.0120173534, 2.42742467  , 3.85        , 3           , 12          , 0.06075624  , 0
-0.1604741  , 0.102873906 , -9.806145   , 0.00118869054, -0.00144004216, 0.00277079619, -0.180126742, -0.1645544  , 0.450788736 , -0.009070814, -0.012031503, 2.4274528   , 3.86        , 3           , 50          , 0           , 0
-0.117149159, 0.09376754  , -9.798619   , 0.002874398 , 0.000260805537, 0.00193368888, -0.180126742, -0.1645544  , 0.450788736 , -0.009042303, -0.0120287184, 2.42747235  , 3.87        , 3           , 11          , 0.00650833547, 0.00650832476
-0.120821916, 0.09109107  , -9.795043   , 0.00202876353, -0.000308059971, -4.889199E-05, -0.179991916, -0.1645544  , 0.450990975 , -0.009022009, -0.012031802, 2.42747188  , 3.88        , 3           , 12          , 0.06075624  , 0
-0.143711165, 0.10089983  , -9.81416    , 0.00118812674, -0.00172161672, -0.0006200872, -0.17985709 , -0.164689228, 0.450990975 , -0.009010054, -0.0120490724, 2.42746568  , 3.89        , 3           , 50          , 0           , 0
-0.145541161, 0.0782161057, -9.771782   , -0.000544198439, 0.0007640231, 0.00107102888, -0.179991916, -0.164352164, 0.450923562 , -0.009083639, -0.0121374354, 2.42747712  , 3.9         , 3           , 11          , 0.00643107  , 0.00643105665
-0.125949755, 0.11371997  , -9.797248   , -0.0008189138, -0.000927280635, -6.30416E-05, -0.179991916, -0.164352164, 0.450923562 , -0.0090918215, -0.0121467132, 2.42747617  , 3.91        , 3           , 12          , 0.0618133359, 0
-0.111071259, 0.10590522  , -9.806207   , 0.00143771281, -0.000348870526, -5.1638257E-05, -0.1799245  , -0.164486989, 0.450923562 , -0.009077437, -0.0121502066, 2.42747569  , 3.92        , 3           , 50          , 0           , 0
-0.1182452  , 0.08067967  , -9.794162   , 0.0005861614, 0.0007716662, 0.0022064466, -0.180059329, -0.164149925, 0.4510584   , -0.009071842, -0.01214229 , 2.42749763  , 3.93        , 3           , 11          , 0.00643107  , 0.00643105665
-0.128747582, 0.07224971  , -9.800154   , -0.000260288827, 0.000202796684, -0.00118882174, -0.180194154, -0.1645544  , 0.450856149 , -0.009074301, -0.01214037 , 2.4274857   , 3.94        , 3           , 12          , 0.0618133359, 0
-0.126783788, 0.07949374  , -9.814119   , -0.00025659625, -0.000641901, -0.00203773612, -0.180194154, -0.1645544  , 0.450856149 , -0.00907662 , -0.0121469731, 2.42746568  , 3.95        , 3           , 50          , 0           , 0
-0.132954344, 0.0681736842, -9.781219   , -0.0013712215, -0.00346518587, -6.95808849E-05, -0.180126742, -0.1645544  , 0.450990975 , -0.009090327, -0.0121816294, 2.4274652   , 3.96        , 3           , 11          , 0.00643107  , 0.00643105665
-0.117210485, 0.09148609  , -9.790945   , -0.00166176038, -0.002059276, -0.00204649055, -0.180126742, -0.164486989, 0.450990975 , -0.009106699, -0.01220241 , 2.4274447   , 3.97        , 3           , 12          , 0.0618133359, 0
-0.09025204 , 0.108777933 , -9.793831   , 0.00226392038, 0.00388033479, -0.0003237157, -0.1799245  , -0.164419577, 0.4510584   , -0.009084016, -0.0121636353, 2.427441    , 3.98        , 3           , 50          , 0           , 0
-0.113305904, 0.07255338  , -9.809978   , -0.0027957384, -0.000940649537, 0.000210277343, -0.1799245  , -0.164419577, 0.4510584   , -0.009111999, -0.012173024, 2.42744374  , 3.99        , 3           , 11          , 0.00643107  , 0.00643105665
-0.123265676, 0.07981316  , -9.787425   , -0.000264309434, 0.00245636841, 0.000227331009, -0.180059329, -0.1645544  , 0.450923562 , -0.009097826, -0.012145645, 2.42744565  , 4           , 3           , 12          , 0.06287572  , 0
-0.124713831, 0.09932161  , -9.81357    , 0.0025672554, 0.00106764433, 0.0008034056, -0.17985709 , -0.164486989, 0.4510584   , -0.00907225 , -0.0121348947, 2.42745328  , 4.01        , 3           , 50          , 0           , 0
-0.116271868, 0.0856996849, -9.817629   , 0.00455490546, -0.0011715088, -3.84597224E-05, -0.1799245  , -0.164486989, 0.450788736 , -0.009026697, -0.0121466136, 2.42745328  , 4.02        , 3           , 11          , 0.00635589333, 0.00635587657
-0.107788004, 0.07836062  , -9.81172    , 0.002297953 , -0.00174992043, -0.0006149378, -0.1799245  , -0.164486989, 0.450788736 , -0.009003643, -0.0121641662, 2.42744756  , 4.03        , 3           , 12          , 0.06287572  , 0
-0.106777884, 0.08870076  , -9.803985   , 0.00341462437, 0.000791802944, -0.00145337707, -0.179789677, -0.164352164, 0.450856149 , -0.00896932 , -0.0121563794, 2.4274323   , 4.04        , 3           , 50          , 0           , 0
-0.1281457  , 0.08486302  , -9.796028   , 0.00117758813, -0.00344694569, 0.00107241562, -0.180059329, -0.164486989, 0.4510584   , -0.00895768 , -0.0121907508, 2.42744374  , 4.05        , 3           , 11          , 0.00635589333, 0.00635587657
-0.123857655, 0.10061     , -9.797286   , 0.002005768 , 0.000219125242, -0.000613217242, -0.179991916, -0.164486989, 0.4511258   , -0.008937545, -0.0121886153, 2.42743754  , 4.06        , 3           , 12          , 0.06287572  , 0
-0.129343659, 0.100184865 , -9.786031   , 0.00059674785, -0.000353553158, -5.55950064E-05, -0.179991916, -0.164486989, 0.4511258   , -0.008931573, -0.0121921562, 2.427437    , 4.07        , 3           , 50          , 0           , 0
-0.129002765, 0.0849129558, -9.807787   , -0.00066638703, -0.00176996947, 0.00134899665, -0.17985709 , -0.164756641, 0.450856149 , -0.008938402, -0.0122097358, 2.42745042  , 4.08        , 3           , 11          , 0.00635589333, 0.00635587657
-0.1077946  , 0.0770162344, -9.814437   , 0.00117069983, -0.00203911983, 0.001215854 , -0.180126742, -0.164486989, 0.450990975 , -0.008926845, -0.0122300154, 2.42746282  , 4.09        , 3           , 12          , 0.06287572  , 0
-0.109242722, 0.07919118  , -9.785513   , 0.00102602248, -0.00161703455, -0.000338045647, -0.180126742, -0.164486989, 0.4510584   , -0.008917851, -0.0122443056, 2.42746     , 4.1         , 3           , 50          , 0           , 0
-0.1293274  , 0.101983413 , -9.784215   , -0.000672186841, -0.0009245824, -0.0006273998, -0.1799245  , -0.164419577, 0.450923562 , -0.008924498, -0.0122536095, 2.42745423  , 4.11        , 3           , 11          , 0.00628296332, 0.00628294749
-0.107992142, 0.0746244043, -9.773769   , 0.0005886052, 0.00119575229, -5.314425E-05, -0.1799245  , -0.164419577, 0.450923562 , -0.008918605, -0.012241655, 2.42745328  , 4.12        , 3           , 12          , 0.06394292  , 0
-0.114153296, 0.108245067 , -9.82023048 , 0.000165209625, 0.00119288859, 0.0003686865, -0.179722264, -0.164621815, 0.450923562 , -0.00891699549, -0.0122296931, 2.427457    , 4.13        , 3           , 50          , 0           , 0
-0.115281418, 0.102272809 , -9.78501    , -0.0008181161, 5.99412742E-05, -0.000344002125, -0.180059329, -0.164486989, 0.4510584   , -0.008925136, -0.012229125, 2.42745328  , 4.14        , 3           , 11          , 0.00628296332, 0.00628294749
-0.119605236, 0.0860504657, -9.776523   , 0.000169762352, 0.000207409088, -0.000197907211, -0.1799245  , -0.164486989, 0.450788736 , -0.008923413, -0.0122270677, 2.42745137  , 4.15        , 3           , 12          , 0.06394292  , 0
-0.116679996, 0.09065104  , -9.81264    , -0.00124917878, 0.00160568533, 8.021537E-05, -0.1799245  , -0.164486989, 0.450788736 , -0.008935913, -0.0122110052, 2.42745233  , 4.16        , 3           , 50          , 0           , 0
-0.139419988, 0.08324725  , -9.812845   , -0.00238162954, 0.00202039024, -0.00105455134, -0.180059329, -0.164689228, 0.450923562 , -0.008959599, -0.012190897, 2.42744184  , 4.17        , 3           , 11          , 0.00628296332, 0.00628294749
-0.134150222, 0.0812654644, -9.7789135  , -0.000822498347, 0.0007638496, -0.00189687347, -0.180126742, -0.164352164, 0.450990975 , -0.00896759052, -0.01218343 , 2.42742276  , 4.18        , 3           , 12          , 0.06394292  , 0
-0.117397331, 0.07571243  , -9.795984   , 0.000869764 , 0.001338442 , -0.00104049162, -0.180126742, -0.164621815, 0.450923562 , -0.008958765, -0.0121701388, 2.42741179  , 4.19        , 3           , 50          , 0           , 0
-0.127594769, 0.08136642  , -9.831293   , 0.00158423977, 0.0006300297, -0.0003320277, -0.180126742, -0.164621815, 0.450923562 , -0.008930193, -0.0121899042, 2.42740846  , 4.2         , 3           , 11          , 0.006211971 , 0.00621195044
-0.106718443, 0.09856865  , -9.786768   , 0.00159104681, -0.000777796435, -0.000616734731, -0.180126742, -0.164419577, 0.450990975 , -0.008914209, -0.0121977376, 2.42740273  , 4.21        , 3           , 12          , 0.0650144443, 0
-0.102293819, 0.089951165 , -9.78903    , -0.000810077763, -0.0005124618, 0.000926461362, -0.179991916, -0.164217338, 0.4511258   , -0.008922424, -0.0122027779, 2.42741227  , 4.22        , 3           , 50          , 0           , 0
-0.1504057  , 0.08149311  , -9.78988552 , -0.000534865656, 0.0008972723, 0.000506141747, -0.179991916, -0.164621815, 0.4511258   , -0.008927833, -0.01219376 , 2.427417    , 4.23        , 3           , 11          , 0.006211971 , 0.00621195044
-0.127121285, 0.0943220258, -9.794625   , -0.000121428639, 0.002730305 , -0.00146682467, -0.179991916, -0.164621815, 0.4511258   , -0.008928867, -0.0121665895, 2.42740178  , 4.24        , 3           , 12          , 0.0650144443, 0
-0.103935011, 0.1030543   , -9.788536   , -0.00153044856, 0.00215762644, -0.0009092024, -0.179991916, -0.164621815, 0.450856149 , -0.008944059, -0.0121450974, 2.42739272  , 4.25        , 3           , 50          , 0           , 0
-0.11889708 , 0.09607177  , -9.806759   , -0.0008175374, 0.000895361241, 8.101838E-05, -0.180126742, -0.164486989, 0.4511258   , -0.008952242, -0.0121361362, 2.4273932   , 4.26        , 3           , 11          , 0.006211971 , 0.00621195044
-0.134893447, 0.08140762  , -9.818241   , -0.0009555921, 0.000190492065, -0.00048579977, -0.179991916, -0.164486989, 0.450856149 , -0.008961739, -0.0121342782, 2.42738843  , 4.27        , 3           , 12          , 0.0650144443, 0
-0.123121917, 0.0826077461, -9.813626   , -0.001236662, -0.000233769024, -0.00175918615, -0.179991916, -0.164486989, 0.450856149 , -0.008973894, -0.01213677 , 2.42737126  , 4.28        , 3           , 50          , 0           , 0
-0.1118256  , 0.09138299  , -9.779155   , -0.000251734775, 0.000476828078, -0.00189476076, -0.179991916, -0.1645544  , 0.450856149 , -0.008976179, -0.0121321734, 2.42735219  , 4.29        , 3           , 11          , 0.006211971 , 0.00621195044
-0.118804932, 0.1073052   , -9.793153   , 0.00129233766, 0.00174821762, -0.00089666585, -0.180059329, -0.1645544  , 0.4511932   , -0.008973422, -0.0121325031, 2.42734313  , 4.3         , 3           , 12          , 0.06608987  , 0
-0.121687867, 0.09425824  , -9.794584   , 0.00242401  , 0.00147429528, 9.704901E-05, -0.18032898 , -0.164284751, 0.450990975 , -0.008949192, -0.01211775 , 2.427344    , 4.31        , 3           , 50          , 0           , 0
-0.117508963, 0.07606833  , -9.767508   , 0.00425957656, 0.00162749493, 0.0009534385, -0.18032898 , -0.164284751, 0.450990975 , -0.008906712, -0.01210139 , 2.42735314  , 4.32        , 3           , 11          , 0.006142729 , 0.006142712
-0.126444831, 0.07939619  , -9.786547   , 0.00482504535, 0.001490532 , 0.0008145866, -0.180126742, -0.164419577, 0.450856149 , -0.008858558, -0.0120864138, 2.42736173  , 4.33        , 3           , 12          , 0.06608987  , 0
-0.129515022, 0.08263833  , -9.800568   , 0.003135571 , 0.0003528094, -4.266316E-05, -0.179991916, -0.164419577, 0.4511258   , -0.008827196, -0.0120828878, 2.42736077  , 4.34        , 3           , 50          , 0           , 0
-0.0902528539, 0.07760691  , -9.78311348 , 0.000457603164, -0.000791598, -0.0009045221, -0.179722264, -0.164621815, 0.4511932   , -0.008822512, -0.012090886, 2.42735219  , 4.35        , 3           , 11          , 0.006142729 , 0.006142712
-0.115193069, 0.103237085 , -9.803536   , 0.0006007002, -0.00107220584, -5.6685145E-05, -0.17985709 , -0.164621815, 0.450923562 , -0.008816499, -0.0121016121, 2.42735124  , 4.36        , 3           , 12          , 0.06608987  , 0
-0.116533779, 0.109516241 , -9.787703   , 0.000456654379, -0.000369244837, 0.00107389106, -0.17985709 , -0.164621815, 0.450923562 , -0.008812062, -0.0121052088, 2.4273622   , 4.37        , 3           , 50          , 0           , 0
-0.113996029, 0.0968415141, -9.784572   , 0.000162630386, 0.00174057775, -0.0009019337, -0.180059329, -0.164419577, 0.450990975 , -0.008810325, -0.0120878834, 2.42735314  , 4.38        , 3           , 11          , 0.006142729 , 0.006142712
-0.106937759, 0.07919786  , -9.795438   , 0.00185206777, 0.00273751421, -0.00131631957, -0.1799245  , -0.164284751, 0.4511932   , -0.008791642, -0.0120606255, 2.42733979  , 4.39        , 3           , 12          , 0.06608987  , 0
-0.109668285, 0.07564776  , -9.803609   , 0.000865358859, -0.0002162824, -0.0007601673, -0.179991916, -0.164621815, 0.450923562 , -0.008821767, -0.0120353876, 2.42733264  , 4.4         , 3           , 50          , 0           , 0
-0.109418564, 0.100845709 , -9.783615   , 0.000164415411, -0.001206534, -0.000341172185, -0.179991916, -0.164621815, 0.450923562 , -0.008820083, -0.0120474827, 2.4273293   , 4.41        , 3           , 11          , 0.0060754125, 0.006075399
-0.11295969 , 0.109881029 , -9.774566   , -0.000403226179, -0.000647223846, -0.0003429382, -0.1799245  , -0.164352164, 0.4511258   , -0.008824074, -0.0120539842, 2.427326    , 4.42        , 3           , 12          , 0.0671688   , 0
-0.131087527, 0.102938712 , -9.793716   , 0.0008674498, -0.000638630067, -0.00076081825, -0.1799245  , -0.164621815, 0.450990975 , -0.008815309, -0.0120604374, 2.42731833  , 4.43        , 3           , 50          , 0           , 0
-0.128211424, 0.0816853046, -9.790167   , 0.002695965 , 0.0009223946, -4.35279362E-05, -0.180194154, -0.164621815, 0.450990975 , -0.008788344, -0.0120512163, 2.42731786  , 4.44        , 3           , 11          , 0.0060754125, 0.006075399
-0.13213113 , 0.09524954  , -9.784716   , 0.00127677945, 0.00232066982, -0.000189211554, -0.180194154, -0.164621815, 0.450990975 , -0.008775551, -0.0120280283, 2.427316    , 4.45        , 3           , 12          , 0.0671688   , 0
-0.14027983 , 0.09222194  , -9.795187   , 0.0007226253, 0.000205112883, 0.000228706311, -0.179991916, -0.164486989, 0.450990975 , -0.008768352, -0.012025957, 2.42731786  , 4.46        , 3           , 50          , 0           , 0
-0.129624829, 0.07272963  , -9.805581   , -0.0008190363, -0.002198696, -6.476275E-05, -0.179991916, -0.164486989, 0.4511258   , -0.008776535, -0.0120479492, 2.42731786  , 4.47        , 3           , 11          , 0.0060754125, 0.006075399
-0.112211622, 0.08831794  , -9.805385   , 2.79181222E-05, -0.00219296757, -0.000625886838, -0.179722264, -0.1645544  , 0.4510584   , -0.008776184, -0.012069934, 2.42731166  , 4.48        , 3           , 12          , 0.0671688   , 0
-0.105684638, 0.0755258352, -9.781432   , 0.00241895136, -0.000205776276, -0.000329117844, -0.179722264, -0.1645544  , 0.4510584   , -0.008751955, -0.0120720193, 2.42730832  , 4.49        , 3           , 50          , 0           , 0
-0.135525316, 0.07367988  , -9.799295   , 0.0001539629, 5.59188265E-05, 0.0005083982, -0.180126742, -0.164756641, 0.450856149 , -0.008764569, -0.012085285, 2.42731357  , 4.5         , 3           , 11          , 0.006010424 , 0.00601040851
-0.146421567, 0.06932013  , -9.806628   , -0.000543658738, -0.00163824612, 0.0006437709, -0.1799245  , -0.164419577, 0.450990975 , -0.008770086, -0.01210161 , 2.42731977  , 4.51        , 3           , 12          , 0.06825088  , 0
-0.123875625, 0.0939001963, -9.814488   , -0.0004030979, -0.00163729419, -0.000485720462, -0.1799245  , -0.1645544  , 0.450990975 , -0.00877406 , -0.0121180248, 2.42731547  , 4.52        , 3           , 50          , 0           , 0
-0.09757399 , 0.11013934  , -9.770831   , 0.0007250524, -0.00134809024, -0.0007625562, -0.1799245  , -0.1645544  , 0.450990975 , -0.008766718, -0.0121315718, 2.42730784  , 4.53        , 3           , 11          , 0.006010424 , 0.00601040851
-0.10420765 , 0.122398645 , -9.770379   , 0.00214239187, -0.00232401653, -0.000192415435, -0.179722264, -0.164419577, 0.450923562 , -0.00874527451, -0.0121548278, 2.42730641  , 4.54        , 3           , 12          , 0.06825088  , 0
-0.115469009, 0.08292772  , -9.801363   , 0.00142993277, -0.001202535, -0.0016066595, -0.17985709 , -0.164419577, 0.450990975 , -0.008730779, -0.0121669937, 2.4272902   , 4.55        , 3           , 50          , 0           , 0
-0.134180918, 0.07499167  , -9.791596   , 0.0008606525, -0.000361661, -0.00203179754, -0.1799245  , -0.164891466, 0.4511932   , -0.008721926, -0.012170787, 2.42727017  , 4.56        , 3           , 11          , 0.006010424 , 0.00601040851
-0.118321314, 0.108663917 , -9.796306   , -0.0006909377, -0.0005129433, -0.000202764189, -0.1799245  , -0.164891466, 0.4511932   , -0.008728812, -0.0121759316, 2.42726827  , 4.57        , 3           , 12          , 0.06825088  , 0
-0.102260143, 0.09265657  , -9.788567   , -0.000413308269, 0.000474444823, -5.865976E-05, -0.180059329, -0.164352164, 0.450856149 , -0.008732938, -0.0121711921, 2.42726731  , 4.58        , 3           , 50          , 0           , 0
-0.130356073, 0.0867183954, -9.803269   , 0.00100038294, 0.000202430427, 0.000230028469, -0.17985709 , -0.164352164, 0.4510584   , -0.008722961, -0.0121691478, 2.42727017  , 4.59        , 3           , 11          , 0.006010424 , 0.00601040851
-0.1118353  , 0.0806627   , -9.811289   , 0.00211822637, -0.000916962745, -0.00075513206, -0.180059329, -0.164486989, 0.4510584   , -0.008753818, -0.0121807838, 2.42726254  , 4.6         , 3           , 12          , 0.06933574  , 0
-0.101593077, 0.06745705  , -9.811265   , 0.00267947628, -0.0003500167, -0.00216431776, -0.180059329, -0.164486989, 0.4510584   , -0.008726761, -0.0121844709, 2.42724156  , 4.61        , 3           , 50          , 0           , 0
-0.119659759, 0.08288183  , -9.773372   , 0.0009792132, 0.000905569061, -0.00118138548, -0.179722264, -0.164419577, 0.450856149 , -0.00871682353, -0.0121755181, 2.42722917  , 4.62        , 3           , 11          , 0.00594683643, 0.00594681827
-0.11377199 , 0.07477969  , -9.799577   , -0.000858615036, 0.001456288 , 8.23410446E-05, -0.180059329, -0.164217338, 0.4511258   , -0.008725418, -0.0121609522, 2.42723012  , 4.63        , 3           , 12          , 0.06933574  , 0
-0.1262855  , 0.08309611  , -9.813648   , 0.0006866578, 0.00301539875, -0.000614372955, -0.179991916, -0.164486989, 0.4511258   , -0.008718474, -0.0121308509, 2.42722344  , 4.64        , 3           , 50          , 0           , 0
-0.108444713, 0.0973195955, -9.81164551 , 0.00195725239, 0.00302399229, -0.00117352162, -0.17985709 , -0.164352164, 0.450788736 , -0.008698757, -0.0121007143, 2.42721152  , 4.65        , 3           , 11          , 0.00594683643, 0.00594681827
-0.114982121, 0.0887526   , -9.790939   , 0.00112263625, 0.0006249629, 0.000231526457, -0.17985709 , -0.164352164, 0.450788736 , -0.008687557, -0.0120944465, 2.427214    , 4.66        , 3           , 12          , 0.06933574  , 0
-0.13013573 , 0.09984107  , -9.814965   , 0.00141584466, -0.00148486369, 0.000794663734, -0.17985709 , -0.164486989, 0.450788736 , -0.008673497, -0.0121092238, 2.427222    , 4.67        , 3           , 50          , 0           , 0
-0.10185691 , 0.0810059756, -9.813923   , 0.00184100482, -0.001904349, -0.000192892781, -0.179991916, -0.164419577, 0.451260626 , -0.008655066, -0.0121282833, 2.42722058  , 4.68        , 3           , 11          , 0.00594683643, 0.00594681827
-0.131888434, 0.0732028261, -9.804241   , 0.000432926579, -0.00261780876, 0.0007883188, -0.180059329, -0.164486989, 0.450856149 , -0.008650835, -0.01215439 , 2.42722821  , 4.69        , 3           , 12          , 0.06933574  , 0
-0.104381971, 0.100832589 , -9.797136   , 0.00141386339, -0.00120065326, 0.00121896551, -0.180059329, -0.164486989, 0.450856149 , -0.008639477, -0.0121579356, 2.42724061  , 4.7         , 3           , 50          , 0           , 0
-0.10059116 , 0.116995223 , -9.786193   , 0.0008451611, -0.0006413481, -0.0006192939, -0.17985709 , -0.164891466, 0.450923562 , -0.008630953, -0.0121644009, 2.427235    , 4.71        , 3           , 11          , 0.005884738 , 0.00588471862
-0.110290669, 0.09820537  , -9.800357   , -0.00183477916, -0.00122262142, -6.75976044E-05, -0.1799245  , -0.164352164, 0.450990975 , -0.008649292, -0.0121766329, 2.427234    , 4.72        , 3           , 12          , 0.0704230145, 0
-0.122011848, 0.104633987 , -9.792735   , -0.0019743538, -0.00150514045, 0.000355116237, -0.1799245  , -0.1645544  , 0.4510584   , -0.008669082, -0.0121916533, 2.42723775  , 4.73        , 3           , 50          , 0           , 0
-0.12034446 , 0.0942302048, -9.790958   , -0.00113158172, -0.0006547168, -0.000204706186, -0.1799245  , -0.1645544  , 0.4510584   , -0.008680374, -0.0121982181, 2.42723584  , 4.74        , 3           , 11          , 0.005884738 , 0.00588471862
-0.124562487, 0.08746693  , -9.777911   , -0.00142007391, 0.000469631137, -0.0010519  , -0.179789677, -0.164352164, 0.450990975 , -0.008694446, -0.0121936137, 2.42722535  , 4.75        , 3           , 12          , 0.0704230145, 0
-0.1316769  , 0.0921209455, -9.795121   , -0.00183899829, -0.000518712332, -0.00133793138, -0.179991916, -0.164149925, 0.4511258   , -0.008712673, -0.0121989166, 2.427212    , 4.76        , 3           , 50          , 0           , 0
-0.116267405, 0.09686205  , -9.78278    , 0.000284363749, -0.00134907791, 0.0003658687, -0.180126742, -0.164486989, 0.450788736 , -0.008709874, -0.012212377, 2.42721581  , 4.77        , 3           , 11          , 0.005884738 , 0.00588471862
-0.12640056 , 0.108817048 , -9.813543   , -0.000420680066, -0.00149463385, 0.000927434245, -0.180126742, -0.164486989, 0.450788736 , -0.008714198, -0.0122272437, 2.42722535  , 4.78        , 3           , 12          , 0.0704230145, 0
-0.143130943, 0.08187887  , -9.795704   , -0.0009954105, 0.000331715157, -0.000485066354, -0.1799245  , -0.164689228, 0.450856149 , -0.00872409251, -0.0122239664, 2.42722058  , 4.79        , 3           , 50          , 0           , 0
-0.111434355, 0.08373985  , -9.788673   , -0.000451491767, 0.000185088356, -0.000482487667, -0.179991916, -0.164486989, 0.450856149 , -0.00879846 , -0.0122534158, 2.42721677  , 4.8         , 3           , 11          , 0.005824645 , 0.005824623
-0.113555163, 0.08566779  , -9.817609   , -0.0004498975, 4.43100835E-05, 0.00107125146, -0.17985709 , -0.164352164, 0.450856149 , -0.008803091, -0.0122528793, 2.42722726  , 4.81        , 3           , 12          , 0.0715124   , 0
-0.117519639, 0.09919574  , -9.801311   , -0.000310241157, 0.000326829322, 0.0007898063, -0.17985709 , -0.164352164, 0.450856149 , -0.008806291, -0.0122495415, 2.427235    , 4.82        , 3           , 50          , 0           , 0
-0.105345055, 0.101242959 , -9.781775   , -0.00186051149, -0.000387590146, 7.513455E-05, -0.179991916, -0.164419577, 0.450856149 , -0.008824906, -0.01225341 , 2.42723584  , 4.83        , 3           , 11          , 0.005824645 , 0.005824623
-0.09601824 , 0.08223741  , -9.798054   , -0.000308884366, -9.552172E-05, -0.000482263247, -0.1799245  , -0.164419577, 0.450990975 , -0.008827936, -0.0122544076, 2.427231    , 4.84        , 3           , 12          , 0.0715124   , 0
-0.09427235 , 0.109762855 , -9.804254   , 0.00166871888, -0.000222934876, -0.0006145304, -0.179991916, -0.164352164, 0.450923562 , -0.008811173, -0.0122566931, 2.42722535  , 4.85        , 3           , 50          , 0           , 0
-0.123695917, 0.110114425 , -9.806286   , -0.000589138537, -0.000519779, -0.000342962332, -0.179991916, -0.164352164, 0.450923562 , -0.008817024, -0.01226192 , 2.42722154  , 4.86        , 3           , 11          , 0.005824645 , 0.005824623
-0.114512749, 0.08340452  , -9.8122015  , -3.00239662E-05, 0.0006103005, -0.00062113005, -0.180126742, -0.1645544  , 0.4506539   , -0.008817246, -0.0122558707, 2.42721534  , 4.87        , 3           , 12          , 0.0715124   , 0
-0.10149622 , 0.0800333545, -9.794488   , 0.002081289 , 0.00203245087, -0.000467814622, -0.1799245  , -0.164419577, 0.450788736 , -0.008796374, -0.0122355893, 2.42721     , 4.88        , 3           , 50          , 0           , 0
-0.13275224 , 0.08440606  , -9.778439   , 0.0010982079, 0.0008995049, -0.0007566972, -0.17985709 , -0.164352164, 0.450923562 , -0.008785298, -0.0122266626, 2.42720246  , 4.89        , 3           , 11          , 0.005824645 , 0.005824623
-0.144264042, 0.101716734 , -9.787044   , 0.000668029767, -0.000358337973, -0.0006191474, -0.179587439, -0.164486989, 0.450721323 , -0.008821152, -0.012190464, 2.42719674  , 4.9         , 3           , 12          , 0.07260361  , 0
-0.134171665, 0.1075086   , -9.800048   , -0.000320182153, -0.0002242356, 0.00107168523, -0.179587439, -0.164486989, 0.450721323 , -0.008824485, -0.0121926125, 2.42720771  , 4.91        , 3           , 50          , 0           , 0
-0.125597358, 0.106491707 , -9.795919   , -0.00343368412, 0.00116258091, 0.00134190626, -0.179789677, -0.164486989, 0.4510584   , -0.008858985, -0.0121808676, 2.427221    , 4.92        , 3           , 11          , 0.00576583529, 0.00576581573
-0.127806991, 0.111918494 , -9.791845   , -0.00286903069, 0.00102561386, -0.0002096331, -0.179991916, -0.164352164, 0.450923562 , -0.00888764951, -0.0121706324, 2.42721868  , 4.93        , 3           , 12          , 0.07260361  , 0
-0.130900875, 0.113356024 , -9.805875   , -0.000325424771, 0.0006204544, -0.000763506454, -0.1799245  , -0.164756641, 0.450721323 , -0.00889081 , -0.0121644959, 2.427211    , 4.94        , 3           , 50          , 0           , 0
-0.12783736 , 0.106091321 , -9.803169   , -0.000181920084, 0.0003398486, 0.0007906741, -0.1799245  , -0.164756641, 0.450721323 , -0.008892725, -0.0121610276, 2.42721868  , 4.95        , 3           , 11          , 0.00576583529, 0.00576581573
-0.115117967, 0.08150092  , -9.781027   , -0.000168387924, -0.002475804, 7.999106E-05, -0.179722264, -0.1645544  , 0.450788736 , -0.008894422, -0.0121857785, 2.42722     , 4.96        , 3           , 12          , 0.07260361  , 0
-0.115193918, 0.0969874859, -9.82345    , -2.70485179E-05, -0.00261563435, -0.0009084486, -0.180126742, -0.164352164, 0.450990975 , -0.008894585, -0.0122120138, 2.427211    , 4.97        , 3           , 50          , 0           , 0
-0.102418281, 0.105398431 , -9.819702   , 9.960945E-05, 0.0003417543, -0.000761965232, -0.179991916, -0.164419577, 0.4506539   , -0.008893495, -0.0122086648, 2.42720342  , 4.98        , 3           , 11          , 0.00576583529, 0.00576581573
-0.121069752, 0.108670123 , -9.788645   , -0.000327063462, 0.0009020184, -0.00118687889, -0.179991916, -0.164419577, 0.4506539   , -0.00889662 , -0.0121997492, 2.4271915   , 4.99        , 3           , 12          , 0.07260361  , 0
-0.140798017, 0.08949616  , -9.787971   , 0.000357617449, -0.001204373, -0.0001976043, -0.17985709 , -0.164284751, 0.450923562 , -0.009002415, -0.0122099295, 2.427191    , 5           , 3           , 50          , 0           , 0
-0.115817919, 0.09239058  , -9.796354   , 0.00134967791, -0.00190160028, -5.281112E-05, -0.179991916, -0.164284751, 0.450990975 , -0.008988913, -0.0122289481, 2.42719054  , 5.01        , 3           , 11          , 0.00570867071, 0.00570865255
-0.116252258, 0.09464258  , -9.793637   , 0.00105761911, -7.334011E-05, -0.0010401886, -0.179789677, -0.1645544  , 0.450923562 , -0.008978211, -0.0122297751, 2.42718     , 5.02        , 3           , 12          , 0.0736963749, 0
-0.1271134  , 0.09745288  , -9.786476   , 0.00190559682, -0.00020839271, -0.00103645481, -0.179789677, -0.1645544  , 0.450923562 , -0.008959028, -0.0122319534, 2.42717     , 5.03        , 3           , 50          , 0           , 0
-0.112665869, 0.09144654  , -9.794979   , 0.000501989853, -0.001907332, -0.0007631055, -0.180126742, -0.164621815, 0.450923562 , -0.008953916, -0.0122510931, 2.42716241  , 5.04        , 3           , 11          , 0.00570867071, 0.00570865255
-0.120703   , 0.103238881 , -9.785048   , -0.0020439967, -0.000939040561, 0.000497979461, -0.1799245  , -0.164352164, 0.450856149 , -0.008974417, -0.0122604389, 2.42716718  , 5.05        , 3           , 12          , 0.0736963749, 0
-0.130099356, 0.11638552  , -9.770601   , -0.0012046725, 0.000756081543, 0.00121087756, -0.179991916, -0.1645544  , 0.4510584   , -0.008986611, -0.0122527685, 2.42717957  , 5.06        , 3           , 50          , 0           , 0
-0.117742449, 0.112777919 , -9.813913   , 0.000351099618, 6.26685942E-05, -0.00061945786, -0.179991916, -0.1645544  , 0.4510584   , -0.008983024, -0.0122521976, 2.427173    , 5.07        , 3           , 11          , 0.00570867071, 0.00570865255
-0.124635749, 0.0740170553, -9.803278   , 0.00147941313, 0.000351873634, -0.0006137562, -0.180059329, -0.164486989, 0.450721323 , -0.008968155, -0.012248734, 2.42716718  , 5.08        , 3           , 12          , 0.0736963749, 0
-0.09241331 , 0.08396624  , -9.788075   , -0.0006355922, -0.000225579337, 8.184256E-05, -0.1799245  , -0.164621815, 0.4511258   , -0.008974522, -0.0122509822, 2.42716813  , 5.09        , 3           , 50          , 0           , 0
