Acc X       , Acc Y       , Acc Z       , Gyro X      , Gyro Y      , Gyro Z      , Magn X      , Magn Y      , Magn Z      , Euler X     , Euler Y     , Euler Z     , Time        , Status      , LowRate X   , LowRate Y   , LowRate Z    
-0.007172129, 0.0229531527, -9.787677   , -0.000231689119, -0.0007695623, 0.000578331237, 0.395105839 , 0.163678035 , 0.339288116 , -0.003780438, -0.000782108167, -0.395735741, 0           , 3           , 11          , 0.0346410163, 0.0346410163
0.0009796387, 0.02509055  , -9.780826   , 0.00074647594, 0.00120807544, -0.000402903, 0.394701362 , 0.163678035 , 0.339557767 , -0.00377297029, -0.000770042767, -0.3957398  , 0.01        , 3           , 12          , 0.0346410163, 0
-0.004783882, 0.0297225639, -9.796218   , 0.00060214824, 0.0017702491, -0.0009677686, 0.394162059 , 0.164082512 , 0.339085877 , -0.00376694137, -0.000752376858, -0.395749569, 0.02        , 3           , 50          , 0           , 0
0.00649804063, 0.06162218  , -9.794642   , -0.000517882756, -0.000208346828, -0.00111734262, 0.3949036   , 0.164149925 , 0.339085877 , -0.00377211184, -0.0007545024, -0.395760775, 0.03        , 3           , 11          , 0.0346410163, 0.0346410163
0.00290849153, 0.0381088145, -9.767649   , -9.522872E-05, 7.608515E-05, -0.0004085897, 0.3949036   , 0.164149925 , 0.339085877 , -0.00377306086, -0.000753757, -0.395764828, 0.04        , 3           , 12          , 0.0346410163, 0
-0.00397795346, 0.0260603912, -9.783571   , -0.00122641516, 0.0004907958, 0.000646308938, 0.395173252 , 0.163947687 , 0.339490354 , -0.00378532987, -0.0007488247, -0.3957584  , 0.05        , 3           , 50          , 0           , 0
-0.000264279544, 0.03367987  , -9.781251   , -0.001508286, 0.000277709623, -0.0002029457, 0.394296885 , 0.164352164 , 0.3391533   , -0.00380041124, -0.0007460552, -0.3957603  , 0.06        , 3           , 11          , 0.0346410163, 0.0346410163
-0.0132577624, 0.03796242  , -9.801672   , -0.00108728919, 0.000773312466, -0.000553382735, 0.3949036   , 0.164217338 , 0.3392207   , -0.00381127978, -0.0007383432, -0.39576602 , 0.07        , 3           , 12          , 0.0346410163, 0
-0.0332683362, 0.0376786441, -9.781939   , 0.00116595626, 0.00198524282, -0.000964809267, 0.3949036   , 0.164217338 , 0.3392207   , -0.00379961357, -0.0007185277, -0.395775557, 0.08        , 3           , 50          , 0           , 0
-0.0186764821, 0.02293636  , -9.743018   , 0.0003940985, 0.00106490531, -0.000475400535, 0.395038426 , 0.163678035 , 0.33962518  , -0.00379566872, -0.0007078967, -0.395780325, 0.09        , 3           , 11          , 0.0346410163, 0.0346410163
0.007894631 , 0.0353767052, -9.777567   , -0.000733829162, 0.0008460949, 0.0007904249, 0.3943643   , 0.164284751 , 0.339085877 , -0.00380301266, -0.0006994062, -0.3957727  , 0.1         , 3           , 12          , 0.0346410163, 0
-0.00079572387, 0.02558715  , -9.788069   , 0.0005462342, -0.000975482864, 0.000934799144, 0.394768775 , 0.1640151   , 0.338951051 , -0.0037975572, -0.0007091254, -0.395763159, 0.11        , 3           , 50          , 0           , 0
-0.0130201755, 0.0293020811, -9.776847   , 0.0018820042, 8.945613E-05, 2.44351559E-05, 0.394768775 , 0.1640151   , 0.338951051 , -0.0037787375, -0.000708230131, -0.39576292 , 0.12        , 3           , 11          , 0.0346410163, 0.0346410163
-0.00493040029, 0.02826479  , -9.765038   , 4.17434421E-05, 0.000851342164, -0.00111308147, 0.395240664 , 0.163880274 , 0.339557767 , -0.00377831212, -0.0006997587, -0.395774126, 0.13        , 3           , 12          , 0.0346410163, 0
-0.0112144994, 0.0243665315, -9.791317   , -3.54590957E-05, 0.00197712029, -0.00287753437, 0.394296885 , 0.164352164 , 0.338951051 , -0.0037786467, -0.000680096447, -0.395802975, 0.14        , 3           , 50          , 0           , 0
0.00107948016, 0.0340984464, -9.776267   , -0.00131019833, 0.00295400829, -0.00104544812, 0.3948362   , 0.164352164 , 0.339018464 , -0.00379174156, -0.000650596048, -0.395813465, 0.15        , 3           , 11          , 0.0346410163, 0.0346410163
0.0132701118, 0.0325878672, -9.772112   , -0.0037004787, 0.0010372136, 0.0005650193, 0.3948362   , 0.164352164 , 0.339018464 , -0.00382875046, -0.000640202663, -0.395807981, 0.16        , 3           , 12          , 0.0346410163, 0
-0.00145431142, 0.04454462  , -9.787543   , 0.000120981036, -0.0009079625, -0.0012567332, 0.394768775 , 0.163745448 , 0.339490354 , -0.00382753229, -0.000649330264, -0.395820618, 0.17        , 3           , 50          , 0           , 0
-0.02555462 , 0.0344770774, -9.795905   , -0.000297227816, -0.00196669553, -0.0009071639, 0.394162059 , 0.164284751 , 0.338883638 , -0.00383049855, -0.000669031753, -0.395829439, 0.18        , 3           , 11          , 0.0346410163, 0.0346410163
0.004756001 , 0.0291900169, -9.805187   , -0.000725824968, -0.001124869, -0.00224989047, 0.394971    , 0.164284751 , 0.339018464 , -0.00383774168, -0.000680366647, -0.395851851, 0.19        , 3           , 12          , 0.0346410163, 0
-0.0138556249, 0.03338668  , -9.780905   , -0.0008670804, -0.0009850373, -0.00112018257, 0.394971    , 0.164284751 , 0.339018464 , -0.00384633313, -0.0006902301, -0.395863056, 0.2         , 3           , 50          , 0           , 0
0.005575087 , 0.0282166153, -9.787106   , 0.0005522463, -0.00231291866, -0.000126778017, 0.395038426 , 0.163812861 , 0.339557767 , -0.00384080969, -0.00071336393, -0.395864248, 0.21        , 3           , 11          , 0.0346699134, 0.0346699171
-0.00365100149, 0.0121162552, -9.797638   , 0.00188536907, -0.00061445625, -0.00018855324, 0.394499123 , 0.164284751 , 0.338883638 , -0.0038219546, -0.0007195157, -0.395866156, 0.22        , 3           , 12          , 0.03466976  , 0
-0.01732373 , 0.04024939  , -9.796721   , 0.000684910163, -0.000552181329, 0.00015913001, 0.3949036   , 0.164149925 , 0.338883638 , -0.00381510681, -0.0007250314, -0.3958645  , 0.23        , 3           , 50          , 0           , 0
-0.010965622, 0.035726957 , -9.815675   , -0.000242182577, 0.00134217669, 0.0005109509, 0.3949036   , 0.164149925 , 0.338883638 , -0.003817532, -0.000711590343, -0.39585948 , 0.24        , 3           , 11          , 0.0346699134, 0.0346699171
-0.0183835775, 0.0307616517, -9.789537   , -0.004197567, 0.00138582313, -0.00134387135, 0.3949036   , 0.163812861 , 0.339355528 , -0.00385949854, -0.000697783835, -0.395872831, 0.25        , 3           , 12          , 0.03466976  , 0
-0.0178407058, 0.0366318934, -9.792673   , -0.001641767, -0.00134224491, -0.0007005403, 0.394162059 , 0.164082512 , 0.339018464 , -0.0038759117, -0.0007112333, -0.395879984, 0.26        , 3           , 50          , 0           , 0
-0.0219419636, 0.02639245  , -9.819414   , 6.269289E-05, -0.00323134661, 0.000152044522, 0.394971    , 0.164149925 , 0.338883638 , -0.00387528562, -0.0007435406, -0.395878315, 0.27        , 3           , 11          , 0.0346699134, 0.0346699171
-0.007839757, 0.00716211973, -9.785939   , 0.001452727 , 0.00128324516, 0.000518744 , 0.394971    , 0.164149925 , 0.338883638 , -0.00386076234, -0.00073068816, -0.39587307 , 0.28        , 3           , 12          , 0.03466976  , 0
0.0106939944, 0.03362638  , -9.803314   , -0.00193379237, 0.000767587335, 0.0007847188, 0.395038426 , 0.163678035 , 0.33962518  , -0.00388010615, -0.0007229821, -0.3958652  , 0.29        , 3           , 50          , 0           , 0
-0.0168733634, 0.0420275144, -9.790383   , -0.00168841367, 0.000906675938, -0.0008387036, 0.394162059 , 0.164149925 , 0.339018464 , -0.00317211635, -0.0007782208, -0.395874262, 0.3         , 3           , 11          , 0.034753494 , 0.0347534977
-0.0037974536, 0.03825811  , -9.78849    , 0.00134398579, 0.00163112022, -0.00117663352, 0.3949036   , 0.1640151   , 0.3391533   , -0.00315866712, -0.000761947, -0.395886183, 0.31        , 3           , 12          , 0.034755785 , 0
0.002061977 , 0.0372746028, -9.784835   , -0.000350063463, 0.00154926965, -0.000902106171, 0.3949036   , 0.1640151   , 0.3391533   , -0.003162161, -0.000746482867, -0.395895243, 0.32        , 3           , 50          , 0           , 0
0.00374610443, 0.05939379  , -9.793317   , 0.00113866129, 0.000433038455, -0.000190584455, 0.394768775 , 0.164082512 , 0.339557767 , -0.00315077277, -0.000742158561, -0.39589715 , 0.33        , 3           , 11          , 0.034753494 , 0.0347534977
-0.004242776, 0.0382694639, -9.790302   , 0.004678302 , -0.00137325877, 0.000246862823, 0.3944317   , 0.164284751 , 0.339018464 , -0.003103992, -0.000755883462, -0.395894527, 0.34        , 3           , 12          , 0.034755785 , 0
-0.00749610644, 0.03332889  , -9.785829   , 8.937796E-05, -0.00147468643, 0.0005078917, 0.394971    , 0.164217338 , 0.339085877 , -0.00310310186, -0.0007706144, -0.395889521, 0.35        , 3           , 50          , 0           , 0
0.00904754  , 0.0471715964, -9.800107   , -0.00153916969, -0.000500189431, 0.0009962787, 0.394971    , 0.164217338 , 0.339085877 , -0.00311850128, -0.0007755853, -0.3958795  , 0.36        , 3           , 11          , 0.034753494 , 0.0347534977
-0.00383363012, 0.027070038 , -9.815656   , -0.0006267104, 0.0004211001, -0.000551987, 0.394971    , 0.163947687 , 0.339422941 , -0.003124764, -0.000771391555, -0.395885   , 0.37        , 3           , 12          , 0.034755785 , 0
-0.00021367149, 0.03148913  , -9.800695   , -0.00224841037, -1.22290094E-05, -0.0002776729, 0.3943643   , 0.164352164 , 0.338951051 , -0.00314724632, -0.000771522464, -0.395887852, 0.38        , 3           , 50          , 0           , 0
0.00315845478, 0.05348727  , -9.779336   , -0.00224597822, -0.000223396142, 0.00212357  , 0.395038426 , 0.164217338 , 0.338816226 , -0.003169722, -0.0007736893, -0.395866632, 0.39        , 3           , 11          , 0.034753494 , 0.0347534977
-0.00524321664, 0.06357105  , -9.796533   , -0.00165027659, 0.000442100922, 0.0005030412, 0.395038426 , 0.164217338 , 0.338816226 , -0.0035143795, -0.000514686166, -0.3958614  , 0.4         , 3           , 12          , 0.0348982364, 0
0.0004909076, 0.0544517152, -9.788391   , -2.246668E-05, -0.0003916136, -5.576323E-05, 0.395173252 , 0.163745448 , 0.339557767 , -0.00351460371, -0.0005186042, -0.395861864, 0.41        , 3           , 50          , 0           , 0
0.0116021838, 0.0371886753, -9.792446   , 0.00279509835, 0.000964920036, -0.000181801312, 0.394296885 , 0.164352164 , 0.338951051 , -0.00348665216, -0.000508961442, -0.395863771, 0.42        , 3           , 11          , 0.0177003965, 0.0177003685
-0.0181802623, 0.0461023077, -9.789925   , 0.00314296712, 0.0019527839, -0.000673076953, 0.394701362 , 0.163947687 , 0.339085877 , -0.003455219, -0.0004894572, -0.395870447, 0.43        , 3           , 12          , 0.0348982364, 0
-0.0154320616, 0.0483276844, -9.790346   , 0.00109926576, 0.0012350257, 2.26340162E-05, 0.394701362 , 0.163947687 , 0.339085877 , -0.00344422669, -0.000477106252, -0.395870447, 0.44        , 3           , 50          , 0           , 0
-0.0119020222, 0.0170400366, -9.757454   , 0.000247336138, 0.00200359616, -0.001392811, 0.3949036   , 0.163745448 , 0.339490354 , -0.00344174681, -0.000457118353, -0.395884275, 0.45        , 3           , 11          , 0.0177003965, 0.0177003685
0.00649601128, 0.03134287  , -9.780757   , 0.00124261458, 0.0006728475, -0.0011077252, 0.394027233 , 0.1640151   , 0.3391533   , -0.00342931552, -0.0004504279, -0.395895481, 0.46        , 3           , 12          , 0.0348982364, 0
-0.0206288435, 0.0308033526, -9.794075   , 0.00137871574, 0.002011244 , 0.00150846608, 0.3949036   , 0.164082512 , 0.338883638 , -0.00341553427, -0.000430264, -0.395880461, 0.47        , 3           , 50          , 0           , 0
-0.0132959615, 0.03927052  , -9.788108   , 0.000256719883, 0.00031421028, 0.000370444875, 0.3949036   , 0.164082512 , 0.338883638 , -0.00341296871, -0.0004271092, -0.395876646, 0.48        , 3           , 11          , 0.0177003965, 0.0177003685
-0.00573901 , 0.06086341  , -9.79474    , -0.0005234389, 0.00101287069, 0.000367908127, 0.394701362 , 0.163610622 , 0.3396926   , -0.00341820484, -0.000416968, -0.39587307 , 0.49        , 3           , 12          , 0.0348982364, 0
-0.001760089, 0.0593986139, -9.775732   , -0.000293347373, 0.000852840836, -0.00132625923, 0.394162059 , 0.164217338 , 0.339018464 , -0.00367150735, -0.0005102346, -0.395886183, 0.5         , 3           , 50          , 0           , 0
-0.00418978 , 0.0418832079, -9.791643   , -0.00226474018, -0.0002163963, -0.000701395446, 0.394701362 , 0.164217338 , 0.338883638 , -0.003694151, -0.0005124244, -0.395893335, 0.51        , 3           , 11          , 0.0134411762, 0.0134411706
-0.005200593, 0.0382377654, -9.777655   , -0.00444957428, -0.000935109, 0.000134925809, 0.394701362 , 0.164217338 , 0.338883638 , -0.00373864733, -0.000521770329, -0.3958919  , 0.52        , 3           , 12          , 0.03509601  , 0
-0.00346330181, 0.03413951  , -9.772686   , -0.002620028, 0.00020356306, -0.0009849282, 0.395038426 , 0.164149925 , 0.339557767 , -0.003764843, -0.000519771769, -0.395901918, 0.53        , 3           , 50          , 0           , 0
0.008232878 , 0.0241198167, -9.785746   , -0.00269051245, 0.000203086121, -0.000773354259, 0.3944317   , 0.164419577 , 0.339018464 , -0.00379174366, -0.0005177701, -0.395909548, 0.54        , 3           , 11          , 0.0134411762, 0.0134411706
-0.00175812456, 0.0193028264, -9.794429   , 0.00126723014, -0.000333299744, 0.000939439749, 0.3944317   , 0.164419577 , 0.339018464 , -0.00377907674, -0.00052106753, -0.3959     , 0.55        , 3           , 12          , 0.03509601  , 0
-0.006565299, 0.0346777625, -9.787622   , 0.0009896669, -0.00153186638, -0.000900214945, 0.3949036   , 0.164082512 , 0.338883638 , -0.00376917515, -0.000536420033, -0.395909071, 0.56        , 3           , 50          , 0           , 0
-0.0110982955, 0.0302632488, -9.800783   , -0.00106008141, -0.00105297356, -0.000414562935, 0.394971    , 0.1640151   , 0.339557767 , -0.003779774, -0.0005469653, -0.395913124, 0.57        , 3           , 11          , 0.0134411762, 0.0134411706
-0.004849187, 0.0296696424, -9.780399   , -0.00261316565, -0.000993084, 0.0006378179, 0.394296885 , 0.164217338 , 0.339085877 , -0.00380590861, -0.0005568718, -0.3959067  , 0.58        , 3           , 12          , 0.03509601  , 0
-0.0133991074, 0.0333843939, -9.781804   , -0.00148882682, 3.12297743E-08, -0.000203007818, 0.394296885 , 0.164217338 , 0.339085877 , -0.0038207958, -0.0005568792, -0.3959086  , 0.59        , 3           , 50          , 0           , 0
-0.0164913535, 0.037055    , -9.789045   , 0.002201679 , 0.00227115536, 0.000311983342, 0.395105839 , 0.163947687 , 0.339085877 , -0.00370966527, -0.000552762649, -0.395905733, 0.6         , 3           , 11          , 0.0113540329, 0.01135403
-0.0179193653, 0.028533848 , -9.799488   , 0.002203755 , 0.00163762888, -0.00152548659, 0.3949036   , 0.163745448 , 0.339490354 , -0.003687619, -0.0005364428, -0.395921   , 0.61        , 3           , 12          , 0.0353477448, 0
-0.0180855617, 0.05064254  , -9.798492   , -0.00132243894, 0.0007690588, -0.00161388435, 0.394296885 , 0.164352164 , 0.338883638 , -0.00370083516, -0.000528811943, -0.3959372  , 0.62        , 3           , 50          , 0           , 0
0.00169393525, 0.03333144  , -9.818301   , -0.0015127185, -0.00338545372, 7.395213E-05, 0.394296885 , 0.164352164 , 0.338883638 , -0.00371596287, -0.0005626635, -0.3959365  , 0.63        , 3           , 11          , 0.0113540329, 0.01135403
-0.0055646  , 0.0423321649, -9.786228   , -0.0006143068, 0.000562664936, 0.000154941561, 0.394701362 , 0.1640151   , 0.339018464 , -0.00372210681, -0.000557031, -0.39593482 , 0.64        , 3           , 12          , 0.0353477448, 0
-0.02007481 , 0.0442705862, -9.775483   , 0.000438524468, 0.00169608416, -0.00103916833, 0.395038426 , 0.163678035 , 0.33962518  , -0.003717716, -0.000540108944, -0.3959453  , 0.65        , 3           , 50          , 0           , 0
-0.0159427822, 0.0456079468, -9.784939   , -0.0009705547, 0.00105301221, -0.001187998, 0.394296885 , 0.164284751 , 0.338883638 , -0.00372741534, -0.0005296231, -0.395957232, 0.66        , 3           , 11          , 0.0113540329, 0.01135403
-0.00132870954, 0.0607150048, -9.766232   , -0.00322142383, -0.0005812641, -0.000282781984, 0.394296885 , 0.164284751 , 0.338883638 , -0.003759628, -0.0005354462, -0.3959601  , 0.67        , 3           , 12          , 0.0353477448, 0
-0.03605585 , 0.04033126  , -9.756186   , -0.00166885462, -0.000429977, -0.0004165905, 0.3948362   , 0.164284751 , 0.338816226 , -0.00377631444, -0.0005397617, -0.395964146, 0.68        , 3           , 50          , 0           , 0
-0.009492267, 0.0251659378, -9.766893   , -0.00329079968, -0.00086330733, -0.0005660825, 0.3948362   , 0.163947687 , 0.33962518  , -0.00380921946, -0.0005484162, -0.395969868, 0.69        , 3           , 11          , 0.0113540329, 0.01135403
-0.04349047 , 0.04777612  , -9.796891   , -0.00218790025, -8.906919E-05, 7.59215E-05 , 0.394229472 , 0.164352164 , 0.339018464 , -0.00387974759, -0.000714581343, -0.395969152, 0.7         , 3           , 12          , 0.0356519036, 0
-0.0225417577, 0.0543245636, -9.804386   , -0.00134076062, -0.000153732821, -0.000767848571, 0.394229472 , 0.164352164 , 0.339018464 , -0.00389315025, -0.0007161487, -0.395976782, 0.71        , 3           , 50          , 0           , 0
-0.006222369, 0.03235168  , -9.768194   , 0.0008396204, 0.00162085274, -0.0002604897, 0.394971    , 0.164217338 , 0.3386814   , -0.00388475112, -0.0006999503, -0.3959794  , 0.72        , 3           , 11          , 0.0101340795, 0.0101340814
-0.01394902 , 0.0306329019, -9.766905   , 0.00133354077, 0.00162419362, -0.00082326 , 0.395038426 , 0.1640151   , 0.3396926   , -0.00387141062, -0.0006837404, -0.395987749, 0.73        , 3           , 12          , 0.0356519036, 0
-0.0370604731, 0.0273174737, -9.773874   , 0.00147532555, 0.00162515137, 0.000166279686, 0.3944317   , 0.164217338 , 0.3391533   , -0.00385665847, -0.0006674827, -0.39598608 , 0.74        , 3           , 50          , 0           , 0
-0.006407583, 0.0188110974, -9.766444   , 0.000282348541, 0.000209210164, 0.0007942222, 0.3944317   , 0.164217338 , 0.3391533   , -0.00385384029, -0.000665359956, -0.3959782  , 0.75        , 3           , 11          , 0.0101340795, 0.0101340814
0.00585719151, 0.0467455573, -9.796518   , 0.00135266071, -0.001965755, 0.00150214136, 0.395038426 , 0.164352164 , 0.338883638 , -0.003840324, -0.0006849596, -0.395962954, 0.76        , 3           , 12          , 0.0356519036, 0
-0.0130296657, 0.059125714 , -9.78938    , 0.00205567642, -0.001468244, 0.000446677645, 0.3948362   , 0.163745448 , 0.339557767 , -0.00381977 , -0.000699624943, -0.395958662, 0.77        , 3           , 50          , 0           , 0
-0.0152444923, 0.0324852057, -9.7764     , -0.00084641343, -7.99970148E-05, 1.15424909E-05, 0.3943643   , 0.164419577 , 0.339018464 , -0.00382823427, -0.000700424367, -0.395958424, 0.78        , 3           , 11          , 0.0101340795, 0.0101340814
-0.0150329247, 0.0438153967, -9.791718   , 0.0002665472, 0.003236031 , -0.00061380025, 0.3943643   , 0.164419577 , 0.339018464 , -0.00382556487, -0.0006680878, -0.395964861, 0.79        , 3           , 12          , 0.0356519036, 0
-0.0196245462, 0.04337053  , -9.777743   , 0.00115488074, 0.00371696637, -0.0006089682, 0.394701362 , 0.164352164 , 0.3391533   , -0.003858338, -0.0007773666, -0.39597106 , 0.8         , 3           , 50          , 0           , 0
0.00168788247, 0.03779003  , -9.802463   , 0.00102036679, 0.00251936354, 0.0007305821, 0.3948362   , 0.163947687 , 0.339490354 , -0.00384813966, -0.000752145133, -0.3959639  , 0.81        , 3           , 11          , 0.009382216 , 0.009382224
-0.00333187357, 0.005307382 , -9.786816   , -0.000509527454, -0.00227774912, 0.000292155659, 0.394094646 , 0.1640151   , 0.338951051 , -0.00385323726, -0.0007749111, -0.3959608  , 0.82        , 3           , 12          , 0.0360067375, 0
-0.00586029142, 0.0179896541, -9.792207   , -0.000375361968, -0.00100975507, -0.00104728609, 0.394094646 , 0.1640151   , 0.338951051 , -0.003856982, -0.00078504876, -0.39597106 , 0.83        , 3           , 50          , 0           , 0
-0.0190364681, 0.05240185  , -9.781769   , -0.00101555674, -9.896694E-05, -0.00140201056, 0.3948362   , 0.1640151   , 0.339018464 , -0.00386712677, -0.00078609254, -0.395985126, 0.84        , 3           , 11          , 0.009382216 , 0.009382224
0.007548266 , 0.04573431  , -9.770294   , -0.001084139, -0.000310613454, 0.000292559416, 0.394971    , 0.163678035 , 0.339422941 , -0.00387797039, -0.0007891872, -0.395982265, 0.85        , 3           , 12          , 0.0360067375, 0
-0.005131455, 0.04097189  , -9.785778   , -0.00333894137, -0.0012409793, 0.000421882316, 0.3944317   , 0.164082512 , 0.338883638 , -0.003911363, -0.000801580667, -0.395977974, 0.86        , 3           , 50          , 0           , 0
-0.01564143 , 0.0374456272, -9.77412    , -0.00157516426, -0.00108826277, -0.000770454062, 0.3944317   , 0.164082512 , 0.338883638 , -0.003927108, -0.0008124933, -0.3959856  , 0.87        , 3           , 11          , 0.009382216 , 0.009382224
-0.002800391, 0.048587665 , -9.777593   , -0.00136141991, -0.00136839284, 0.000148346473, 0.3948362   , 0.164082512 , 0.3387488   , -0.00394072337, -0.00082617125, -0.395984173, 0.88        , 3           , 12          , 0.0360067375, 0
-0.00666883867, 0.0608543865, -9.788872   , -0.000317672035, 0.00166559219, -0.0004777595, 0.3948362   , 0.163678035 , 0.33962518  , -0.00394389639, -0.0008095343, -0.395988941, 0.89        , 3           , 50          , 0           , 0
-0.021144513, 0.0289723072, -9.784594   , -0.00184145547, -0.000667577959, -0.000417585485, 0.394499123 , 0.164284751 , 0.339085877 , -0.004035925, -0.000816553656, -0.395993   , 0.9         , 3           , 11          , 0.008917349 , 0.008917355
0.00318575441, 0.0174291637, -9.791236   , 0.00049040874, -0.0009333836, 0.000369823247, 0.394499123 , 0.164284751 , 0.339085877 , -0.004031024, -0.00082587247, -0.395989418, 0.91        , 3           , 12          , 0.0364103764, 0
0.00594053837, 0.020998925 , -9.78894    , 0.000845495844, -0.00149412989, -0.000900817045, 0.3949036   , 0.164284751 , 0.338883638 , -0.004022561, -0.0008408499, -0.39599824 , 0.92        , 3           , 50          , 0           , 0
0.008456943 , 0.0372455455, -9.798345   , -0.000644500542, -9.63331549E-05, -0.00140000181, 0.395105839 , 0.163812861 , 0.33962518  , -0.00402899459, -0.0008418696, -0.3960123  , 0.93        , 3           , 11          , 0.008917349 , 0.008917355
-0.013884169, 0.0351489522, -9.768241   , -0.00107160723, 0.0006751076, -0.0007650746, 0.394296885 , 0.164082512 , 0.338951051 , -0.004039705, -0.000835149433, -0.396019936, 0.94        , 3           , 12          , 0.0364103764, 0
-0.0115183089, 0.04190022  , -9.771359   , -0.00191376393, -0.000316098885, -0.0003467379, 0.394296885 , 0.164082512 , 0.338951051 , -0.00405883929, -0.0008383245, -0.3960235  , 0.95        , 3           , 50          , 0           , 0
0.0111098588, 0.001528072 , -9.786722   , -0.0009145667, -0.00256193685, -0.00112257816, 0.3948362   , 0.164352164 , 0.338816226 , -0.004067976, -0.0008639893, -0.396034479, 0.96        , 3           , 11          , 0.008917349 , 0.008917355
-0.009122196, 0.0166129358, -9.77415848 , 0.00140882994, -0.00106795959, 9.13488548E-05, 0.394971    , 0.163610622 , 0.339557767 , -0.00405388838, -0.0008746651, -0.396033525, 0.97        , 3           , 12          , 0.0364103764, 0
-0.00805217 , 0.0323578231, -9.763689   , -6.35192046E-05, -0.00311933178, 0.0005757294, 0.394229472 , 0.164352164 , 0.339018464 , -0.00405452866, -0.0009058348, -0.3960278  , 0.98        , 3           , 50          , 0           , 0
0.00388738769, 0.0363722071, -9.791152   , -0.0005542813, -0.00382658746, 0.000572340039, 0.394229472 , 0.164352164 , 0.339018464 , -0.00406007655, -0.000944077037, -0.396021843, 0.99        , 3           , 11          , 0.008917349 , 0.008917355
0.0136320908, 0.0583231449, -9.77788    , -0.00204790873, -0.00305374269, 0.000142253222, 0.394768775 , 0.164149925 , 0.338883638 , -0.00391232129, -0.000874304038, -0.3960204  , 1           , 3           , 12          , 0.03686082  , 0
-0.00245337188, 0.0391232967, -9.78215    , -0.00177762017, -0.0005177453, 0.000853819365, 0.395173252 , 0.1640151   , 0.339557767 , -0.003930105, -0.000879447733, -0.396011829, 1.01        , 3           , 50          , 0           , 0
-0.01188572 , 0.04643822  , -9.777672   , -0.00086622854, 0.0006851109, -0.000128937492, 0.3943643   , 0.164352164 , 0.339085877 , -0.003938766, -0.0008726018, -0.396013021, 1.02        , 3           , 11          , 0.00863956753, 0.008639577
0.0109418295, 0.0588228181, -9.78287    , -0.0006563956, 0.00103849859, -0.000551213569, 0.3943643   , 0.164352164 , 0.339085877 , -0.003945326, -0.000862238754, -0.396018744, 1.03        , 3           , 12          , 0.03686082  , 0
0.007592619 , 0.0426457971, -9.791098   , -0.0004364376, -0.000579067564, -0.000340817845, 0.3948362   , 0.164082512 , 0.338816226 , -0.00394968735, -0.0008680428, -0.396022081, 1.04        , 3           , 50          , 0           , 0
0.00116069335, 0.0355033055, -9.791628   , 0.000694129849, -0.0007122094, -5.32297745E-05, 0.395240664 , 0.164284751 , 0.339557767 , -0.00394274574, -0.000875166967, -0.396022558, 1.05        , 3           , 11          , 0.00863956753, 0.008639577
-0.00165356416, 0.0296536051, -9.786703   , 0.000630797236, -0.00205011782, 0.00107452972, 0.394229472 , 0.164149925 , 0.339085877 , -0.00393644674, -0.0008956256, -0.396011829, 1.06        , 3           , 12          , 0.03686082  , 0
-0.0270632915, 0.0227661226, -9.796869   , -0.000152943117, -0.0008587242, -0.0009050098, 0.394229472 , 0.164149925 , 0.339085877 , -0.003937968, -0.000904248445, -0.396020651, 1.07        , 3           , 50          , 0           , 0
-0.0210682414, 0.031265866 , -9.795884   , 0.00026308946, 0.0007631419, -0.000194195774, 0.3948362   , 0.164217338 , 0.3391533   , -0.00393533567, -0.0008966248, -0.3960228  , 1.08        , 3           , 11          , 0.00863956753, 0.008639577
0.002732901 , 0.04994385  , -9.797433   , 0.0008922991, 0.00196408946, -0.00075446337, 0.395173252 , 0.163812861 , 0.339557767 , -0.003926406, -0.0008770138, -0.396030426, 1.09        , 3           , 12          , 0.03686082  , 0
-0.02081658 , 0.0163680241, -9.794588   , 0.00125926686, 0.00208693813, 0.000165722144, 0.3944317   , 0.164149925 , 0.338951051 , -0.00389764737, -0.000797264, -0.396028757, 1.1         , 3           , 50          , 0           , 0
-0.0195590127, 0.0411918759, -9.800803   , 0.00154007366, 0.002440805 , 0.0003794845, 0.3944317   , 0.164149925 , 0.338951051 , -0.00388225 , -0.0007728417, -0.396025181, 1.11        , 3           , 11          , 0.008486184 , 0.008486182
0.00434983149, 0.0368210636, -9.79205    , 0.000556625368, 0.00130785711, -0.000545107236, 0.395038426 , 0.164352164 , 0.3387488   , -0.003876679, -0.000759784132, -0.396030664, 1.12        , 3           , 12          , 0.0373559967, 0
0.00537039526, 0.0435988642, -9.798343   , -8.702747E-06, 0.00151521363, 0.000441465469, 0.394971    , 0.163880274 , 0.33976     , -0.00387676945, -0.000744615041, -0.396026373, 1.13        , 3           , 50          , 0           , 0
0.0155352466, 0.03166957  , -9.775263   , 0.00247507752, -0.00100215967, 0.000449083163, 0.394633949 , 0.1640151   , 0.339018464 , -0.00385202281, -0.0007546195, -0.3960216  , 1.14        , 3           , 11          , 0.008486184 , 0.008486182
-0.00709949248, 0.027921861 , -9.789463   , -0.002606058, -0.00174045644, -0.0012002968, 0.394633949 , 0.1640151   , 0.339018464 , -0.00387807377, -0.0007720702, -0.396033764, 1.15        , 3           , 12          , 0.0373559967, 0
0.00338268746, 0.0367818028, -9.777143   , -0.00438090228, 0.000218562127, -0.00106422137, 0.3948362   , 0.164217338 , 0.338883638 , -0.003921875, -0.000769926, -0.396044254, 1.16        , 3           , 50          , 0           , 0
-0.01884199 , 0.0383503623, -9.763746   , -7.389324E-05, 0.000247689168, -0.0010441381, 0.395105839 , 0.163947687 , 0.33962518  , -0.00392260635, -0.0007674902, -0.396054745, 1.17        , 3           , 11          , 0.008486184 , 0.008486182
-0.00835359 , 0.03025404  , -9.807543   , 0.00197592983, 5.03682968E-05, 0.00101348094, 0.394296885 , 0.164082512 , 0.339018464 , -0.0039028544, -0.000766947, -0.396044731, 1.18        , 3           , 12          , 0.0373559967, 0
1.97608024E-05, 0.0197009668, -9.784924   , 0.000915146 , 0.0004655556, 0.00171553693, 0.394296885 , 0.164082512 , 0.339018464 , -0.00389371649, -0.0007622246, -0.396027565, 1.19        , 3           , 50          , 0           , 0
-0.008734916, 0.0111983418, -9.775534   , -0.0005545471, 0.00064299145, -0.00224690023, 0.395038426 , 0.164284751 , 0.338816226 , -0.00380065432, -0.000702195859, -0.3960502  , 1.2         , 3           , 11          , 0.008406134 , 0.008406132
-0.00362222828, 0.0508978963, -9.790697   , -0.000842965, 0.00204891176, -0.0005508225, 0.394971    , 0.163947687 , 0.33962518  , -0.00380908 , -0.000681727834, -0.3960557  , 1.21        , 3           , 12          , 0.0378937721, 0
-0.009239455, 0.04188574  , -9.774958   , -0.00139601412, -0.000207425939, 0.000573221943, 0.394701362 , 0.164217338 , 0.339085877 , -0.00382304378, -0.000683780236, -0.396049976, 1.22        , 3           , 50          , 0           , 0
-0.00399311 , 0.0282798614, -9.772715   , -0.0008444478, 0.002612048 , 0.00171034515, 0.394701362 , 0.164217338 , 0.339085877 , -0.00383149972, -0.0006575945, -0.396033049, 1.23        , 3           , 11          , 0.008406134 , 0.008406132
0.007423186 , 0.0353669   , -9.77305    , 0.00226545054, 0.001788358 , 2.83045811E-05, 0.3949036   , 0.164217338 , 0.338816226 , -0.00380884577, -0.0006397101, -0.3960328  , 1.24        , 3           , 12          , 0.0378937721, 0
0.004385053 , 0.0390813537, -9.793397   , -0.00138756121, -0.002178388, -0.00169011531, 0.395173252 , 0.163880274 , 0.339490354 , -0.00382271013, -0.0006615583, -0.396049738, 1.25        , 3           , 50          , 0           , 0
-0.02065071 , 0.03658819  , -9.770096   , -0.00111809559, 0.0006391777, 1.07656233E-05, 0.3943643   , 0.1640151   , 0.339288116 , -0.003833891, -0.000655166165, -0.3960495  , 1.26        , 3           , 11          , 0.008406134 , 0.008406132
0.00230506621, 0.0259406138, -9.769964   , -0.0016672  , -0.00274342764, -0.00169230008, 0.3943643   , 0.1640151   , 0.339288116 , -0.00385055155, -0.000682665152, -0.396066427, 1.27        , 3           , 12          , 0.0378937721, 0
0.006043979 , 0.0349195972, -9.769446   , 0.000284117355, 0.00261968258, -0.0002621494, 0.394971    , 0.164082512 , 0.338951051 , -0.00384770846, -0.000656478631, -0.39606905 , 1.28        , 3           , 50          , 0           , 0
-0.007903358, 0.03694191  , -9.785364   , -0.00167196034, -0.00161716365, -0.000277876941, 0.395173252 , 0.163610622 , 0.339557767 , -0.0038644264, -0.0006726608, -0.3960719  , 1.29        , 3           , 11          , 0.008406134 , 0.008406132
-0.0106045883, 0.035200946 , -9.794884   , -0.002179931, -0.00156945409, 0.0014148734, 0.394296885 , 0.164284751 , 0.339288116 , -0.00382321 , -0.0006302049, -0.3960576  , 1.3         , 3           , 12          , 0.0384719931, 0
-0.0135692963, 0.0225340817, -9.775071   , -0.000501104747, 0.001257648 , -0.0016807979, 0.394296885 , 0.164284751 , 0.339288116 , -0.00382821052, -0.0006176929, -0.396074533, 1.31        , 3           , 50          , 0           , 0
-0.002550169, 0.03681311  , -9.765889   , -0.00162277429, -0.000439383963, -0.00225374429, 0.395105839 , 0.164149925 , 0.338883638 , -0.00384442462, -0.000622173131, -0.396096945, 1.32        , 3           , 11          , 0.008367937 , 0.008367937
0.009911637 , 0.04400291  , -9.800115   , -0.0021880432, -0.000161634147, -0.0005607192, 0.395105839 , 0.163678035 , 0.33962518  , -0.00386630115, -0.000623811, -0.396102667, 1.33        , 3           , 12          , 0.0384719931, 0
-0.0146051534, 0.0402190052, -9.79715252 , -0.004160686, -0.00101969833, -0.000288702082, 0.394701362 , 0.164217338 , 0.3391533   , -0.00390790636, -0.0006340191, -0.396105528, 1.34        , 3           , 50          , 0           , 0
-0.0304425545, 0.0439840257, -9.788219   , 0.000920950552, -0.000703757, -0.0013947133, 0.394701362 , 0.164217338 , 0.3391533   , -0.00389868743, -0.000641110935, -0.396119356, 1.35        , 3           , 11          , 0.008367937 , 0.008367937
-0.0250948314, 0.03894094  , -9.783227   , -0.00332209584, 0.000675420451, -0.000847222633, 0.394971    , 0.164217338 , 0.339018464 , -0.003931903, -0.0006343902, -0.396127939, 1.36        , 3           , 12          , 0.0384719931, 0
-0.00713285152, 0.0256630778, -9.7885685  , 0.00205105869, -0.0004145434, 0.00171890063, 0.395105839 , 0.163812861 , 0.339557767 , -0.003911404, -0.000638468133, -0.396110773, 1.37        , 3           , 50          , 0           , 0
-0.0026639197, 0.021545019 , -9.787196   , 0.00119385694, 0.00155068154, 0.00143544981, 0.394499123 , 0.164217338 , 0.339085877 , -0.0038994744, -0.0006229054, -0.396096468, 1.38        , 3           , 11          , 0.008367937 , 0.008367937
-0.009945119, 0.0576806143, -9.77309    , -0.000787061, 0.00210043648, -0.0005506631, 0.394499123 , 0.164217338 , 0.339085877 , -0.00390734151, -0.0006019228, -0.396101952, 1.39        , 3           , 12          , 0.0384719931, 0
-0.0223195236, 0.0425273329, -9.785904   , -0.000189682527, -0.00104710856, 0.00057712046, 0.3948362   , 0.164217338 , 0.338951051 , -0.0038904564, -0.0006738641, -0.39609623 , 1.4         , 3           , 50          , 0           , 0
-0.00563196838, 0.03692138  , -9.787154   , -0.0004764545, -0.000204324, 0.000294567755, 0.395173252 , 0.163947687 , 0.3396926   , -0.00389522314, -0.0006758959, -0.39609313 , 1.41        , 3           , 11          , 0.008349064 , 0.008349072
-0.0111967577, 0.0333079174, -9.766873   , -0.00132192578, -0.0007731888, -0.00140547554, 0.394296885 , 0.163812861 , 0.3392207   , -0.00390843255, -0.000683682447, -0.3961072  , 1.42        , 3           , 12          , 0.0390885   , 0
-0.0220809486, 0.03520684  , -9.757006   , 0.00375764957, 0.000387458043, 0.00116280222, 0.394296885 , 0.163812861 , 0.3392207   , -0.0038708644, -0.000679762743, -0.3960955  , 1.43        , 3           , 50          , 0           , 0
-0.0141425151, 0.04602423  , -9.780854   , 0.000642678933, 0.00177426776, -0.00110981415, 0.3949036   , 0.164284751 , 0.338883638 , -0.00386442943, -0.000662063, -0.39610672 , 1.44        , 3           , 11          , 0.008349064 , 0.008349072
-0.0217971765, 0.0483809374, -9.784066   , 0.000652852 , -0.000478257833, -0.00280851056, 0.395105839 , 0.163880274 , 0.33962518  , -0.00385788223, -0.000666954, -0.396134853, 1.45        , 3           , 12          , 0.0390885   , 0
-0.0164292268, 0.03531993  , -9.809842   , -0.00358691625, 0.000337791746, -0.00141427526, 0.3943643   , 0.164082512 , 0.3392207   , -0.00389374234, -0.000663630955, -0.39614892 , 1.46        , 3           , 50          , 0           , 0
-0.0116168438, 0.0520122945, -9.825558   , -0.00048547113, 0.00148506346, -0.0008329783, 0.3943643   , 0.164082512 , 0.3392207   , -0.0038985915, -0.0006488129, -0.3961575  , 1.47        , 3           , 11          , 0.008349064 , 0.008349072
0.00273084  , 0.04458598  , -9.814178   , -0.0007769146, 0.003172541 , -0.00196184171, 0.394971    , 0.164082512 , 0.3391533   , -0.00390634825, -0.000617164362, -0.396177053, 1.48        , 3           , 12          , 0.0390885   , 0
0.00742309  , 0.032688722 , -9.781649   , -0.00415555155, 0.00146024092, 0.00169273862, 0.395038426 , 0.163880274 , 0.339894831 , -0.00394791458, -0.0006024955, -0.396160126, 1.49        , 3           , 50          , 0           , 0
-0.0154925175, 0.0447078943, -9.787198   , 0.000626123 , 0.0003294114, -0.0008295757, 0.3943643   , 0.164419577 , 0.339288116 , -0.00396905 , -0.0006420832, -0.39616847 , 1.5         , 3           , 11          , 0.008333029 , 0.008333043
0.00378195  , 0.0273597669, -9.794354   , -0.000781829061, -0.0005248336, -0.0008374621, 0.3943643   , 0.164419577 , 0.339288116 , -0.00397686241, -0.0006473647, -0.396176815, 1.51        , 3           , 12          , 0.03974116  , 0
0.0155098131, 0.0249537025, -9.790658   , -0.00276029948, 2.49329587E-05, 0.00141448691, 0.395105839 , 0.164217338 , 0.338883638 , -0.00400447473, -0.000647059, -0.396162748, 1.52        , 3           , 50          , 0           , 0
0.0143638756, 0.0425494276, -9.786075   , -0.00108844321, 0.00425986061, -0.00167901476, 0.3954429   , 0.164082512 , 0.339962244 , -0.00401534932, -0.0006045281, -0.396179676, 1.53        , 3           , 11          , 0.008333029 , 0.008333043
-0.02779321 , 0.0385413468, -9.78912449 , -0.00190891139, -0.00109560438, -0.00112613535, 0.394027233 , 0.1640151   , 0.339422941 , -0.004034431, -0.0006155294, -0.396190882, 1.54        , 3           , 12          , 0.03974116  , 0
-0.0266587231, 0.0307560414, -9.759317   , 0.0009065776, 0.0008944554, 0.0005852963, 0.394027233 , 0.1640151   , 0.339422941 , -0.004025369, -0.0006065613, -0.39618516 , 1.55        , 3           , 50          , 0           , 0
-0.0232605748, 0.00732168369, -9.779728   , -0.00248417584, 0.00087152794, -0.00225588167, 0.395105839 , 0.164217338 , 0.3391533   , -0.004050197, -0.0005979373, -0.396207571, 1.56        , 3           , 11          , 0.008333029 , 0.008333043
-0.0166484453, 0.0186273418, -9.809914   , -0.00107385067, 0.00144421263, -0.0005532041, 0.395173252 , 0.163678035 , 0.33962518  , -0.0040609315, -0.0005835176, -0.3962133  , 1.57        , 3           , 12          , 0.03974116  , 0
-0.0209421813, 0.042973116 , -9.789055   , 6.528839E-05, -0.0005191045, -0.00111604889, 0.394162059 , 0.164082512 , 0.3392207   , -0.00406027259, -0.0005887539, -0.39622426 , 1.58        , 3           , 50          , 0           , 0
-0.003791105, 0.0418340564, -9.778533   , -0.002761931, 2.49251043E-05, -0.00141088781, 0.394162059 , 0.164082512 , 0.3392207   , -0.004087883, -0.000588562049, -0.396238565, 1.59        , 3           , 11          , 0.008333029 , 0.008333043
-0.007129808, 0.0323607959, -9.76775    , 0.00128038228, 0.0008118249, 0.000303674344, 0.395105839 , 0.164352164 , 0.338951051 , -0.00396630075, -0.000680860365, -0.3962357  , 1.6         , 3           , 12          , 0.0404278748, 0
-0.0286985841, 0.0439083353, -9.77193451 , 0.0007136452, 0.00108956778, -0.0005461378, 0.394971    , 0.1640151   , 0.3396926   , -0.003959161, -0.0006699864, -0.3962412  , 1.61        , 3           , 50          , 0           , 0
-0.00175157457, 0.0282351431, -9.767273   , -0.00265424023, -0.00315682637, -3.37531674E-06, 0.394566536 , 0.164149925 , 0.339355528 , -0.003985703, -0.000701554469, -0.39624095 , 1.62        , 3           , 11          , 0.008312989 , 0.008313008
-0.03622188 , 0.0499422848, -9.79547    , -0.000109610904, -0.003702767, 7.60922558E-06, 0.394566536 , 0.164149925 , 0.339355528 , -0.00398679962, -0.0007385816, -0.3962407  , 1.63        , 3           , 12          , 0.0404278748, 0
-0.0184748061, 0.05337745  , -9.80526352 , -0.00154544285, 0.00107428955, 8.401432E-06, 0.395105839 , 0.164284751 , 0.339018464 , -0.004002253, -0.000727838429, -0.3962407  , 1.64        , 3           , 50          , 0           , 0
0.00482719764, 0.0372820161, -9.796564   , -0.00182573427, 0.000509246252, -0.00112393312, 0.395510316 , 0.163678035 , 0.339894831 , -0.004020503, -0.0007227911, -0.396251917, 1.65        , 3           , 11          , 0.008312989 , 0.008313008
0.000863985159, 0.017408872 , -9.777243   , 0.0021183202, 0.00250694063, -0.001384996, 0.3943643   , 0.164284751 , 0.339422941 , -0.00399930961, -0.0006977773, -0.396265984, 1.66        , 3           , 12          , 0.0404278748, 0
0.000177413225, 0.03634367  , -9.769937   , 0.00155395572, 0.00250312313, -0.0005400174, 0.3943643   , 0.164284751 , 0.339422941 , -0.003983767, -0.0006727681, -0.396271467, 1.67        , 3           , 50          , 0           , 0
-0.040774446, 0.05443892  , -9.775147   , 0.00212331768, 0.00166224944, 2.63894617E-05, 0.394971    , 0.164149925 , 0.338951051 , -0.003962533, -0.000656144635, -0.396271229, 1.68        , 3           , 11          , 0.008312989 , 0.008313008
-0.0100871855, 0.0419432446, -9.788976   , -0.00182082539, -5.38736931E-05, 0.00254818588, 0.395105839 , 0.164082512 , 0.339894831 , -0.003980758, -0.0006565821, -0.396245718, 1.69        , 3           , 12          , 0.0404278748, 0
-0.009973827, 0.0464985967, -9.802064   , -0.00181964634, -0.000992552, 0.00113382074, 0.394296885 , 0.164149925 , 0.3391533   , -0.004001628, -0.0007817355, -0.396234274, 1.7         , 3           , 50          , 0           , 0
-0.01089121 , 0.0206854846, -9.771442   , -0.00153434265, -0.00183534366, -0.00112646376, 0.394296885 , 0.164149925 , 0.3391533   , -0.00401696237, -0.000800134, -0.396245718, 1.71        , 3           , 11          , 0.008280983 , 0.008281008
-0.00111904461, 0.03685613  , -9.78350449 , -0.0006862466, -0.00182960974, 0.0002901742, 0.3949036   , 0.164217338 , 0.339085877 , -0.004023827, -0.000818418339, -0.396242619, 1.72        , 3           , 12          , 0.0411466   , 0
-0.000686227344, 0.0350492261, -9.784413   , 0.00128156156, -0.000126853469, -0.00111069088, 0.395308077 , 0.1640151   , 0.339894831 , -0.004011003, -0.0008197315, -0.396253824, 1.73        , 3           , 50          , 0           , 0
0.00222489424, 0.0534752272, -9.772562   , -0.00012410662, -0.0009810876, 0.00283694686, 0.394296885 , 0.164284751 , 0.339288116 , -0.004012267, -0.000829428434, -0.3962252  , 1.74        , 3           , 11          , 0.008280983 , 0.008281008
-0.0187426731, 0.0415552929, -9.777744   , -0.0015437745, 0.000135613547, -0.0005583513, 0.394296885 , 0.164284751 , 0.339288116 , -0.0040277  , -0.0008280946, -0.396230936, 1.75        , 3           , 12          , 0.0411466   , 0
-0.007013371, 0.0360259525, -9.784457   , -0.00211067474, 0.000413355563, -0.00169070123, 0.394971    , 0.164082512 , 0.339355528 , -0.004048793, -0.000824029441, -0.396247625, 1.76        , 3           , 50          , 0           , 0
0.00254546385, 0.0435430631, -9.772148   , -0.0009854014, 0.00154726137, 0.000294064463, 0.395105839 , 0.164082512 , 0.3396926   , -0.0040586493, -0.000808545, -0.396244764, 1.77        , 3           , 11          , 0.008280983 , 0.008281008
-0.03423665 , 0.0309431665, -9.788302   , -0.00238810387, -0.000433245732, -0.000280632434, 0.3943643   , 0.164352164 , 0.339422941 , -0.004082528, -0.0008128888, -0.396247625, 1.78        , 3           , 12          , 0.0411466   , 0
-0.004865094, 0.0283177048, -9.780856   , -0.001544842, 0.000417180185, 7.15738861E-06, 0.3943643   , 0.164352164 , 0.339422941 , -0.004097977, -0.0008087168, -0.396247625, 1.79        , 3           , 50          , 0           , 0
-0.003950851, 0.0274214055, -9.785826   , -0.0003793753, 0.0012387617, -0.00281180651, 0.3948362   , 0.164284751 , 0.3391533   , -0.0040489207, -0.0008355  , -0.396275759, 1.8         , 3           , 11          , 0.008237268 , 0.008237288
-0.03271702 , 0.0448947623, -9.782808   , -0.0006592661, 0.0009552917, -0.000835794839, 0.395240664 , 0.163947687 , 0.339827418 , -0.00405550748, -0.0008259812, -0.396284342, 1.81        , 3           , 12          , 0.04189536  , 0
-0.00160309009, 0.03237261  , -9.790307   , 0.001885601 , 0.0006909242, 0.00200099824, 0.394296885 , 0.164352164 , 0.339288116 , -0.00403666776, -0.000818991, -0.3962643  , 1.82        , 3           , 50          , 0           , 0
-0.0198485814, 0.0226568878, -9.789583   , 0.0002037491, -0.00185462041, 0.00227172882, 0.394296885 , 0.164352164 , 0.339288116 , -0.00403464865, -0.0008374453, -0.396241426, 1.83        , 3           , 11          , 0.008237268 , 0.008237288
-0.02993566 , 0.0440225527, -9.801323   , 0.00189142907, -0.0007169066, 2.10661674E-05, 0.395105839 , 0.164486989 , 0.3392207   , -0.004015735, -0.0008446135, -0.3962412  , 1.84        , 3           , 12          , 0.04189536  , 0
0.01296702  , 0.0358389281, -9.798317   , 0.000473555527, 0.0003998031, -0.00026632 , 0.395308077 , 0.163745448 , 0.339962244 , -0.004010997, -0.000840626133, -0.3962438  , 1.85        , 3           , 50          , 0           , 0
-0.007658961, 0.0273943767, -9.765062   , -0.00151179638, 0.00207582419, -0.000272934936, 0.394633949 , 0.164149925 , 0.339490354 , -0.00402611261, -0.000819879, -0.396246672, 1.86        , 3           , 11          , 0.008237268 , 0.008237288
-0.0115107466, 0.0445844568, -9.764569   , -0.0009269371, -0.001862265, 0.000571236131, 0.394633949 , 0.164149925 , 0.339490354 , -0.00403538626, -0.0008384785, -0.39624095 , 1.87        , 3           , 12          , 0.04189536  , 0
-0.00654111058, 0.06720679  , -9.799691   , 0.0004873324, -0.00241584866, -0.0005531969, 0.394971    , 0.164149925 , 0.3391533   , -0.00403050845, -0.000862659, -0.396246433, 1.88        , 3           , 50          , 0           , 0
0.00595254637, 0.0521790348, -9.80237    , -0.00260976772, -0.00440781424, -0.0008532582, 0.395308077 , 0.1640151   , 0.339894831 , -0.00405659853, -0.00090677134, -0.396254778, 1.89        , 3           , 11          , 0.008237268 , 0.008237288
0.009196945 , 0.0250492953, -9.797034   , -0.00181038422, -0.0018499312, 0.0005673859, 0.394633949 , 0.163880274 , 0.339355528 , -0.00412240857, -0.00090143 , -0.396248817, 1.9         , 3           , 12          , 0.0426722541, 0
-0.0118991425, 0.01079347  , -9.778272   , 0.00100101181, 0.0007032525, 1.93856249E-05, 0.394633949 , 0.163880274 , 0.339355528 , -0.004112398, -0.0008943967, -0.396248817, 1.91        , 3           , 50          , 0           , 0
-0.00418906 , 0.0102670705, -9.782735   , -0.001548942, 0.00209388323, -0.00196805946, 0.3948362   , 0.164149925 , 0.339355528 , -0.00412787 , -0.000873539, -0.3962686  , 1.92        , 3           , 11          , 0.008180957 , 0.008180979
-0.00457195751, 0.0165779218, -9.779547   , -0.00181735412, -0.000442105782, 0.000569555559, 0.395308077 , 0.163880274 , 0.340029657 , -0.004146048, -0.0008779365, -0.396262884, 1.93        , 3           , 12          , 0.0426722541, 0
-0.007893046, 0.0382893123, -9.783551   , 0.0004558372, -0.00324247754, 0.000293214136, 0.394499123 , 0.1640151   , 0.339557767 , -0.004141493, -0.000910348841, -0.396259785, 1.94        , 3           , 50          , 0           , 0
-0.009186   , 0.0410363525, -9.790781   , 0.002413146 , 0.0007128024, 2.59702774E-05, 0.394499123 , 0.1640151   , 0.339557767 , -0.004117362, -0.0009032198, -0.396259546, 1.95        , 3           , 11          , 0.008180957 , 0.008180979
-0.0196150858, 0.03846834  , -9.795842   , -0.0007005936, 0.00181804644, -0.0025296174, 0.394768775 , 0.1640151   , 0.339355528 , -0.00412434526, -0.000885144, -0.396284819, 1.96        , 3           , 12          , 0.0426722541, 0
-0.009750703, 0.03336303  , -9.788105   , 0.000438130315, 0.0001362986, -0.0013968033, 0.395308077 , 0.1640151   , 0.340029657 , -0.00411995128, -0.0008838384, -0.3962989  , 1.97        , 3           , 50          , 0           , 0
-0.0103582954, 0.018067    , -9.799473   , -0.0009815521, 0.00181614328, 1.19028264E-05, 0.3949036   , 0.163880274 , 0.339557767 , -0.00412976649, -0.000865676557, -0.3962989  , 1.98        , 3           , 11          , 0.008180957 , 0.008180979
-0.001980165, 0.03645643  , -9.795716   , 0.0007270376, -0.0012696191, -0.00224526855, 0.3949036   , 0.163880274 , 0.339557767 , -0.00412247656, -0.000878465362, -0.396321058, 1.99        , 3           , 12          , 0.0426722541, 0
-0.00578651 , 0.05457601  , -9.803354   , 0.000261533947, -0.0007015012, 0.001425907 , 0.3949036   , 0.164419577 , 0.3392207   , -0.003982796, -0.000873342, -0.396307   , 2           , 3           , 50          , 0           , 0
-0.0109434882, 0.0455645956, -9.789419   , 0.000256536179, 0.000143190031, 1.45213562E-05, 0.395240664 , 0.163745448 , 0.340164483 , -0.003980231, -0.0008719096, -0.396307   , 2.01        , 3           , 11          , 0.0081166625, 0.00811667647
-0.00384387351, 0.0359887369, -9.784432   , -0.00170216651, -0.00353052467, 0.000282199122, 0.3944317   , 0.164149925 , 0.339827418 , -0.003997254, -0.000907203066, -0.3963039  , 2.02        , 3           , 12          , 0.043475464 , 0
-0.0164520442, 0.0321769938, -9.814375   , 0.001386985 , -0.0001307383, -0.0011107946, 0.3944317   , 0.164149925 , 0.339827418 , -0.00398337469, -0.000908554764, -0.3963151  , 2.03        , 3           , 50          , 0           , 0
-0.0005332297, 0.0351732038, -9.821474   , -2.236123E-05, -0.0007034183, -0.00111824716, 0.3948362   , 0.164082512 , 0.339557767 , -0.003983589, -0.000915633456, -0.396326065, 2.04        , 3           , 11          , 0.0081166625, 0.00811667647
-0.02321259 , 0.0443335027, -9.783191   , -0.00284860167, -0.000159383926, 0.000282138644, 0.3953755   , 0.164149925 , 0.3402319   , -0.00401207665, -0.0009172159, -0.3963232  , 2.05        , 3           , 12          , 0.043475464 , 0
-0.0213660263, 0.05192889  , -9.767325   , 0.002791986 , 0.00128663634, -0.00138457771, 0.394499123 , 0.163947687 , 0.339490354 , -0.003984144, -0.000904404849, -0.396337271, 2.06        , 3           , 50          , 0           , 0
0.0008587809, 0.0454505831, -9.796562   , -0.00142424786, -0.00268392125, -0.000280256849, 0.394499123 , 0.163947687 , 0.339490354 , -0.00399838435, -0.0009312553, -0.3963399  , 2.07        , 3           , 11          , 0.0081166625, 0.00811667647
-0.0266056955, 0.026781857 , -9.785097   , -0.0014336796, -0.00071296416, 0.0002878554, 0.394701362 , 0.164352164 , 0.339422941 , -0.00401272252, -0.000938373, -0.396337032, 2.08        , 3           , 12          , 0.043475464 , 0
-0.0281456318, 0.0105820633, -9.79286    , -0.000872266537, -0.0001460173, -0.000838792534, 0.3954429   , 0.1634758   , 0.34009707  , -0.00402143737, -0.0009398668, -0.396345377, 2.09        , 3           , 50          , 0           , 0
-0.01621785 , 0.0239602514, -9.78729    , -0.000808381534, -0.0010529476, 0.000289747666, 0.394768775 , 0.164149925 , 0.33962518  , -0.0039453567, -0.001039066, -0.396342516, 2.1         , 3           , 11          , 0.008040681 , 0.008040693
-0.00485501252, 0.0318966731, -9.771801   , 0.000317885133, -0.000482180621, -0.0008342664, 0.394768775 , 0.164149925 , 0.33962518  , -0.00394216925, -0.00104392064, -0.396350861, 2.11        , 3           , 12          , 0.04430324  , 0
-0.00689961528, 0.0512940362, -9.763149   , -0.00108383829, -0.002462683, 0.000286261085, 0.395240664 , 0.1640151   , 0.3391533   , -0.00395301124, -0.001068536, -0.396348   , 2.12        , 3           , 50          , 0           , 0
-0.023104202, 0.0573654845, -9.767768   , 3.0371737E-05, 0.0006421719, 1.37645984E-05, 0.3953755   , 0.163678035 , 0.34009707  , -0.00395270763, -0.00106211379, -0.396347761, 2.13        , 3           , 11          , 0.008040681 , 0.008040693
-0.019215757, 0.0393124148, -9.780017   , -0.00194448058, 6.566889E-05, -0.00112647156, 0.394229472 , 0.164149925 , 0.33962518  , -0.00397214 , -0.00106150191, -0.3963592  , 2.14        , 3           , 12          , 0.04430324  , 0
0.007220592 , 0.0485191   , -9.79198    , 0.00144636165, -0.000192974971, -0.000546027266, 0.394229472 , 0.164149925 , 0.33962518  , -0.003957671, -0.00106345315, -0.39636445 , 2.15        , 3           , 50          , 0           , 0
-0.0179302  , 0.06415894  , -9.793012   , -0.0008170719, 0.000636441342, -0.000272723439, 0.395105839 , 0.164217338 , 0.339557767 , -0.00396583835, -0.00105709955, -0.3963673  , 2.16        , 3           , 11          , 0.008040681 , 0.008040693
-0.0210559666, 0.0352929644, -9.785923   , -0.00165738247, -0.00077711395, -0.000278843916, 0.3953755   , 0.163947687 , 0.340366721 , -0.00398240937, -0.00106488168, -0.396369934, 2.17        , 3           , 12          , 0.04430324  , 0
-0.00516425446, 0.036928162 , -9.790767   , 0.00143865007, 0.00149641884, 0.000586726062, 0.394701362 , 0.163880274 , 0.33976     , -0.00396802928, -0.00104989437, -0.3963642  , 2.18        , 3           , 50          , 0           , 0
-0.0111405523, 0.0311217047, -9.787673   , 0.00173313345, -0.00103575946, -0.000263474649, 0.394701362 , 0.163880274 , 0.33976     , -0.003950695, -0.00106026232, -0.396366835, 2.19        , 3           , 11          , 0.008040681 , 0.008040693
-0.0223540571, 0.03357234  , -9.806279   , -0.002524977, 0.0003242867, 0.000283949834, 0.3949036   , 0.164217338 , 0.339557767 , -0.0039982656, -0.00108536216, -0.396363974, 2.2         , 3           , 12          , 0.0451539345, 0
-0.0274115242, 0.03312221  , -9.78914452 , 0.00113534532, 0.0023200647, -0.0022387295, 0.395510316 , 0.163678035 , 0.340029657 , -0.00398688763, -0.0010622507, -0.396386385, 2.21        , 3           , 50          , 0           , 0
-0.015184911, 0.0374433361, -9.775022   , 0.004815169 , 0.0009370751, 3.65205051E-05, 0.394633949 , 0.1640151   , 0.339422941 , -0.003938736, -0.00105287868, -0.396386147, 2.22        , 3           , 11          , 0.007956981 , 0.007956989
0.001973167 , 0.0407734439, -9.751825   , -0.000267772237, 0.0006211275, -0.001117768, 0.394633949 , 0.1640151   , 0.339422941 , -0.003941403, -0.00104671135, -0.396397352, 2.23        , 3           , 12          , 0.0451539345, 0
0.005275796 , 0.04173681  , -9.781177   , 0.000291505479, 0.00175120786, -0.00111339847, 0.3948362   , 0.164149925 , 0.339490354 , -0.003938476, -0.00102924323, -0.396408319, 2.24        , 3           , 50          , 0           , 0
-0.006813491, 0.0166226439, -9.784988   , -0.00224238727, 0.00032619742, 0.0005678043, 0.395308077 , 0.163947687 , 0.340029657 , -0.0039609056, -0.00102595892, -0.396402836, 2.25        , 3           , 11          , 0.007956981 , 0.007956989
-0.0118415616, 0.0206598323, -9.760602   , -0.00195487379, -0.000798155263, -0.000280226755, 0.3948362   , 0.163812861 , 0.33976     , -0.00398045173, -0.00103395153, -0.396405458, 2.26        , 3           , 12          , 0.0451539345, 0
-0.000356033444, 0.0331591778, -9.760463   , -0.00252037961, -0.000801978342, -0.00141301053, 0.3948362   , 0.163812861 , 0.33976     , -0.00400564075, -0.00104202772, -0.396419525, 2.27        , 3           , 50          , 0           , 0
-0.0179972742, 0.02400722  , -9.794987   , -0.001958151, -0.000235027517, -0.00112697133, 0.395038426 , 0.164352164 , 0.339490354 , -0.00402521 , -0.00104442309, -0.396430969, 2.28        , 3           , 11          , 0.007956981 , 0.007956989
-0.01704673 , 0.0293892287, -9.78863    , 0.000864307862, 0.000347207126, 0.0005822906, 0.395038426 , 0.163745448 , 0.3402319   , -0.004016574, -0.00104092772, -0.396425   , 2.29        , 3           , 12          , 0.0451539345, 0
-0.000245518982, 0.0363731757, -9.777173   , -0.003292148, -0.000534797553, -0.000569033553, 0.3949036   , 0.163947687 , 0.33962518  , -0.003931769, -0.0010596083, -0.396430969, 2.3         , 3           , 50          , 0           , 0
-0.00730467541, 0.05535518  , -9.76178    , 0.000364229752, 0.00258724857, -0.000264602655, 0.3949036   , 0.163947687 , 0.33962518  , -0.003928124, -0.0010337464, -0.3964336  , 2.31        , 3           , 11          , 0.007868528 , 0.007868538
0.00271149818, 0.0512655675, -9.787935   , -0.00131269859, -0.00108455948, -0.00112575793, 0.394971    , 0.164082512 , 0.339490354 , -0.003941239, -0.00104463613, -0.396445036, 2.32        , 3           , 12          , 0.04602598  , 0
-0.0005018953, 0.04992815  , -9.781638   , 0.00123504514, -0.00219362858, -0.000550566241, 0.395240664 , 0.164082512 , 0.340029657 , -0.00392888347, -0.001066594, -0.396450281, 2.33        , 3           , 50          , 0           , 0
-0.0254603755, 0.04348046  , -9.789991   , -0.000469926454, -0.00023413595, -0.00168558036, 0.394701362 , 0.164284751 , 0.339490354 , -0.003933564, -0.00106900162, -0.3964672  , 2.34        , 3           , 11          , 0.007868528 , 0.007868538
-0.00315051875, 0.02375469  , -9.771822   , -0.000758018, 0.00117178587, 0.000575572136, 0.394701362 , 0.164284751 , 0.339490354 , -0.00394115 , -0.0010572609, -0.3964615  , 2.35        , 3           , 12          , 0.04602598  , 0
0.00887909  , 0.0412325449, -9.777987   , 0.002074036 , -0.000216936052, 0.00199925923, 0.3948362   , 0.164082512 , 0.339422941 , -0.003920431, -0.001059352, -0.39644146 , 2.36        , 3           , 50          , 0           , 0
-0.0114448853, 0.04285242  , -9.78627    , 0.0017889099, 6.27129339E-05, -0.000261923415, 0.395240664 , 0.163812861 , 0.34009707  , -0.003902539, -0.00105873484, -0.396444082, 2.37        , 3           , 11          , 0.007868528 , 0.007868538
0.003957374 , 0.0453559235, -9.779363   , -0.0027309868, 0.000313719967, 0.0002825143, 0.394566536 , 0.163947687 , 0.33962518  , -0.00392985158, -0.00105558638, -0.396441221, 2.38        , 3           , 12          , 0.04602598  , 0
0.0146788443, 0.03261274  , -9.784306   , -0.0018914924, 0.00172727159, -0.00112405245, 0.394566536 , 0.163947687 , 0.33962518  , -0.00394875463, -0.00103835808, -0.396452665, 2.39        , 3           , 50          , 0           , 0
-0.00105505064, 0.0351225771, -9.804754   , -0.004421215, -0.00102974544, 0.000837834843, 0.3948362   , 0.164486989 , 0.3392207   , -0.00399774546, -0.000927264162, -0.396444082, 2.4         , 3           , 11          , 0.007776254 , 0.007776271
-0.0289387517, 0.024074316 , -9.776991   , -0.00104004226, 0.000400994846, -0.000839417044, 0.395173252 , 0.163745448 , 0.339962244 , -0.00400813762, -0.000923287764, -0.396452427, 2.41        , 3           , 12          , 0.04691791  , 0
-0.00329923723, 0.0391823   , -9.796619   , -0.00215408928, -0.00270385924, -0.000284383073, 0.394633949 , 0.164082512 , 0.339490354 , -0.00402967632, -0.0009503376, -0.3964553  , 2.42        , 3           , 50          , 0           , 0
0.00179967284, 0.05037843  , -9.789302   , 0.0009428477, -0.00071189407, -0.000266859279, 0.394633949 , 0.164082512 , 0.339490354 , -0.00402024575, -0.00095746736, -0.3964579  , 2.43        , 3           , 11          , 0.007776254 , 0.007776271
-0.0255367775, 0.04609665  , -9.762861   , 0.000939080841, -0.000148768653, -0.00196121633, 0.395105839 , 0.164419577 , 0.339490354 , -0.00401083566, -0.000959033554, -0.396477461, 2.44        , 3           , 12          , 0.04691791  , 0
0.00228931569, 0.0548664741, -9.783855   , 0.00348034385, 0.000149990141, -0.000536242558, 0.395308077 , 0.163947687 , 0.340029657 , -0.003976027, -0.0009575551, -0.3964827  , 2.45        , 3           , 50          , 0           , 0
-0.0128436051, 0.0361404046, -9.79806    , 0.000941453734, -0.000430328975, -0.000266425341, 0.394633949 , 0.1640151   , 0.339355528 , -0.00396661 , -0.000961868966, -0.396485329, 2.46        , 3           , 11          , 0.007776254 , 0.007776271
-0.0238831583, 0.0245229322, -9.79367352 , -0.000178658578, -0.00240892521, -0.0005572681, 0.394633949 , 0.1640151   , 0.339355528 , -0.003968391, -0.00098598 , -0.3964908  , 2.47        , 3           , 12          , 0.04691791  , 0
0.0225880835, 0.0442991778, -9.798207   , 0.0012246964, -0.000428415078, 0.00114757882, 0.3948362   , 0.164419577 , 0.3392207   , -0.00395615539, -0.0009902187, -0.396479368, 2.48        , 3           , 50          , 0           , 0
0.0187743083, 0.0374912769, -9.773406   , -0.00132648787, 0.00124378107, -0.0005568947, 0.3953755   , 0.163947687 , 0.340164483 , -0.003969415, -0.000977803, -0.3964851  , 2.49        , 3           , 11          , 0.007776254 , 0.007776271
-0.008024837, 0.03148727  , -9.773184   , 0.00234128372, 0.00162273436, 0.0008736527, 0.394566536 , 0.163947687 , 0.339557767 , -0.00395135535, -0.000840945053, -0.396476269, 2.5         , 3           , 12          , 0.0478283279, 0
0.00121807866, 0.04001331  , -9.791158   , 0.000367662084, 0.000764665252, -0.0005495548, 0.394566536 , 0.163947687 , 0.339557767 , -0.003947674, -0.0008333202, -0.396481752, 2.51        , 3           , 50          , 0           , 0
0.0250372887, 0.0253038071, -9.793748   , -0.00131246948, -0.00206244318, 0.0002858165, 0.394768775 , 0.164082512 , 0.339085877 , -0.00396080129, -0.000853933161, -0.3964789  , 2.52        , 3           , 11          , 0.00768204965, 0.007682073
-0.0129676992, 0.0271128528, -9.796742   , -0.001314768, -0.00149931049, 0.00113429688, 0.395173252 , 0.163880274 , 0.339962244 , -0.00397395855, -0.000868881, -0.396467447, 2.53        , 3           , 12          , 0.0478283279, 0
-0.0121511323, 0.0252446979, -9.780925   , 0.00177085376, 0.00274517434, 0.0008727546, 0.394229472 , 0.163812861 , 0.339490354 , -0.00395625737, -0.0008413949, -0.396458864, 2.54        , 3           , 50          , 0           , 0
-0.00921186153, 0.0311956946, -9.8161335  , -0.000203835327, 0.00216867262, 1.50557617E-05, 0.394229472 , 0.163812861 , 0.339490354 , -0.00395829557, -0.000819707755, -0.396458864, 2.55        , 3           , 11          , 0.00768204965, 0.007682073
-0.006893105, 0.0423723049, -9.793469   , -0.000479040144, 0.000477366266, -0.001966627, 0.3949036   , 0.164082512 , 0.3392207   , -0.00396307 , -0.000815012, -0.3964784  , 2.56        , 3           , 12          , 0.0478283279, 0
-0.0123419454, 0.0116995741, -9.777819   , 0.00207344955, -0.00119482353, 0.00199814653, 0.3954429   , 0.163678035 , 0.339962244 , -0.003942352, -0.0008268811, -0.3964584  , 2.57        , 3           , 50          , 0           , 0
-0.0302314758, 0.0245897882, -9.791461   , 0.00235457136, -0.00119291979, -0.0002608363, 0.394633949 , 0.164082512 , 0.339557767 , -0.0039188033, -0.0008388204, -0.396461   , 2.58        , 3           , 11          , 0.00768204965, 0.007682073
-0.0144543089, 0.0577489   , -9.777644   , 0.000647790264, 0.001329708 , 0.000300242216, 0.394633949 , 0.164082512 , 0.339557767 , -0.00391232828, -0.0008255118, -0.396458149, 2.59        , 3           , 12          , 0.0478283279, 0
-0.0284477342, 0.05794845  , -9.788146   , 0.00321322656, 0.00302240229, 0.0003145986, 0.394768775 , 0.164352164 , 0.339422941 , -0.00382507173, -0.0008192155, -0.3964553  , 2.6         , 3           , 50          , 0           , 0
-0.009381226, 0.03418291  , -9.765048   , 0.000408311345, -0.000938609359, 1.28166866E-05, 0.3953755   , 0.163880274 , 0.339962244 , -0.00382098835, -0.000828600954, -0.39645505 , 2.61        , 3           , 11          , 0.007585613 , 0.00758563261
-0.016941091, 0.0437580347, -9.768229   , 0.00208696024, 0.00245163543, 0.001438613 , 0.3949036   , 0.164082512 , 0.339490354 , -0.00380013045, -0.000804029871, -0.396440744, 2.62        , 3           , 12          , 0.0487559251, 0
-0.0122955926, 0.04647831  , -9.78807    , 0.00123772165, 0.00244589616, -0.00195578765, 0.3949036   , 0.164082512 , 0.339490354 , -0.00378773781, -0.000779645343, -0.3964603  , 2.63        , 3           , 50          , 0           , 0
0.0165996123, 0.0371438041, -9.796475   , 0.000397159281, 0.00131391129, 1.62881624E-05, 0.3948362   , 0.164419577 , 0.3391533   , -0.00378376641, -0.0007665056, -0.3964603  , 2.64        , 3           , 11          , 0.007585613 , 0.00758563261
0.0100038527, 0.02272696  , -9.780314   , -0.00269289641, -0.001804308, 0.00225732848, 0.395173252 , 0.163880274 , 0.3402319   , -0.0038107126, -0.000784462842, -0.396437645, 2.65        , 3           , 12          , 0.0487559251, 0
0.008719543 , 0.0321762636, -9.768082   , -0.00297474512, -0.002087787, 0.000842890237, 0.394499123 , 0.1640151   , 0.339355528 , -0.00384046719, -0.0008053083, -0.396429062, 2.66        , 3           , 50          , 0           , 0
-0.002285868, 0.01880105  , -9.777713   , -0.0001577732, -0.0006608634, 0.0002931542, 0.394499123 , 0.1640151   , 0.339355528 , -0.00384204718, -0.000811905542, -0.396425962, 2.67        , 3           , 11          , 0.007585613 , 0.00758563261
-0.009343683, 0.03198158  , -9.781328   , -0.000172365835, 0.00215478451, -0.000832656166, 0.3948362   , 0.1640151   , 0.339490354 , -0.003843764, -0.000790389837, -0.396434546, 2.68        , 3           , 12          , 0.0487559251, 0
-0.0168776512, 0.04380944  , -9.783596   , -0.000451915839, 0.00130817294, -0.00309557468, 0.394971    , 0.163678035 , 0.33976     , -0.00384825887, -0.0007774272, -0.39646554 , 2.69        , 3           , 50          , 0           , 0
-0.00313258357, 0.05538595  , -9.785252   , 0.000413004775, 0.00245195022, -0.000264489528, 0.394768775 , 0.164082512 , 0.339355528 , -0.00380552886, -0.0007318449, -0.3964684  , 2.7         , 3           , 11          , 0.00748843653, 0.00748845236
-0.0184494052, 0.0249057673, -9.792274   , 0.0009876164, 0.0004848146, -0.0002648932, 0.394768775 , 0.164082512 , 0.339355528 , -0.00379565079, -0.0007270068, -0.3964708  , 2.71        , 3           , 12          , 0.04969948  , 0
-0.0238027573, 0.03753224  , -9.771472   , -0.00182549981, -0.00178680569, -0.000281534, 0.394701362 , 0.164419577 , 0.339288116 , -0.00381390378, -0.0007448855, -0.396473646, 2.72        , 3           , 50          , 0           , 0
0.0105367405, 0.0276964046, -9.783905   , -0.0006866127, -0.00346855237, 0.00113381725, 0.395173252 , 0.163947687 , 0.339827418 , -0.00382077834, -0.0007795273, -0.3964622  , 2.73        , 3           , 11          , 0.00748843653, 0.00748845236
0.0151918633, 0.0384587869, -9.78021    , 0.000414235634, 0.0021703844, -0.000547461, 0.394701362 , 0.163880274 , 0.339422941 , -0.00381663186, -0.000757844537, -0.3964677  , 2.74        , 3           , 12          , 0.04969948  , 0
0.0131866066, 0.0280566961, -9.766256   , 0.00183645391, 0.000208980171, 2.11609E-05 , 0.394701362 , 0.163880274 , 0.339422941 , -0.00379826757, -0.00075575395, -0.396467447, 2.75        , 3           , 50          , 0           , 0
-0.00469588861, 0.03782817  , -9.791664   , 0.00127094786, 0.000205156975, -0.00111162267, 0.395038426 , 0.164217338 , 0.3392207   , -0.0037855492, -0.000753744564, -0.396478653, 2.76        , 3           , 11          , 0.00748843653, 0.00748845236
-0.0109945517, 0.05221848  , -9.755493   , 0.00323202368, 0.00359731168, 0.0003154903, 0.395105839 , 0.163947687 , 0.339827418 , -0.00375323161, -0.0007177599, -0.396475554, 2.77        , 3           , 12          , 0.04969948  , 0
0.00671588862, 0.0489286967, -9.77797    , 0.000691827852, 0.00301698642, -0.00167499227, 0.394566536 , 0.163880274 , 0.339422941 , -0.00374630117, -0.000687653, -0.396492481, 2.78        , 3           , 50          , 0           , 0
-0.0124368081, 0.0369905271, -9.784043   , 0.00324096577, 0.00162635243, -0.00110023445, 0.394566536 , 0.163880274 , 0.339422941 , -0.00371388416, -0.0006714306, -0.3965037  , 2.79        , 3           , 11          , 0.00748843653, 0.00748845236
-0.0118209068, 0.01576672  , -9.781415   , 0.00293857581, 0.001930033 , -0.0008184648, 0.3949036   , 0.1645544   , 0.338883638 , -0.00371921 , -0.0006076539, -0.3965118  , 2.8         , 3           , 12          , 0.05065784  , 0
-0.024755599, 0.0290239118, -9.787334   , -0.00129192439, 0.0007751244, -0.0002748795, 0.395038426 , 0.164082512 , 0.339827418 , -0.003732128, -0.0005999131, -0.396514654, 2.81        , 3           , 50          , 0           , 0
-0.00609955471, 0.0320048481, -9.799382   , 0.00352310832, -0.00200805767, -0.0005393685, 0.394633949 , 0.164284751 , 0.339355528 , -0.003696894, -0.000620013569, -0.3965199  , 2.82        , 3           , 11          , 0.00739254663, 0.00739256945
-0.03223651 , 0.0119561367, -9.784749   , 0.0015293929, 0.00135735364, -0.0005433798, 0.394633949 , 0.164284751 , 0.339355528 , -0.00368159614, -0.0006064601, -0.396525383, 2.83        , 3           , 12          , 0.05065784  , 0
-0.0129947038, 0.0284300186, -9.785891   , -0.000732973043, 0.00190520321, -0.0008355849, 0.394768775 , 0.164149925 , 0.3392207   , -0.00368892075, -0.000587439, -0.396533728, 2.84        , 3           , 50          , 0           , 0
-0.0002608737, 0.0332362764, -9.783513   , -0.00213256129, -0.000638432452, -0.000846075, 0.395105839 , 0.163812861 , 0.3396926   , -0.00371024129, -0.000593854638, -0.3965423  , 2.85        , 3           , 11          , 0.00739254663, 0.00739256945
-0.00163179927, 0.0211905837, -9.81928    , -0.002128468, -0.0012015563, 0.00141335686, 0.394566536 , 0.164217338 , 0.339490354 , -0.00373153458, -0.0006058174, -0.396528   , 2.86        , 3           , 12          , 0.05065784  , 0
-0.0129641984, 0.0293474384, -9.790405   , 0.00181698042, 0.000514572952, 0.00115186  , 0.394566536 , 0.164217338 , 0.339490354 , -0.003713372, -0.0006006289, -0.396516562, 2.87        , 3           , 50          , 0           , 0
-0.0052403966, 0.0297248568, -9.795318   , 0.00294693979, 0.000240642228, -0.0008210683, 0.394971    , 0.164284751 , 0.3392207   , -0.00368389743, -0.0005982528, -0.3965249  , 2.88        , 3           , 11          , 0.00739254663, 0.00739256945
0.0181632154, 0.019960653 , -9.791111   , 0.001252705 , 0.000229183934, -0.000263895, 0.395173252 , 0.164149925 , 0.339827418 , -0.003671369, -0.0005959707, -0.396527529, 2.89        , 3           , 12          , 0.05065784  , 0
-0.00338021945, 0.0355458781, -9.7885     , 0.002151117 , 0.000807693636, -0.000259093678, 0.394499123 , 0.163947687 , 0.339422941 , -0.003546441, -0.000569372962, -0.396530151, 2.9         , 3           , 50          , 0           , 0
0.008006679 , 0.0381455943, -9.796085   , 0.001574132 , 0.00305638975, -0.00195348123, 0.394499123 , 0.163947687 , 0.339422941 , -0.00353068882, -0.0005388784, -0.39654994 , 2.91        , 3           , 11          , 0.007297642 , 0.00729766442
-0.0212897882, 0.0190348867, -9.781021   , 0.001872219 , -3.89148481E-05, -0.0013918624, 0.394566536 , 0.164352164 , 0.338951051 , -0.003511959, -0.0005393165, -0.396563768, 2.92        , 3           , 12          , 0.0516299158, 0
-0.00506497361, 0.047721006 , -9.780326   , 0.004129335 , 0.0005394976, -0.000532846549, 0.395173252 , 0.163812861 , 0.33976     , -0.00347066321, -0.0005339402, -0.396569252, 2.93        , 3           , 50          , 0           , 0
0.00456663128, 0.0552971   , -9.78564548 , 0.000159536212, 0.00360997161, -0.00139412284, 0.394499123 , 0.163880274 , 0.3392207   , -0.00346906018, -0.0004978891, -0.396583319, 2.94        , 3           , 11          , 0.007297642 , 0.00729766442
-0.009435208, 0.0292293187, -9.767781   , -0.00235639745, -0.00147538562, -1.09887333E-06, 0.394499123 , 0.163880274 , 0.3392207   , -0.00349262427, -0.0005126429, -0.396583319, 2.95        , 3           , 12          , 0.0516299158, 0
-0.0187912546, 0.0312498715, -9.799031   , -0.0032043308, -0.00148111873, -0.00113519945, 0.394701362 , 0.164284751 , 0.339018464 , -0.003524662, -0.00052749383, -0.396594524, 2.96        , 3           , 50          , 0           , 0
-0.000195696019, 0.03819895  , -9.783492   , -0.00462884735, 0.00104341784, -0.000855341146, 0.395308077 , 0.164149925 , 0.339557767 , -0.003570946, -0.000517090142, -0.3966031  , 2.97        , 3           , 11          , 0.007297642 , 0.00729766442
-0.009457598, 0.0292111747, -9.762356   , -0.00011050771, 0.001073975 , -0.00168188254, 0.394701362 , 0.164149925 , 0.339288116 , -0.00357204233, -0.0005064105, -0.396620035, 2.98        , 3           , 12          , 0.0516299158, 0
0.01114269  , 0.0407593548, -9.779327   , -0.0006785645, 0.00191485509, 1.20099576E-05, 0.394701362 , 0.164149925 , 0.339288116 , -0.00357882772, -0.000487261656, -0.396620035, 2.99        , 3           , 50          , 0           , 0
0.009219432 , 0.02774561  , -9.793859   , 0.00187709648, -0.0005948262, 0.000585055852, 0.3949036   , 0.164149925 , 0.3391533   , -0.003558185, -0.000478877831, -0.396614075, 3           , 3           , 11          , 0.007202161 , 0.00720217871
0.01757026  , 0.0394176655, -9.805046   , 0.001028585 , -0.000318990176, 0.0008640765, 0.395173252 , 0.163947687 , 0.33976     , -0.00354790315, -0.000482037, -0.396605253, 3.01        , 3           , 12          , 0.052614715 , 0
-0.0113830483, 0.0157493055, -9.777795   , 0.0007478042, -0.0008840359, -0.00111587066, 0.394566536 , 0.164149925 , 0.339557767 , -0.00354041974, -0.000490916835, -0.396616459, 3.02        , 3           , 50          , 0           , 0
0.00741496868, 0.0317894369, -9.782557   , 0.000751571031, -0.00144716119, 0.0005784863, 0.394566536 , 0.164149925 , 0.339557767 , -0.00353290676, -0.0005053679, -0.396610737, 3.03        , 3           , 11          , 0.007202161 , 0.00720217871
0.0249143057, 0.055481825 , -9.777353   , -0.000107840322, 0.000799624657, -0.00111721782, 0.394768775 , 0.164486989 , 0.339288116 , -0.00353397941, -0.0004974111, -0.396621943, 3.04        , 3           , 12          , 0.052614715 , 0
-0.0183541477, 0.0276610516, -9.806726   , -0.00263148523, -0.002596339, 0.00140855985, 0.3953755   , 0.163678035 , 0.339827418 , -0.00356030138, -0.0005233243, -0.396607637, 3.05        , 3           , 50          , 0           , 0
-0.0155552728, 0.0379617848, -9.793553   , -0.0043259575, -0.00288936985, -0.0008600754, 0.394566536 , 0.163947687 , 0.339288116 , -0.00360355643, -0.0005522486, -0.39661622 , 3.06        , 3           , 11          , 0.007202161 , 0.00720217871
-0.0204716176, 0.04432126  , -9.789045   , -0.000955209543, 0.00107546616, 0.001139565 , 0.394566536 , 0.163947687 , 0.339288116 , -0.00361311459, -0.000541452959, -0.396604776, 3.07        , 3           , 12          , 0.052614715 , 0
0.00412687659, 0.020125445 , -9.791218   , 0.0007368152, 0.00136848586, -0.0008298616, 0.3949036   , 0.164419577 , 0.338951051 , -0.00360574224, -0.00052779814, -0.396613121, 3.08        , 3           , 50          , 0           , 0
0.00212858943, 0.0391139761, -9.795221   , 0.00159369071, -0.0005967408, -0.00111148588, 0.395173252 , 0.163812861 , 0.33976     , -0.00358979939, -0.000533805462, -0.396624327, 3.09        , 3           , 11          , 0.007202161 , 0.00720217871
-0.03362324 , 0.0440121666, -9.785531   , -0.00236213976, 0.0005192396, -0.000280517328, 0.394566536 , 0.163812861 , 0.339355528 , -0.00360680255, -0.000494877866, -0.3966272  , 3.1         , 3           , 12          , 0.0536112934, 0
-0.04086718 , 0.0525783747, -9.758432   , -9.977422E-05, -2.86101713E-05, 1.16875162E-05, 0.394566536 , 0.163812861 , 0.339355528 , -0.00360780046, -0.000495163549, -0.396626949, 3.11        , 3           , 50          , 0           , 0
-0.013887804, 0.03782411  , -9.758739   , -0.00122874009, -0.0003178182, -0.001124164, 0.394701362 , 0.164149925 , 0.338816226 , -0.00362008228, -0.0004983825, -0.396638155, 3.12        , 3           , 11          , 0.007108719 , 0.007108748
-0.0141093219, 0.0180052053, -9.768314   , 0.002156037 , 0.0005497959, -0.00138959626, 0.395173252 , 0.163812861 , 0.33976     , -0.00359851518, -0.0004929347, -0.396652222, 3.13        , 3           , 12          , 0.0536112934, 0
-0.0243120436, 0.03168921  , -9.776472   , 0.00017830744, 0.0008179943, -0.000268231, 0.3943643   , 0.163947687 , 0.339288116 , -0.00359673053, -0.0004847645, -0.396654844, 3.14        , 3           , 50          , 0           , 0
-0.0217871927, 0.04928172  , -9.783611   , 0.00187409914, 0.000547888339, -0.0005433008, 0.3943643   , 0.163947687 , 0.339288116 , -0.0035779872, -0.000479305134, -0.396660328, 3.15        , 3           , 11          , 0.007108719 , 0.007108748
-0.0110829715, 0.0409880728, -9.770004   , -0.0003907282, 0.00165887  , -0.000269563054, 0.3948362   , 0.164352164 , 0.339085877 , -0.00358189316, -0.000462726282, -0.3966632  , 3.16        , 3           , 12          , 0.0536112934, 0
0.0007803151, 0.0427088924, -9.786179   , 0.00102756009, 0.0002605901, -0.00167783548, 0.3954429   , 0.163880274 , 0.33976     , -0.00357161 , -0.000460180367, -0.396679878, 3.17        , 3           , 50          , 0           , 0
-0.00297385454, 0.0332712   , -9.784437   , 0.00270948652, 0.00308770686, 0.0005947051, 0.394499123 , 0.164149925 , 0.3392207   , -0.00354451779, -0.000429282285, -0.396674156, 3.18        , 3           , 11          , 0.007108719 , 0.007108748
-0.002068744, 0.0377237   , -9.769948   , 0.00159806421, -0.0005802781, 0.0008663337, 0.394499123 , 0.164149925 , 0.3392207   , -0.00352854119, -0.000435054448, -0.396665335, 3.19        , 3           , 12          , 0.0536112934, 0
-0.002908351, 0.0386804827, -9.783059   , 0.0010133977, -0.000332608353, -0.0008311798, 0.3948362   , 0.164486989 , 0.338951051 , -0.00355531042, -0.0005020908, -0.396673679, 3.2         , 3           , 50          , 0           , 0
-0.02513607 , 0.03355132  , -9.790482   , 0.000452474342, -0.000899553, 0.00114308065, 0.395173252 , 0.163678035 , 0.33962518  , -0.00355079141, -0.0005110456, -0.396662235, 3.21        , 3           , 11          , 0.00701672724, 0.00701675238
-0.0114322482, 0.0397382081, -9.799391   , 0.00297849253, 0.00221485063, 0.000312093878, 0.3943643   , 0.164284751 , 0.3392207   , -0.00352100842, -0.0004888865, -0.396659136, 3.22        , 3           , 12          , 0.05461877  , 0
0.009345066 , 0.0363280736, -9.796986   , 0.00383774  , -3.193668E-05, 0.00172526052, 0.3943643   , 0.164284751 , 0.3392207   , -0.00348263932, -0.0004891453, -0.39664197 , 3.23        , 3           , 50          , 0           , 0
-0.0122842006, 0.0518437438, -9.773584   , 0.00328134024, -0.00200671842, -0.0005407104, 0.3948362   , 0.164486989 , 0.338883638 , -0.003449823, -0.00050923106, -0.3966472  , 3.24        , 3           , 11          , 0.00701672724, 0.00701675238
-0.003503958, 0.06215249  , -9.783418   , 0.00100724341, 0.001075221 , 0.000583677145, 0.395240664 , 0.163880274 , 0.33962518  , -0.00343975355, -0.0004984588, -0.3966415  , 3.25        , 3           , 12          , 0.05461877  , 0
-0.0146177877, 0.043333225 , -9.784032   , 0.00383462617, 0.000531192 , 0.00116105354, 0.394499123 , 0.1640151   , 0.339355528 , -0.00340141263, -0.0004931072, -0.3966298  , 3.26        , 3           , 50          , 0           , 0
0.004449738 , 0.0133196013, -9.7813     , 0.00271616  , -0.00201053987, -0.00110841938, 0.394499123 , 0.1640151   , 0.339355528 , -0.003374246, -0.000513250066, -0.396640778, 3.27        , 3           , 11          , 0.00701672724, 0.00701675238
0.002786721 , 0.0246196371, -9.781265   , 0.000170462547, -0.00118303276, -0.0005538949, 0.394768775 , 0.164082512 , 0.339018464 , -0.00337253814, -0.000525099, -0.396646261, 3.28        , 3           , 12          , 0.05461877  , 0
0.008564836 , 0.0195531026, -9.770847   , 0.00156250224, 0.00304999715, 0.0008718859, 0.395240664 , 0.164082512 , 0.339827418 , -0.00335691753, -0.0004945699, -0.396637678, 3.29        , 3           , 50          , 0           , 0
-0.008297779, 0.0427970737, -9.780824   , 0.000445961516, -0.000608948932, -0.0002691437, 0.394566536 , 0.163812861 , 0.3392207   , -0.00336186285, -0.000480914081, -0.396640539, 3.3         , 3           , 11          , 0.006927092 , 0.00692711957
-0.01077569 , 0.0332768969, -9.759187   , -0.00152224721, -0.00259327912, -0.00197662483, 0.394566536 , 0.163812861 , 0.3392207   , -0.00337707577, -0.0005069133, -0.3966601  , 3.31        , 3           , 12          , 0.0556363054, 0
0.00336599443, 0.03944638  , -9.764476   , 0.000435714057, 0.00136200432, -0.00111371861, 0.394768775 , 0.164352164 , 0.339018464 , -0.003372713, -0.000493330939, -0.3966713  , 3.32        , 3           , 50          , 0           , 0
-0.0215041675, 0.0415509   , -9.766917   , -0.002680324, 0.00303038047, -0.00282082637, 0.395173252 , 0.163947687 , 0.339557767 , -0.00339950249, -0.00046312288, -0.396699667, 3.33        , 3           , 11          , 0.006927092 , 0.00692711957
-0.0269823335, 0.0339904726, -9.78055    , -0.00238929573, 0.0016244729, 3.6956917E-06, 0.394768775 , 0.164149925 , 0.3392207   , -0.0034233958, -0.000446878141, -0.396699667, 3.34        , 3           , 12          , 0.0556363054, 0
0.0131695811, 0.0476081744, -9.810018   , -0.001529469, -0.0009038831, 3.74109345E-06, 0.394768775 , 0.164149925 , 0.3392207   , -0.00343869021, -0.000455916772, -0.396699667, 3.35        , 3           , 50          , 0           , 0
-0.0011006128, 0.0391028076, -9.780784   , 0.00213789754, -3.4358236E-05, 2.21630326E-05, 0.394701362 , 0.164284751 , 0.339018464 , -0.00341731147, -0.000456259673, -0.3966992  , 3.36        , 3           , 11          , 0.006927092 , 0.00692711957
-0.0267436355, 0.021760229 , -9.767492   , -9.732955E-05, -0.00483624171, 0.000851863238, 0.395038426 , 0.1640151   , 0.33962518  , -0.003418289, -0.000504592666, -0.3966906  , 3.37        , 3           , 12          , 0.0556363054, 0
-0.0276410617, 0.0150822168, -9.79103    , 0.002408683 , 0.00222007022, -0.000820660731, 0.394499123 , 0.1640151   , 0.3391533   , -0.00339419767, -0.000482420146, -0.396698952, 3.38        , 3           , 50          , 0           , 0
-0.00348631549, 0.0256402083, -9.794417   , -0.0001157779, -0.00117589743, 0.000292429322, 0.394499123 , 0.1640151   , 0.3391533   , -0.0033953574, -0.000494169, -0.3966961  , 3.39        , 3           , 11          , 0.006927092 , 0.00692711957
-0.00434088334, 0.03417282  , -9.779472   , 0.00270260219, 0.001912833 , -0.000254771527, 0.394566536 , 0.164284751 , 0.338883638 , -0.00334629952, -0.000537179643, -0.396698475, 3.4         , 3           , 12          , 0.05666315  , 0
-0.00173105113, 0.0282517672, -9.772245   , 0.00184465887, 0.004159626 , 0.000592361437, 0.3953755   , 0.163947687 , 0.33962518  , -0.003327856, -0.000495563843, -0.396692753, 3.41        , 3           , 50          , 0           , 0
-0.0154241389, 0.0438705981, -9.806636   , 0.000730537635, 0.0007731992, -0.00139587582, 0.394566536 , 0.164082512 , 0.3391533   , -0.00332054379, -0.000487878337, -0.39670682 , 3.42        , 3           , 11          , 0.00683994172, 0.006839949
-0.009338936, 0.0257365238, -9.802597   , -0.00011625341, 0.000767471734, -0.0005522141, 0.394566536 , 0.164082512 , 0.3391533   , -0.00332170376, -0.000480222021, -0.3967123  , 3.43        , 3           , 12          , 0.05666315  , 0
0.00419015251, 0.03267452  , -9.766306   , 0.00298625976, 0.00163317681, -0.000536426, 0.394633949 , 0.164284751 , 0.338951051 , -0.00329183834, -0.000463908043, -0.396717548, 3.44        , 3           , 50          , 0           , 0
0.03333221  , 0.0471966155, -9.758339   , 0.00242107967, 0.00162935548, -0.00110413483, 0.3953755   , 0.163812861 , 0.339557767 , -0.00326762255, -0.000447650818, -0.396728754, 3.45        , 3           , 11          , 0.00683994172, 0.006839949
0.004523557 , 0.0249845162, -9.761815   , -0.0009545173, -0.0009276455, 0.000571381242, 0.394566536 , 0.163880274 , 0.339085877 , -0.0032771707, -0.00045690863, -0.396723032, 3.46        , 3           , 12          , 0.05666315  , 0
-0.009698134, 0.0338519774, -9.799402   , -0.00151765055, -0.00121302891, 0.00113338837, 0.394566536 , 0.163880274 , 0.339085877 , -0.00329235219, -0.000469001534, -0.3967116  , 3.47        , 3           , 50          , 0           , 0
-0.0193311758, 0.0293991733, -9.783675   , -0.000690049259, 0.002734611 , 0.000860876753, 0.394633949 , 0.164419577 , 0.338883638 , -0.00329925655, -0.000441627169, -0.396703   , 3.48        , 3           , 11          , 0.00683994172, 0.006839949
-0.000804167241, 0.0242412537, -9.790335   , 0.001152532 , 0.0013392   , 0.0005847297, 0.395308077 , 0.163947687 , 0.33962518  , -0.00328773377, -0.000428215921, -0.396697283, 3.49        , 3           , 12          , 0.05666315  , 0
0.0066804383, 0.04889997  , -9.769384   , 0.0001688939, 0.0011937113, 0.000156107213, 0.394633949 , 0.163947687 , 0.3392207   , -0.003275826, -0.000411675865, -0.3966956  , 3.5         , 3           , 50          , 0           , 0
0.0180374533, 0.0590634272, -9.7453     , 0.00116157  , 0.000355700962, 0.000159414718, 0.394633949 , 0.163947687 , 0.3392207   , -0.00326421135, -0.0004081136, -0.396694183, 3.51        , 3           , 11          , 0.006753948 , 0.00675396342
-0.00291417539, 0.04090751  , -9.774463   , 0.001733438 , -0.0011890902, -0.0009704879, 0.394566536 , 0.164352164 , 0.338951051 , -0.00324687269, -0.0004200359, -0.39670372 , 3.52        , 3           , 12          , 0.05769859  , 0
-0.00232914928, 0.043241106 , -9.799307   , -0.000951010967, -0.0009256699, -0.0009825648, 0.395308077 , 0.163880274 , 0.33962518  , -0.00325637846, -0.0004293245, -0.3967135  , 3.53        , 3           , 50          , 0           , 0
-0.00654919073, 0.0413860679, -9.769968   , -0.000679943769, 0.00146954576, -0.0001299471, 0.394768775 , 0.163880274 , 0.339288116 , -0.00326317712, -0.0004146334, -0.396714926, 3.54        , 3           , 11          , 0.006753948 , 0.00675396342
-0.006583531, 0.03778744  , -9.773147   , 0.0007289129, 0.00204222323, -0.000970107, 0.394768775 , 0.163880274 , 0.339288116 , -0.00325588463, -0.000394242874, -0.3967247  , 3.55        , 3           , 12          , 0.05769859  , 0
-0.0120810168, 0.0293186642, -9.784976   , 0.00200672215, 0.0006429922, -0.00110761926, 0.3949036   , 0.164082512 , 0.338883638 , -0.00323581253, -0.000387849024, -0.3967359  , 3.56        , 3           , 50          , 0           , 0
-0.0004549902, 0.0228129327, -9.76954651 , 0.00214895885, 0.0005031663, -0.0005421029, 0.395308077 , 0.163880274 , 0.33962518  , -0.003214321, -0.0003828349, -0.396741152, 3.57        , 3           , 11          , 0.006753948 , 0.00675396342
-0.0228654668, 0.03754731  , -9.779148   , 3.77648576E-05, -0.0007781978, 0.0007174861, 0.394701362 , 0.164217338 , 0.339085877 , -0.003213946, -0.000390593836, -0.396734   , 3.58        , 3           , 12          , 0.05769859  , 0
-0.0138164759, 0.04100636  , -9.765957   , -0.0001083276, 0.00020632516, 0.0007183464, 0.394701362 , 0.164217338 , 0.339085877 , -0.0032150324, -0.000388507528, -0.396726847, 3.59        , 3           , 50          , 0           , 0
0.00171639677, 0.04361569  , -9.790688   , -0.0005597125, 0.00103226874, -0.000836318533, 0.394701362 , 0.164352164 , 0.339018464 , -0.003274774, -0.000416178838, -0.3967352  , 3.6         , 3           , 11          , 0.00667028455, 0.006670309
-0.00626590662, 0.0238357466, -9.784954   , -0.0021091227, 0.0001770673, -0.00126866961, 0.395105839 , 0.163880274 , 0.33962518  , -0.00329585955, -0.000414449722, -0.396747828, 3.61        , 3           , 12          , 0.0587419458, 0
-0.0071474826, 0.0336855277, -9.759156   , -0.00112842175, 0.00187314546, -0.00027257562, 0.394566536 , 0.164284751 , 0.339355528 , -0.00330714253, -0.0003957274, -0.3967507  , 3.62        , 3           , 50          , 0           , 0
0.00198583584, 0.0300713014, -9.789385   , 0.00127134623, 0.00203016214, -0.000543702161, 0.394566536 , 0.164284751 , 0.339355528 , -0.00329442718, -0.000375443837, -0.396756172, 3.63        , 3           , 11          , 0.00667028455, 0.006670309
0.00964773353, 0.0299522113, -9.78074    , 0.00127971021, 0.000340771483, -0.000546305731, 0.3949036   , 0.164217338 , 0.338816226 , -0.00328162778, -0.000372054143, -0.396761656, 3.64        , 3           , 12          , 0.0587419458, 0
0.0126852756, 0.0529441461, -9.785141   , 0.00240465719, 0.00147467549, 0.000873385055, 0.395577729 , 0.163610622 , 0.33976     , -0.00325758522, -0.0003572791, -0.396753073, 3.65        , 3           , 50          , 0           , 0
-0.012216703, 0.0523447841, -9.788497   , 0.00197150349, 0.003442767 , 0.00129825354, 0.3948362   , 0.1640151   , 0.339018464 , -0.00323787448, -0.000322809472, -0.3967402  , 3.66        , 3           , 11          , 0.00667028455, 0.006670309
-0.02405079 , 0.0497549251, -9.78227    , 0.00028260026, 0.00230504782, 0.00142988469, 0.3948362   , 0.1640151   , 0.339018464 , -0.00323505281, -0.0002997128, -0.3967259  , 3.67        , 3           , 12          , 0.0587419458, 0
-0.004753829, 0.0351031125, -9.786252   , 0.0009993298, 5.729953E-05, 0.000582093257, 0.394633949 , 0.164419577 , 0.338951051 , -0.003225061, -0.000299121, -0.396720171, 3.68        , 3           , 50          , 0           , 0
-0.0155495778, 0.0406445041, -9.786311   , 0.00100248854, -0.0006466147, 1.59335523E-05, 0.395173252 , 0.164082512 , 0.3396926   , -0.00321503612, -0.000305586582, -0.396719933, 3.69        , 3           , 11          , 0.00667028455, 0.006670309
-0.002372615, 0.04499128  , -9.783029   , 0.00181076548, -9.475232E-05, 0.000161977834, 0.394768775 , 0.164082512 , 0.3392207   , -0.00328615215, -0.000348340865, -0.396718264, 3.7         , 3           , 12          , 0.0597925968, 0
-0.0006987322, 0.0332536921, -9.787132   , 0.002801966 , -0.000651198, 2.44505045E-05, 0.394768775 , 0.164082512 , 0.3392207   , -0.00325813261, -0.000354852062, -0.396718025, 3.71        , 3           , 50          , 0           , 0
0.00120776333, 0.0386659056, -9.792971   , 0.00365002453, -0.0007862503, 0.000169452978, 0.394768775 , 0.164352164 , 0.338951051 , -0.00322163338, -0.0003627092, -0.396716356, 3.72        , 3           , 11          , 0.0065889135, 0.00658893865
-0.00485422555, 0.0278801583, -9.784926   , 0.0008186231, 0.0006024748, -0.000124084079, 0.395105839 , 0.164082512 , 0.33962518  , -0.00321344659, -0.000356688426, -0.396717548, 3.73        , 3           , 12          , 0.0597925968, 0
0.006107418 , 0.0349710062, -9.784814   , -0.00256865215, 0.000157206363, -0.0005643443, 0.394499123 , 0.163880274 , 0.3392207   , -0.00323913083, -0.0003551345, -0.39672327 , 3.74        , 3           , 50          , 0           , 0
0.009040831 , 0.05073696  , -9.786985   , -0.001579543, 2.31081231E-05, -0.0007012207, 0.394499123 , 0.163880274 , 0.3392207   , -0.00325492374, -0.0003549262, -0.396730185, 3.75        , 3           , 11          , 0.0065889135, 0.00658893865
-0.00195138808, 0.0324625857, -9.815619   , 0.000957827549, 0.00102577766, 1.84940745E-05, 0.3948362   , 0.164419577 , 0.338816226 , -0.003245345, -0.0003446679, -0.396730185, 3.76        , 3           , 12          , 0.0597925968, 0
0.00345011614, 0.0270167347, -9.825093   , 0.00166499941, 0.000889771967, 0.000727913 , 0.3953755   , 0.164149925 , 0.339557767 , -0.003228698, -0.000335746678, -0.396723032, 3.77        , 3           , 50          , 0           , 0
0.0215307567, 0.03570618  , -9.788759   , 0.000817021762, 0.00102482468, 0.0007241792, 0.394566536 , 0.164419577 , 0.3391533   , -0.00322052976, -0.000325475121, -0.396715641, 3.78        , 3           , 11          , 0.0065889135, 0.00658893865
-0.0147072161, 0.03835091  , -9.778178   , 0.0009570044, 0.00130734569, 0.00100780907, 0.394566536 , 0.164419577 , 0.3391533   , -0.003210963, -0.0003123693, -0.396705627, 3.79        , 3           , 12          , 0.0597925968, 0
-0.0289152842, 0.0281104874, -9.769742   , 0.00121061574, 0.00287126866, 0.000728959334, 0.394566536 , 0.164217338 , 0.338951051 , -0.00325190928, -0.0002497612, -0.3966987  , 3.8         , 3           , 50          , 0           , 0
-0.00456000958, 0.0201584063, -9.770945   , 0.00233060936, 0.00470907846, -0.000393102178, 0.395240664 , 0.163812861 , 0.3396926   , -0.0032286027, -0.000202683383, -0.396703   , 3.81        , 3           , 11          , 0.00650943443, 0.00650947029
0.00265597925, 0.0467570722, -9.788858   , 0.0010653463, 0.00357422372, -0.00025949534, 0.394701362 , 0.163947687 , 0.3391533   , -0.0032179486, -0.000166949671, -0.396705627, 3.82        , 3           , 12          , 0.0608499534, 0
-0.008735961, 0.0423678756, -9.7858     , -0.00230245758, -0.0006721706, 0.000424536032, 0.394701362 , 0.163947687 , 0.3391533   , -0.00324097369, -0.000173657667, -0.396701336, 3.83        , 3           , 50          , 0           , 0
0.0047929585, 0.03636157  , -9.791145   , -0.0008819594, -0.00235201139, 0.0004285171, 0.394499123 , 0.1645544   , 0.338816226 , -0.00324979448, -0.000197163725, -0.396697044, 3.84        , 3           , 11          , 0.00650943443, 0.00650947029
0.0038737373, 0.0457345024, -9.757667   , 0.000809035031, -0.00163663935, 0.000296234764, 0.395038426 , 0.163745448 , 0.33962518  , -0.00324170454, -0.000213520485, -0.396693945, 3.85        , 3           , 12          , 0.0608499534, 0
-0.0166512951, 0.0600614771, -9.786692   , 0.00038469772, -0.00149872166, 0.00029447634, 0.3949036   , 0.163947687 , 0.3391533   , -0.003237858, -0.000228498015, -0.396691084, 3.86        , 3           , 50          , 0           , 0
-0.003790453, 0.0427272767, -9.775817   , 0.00123058411, -0.00121142657, 0.000298861065, 0.3949036   , 0.163947687 , 0.3391533   , -0.00322555262, -0.0002406025, -0.396687984, 3.87        , 3           , 11          , 0.00650943443, 0.00650947029
0.00386169273, 0.0394758359, -9.774868   , 0.00180281559, -0.00261543039, 0.001005669 , 0.394701362 , 0.164419577 , 0.339018464 , -0.00320752733, -0.000266724353, -0.396677732, 3.88        , 3           , 12          , 0.0608499534, 0
-0.007410866, 0.04277132  , -9.776297   , 0.000106163861, -0.00220454228, 0.0009984183, 0.395308077 , 0.163947687 , 0.339490354 , -0.00320646842, -0.0002887377, -0.396667719, 3.89        , 3           , 50          , 0           , 0
-0.0274994131, 0.0276947916, -9.785101   , -0.0010656243, -0.00151080545, 0.000570380653, 0.394768775 , 0.1640151   , 0.339288116 , -0.003316728, -0.000310428441, -0.396662235, 3.9         , 3           , 11          , 0.006432019 , 0.0064320513
-0.0115136616, 0.032976985 , -9.801228   , 0.0003374116, 0.000188131162, -0.0006918496, 0.394768775 , 0.1640151   , 0.339288116 , -0.00331335142, -0.000308570045, -0.396669149, 3.91        , 3           , 12          , 0.0619134754, 0
-0.009551747, 0.0402195   , -9.814742   , 0.00202307478, 0.002029765 , -0.000398589968, 0.394701362 , 0.164149925 , 0.3387488   , -0.00329311937, -0.0002882858, -0.3966732  , 3.92        , 3           , 50          , 0           , 0
-0.009813589, 0.0315266773, -9.778622   , 0.00301066414, 0.00231801742, 0.000454065681, 0.395105839 , 0.163745448 , 0.33962518  , -0.00326301367, -0.000265090755, -0.396668673, 3.93        , 3           , 11          , 0.006432019 , 0.0064320513
-0.00275112875, 0.052198384 , -9.778029   , 0.00216560042, 0.00174915441, -0.0005396341, 0.3949036   , 0.164082512 , 0.339288116 , -0.00324135623, -0.000247616932, -0.396674156, 3.94        , 3           , 12          , 0.0619134754, 0
0.0108325612, 0.04712917  , -9.793766   , -0.0009295718, -0.000665159838, -0.00112288387, 0.3949036   , 0.164082512 , 0.339288116 , -0.00325064966, -0.0002543049, -0.396685362, 3.95        , 3           , 50          , 0           , 0
-0.005586206, 0.0382975079, -9.793928   , -0.001212199, -0.0008078566, -0.0026783736, 0.394701362 , 0.164082512 , 0.338951051 , -0.00326276431, -0.0002624708, -0.396712065, 3.96        , 3           , 11          , 0.006432019 , 0.0064320513
-0.011558014, 0.0360654965, -9.780424   , 0.000890505034, 0.00230368366, -0.00294626085, 0.395308077 , 0.163880274 , 0.3396926   , -0.003253852, -0.000239530142, -0.396741629, 3.97        , 3           , 12          , 0.0619134754, 0
-0.0233052932, 0.0348850265, -9.79091549 , -0.00107775512, 0.000741710945, -0.00112137257, 0.394566536 , 0.163880274 , 0.339288116 , -0.003264627, -0.000232149556, -0.396753073, 3.98        , 3           , 50          , 0           , 0
0.0051753   , 0.03183567  , -9.788449   , -0.000644771964, -0.000944810046, 0.000573223864, 0.394566536 , 0.163880274 , 0.339288116 , -0.00327107636, -0.000241579, -0.3967471  , 3.99        , 3           , 11          , 0.006432019 , 0.0064320513
0.0102732265, 0.0416919477, -9.785205   , 0.002148839 , 0.000889690768, 0.000165375066, 0.3943643   , 0.1640151   , 0.338951051 , -0.00330651971, -0.0002720824, -0.396745443, 4           , 3           , 12          , 0.06298265  , 0
0.0106855482, 0.03228049  , -9.805581   , 0.00257317629, 0.00075177307, 0.000167133519, 0.395308077 , 0.163812861 , 0.339894831 , -0.00328078819, -0.0002645593, -0.396743774, 4.01        , 3           , 50          , 0           , 0
0.0171179   , 0.04254777  , -9.795094   , 0.00243700482, -0.000234658917, 0.000447493774, 0.3944317   , 0.163947687 , 0.339557767 , -0.00325641944, -0.000266891264, -0.396739483, 4.02        , 3           , 11          , 0.00635715341, 0.00635718042
0.0108302375, 0.0515907966, -9.778832   , 0.00159374345, -0.00108508486, 0.000159703617, 0.3944317   , 0.163947687 , 0.339557767 , -0.00324048265, -0.000277736835, -0.3967378  , 4.03        , 3           , 12          , 0.06298265  , 0
0.00729745161, 0.0241062641, -9.778521   , 0.0018719068, -0.000238480017, 2.10535982E-05, 0.394633949 , 0.164284751 , 0.338883638 , -0.0032217633, -0.0002801209, -0.396737576, 4.04        , 3           , 50          , 0           , 0
-0.0124434885, 0.03296796  , -9.795359   , 0.00116583949, -0.00024325501, 1.776125E-05, 0.395038426 , 0.163745448 , 0.339827418 , -0.00321010547, -0.000282553054, -0.396737337, 4.05        , 3           , 11          , 0.00635715341, 0.00635718042
-0.0169248227, 0.03796866  , -9.790853   , 0.000597500941, 0.000456837734, 1.62122215E-05, 0.394768775 , 0.1640151   , 0.339422941 , -0.0032041308, -0.000277984072, -0.396737337, 4.06        , 3           , 12          , 0.06298265  , 0
0.0167417116, 0.0452932529, -9.805029   , 0.000174846791, 0.000172405751, -0.0006925408, 0.394768775 , 0.1640151   , 0.339422941 , -0.00320238038, -0.0002762822, -0.396744251, 4.07        , 3           , 50          , 0           , 0
-0.008518052, 0.0572739951, -9.791161   , -0.0009504337, -0.0006799281, -0.000275304134, 0.3944317   , 0.164419577 , 0.339018464 , -0.00321188383, -0.000283090223, -0.396746874, 4.08        , 3           , 11          , 0.00635715341, 0.00635718042
0.0142258294, 0.03484962  , -9.777067   , 0.00102261675, 0.000178138027, 0.000159022326, 0.395105839 , 0.164082512 , 0.339827418 , -0.00320165767, -0.0002813037, -0.3967452  , 4.09        , 3           , 12          , 0.06298265  , 0
-0.007941986, 0.0351252072, -9.781756   , -0.0005519481, -0.00178713852, 0.0007137444, 0.3949036   , 0.164082512 , 0.3391533   , -0.003292857, -0.00025488477, -0.396738768, 4.1         , 3           , 50          , 0           , 0
-0.035741955, 0.0263765454, -9.76709    , -0.00280718063, -0.00264711352, 0.000701907149, 0.3949036   , 0.164082512 , 0.3391533   , -0.00332093076, -0.000281332585, -0.396731615, 4.11        , 3           , 11          , 0.006283862 , 0.00628389558
0.0133765629, 0.03535222  , -9.789276   , 7.53734639E-06, -0.000797843153, -0.00012971535, 0.394701362 , 0.164284751 , 0.339085877 , -0.003320855, -0.0002893153, -0.3967328  , 4.12        , 3           , 12          , 0.06405701  , 0
-0.0135176061, 0.02436136  , -9.781843   , 0.000422895042, 0.0008944127, 1.61324E-05 , 0.395308077 , 0.1640151   , 0.339490354 , -0.00331662619, -0.000280370674, -0.3967328  , 4.13        , 3           , 50          , 0           , 0
-0.0101672849, 0.03696849  , -9.785381   , 0.000139482014, 0.00117406971, 0.000721593 , 0.394701362 , 0.1640151   , 0.339288116 , -0.00331523386, -0.000268606149, -0.396725655, 4.14        , 3           , 11          , 0.006283862 , 0.00628389558
-0.0002455227, 0.03637318  , -9.777172   , 0.000284551148, 0.0003303278, 0.0001558748, 0.394701362 , 0.1640151   , 0.339288116 , -0.00331238844, -0.000265297684, -0.396724   , 4.15        , 3           , 12          , 0.06405701  , 0
-0.009738756, 0.0369435139, -9.779502   , 0.000142151272, 0.000470153056, -0.0006921791, 0.394633949 , 0.1645544   , 0.338951051 , -0.00331096468, -0.000260619068, -0.3967309  , 4.16        , 3           , 50          , 0           , 0
0.0007177917, 0.0337312333, -9.799776   , 0.0012739494, 5.544535E-05, -0.000687562162, 0.395105839 , 0.163880274 , 0.3396926   , -0.00329822372, -0.0002600873, -0.3967378  , 4.17        , 3           , 11          , 0.006283862 , 0.00628389558
-0.00301984418, 0.03412664  , -9.770423   , 0.0002925072, -0.00135906471, -0.0005530723, 0.394633949 , 0.163543209 , 0.3391533   , -0.003295297, -0.00027369603, -0.3967433  , 4.18        , 3           , 12          , 0.06405701  , 0
-0.0050593745, 0.0477255434, -9.781681   , 7.989456E-06, -0.000938627, -0.0005537384, 0.394633949 , 0.163543209 , 0.3391533   , -0.00329521531, -0.000283100526, -0.396748781, 4.19        , 3           , 50          , 0           , 0
-0.022277493, 0.0439004451, -9.791773   , 0.000839320943, -0.001078425, -0.000973838847, 0.3949036   , 0.164486989 , 0.339085877 , -0.003332855, -0.0003072449, -0.396758556, 4.2         , 3           , 11          , 0.00621257024, 0.006212591
-0.0158635024, 0.0194116719, -9.777814   , -0.0005732654, -0.0009471912, -0.000556400453, 0.3954429   , 0.163947687 , 0.33962518  , -0.003338586, -0.000316735328, -0.39676404 , 4.21        , 3           , 12          , 0.06513609  , 0
-0.0216512755, 0.0240240432, -9.787331   , -0.00113639887, -0.00123257458, 5.606649E-06, 0.394633949 , 0.164082512 , 0.339422941 , -0.00334995 , -0.0003290608, -0.39676404 , 4.22        , 3           , 50          , 0           , 0
0.009779389 , 0.0416639969, -9.775267   , 0.0005577098, -0.00108033093, 0.000437531446, 0.394633949 , 0.164082512 , 0.339422941 , -0.00334437448, -0.0003398494, -0.3967595  , 4.23        , 3           , 11          , 0.00621257024, 0.006212591
0.00121447444, 0.03510053  , -9.806093   , 0.00110727374, 0.00187991909, -0.0006854283, 0.394633949 , 0.1640151   , 0.338951051 , -0.0033333  , -0.000321073167, -0.396766424, 4.24        , 3           , 12          , 0.06513609  , 0
-0.00469248649, 0.03738458  , -9.793926   , -2.21443552E-05, 0.00173149479, -0.00139725662, 0.395173252 , 0.163745448 , 0.339827418 , -0.00333351642, -0.000303804845, -0.3967805  , 4.25        , 3           , 50          , 0           , 0
-0.0118006114, 0.0180149116, -9.779144   , 0.0008317355, 0.000470183382, -0.000830183446, 0.394701362 , 0.164149925 , 0.339422941 , -0.00332519668, -0.000299130625, -0.396788836, 4.26        , 3           , 11          , 0.00621257024, 0.006212591
0.006310992 , 0.0404921621, -9.816879   , 0.00139830937, 0.000192439824, -0.000262908638, 0.394701362 , 0.164149925 , 0.339422941 , -0.00331121287, -0.000297215, -0.396791458, 4.27        , 3           , 12          , 0.06513609  , 0
0.000866897462, 0.046349857 , -9.795653   , -0.00170830416, 0.000171430525, -0.000136126138, 0.394566536 , 0.164149925 , 0.338951051 , -0.003328295, -0.000295505335, -0.3967929  , 4.28        , 3           , 50          , 0           , 0
0.005729139 , 0.03994654  , -9.787056   , -0.001571762, 0.00101707852, -0.0009817783, 0.395240664 , 0.163880274 , 0.33976     , -0.00334401 , -0.000285367278, -0.396802664, 4.29        , 3           , 11          , 0.00621257024, 0.006212591
-0.00309945643, 0.0171008147, -9.805749   , 0.000109944085, 0.0014524773, 0.000439434254, 0.394566536 , 0.163880274 , 0.339288116 , -0.0033762313, -0.0002662696, -0.396798372, 4.3         , 3           , 12          , 0.0662195   , 0
-0.019758068, 0.0316572264, -9.782764   , 0.0006821758, 4.847366E-05, 0.00114624214, 0.394566536 , 0.163880274 , 0.339288116 , -0.00336941238, -0.000265746261, -0.396786928, 4.31        , 3           , 50          , 0           , 0
-0.0005132938, 0.044562716 , -9.7961235  , 0.00209521456, -0.000223543844, 0.000304780348, 0.394701362 , 0.164284751 , 0.339018464 , -0.003348461, -0.0002679714, -0.396784067, 4.32        , 3           , 11          , 0.006143383 , 0.006143405
-0.008768634, 0.0334143862, -9.806628   , 0.002652772 , 0.00118809985, -0.000255490973, 0.3953755   , 0.164149925 , 0.3396926   , -0.003321933, -0.000256098952, -0.396786451, 4.33        , 3           , 12          , 0.0662195   , 0
-0.005222492, 0.0261685643, -9.8111515  , 0.0009503807, 0.00272524753, -0.0005435433, 0.394701362 , 0.163745448 , 0.339288116 , -0.003312427, -0.000228864577, -0.396792173, 4.34        , 3           , 50          , 0           , 0
-0.00307840575, 0.0229204185, -9.792166   , -0.000315253244, 0.00173117686, 0.000155355359, 0.394701362 , 0.163745448 , 0.339288116 , -0.00331558031, -0.0002115478, -0.396790743, 4.35        , 3           , 11          , 0.006143383 , 0.006143405
-0.0249816962, 0.0457278639, -9.789074   , 0.001247934 , -0.000229273835, 0.000300829561, 0.394499123 , 0.163947687 , 0.338951051 , -0.00330310152, -0.000213830528, -0.396787643, 4.36        , 3           , 12          , 0.0662195   , 0
-0.0123185674, 0.0130575644, -9.779169   , -0.0005851338, -0.000804819167, 0.000150132852, 0.395240664 , 0.164082512 , 0.339894831 , -0.00330895348, -0.00022187375, -0.396785975, 4.37        , 3           , 50          , 0           , 0
0.0058667874, 0.0196001157, -9.775387   , -0.0020003824, -0.000251240446, -0.000420658849, 0.394701362 , 0.163947687 , 0.339288116 , -0.0033289562, -0.000224400079, -0.396790266, 4.38        , 3           , 11          , 0.006143383 , 0.006143405
-0.00790575147, 0.0311374124, -9.803467   , 0.000964647043, -9.040205E-05, 1.71921329E-05, 0.394701362 , 0.163947687 , 0.339288116 , -0.00331931026, -0.000225303607, -0.396790028, 4.39        , 3           , 12          , 0.0662195   , 0
-0.0278027654, 0.04076535  , -9.779624   , 0.002105971 , -0.000377567223, 0.0007284254, 0.394566536 , 0.164486989 , 0.3392207   , -0.003269309, -0.000268083735, -0.39678216 , 4.4         , 3           , 50          , 0           , 0
-0.005602574, 0.0414086953, -9.779904   , 0.0009736389, 0.000177923823, 0.00100656308, 0.395308077 , 0.163678035 , 0.339827418 , -0.00325957523, -0.000266271672, -0.396772146, 4.41        , 3           , 11          , 0.006076111 , 0.00607613847
0.00158660021, 0.03190541  , -9.796612   , -0.000153198765, -0.000392845774, 0.00114169624, 0.394768775 , 0.163812861 , 0.339422941 , -0.00326111 , -0.000270162942, -0.3967607  , 4.42        , 3           , 12          , 0.06730683  , 0
0.017936362 , 0.0330932   , -9.804165   , 0.0012575041, -0.000242516864, -0.0001229208, 0.394768775 , 0.163812861 , 0.339422941 , -0.003248535, -0.0002725921, -0.3967619  , 4.43        , 3           , 50          , 0           , 0
0.006697588 , 0.04177227  , -9.796532   , 0.002937428 , 0.00272537651, -0.000110462875, 0.394633949 , 0.1640151   , 0.339085877 , -0.00321916072, -0.00024534206, -0.3967631  , 4.44        , 3           , 11          , 0.006076111 , 0.00607613847
-0.00335026719, 0.0382482558, -9.787131   , 0.00208674441, 0.00342355971, 2.79399046E-05, 0.395510316 , 0.164149925 , 0.33976     , -0.0031982935, -0.0002111058, -0.3967631  , 4.45        , 3           , 12          , 0.06730683  , 0
-0.0238309428, 0.0321531929, -9.781891   , -0.000161844582, 0.00115575758, -0.0005511419, 0.394701362 , 0.163880274 , 0.339490354 , -0.00319991075, -0.000199565926, -0.39676857 , 4.46        , 3           , 50          , 0           , 0
-0.03202396 , 0.0246261712, -9.795995   , -0.003255586, -0.001399336, 0.00013681002, 0.394701362 , 0.163880274 , 0.339490354 , -0.00323246722, -0.000213554769, -0.396767139, 4.47        , 3           , 11          , 0.006076111 , 0.00607613847
-0.00367764733, 0.0490675867, -9.783021   , -0.000849915552, -0.00236857845, 0.000429022562, 0.394566536 , 0.164621815 , 0.3392207   , -0.00324096717, -0.000237226544, -0.396762848, 4.48        , 3           , 12          , 0.06730683  , 0
-0.00233968534, 0.0441252664, -9.79387951 , -1.52627763E-05, 0.000171237218, 0.000295610022, 0.3953755   , 0.164149925 , 0.3396926   , -0.00324112084, -0.000235504587, -0.396759748, 4.49        , 3           , 50          , 0           , 0
0.002111042 , 0.03552896  , -9.802468   , -0.00130309223, 0.000569317257, -0.000416024617, 0.394701362 , 0.163745448 , 0.339490354 , -0.003297639, -0.0002771386, -0.3967638  , 4.5         , 3           , 11          , 0.006010516 , 0.006010547
-0.0102661112, 0.06448798  , -9.78346    , 0.000116790368, -0.000969740737, -0.0002705579, 0.394701362 , 0.163745448 , 0.339490354 , -0.00329647027, -0.00028684485, -0.396766424, 4.51        , 3           , 12          , 0.06839775  , 0
0.00391491968, 0.04085801  , -9.78345    , -0.00100779324, -0.001962857, 0.000146461854, 0.394633949 , 0.164486989 , 0.339355528 , -0.00330654881, -0.000306468544, -0.396765   , 4.52        , 3           , 50          , 0           , 0
-0.005273327, 0.0305908732, -9.784467   , -0.0011514239, -0.001541466, -0.0004186205, 0.3954429   , 0.163812861 , 0.339894831 , -0.00331806159, -0.00032189698, -0.396769047, 4.53        , 3           , 11          , 0.006010516 , 0.006010547
-0.0006066831, 0.041808933 , -9.78212452 , -0.0024279207, -0.000423800666, -0.000422811, 0.3949036   , 0.163812861 , 0.33962518  , -0.003342339, -0.000326149, -0.396773338, 4.54        , 3           , 12          , 0.06839775  , 0
-0.01056452 , 0.0338943563, -9.808901   , -0.00256892666, -0.000565540569, -0.00127129885, 0.3949036   , 0.163812861 , 0.33962518  , -0.003368024, -0.000331847055, -0.396785975, 4.55        , 3           , 50          , 0           , 0
-0.0121128336, 0.0266147815, -9.785892   , 0.0006755788, 0.000160337164, -0.00111380056, 0.394701362 , 0.164284751 , 0.3392207   , -0.00336126424, -0.0003302812, -0.39679718 , 4.56        , 3           , 11          , 0.006010516 , 0.006010547
-0.0133715505, 0.030282259 , -9.79854    , 0.00123427808, 0.00157198648, 0.000303690351, 0.395308077 , 0.1640151   , 0.339894831 , -0.00334892236, -0.000314551318, -0.396794081, 4.57        , 3           , 12          , 0.06839775  , 0
-0.01422975 , 0.0414900444, -9.774094   , 0.00207992  , 0.00185928063, -0.0001157312, 0.3948362   , 0.163812861 , 0.339288116 , -0.00332812336, -0.000295962469, -0.3967955  , 4.58        , 3           , 50          , 0           , 0
-0.00297542382, 0.0413042344, -9.758189   , 0.00307805324, -0.000245776668, -0.00152706378, 0.3948362   , 0.163812861 , 0.339288116 , -0.0032973385, -0.000298470753, -0.39681077 , 4.59        , 3           , 11          , 0.006010516 , 0.006010547
-0.00355371577, 0.0278173462, -9.770905   , 0.000386784 , -0.00140333048, -0.0008349851, 0.394768775 , 0.164284751 , 0.338883638 , -0.00333732273, -0.000353170617, -0.396818876, 4.6         , 3           , 12          , 0.06949188  , 0
0.00152797718, 0.03587506  , -9.769477   , -0.000186315, 0.00042302665, 0.000577889034, 0.395240664 , 0.163880274 , 0.339894831 , -0.00333918747, -0.000348921021, -0.396813154, 4.61        , 3           , 50          , 0           , 0
-0.005551017, 0.0481457226, -9.770836   , 0.00192737789, 0.001282045 , 2.399297E-05, 0.394701362 , 0.164217338 , 0.339355528 , -0.00331991422, -0.000336099882, -0.396812916, 4.62        , 3           , 11          , 0.005946714 , 0.005946745
-0.01147549 , 0.03925682  , -9.790354   , -0.000471937354, 0.0009842449, -0.0001289036, 0.394701362 , 0.164217338 , 0.339355528 , -0.003324633, -0.0003262618, -0.3968141  , 4.63        , 3           , 12          , 0.06949188  , 0
-0.006731754, 0.0238304827, -9.781794   , -0.000475278124, 0.00161776552, -0.0004810991, 0.394566536 , 0.164149925 , 0.339288116 , -0.00332938414, -0.0003101002, -0.3968191  , 4.64        , 3           , 50          , 0           , 0
0.0164114889, 0.05477124  , -9.80454    , 0.00136435172, 0.0007854834, -0.00103891583, 0.395510316 , 0.163745448 , 0.33976     , -0.0033157377, -0.000302279921, -0.396829367, 4.65        , 3           , 11          , 0.005946714 , 0.005946745
0.0126264831, 0.0439695   , -9.799642   , 0.000388315268, -0.00147371611, 0.00121330319, 0.3949036   , 0.164082512 , 0.339557767 , -0.00331185828, -0.000316976832, -0.3968172  , 4.66        , 3           , 12          , 0.06949188  , 0
-0.0147403423, 0.0338605568, -9.784525   , -0.0008881185, -0.0004264432, 0.000714563648, 0.3949036   , 0.164082512 , 0.339557767 , -0.0033207417, -0.00032121758, -0.396810055, 4.67        , 3           , 50          , 0           , 0
-0.00726824161, 0.0139482645, -9.793138   , 0.0005235076, -0.000487288722, -0.0007622818, 0.394768775 , 0.164284751 , 0.3392207   , -0.00331550417, -0.0003261158, -0.396817923, 4.68        , 3           , 11          , 0.005946714 , 0.005946745
-0.02134223 , 0.0136362   , -9.785564   , -0.00166642736, -0.0002909176, -0.0009134313, 0.3953755   , 0.1640151   , 0.339827418 , -0.00333216554, -0.000329055329, -0.396826982, 4.69        , 3           , 12          , 0.06949188  , 0
-0.007885583, 0.0382953547, -9.785358   , 0.000810001453, -0.000563848356, 0.000439751166, 0.394633949 , 0.163880274 , 0.339557767 , -0.00331450044, -0.00036021843, -0.3968222  , 4.7         , 3           , 50          , 0           , 0
0.00811038353, 0.0422467776, -9.808271   , -0.00122748653, -0.002619042, 0.000427057326, 0.394633949 , 0.163880274 , 0.339557767 , -0.003326777, -0.000386394735, -0.396817923, 4.71        , 3           , 11          , 0.00588529371, 0.00588532863
-0.0291378479, 0.0394611061, -9.789584   , -0.00186081487, -0.00304568722, 0.000494077743, 0.394701362 , 0.164217338 , 0.339355528 , -0.00334538659, -0.000416834839, -0.396812677, 4.72        , 3           , 12          , 0.0705889   , 0
-0.0343974158, 0.0227786   , -9.775229   , -0.00257395231, -0.00171303027, -0.000284131325, 0.3953755   , 0.164082512 , 0.339894831 , -0.00337112532, -0.0004339746, -0.396815538, 4.73        , 3           , 50          , 0           , 0
-0.00499469135, 0.0219637863, -9.769585   , 0.0005263623, -0.000213799445, 0.00135722349, 0.394768775 , 0.164082512 , 0.339557767 , -0.00336586777, -0.000436066824, -0.396801949, 4.74        , 3           , 11          , 0.00588529371, 0.00588532863
-0.0110409074, 0.0347732529, -9.800313   , 0.00122650492, 0.0009876272, 0.00136236008, 0.394768775 , 0.164082512 , 0.339557767 , -0.00335360877, -0.000426144863, -0.396788359, 4.75        , 3           , 12          , 0.0705889   , 0
0.001615541 , 0.0408558659, -9.774879   , 0.00152027269, -0.00147416163, -0.000123441612, 0.394768775 , 0.164419577 , 0.339355528 , -0.00333840563, -0.000440890552, -0.396789551, 4.76        , 3           , 50          , 0           , 0
0.0127289081, 0.0213627852, -9.786627   , -3.40165134E-05, -0.00134388509, -0.000554273953, 0.3953755   , 0.163812861 , 0.339894831 , -0.003338743, -0.000454347784, -0.396795034, 4.77        , 3           , 11          , 0.00588529371, 0.00588532863
-0.00607673544, 0.0351477861, -9.794849   , 0.00109234685, -0.0005619388, 0.0002997994, 0.395038426 , 0.163678035 , 0.33962518  , -0.003327821, -0.0004599572, -0.396791935, 4.78        , 3           , 12          , 0.0705889   , 0
-0.0187480114, 0.03173126  , -9.808068   , -4.18873933E-05, 0.000204722 , -0.0009050593, 0.395038426 , 0.163678035 , 0.33962518  , -0.003328236, -0.00045794007, -0.396801   , 4.79        , 3           , 50          , 0           , 0
0.004370683 , 0.03728431  , -9.795664   , -0.0014489051, -0.000446677674, -0.000347505033, 0.3949036   , 0.164419577 , 0.339422941 , -0.00333737419, -0.000489335449, -0.3968041  , 4.8         , 3           , 11          , 0.00582507346, 0.00582511164
-0.0254252851, 0.0506504923, -9.775497   , -0.00131144386, 0.0003285816, -0.000204384312, 0.395308077 , 0.164149925 , 0.339894831 , -0.00335048721, -0.000486056437, -0.39680624 , 4.81        , 3           , 12          , 0.07168854  , 0
-0.0306123812, 0.0259924047, -9.804566   , -0.00242793 , -0.00228353357, 0.000351408933, 0.395308077 , 0.164149925 , 0.339894831 , -0.00337476842, -0.0005088798, -0.396802664, 4.82        , 3           , 50          , 0           , 0
-0.000738864765, 0.0242941715, -9.806152   , -0.00263591669, -0.00305926986, 0.000349227834, 0.3949036   , 0.163812861 , 0.3396926   , -0.00340112951, -0.000539460336, -0.396798849, 4.83        , 3           , 11          , 0.00582507346, 0.00582511164
-0.00432408974, 0.0341864228, -9.783542   , 0.000815981766, -0.00148726581, 8.52094163E-05, 0.3948362   , 0.164486989 , 0.339490354 , -0.00339297019, -0.00055433 , -0.396798134, 4.84        , 3           , 12          , 0.07168854  , 0
-0.0132269254, 0.0393264629, -9.80483    , 0.001520981 , -0.00120092428, 0.0006540107, 0.395510316 , 0.163812861 , 0.340366721 , -0.00337776379, -0.00056631706, -0.396791458, 4.85        , 3           , 50          , 0           , 0
-0.0202750824, 0.0529611744, -9.809348   , 0.000325075031, -0.00212412863, 0.000435100315, 0.395510316 , 0.163812861 , 0.340366721 , -0.00337451557, -0.0005875437, -0.396787167, 4.86        , 3           , 11          , 0.00582507346, 0.00582511164
0.000385145628, 0.04499265  , -9.792952   , 0.00101535954, 0.0009778599, -0.000333811971, 0.394768775 , 0.163678035 , 0.33962518  , -0.00336436 , -0.0005777764, -0.3967905  , 4.87        , 3           , 12          , 0.07168854  , 0
-0.0117740948, 0.0287488047, -9.751078   , 0.00326827471, 0.00233057467, -0.000109312343, 0.394768775 , 0.164621815 , 0.339490354 , -0.00333167659, -0.000554474362, -0.3967917  , 4.88        , 3           , 50          , 0           , 0
-0.012180334, 0.0261137318, -9.770978   , 0.00200717524, 0.000280631415, -0.0006128251, 0.3954429   , 0.163812861 , 0.34009707  , -0.00331160147, -0.000551688368, -0.3967979  , 4.89        , 3           , 11          , 0.00582507346, 0.00582511164
-0.0287269633, 0.03317293  , -9.799551   , 0.00200239313, 0.000198040449, 0.00129421777, 0.3954429   , 0.163812861 , 0.34009707  , -0.0033121598, -0.0005899791, -0.396784544, 4.9         , 3           , 12          , 0.07279048  , 0
-0.0495303  , 0.0392400846, -9.787029   , 0.00095004  , -0.00128734123, 0.0002981199, 0.3949036   , 0.163745448 , 0.339894831 , -0.003302661, -0.0006028425, -0.396781445, 4.91        , 3           , 50          , 0           , 0
-0.0258837026, 0.0154637164, -9.77655    , -0.00392218633, -0.001461076, -0.00156130816, 0.394768775 , 0.164284751 , 0.339422941 , -0.00334187364, -0.000617505, -0.39679718 , 4.92        , 3           , 11          , 0.0057662935, 0.00576632144
-0.009670636, 0.04592572  , -9.76726151 , -0.000963062863, -3.31929878E-05, -0.000485794968, 0.3953755   , 0.164217338 , 0.3402319   , -0.00335150142, -0.000617853249, -0.396801949, 4.93        , 3           , 12          , 0.07279048  , 0
0.002575351 , 0.03597933  , -9.803819   , 0.001784489 , 0.001252473 , -0.000188464517, 0.3953755   , 0.164217338 , 0.3402319   , -0.00333365519, -0.000605335052, -0.396803856, 4.94        , 3           , 50          , 0           , 0
0.01346763  , 0.0425676219, -9.78834152 , 8.990579E-05, 0.00131140614, 0.000368817215, 0.3948362   , 0.163543209 , 0.339962244 , -0.003332758, -0.0005922086, -0.39680028 , 4.95        , 3           , 11          , 0.0057662935, 0.00576632144
0.0109033315, 0.0520963632, -9.795101   , -0.000384684157, -0.00256345375, 0.00120815856, 0.394701362 , 0.1645544   , 0.339557767 , -0.0033366126, -0.0006178027, -0.39678812 , 4.96        , 3           , 12          , 0.07279048  , 0
0.000612747855, 0.03543152  , -9.768581   , 0.00137027353, -0.000439777446, 0.00164345  , 0.395645142 , 0.163947687 , 0.3402319   , -0.00332292 , -0.0006221457, -0.396771669, 4.97        , 3           , 50          , 0           , 0
0.00237989239, 0.03135745  , -9.770844   , 0.00107659423, 0.00174044026, 0.000868517964, 0.395645142 , 0.163947687 , 0.3402319   , -0.00331215933, -0.0006047126, -0.3967631  , 4.98        , 3           , 11          , 0.0057662935, 0.00576632144
0.00808252953, 0.0199808441, -9.762261   , -5.237173E-05, 0.00145123189, -0.000267333526, 0.3949036   , 0.1640151   , 0.339827418 , -0.00331268134, -0.0005902092, -0.3967657  , 4.99        , 3           , 12          , 0.07279048  , 0
-0.0147661688, 0.0418739356, -9.752401   , -0.00117414445, -0.00108327228, -0.000770986953, 0.394701362 , 0.164149925 , 0.339422941 , -0.003339019, -0.0005766992, -0.396773815, 5           , 3           , 50          , 0           , 0
-0.009345219, 0.0324266851, -9.779518   , 0.00108586  , -0.0009975967, 0.000864247442, 0.395308077 , 0.164217338 , 0.340434134 , -0.00332816527, -0.0005866464, -0.396765   , 5.01        , 3           , 11          , 0.00570930541, 0.00570932869
-0.007605737, 0.0287765581, -9.77364349 , 0.00022589961, 0.001178794 , -0.00238552131, 0.395308077 , 0.164217338 , 0.340434134 , -0.00332589261, -0.0005749378, -0.396788836, 5.02        , 3           , 12          , 0.0738944858, 0
