Acc X       , Acc Y       , Acc Z       , Gyro X      , Gyro Y      , Gyro Z      , Magn X      , Magn Y      , Magn Z      , Euler X     , Euler Y     , Euler Z     , Time        , Status      , LowRate X   , LowRate Y   , LowRate Z    
0.0112968646, 0.04757954  , -9.795116   , 0.00020368633, -0.0006627875, 0.00131141115, 0.4007011   , 0.160105169 , 0.3332884   , -0.004251756, 0.0006367327, -0.38297534 , 0           , 3           , 11          , 0.0346410163, 0.0346410163
0.0241741072, 0.0623217151, -9.795861   , -8.849861E-05, 0.00130625791, 0.00131313177, 0.400835931 , 0.159970343 , 0.33349064  , -0.00425263261, 0.000649851048, -0.382962227, 0.01        , 3           , 12          , 0.0346410163, 0
-0.0100407666, 0.04421261  , -9.79303551 , 0.00102907792, 0.00356641412, -0.000373353745, 0.400768518 , 0.1597681   , 0.333625466 , -0.00424234429, 0.0006854989, -0.382966042, 0.02        , 3           , 14          , 0.000439853553, 0.0005479694
-0.009688509, 0.04189408  , -9.775866   , 0.0007659151, -9.583662E-05, 0.00159745058, 0.400364041 , 0.16024     , 0.332951337 , -0.004234675, 0.0006846082, -0.382950068, 0.03        , 3           , 15          , 0           , 8.61613E-05
0.02353074  , 0.0465503447, -9.799999   , -0.00149833411, 0.0007335757, 0.0004580667, 0.400364041 , 0.16024     , 0.332951337 , -0.00424965471, 0.0006919634, -0.382945538, 0.04        , 3           , 50          , 0           , 0
0.0298162121, 0.0370592028, -9.817165   , -0.000655562, 0.00158399949, -0.00010175541, 0.40103817  , 0.160037756 , 0.3333558   , -0.00425621169, 0.00070779887, -0.38294673 , 0.05        , 3           , 11          , 0.0346410163, 0.0346410163
0.009299958 , 0.0358451679, -9.787497   , -0.0006617906, 0.00271025649, -0.00123016967, 0.40056628  , 0.160105169 , 0.33349064  , -0.004262839, 0.0007348486, -0.382959127, 0.06        , 3           , 12          , 0.0346410163, 0
-0.0302170739, 0.061574392 , -9.786789   , -0.00177379081, -0.000676159631, 0.0004545801, 0.400431454 , 0.16024     , 0.3327491   , -0.00428057369, 0.0007281065, -0.382954359, 0.07        , 3           , 14          , 0.000439853553, 0.0005479694
0.009111373 , 0.0579357259, -9.781078   , -0.00149554608, 0.000170445477, 0.000457198825, 0.400431454 , 0.16024     , 0.3327491   , -0.00429552561, 0.0007298304, -0.382949829, 0.08        , 3           , 15          , 0           , 8.61613E-05
0.00277074426, 0.05577707  , -9.787916   , 0.00018786281, 0.00243442622, 0.0004685719, 0.40103817  , 0.16024     , 0.3332884   , -0.004293643, 0.0007541947, -0.3829453  , 0.09        , 3           , 50          , 0           , 0
0.02435081  , 0.0469167829, -9.777845   , 0.000477674417, 0.00074694067, -0.00122793938, 0.40056628  , 0.160037756 , 0.333558053 , -0.00428889645, 0.0007616036, -0.3829577  , 0.1         , 3           , 11          , 0.0346410163, 0.0346410163
0.0301444121, 0.040077392 , -9.776925   , -0.0014971036, 0.0004520097, 0.000175095265, 0.40056628  , 0.1603074   , 0.333086163 , -0.0043038656, 0.000766131154, -0.3829558  , 0.11        , 3           , 12          , 0.0346410163, 0
0.0075792307, 0.0421886   , -9.789291   , -0.000393467344, 0.005527816 , -0.00150705082, 0.40056628  , 0.1603074   , 0.333086163 , -0.004307812, 0.000821344031, -0.382971048, 0.12        , 3           , 14          , 0.0004398539, 0.000547969539
-0.0125865117, 0.05107829  , -9.812912   , -0.0003657504, -0.000103486, -0.00179826713, 0.400970757 , 0.160037756 , 0.3332884   , -0.00431148475, 0.0008202317, -0.382989168, 0.13        , 3           , 15          , 0           , 8.616132E-05
0.008127272 , 0.04493857  , -9.80374    , -0.000638092868, -0.00207635015, -0.00123754644, 0.400431454 , 0.15990293  , 0.333625466 , -0.004317875, 0.000799415 , -0.383001566, 0.14        , 3           , 50          , 0           , 0
0.008888122 , 0.03320556  , -9.806042   , 0.00103990326, 0.00131389149, -0.0009419002, 0.40056628  , 0.160037756 , 0.33301875  , -0.00430748425, 0.0008125131, -0.383010864, 0.15        , 3           , 11          , 0.0346410163, 0.0346410163
0.00164375815, 0.0386469774, -9.7889     , -0.0003630512, -0.0003850448, 0.000461598684, 0.40056628  , 0.160037756 , 0.33301875  , -0.00431111129, 0.0008086827, -0.383006334, 0.16        , 3           , 12          , 0.0346410163, 0
0.001162949 , 0.06355105  , -9.812756   , -0.0006494081, 0.0001761698, -0.0015166126, 0.40103817  , 0.160037756 , 0.33349064  , -0.004317617, 0.00081037893, -0.3830216  , 0.17        , 3           , 14          , 0.0004398539, 0.000547969539
0.0267138239, 0.05232669  , -9.784584   , -0.00232970272, -0.002650939, -0.0009637785, 0.4006337   , 0.159835517 , 0.333423227 , -0.00434092153, 0.0007838281, -0.3830309  , 0.18        , 3           , 15          , 0           , 8.616132E-05
0.0115307551, 0.03132824  , -9.793826   , -0.003181165, -0.001811974, -0.000966427557, 0.400364041 , 0.159970343 , 0.33301875  , -0.00437274156, 0.000765666366, -0.383040667, 0.19        , 3           , 50          , 0           , 0
0.0168831944, 0.0276280288, -9.785665   , 0.00102301175, 0.00469267229, -0.00121923047, 0.400364041 , 0.159970343 , 0.33301875  , -0.004362528, 0.0008125452, -0.383053064, 0.2         , 3           , 11          , 0.03466943  , 0.0346694328
0.00165757071, 0.042228967 , -9.780749   , 0.0004769327, 0.001028509 , -9.735556E-05, 0.400835931 , 0.160172582 , 0.333423227 , -0.00435775938, 0.0008228259, -0.383054018, 0.21        , 3           , 12          , 0.0346692465, 0
-0.0196781009, 0.0415417328, -9.770519   , 0.00103465328, 0.00244015362, -0.000375089527, 0.40056628  , 0.159970343 , 0.333558053 , -0.004347416, 0.0008472108, -0.383057833, 0.22        , 3           , 14          , 0.000439854135, 0.000547969365
-0.00330299954, 0.0467672125, -9.771276   , 0.00158721267, 0.004696489 , -0.00234674662, 0.400498867 , 0.160442233 , 0.3328165   , -0.00433156453, 0.000894073455, -0.383081436, 0.23        , 3           , 15          , 0           , 8.616133E-05
-0.00765961967, 0.0265011489, -9.767778   , -0.0009388939, 0.00186365691, 0.000744973833, 0.400498867 , 0.160442233 , 0.3328165   , -0.00434094574, 0.0009127421, -0.383074045, 0.24        , 3           , 50          , 0           , 0
-0.00552650262, 0.03834589  , -9.808391   , 0.00385866966, 0.00274082413, 0.00161627622, 0.400903344 , 0.15990293  , 0.33349064  , -0.004302344, 0.00094022  , -0.383058071, 0.25        , 3           , 11          , 0.03466943  , 0.0346694328
0.00709816255, 0.0341366865, -9.808312   , 0.00359141338, -0.000358302757, 0.00132764829, 0.400903344 , 0.15990293  , 0.333625466 , -0.00426641665, 0.000936694036, -0.38304472 , 0.26        , 3           , 12          , 0.0346692465, 0
-0.00969067 , 0.0338580273, -9.80121    , 0.00218157819, -0.0009309851, 0.0004725832, 0.40056628  , 0.160172582 , 0.33301875  , -0.0042445967, 0.0009274044, -0.383039951, 0.27        , 3           , 14          , 0.000439854135, 0.000547969365
-0.00164898578, 0.0359062254, -9.767693   , 0.00104564219, 0.0001876321, -0.000661098456, 0.40056628  , 0.160172582 , 0.33301875  , -0.00423414726, 0.0009292528, -0.383046627, 0.28        , 3           , 15          , 0           , 8.616133E-05
-0.0114056021, 0.0455623567, -9.787163   , 0.00104924582, -0.000375494041, 0.0007507209, 0.400835931 , 0.16037482  , 0.3333558   , -0.00422364753, 0.0009255296, -0.383039236, 0.29        , 3           , 50          , 0           , 0
-0.00233958662, 0.0468034446, -9.78528    , 0.0010513817, -0.0009386289, -0.0003802973, 0.400498867 , 0.160105169 , 0.333625466 , -0.004213131, 0.000916093762, -0.3830428  , 0.3         , 3           , 11          , 0.03475511  , 0.0347551219
-0.008174008, 0.05137801  , -9.783499   , -0.0006581871, 0.00214712881, 0.000181649084, 0.400970757 , 0.160037756 , 0.332951337 , -0.00421971129, 0.0009375725, -0.383041143, 0.31        , 3           , 12          , 0.03475475  , 0
-0.00506396033, 0.0414729267, -9.800691   , -8.59483262E-05, 0.00046155334, -0.00151354528, 0.400970757 , 0.160037756 , 0.332951337 , -0.00422058441, 0.000942124054, -0.3830564  , 0.32        , 3           , 14          , 0.0004398538, 0.000547971
0.01932716  , 0.0442623049, -9.776086   , -0.00206261 , 0.000448185136, -0.000957688957, 0.401105583 , 0.160037756 , 0.3333558   , -0.00424121972, 0.0009465654, -0.383065939, 0.33        , 3           , 15          , 0           , 8.616193E-05
-0.00708967727, 0.05865383  , -9.803799   , 0.00160926522, 0.000473016436, -0.000375493779, 0.400768518 , 0.159700692 , 0.333692878 , -0.00422513 , 0.000951279653, -0.383069754, 0.34        , 3           , 50          , 0           , 0
-0.007156846, 0.0585994124, -9.787529   , 0.00106179225, -0.00290958118, 0.0007468149, 0.40056628  , 0.1603074   , 0.33301875  , -0.00421450473, 0.0009222156, -0.383062124, 0.35        , 3           , 11          , 0.03475511  , 0.0347551219
0.007354443 , 0.06067902  , -9.785602   , -0.0009144541, -0.00320451963, -0.000392987335, 0.40056628  , 0.1603074   , 0.33301875  , -0.004223653, 0.000890154042, -0.383065939, 0.36        , 3           , 12          , 0.03475475  , 0
0.0179886762, 0.04340165  , -9.783783   , 0.00189267111, 0.000474930945, 0.00132104789, 0.401307821 , 0.159970343 , 0.333625466 , -0.00420471467, 0.000894959 , -0.3830526  , 0.37        , 3           , 14          , 0.0004398538, 0.000547971
-0.0148454513, 0.0252947342, -9.786369   , 0.00188086659, 0.00272744847, 0.000194369364, 0.400903344 , 0.15990293  , 0.333558053 , -0.00418590428, 0.0009222414, -0.38305068 , 0.38        , 3           , 15          , 0           , 8.616193E-05
-0.008987692, 0.0296660829, -9.765063   , 0.005274986 , 0.001905677 , 0.00162155833, 0.400296628 , 0.160105169 , 0.332951337 , -0.004133139, 0.00094136555, -0.3830347  , 0.39        , 3           , 50          , 0           , 0
-0.005194895, 0.0409204848, -9.770411   , 0.00047349208, 0.00159163249, -0.00122663856, 0.400296628 , 0.160105169 , 0.332951337 , -0.004128422, 0.000957198441, -0.3830471  , 0.4         , 3           , 11          , 0.0348972343, 0.0348972343
0.00116144493, 0.03907472  , -9.780314   , -0.000920846243, -0.00207826518, -0.00180393946, 0.40103817  , 0.160037756 , 0.33349064  , -0.00413764734, 0.000936341239, -0.383065   , 0.41        , 3           , 12          , 0.0348966755, 0
-0.00305614714, 0.0278483145, -9.78175    , 0.00246186974, -0.000365945569, 0.00160491734, 0.4007011   , 0.159970343 , 0.3337603   , -0.004113014, 0.000932748 , -0.383049   , 0.42        , 3           , 14          , 0.000439854164, 0.0005479731
-0.00353646 , 0.0233678222, -9.789455   , -0.00263082981, 0.00128906232, 0.00045366594, 0.400431454 , 0.160037756 , 0.33301875  , -0.004139317, 0.000945657433, -0.383044481, 0.43        , 3           , 15          , 0           , 8.61622248E-05
0.00249367859, 0.0390376076, -9.773975   , 0.000462176919, 0.0038441522, -0.0015057046, 0.400431454 , 0.160037756 , 0.33301875  , -0.00413471041, 0.0009840362, -0.38305974 , 0.44        , 3           , 50          , 0           , 0
0.00546441041, 0.0548338   , -9.785187   , -7.87412E-05, -0.000664701161, 0.00131009333, 0.40103817  , 0.160105169 , 0.333692878 , -0.004135485, 0.0009774436, -0.383046627, 0.45        , 3           , 11          , 0.0348972343, 0.0348972343
0.00350593054, 0.03955977  , -9.798374   , 0.00189046119, 0.000756490161, -9.120572E-05, 0.40056628  , 0.159970343 , 0.33349064  , -0.00411658129, 0.0009850048, -0.383047581, 0.46        , 3           , 12          , 0.0348966755, 0
0.000619033352, 0.0287413541, -9.79166    , 0.00217781146, -0.000367863366, -0.0012217745, 0.400364041 , 0.160442233 , 0.332951337 , -0.004094816, 0.0009812759, -0.38305974 , 0.47        , 3           , 14          , 0.000439854164, 0.0005479731
-0.00430291053, 0.0350962877, -9.785795   , 0.0007734626, -0.00178523478, 0.000182158386, 0.400364041 , 0.160442233 , 0.332951337 , -0.00408707839, 0.0009634312, -0.383057833, 0.48        , 3           , 15          , 0           , 8.61622248E-05
0.0434280224, 0.0525448881, -9.773607   , 0.00160910166, 0.000473013526, -0.000658031553, 0.400835931 , 0.16024     , 0.3333558   , -0.004070995, 0.000968134555, -0.3830645  , 0.49        , 3           , 50          , 0           , 0
0.024772238 , 0.03974445  , -9.793239   , 0.002167475 , 0.00188466057, 0.0001943846, 0.40056628  , 0.159970343 , 0.333625466 , -0.00404931838, 0.0009869797, -0.3830626  , 0.5         , 3           , 11          , 0.0350946561, 0.0350946635
0.00693530962, 0.02820217  , -9.787546   , 0.000752804452, 0.00215667067, -0.00178952853, 0.400364041 , 0.160105169 , 0.332951337 , -0.00404180866, 0.00100847369, -0.383080721, 0.51        , 3           , 12          , 0.0350939073, 0
0.0298353638, 0.007689748 , -9.805536   , 0.0007541097, 0.00215667672, 0.000470771338, 0.400364041 , 0.160105169 , 0.332951337 , -0.00403426262, 0.00103005941, -0.383075953, 0.52        , 3           , 14          , 0.000439854222, 0.0005479738
0.0218266454, 0.0226295758, -9.792428   , -0.00177493354, -0.0006761695, -0.00152318273, 0.400835931 , 0.159835517 , 0.333423227 , -0.00405202759, 0.00102323643, -0.3830912  , 0.53        , 3           , 15          , 0           , 8.616184E-05
0.0105523206, 0.0286017284, -9.784805   , -0.00235307473, 0.00213566469, -0.000391327165, 0.400431454 , 0.15990293  , 0.333692878 , -0.004075563, 0.00104457687, -0.383095026, 0.54        , 3           , 50          , 0           , 0
0.0020901598, 0.04265364  , -9.774416   , 0.000181470416, 0.003560678 , -0.000942380168, 0.400498867 , 0.160105169 , 0.33301875  , -0.00407375768, 0.00108014478, -0.3831048  , 0.55        , 3           , 11          , 0.0350946561, 0.0350946635
0.008480872 , 0.0368185751, -9.805578   , -0.0017626395, -0.00292868447, 0.000451108121, 0.400498867 , 0.160105169 , 0.33301875  , -0.004091379, 0.00105087657, -0.383100033, 0.56        , 3           , 12          , 0.0350939073, 0
0.0194193423, 0.047907792 , -9.786918   , 0.00244506728, 0.00273126271, -0.0009331465, 0.40103817  , 0.160105169 , 0.33349064  , -0.00406693853, 0.00107815093, -0.38310957 , 0.57        , 3           , 14          , 0.000439854222, 0.0005479738
0.008005894 , 0.0421621054, -9.78296    , 0.000768791069, -0.0009405425, -0.0006641516, 0.400768518 , 0.16024     , 0.3337603   , -0.00405925745, 0.00106871873, -0.383116245, 0.58        , 3           , 15          , 0           , 8.616184E-05
-0.0066416054, 0.05730565  , -9.806965   , 0.0004821823, -9.775721E-05, -0.000664166757, 0.4006337   , 0.160105169 , 0.33301875  , -0.00405444251, 0.00106771418, -0.383122683, 0.59        , 3           , 50          , 0           , 0
-0.00209994055, 0.0608344935, -9.79878    , -0.0009188886, -0.002078257, 0.00158651208, 0.4006337   , 0.160105169 , 0.33301875  , -0.00406361558, 0.001046991 , -0.383106947, 0.6         , 3           , 11          , 0.0353460461, 0.0353460461
0.02405034  , 0.0537407771, -9.793186   , -9.644827E-05, 0.00271407375, -0.000379922538, 0.400970757 , 0.16024     , 0.333423227 , -0.00406458462, 0.001074116 , -0.383110762, 0.61        , 3           , 12          , 0.0353450961, 0
0.0223601852, 0.0284922551, -9.79330349 , 0.00189192907, 0.000756496 , 0.002451633 , 0.400835931 , 0.1603074   , 0.3338277   , -0.004045639, 0.0010817803, -0.3830862  , 0.62        , 3           , 14          , 0.0004398543, 0.000547974254
0.0342480242, 0.03826728  , -9.7895565  , 0.0004851334, -0.0006608871, -0.000382495869, 0.40056628  , 0.16024     , 0.333153576 , -0.004040792, 0.001075156 , -0.383090019, 0.63        , 3           , 15          , 0           , 8.6160544E-05
0.0240010731, 0.05013005  , -9.792749   , 0.001333808 , -0.000936722266, -0.000378979021, 0.40056628  , 0.16024     , 0.333153576 , -0.004027458, 0.00106577366, -0.383093834, 0.64        , 3           , 50          , 0           , 0
-3.988482E-05, 0.047252208 , -9.792493   , -0.000354361284, -0.00207443861, 0.00102407089, 0.400768518 , 0.159970343 , 0.33349064  , -0.00403099041, 0.00104507082, -0.383083582, 0.65        , 3           , 11          , 0.0353460461, 0.0353460461
0.0298290178, 0.0468892828, -9.78865051 , 0.00331653468, -0.00204961188, -8.895871E-05, 0.400903344 , 0.160105169 , 0.333625466 , -0.00399782555, 0.00102457113, -0.3830843  , 0.66        , 3           , 12          , 0.0353450961, 0
0.0362992063, 0.0202143062, -9.795491   , -0.000631375238, -0.00320260925, 0.0007384807, 0.4006337   , 0.16037482  , 0.333086163 , -0.004004132, 0.0009925747, -0.3830769  , 0.67        , 3           , 14          , 0.0004398543, 0.000547974254
0.01302496  , 0.0385639742, -9.803728   , -0.00318174367, -0.00153040944, 0.000446694379, 0.4006337   , 0.16037482  , 0.333086163 , -0.004035945, 0.0009772886, -0.383072376, 0.68        , 3           , 15          , 0           , 8.6160544E-05
-0.00053489767, 0.0405280478, -9.803824   , -0.00121590809, 0.0007354808, 0.0004593844, 0.400903344 , 0.160172582 , 0.333423227 , -0.00404809974, 0.0009846619, -0.383067846, 0.69        , 3           , 50          , 0           , 0
0.00326824374, 0.02820841  , -9.776728   , 0.0047129197, 0.00133872544, 0.00161805947, 0.400431454 , 0.160037756 , 0.333558053 , -0.004000956, 0.0009981331, -0.383051634, 0.7         , 3           , 11          , 0.03564984  , 0.0356498435
-0.0146190934, 0.04154676  , -9.789465   , 0.00132962584, -9.202503E-05, -0.000377675577, 0.40056628  , 0.16037482  , 0.33301875  , -0.00398766343, 0.0009971977, -0.383055449, 0.71        , 3           , 12          , 0.03564869  , 0
-0.002849658, 0.0449769422, -9.777157   , 0.000769117149, -0.0009405394, -9.90737753E-05, 0.40056628  , 0.16037482  , 0.33301875  , -0.003979974, 0.0009877888, -0.3830564  , 0.72        , 3           , 14          , 0.000439854484, 0.0005479723
0.009016476 , 0.0480391271, -9.789709   , 0.000205242439, -0.00094435463, 0.00159351714, 0.400970757 , 0.160105169 , 0.333692878 , -0.00397790549, 0.0009784086, -0.383040428, 0.73        , 3           , 15          , 0           , 8.6158936E-05
0.009451259 , 0.04891193  , -9.78247    , -0.004319163, 0.00015134603, 0.00157418184, 0.40056628  , 0.160037756 , 0.333558053 , -0.00402108161, 0.0009799848, -0.3830247  , 0.74        , 3           , 50          , 0           , 0
0.0112490114, 0.04843346  , -9.78065    , -0.00178297167, 0.0010132239, -0.000955501164, 0.40056628  , 0.1603074   , 0.33301875  , -0.004038921, 0.0009900787, -0.383034229, 0.75        , 3           , 11          , 0.03564984  , 0.0356498435
-0.00877098553, 0.04546394  , -9.767256   , -0.0006393243, -0.001794787, -0.000954572752, 0.40056628  , 0.1603074   , 0.33301875  , -0.0040453244, 0.0009720924, -0.383043766, 0.76        , 3           , 12          , 0.03564869  , 0
0.00122606289, 0.0458223373, -9.77441    , -0.0012182811, 0.00101704313, -0.00123540475, 0.400768518 , 0.15990293  , 0.333423227 , -0.004057518, 0.0009822125, -0.383056164, 0.77        , 3           , 14          , 0.000439854484, 0.0005479723
0.02199143  , 0.0388317071, -9.780607   , 0.0004902198, -0.00178714783, -0.00123184244, 0.400431454 , 0.160105169 , 0.333558053 , -0.004052628, 0.0009642912, -0.383068323, 0.78        , 3           , 15          , 0           , 8.6158936E-05
0.0119352285, 0.03663998  , -9.7648735  , -0.00148390559, -0.00208207569, 0.00130134216, 0.400498867 , 0.160577059 , 0.3328165   , -0.004067455, 0.000943523366, -0.3830552  , 0.79        , 3           , 50          , 0           , 0
0.007878685 , 0.0589462   , -9.808656   , 0.0004914498, -0.00206871424, -0.0015148184, 0.400498867 , 0.160577059 , 0.3328165   , -0.004062562, 0.000922772044, -0.38307023 , 0.8         , 3           , 11          , 0.0360043   , 0.0360043
0.0106150033, 0.02508172  , -9.811487   , 0.000758943148, 0.00131198554, 0.001599618 , 0.400768518 , 0.1603074   , 0.3332884   , -0.00405495754, 0.0009359567, -0.3830545  , 0.81        , 3           , 12          , 0.0360029452, 0
-0.0111651346, 0.03065544  , -9.783155   , 0.00160466623, 0.00159928  , 0.00132146524, 0.4007011   , 0.159565866 , 0.333558053 , -0.00403889827, 0.0009520029, -0.383041143, 0.82        , 3           , 14          , 0.0004398554, 0.0005479726
0.009790386 , 0.036316704 , -9.795175   , -0.00150997739, 0.00298609072, -0.000386076135, 0.40056628  , 0.160442233 , 0.33301875  , -0.004054002, 0.0009818481, -0.3830452  , 0.83        , 3           , 15          , 0           , 8.616345E-05
0.0145715419, 0.0235987883, -9.787056   , 0.00131617428, 0.00272362772, 0.000474271452, 0.40056628  , 0.160442233 , 0.33301875  , -0.00404083543, 0.00100910326, -0.383040667, 0.84        , 3           , 50          , 0           , 0
0.00687792432, 0.06646766  , -9.761173   , 0.0004749592, 0.00159164018, 0.00131619745, 0.400835931 , 0.160105169 , 0.333692878 , -0.00403607264, 0.00102507276, -0.383027554, 0.85        , 3           , 11          , 0.0360043   , 0.0360043
-0.010490478, 0.0861032   , -9.769812   , -0.00205810321, -0.0003965101, -0.00039391726, 0.40056628  , 0.15990293  , 0.3333558   , -0.004056657, 0.00102109171, -0.383031368, 0.86        , 3           , 12          , 0.0360029452, 0
-0.01995081 , 0.0506199673, -9.785399   , 0.000184094068, 0.00299754785, -0.001225787, 0.400364041 , 0.160105169 , 0.3328165   , -0.00405482948, 0.0010510172, -0.383043766, 0.87        , 3           , 14          , 0.0004398554, 0.0005479726
0.004008538 , 0.04138022  , -9.804689   , 0.0007555025, 0.00187511288, 0.00047033577, 0.400364041 , 0.160105169 , 0.3328165   , -0.00404727 , 0.00106978719, -0.383039236, 0.88        , 3           , 15          , 0           , 8.616345E-05
0.00212508533, 0.036879383 , -9.80155849 , 0.00302876858, -0.0006436871, 0.00273726555, 0.400835931 , 0.160172582 , 0.33349064  , -0.004016953, 0.00106346083, -0.383011818, 0.89        , 3           , 50          , 0           , 0
0.0245563872, 0.0301961973, -9.77113152 , 0.00218124781, -0.0009309938, -9.249186E-05, 0.4006337   , 0.159970343 , 0.333692878 , -0.00399516337, 0.00105411722, -0.383012533, 0.9         , 3           , 11          , 0.0364075527, 0.0364075527
0.03267035  , 0.0616879277, -9.771391   , 0.00188841042, 0.00103804865, -0.00122092117, 0.400498867 , 0.16037482  , 0.333153576 , -0.00397629244, 0.00106444908, -0.383024931, 0.91        , 3           , 12          , 0.0364059843, 0
0.0395672023, 0.0349864624, -9.771902   , 0.000485292636, -0.0006608885, -9.995952E-05, 0.400498867 , 0.16037482  , 0.333153576 , -0.00397144025, 0.001057836 , -0.383025885, 0.92        , 3           , 14          , 0.000439858239, 0.000547976466
-0.005979607, 0.0205710754, -9.754683   , 0.000202539537, -0.000662800041, -0.0006663514, 0.40056628  , 0.160105169 , 0.333692878 , -0.00396942254, 0.00105118146, -0.38303256 , 0.93        , 3           , 15          , 0           , 8.61616863E-05
0.001553313 , 0.03991274  , -9.76268    , 0.0021837838, -0.00121255335, 0.00188483635, 0.400498867 , 0.1603074   , 0.333625466 , -0.00394756533, 0.00103913085, -0.383013725, 0.94        , 3           , 50          , 0           , 0
-0.0105111282, 0.04822083  , -9.775846   , -0.00289883139, -0.00152849953, 0.00129562267, 0.40056628  , 0.1603074   , 0.33301875  , -0.00397653971, 0.0010238972, -0.3830006  , 0.95        , 3           , 11          , 0.0364075527, 0.0364075527
0.00560098048, 0.0304693412, -9.786192   , -0.0009437326, 0.00270834169, -0.0003838745, 0.40056628  , 0.1603074   , 0.33301875  , -0.003985981, 0.00105096493, -0.383004427, 0.96        , 3           , 12          , 0.0364059843, 0
0.0129015483, 0.0656172   , -9.797289   , -8.73467943E-05, 0.000743113 , -0.00151311117, 0.400970757 , 0.159835517 , 0.33349064  , -0.0039868704, 0.00105833577, -0.3830197  , 0.97        , 3           , 14          , 0.000439858239, 0.000547976466
-0.00287872553, 0.04093624  , -9.78305    , 0.000764190045, 0.000185719749, 0.00103280891, 0.4006337   , 0.16024     , 0.333625466 , -0.00397921773, 0.00106023392, -0.383009434, 0.98        , 3           , 15          , 0           , 8.61616863E-05
-0.0115016131, 0.0392356552, -9.784027   , -0.00345655181, -0.002940144, 0.0015733568, 0.40056628  , 0.160172582 , 0.333153576 , -0.004013767, 0.00103089574, -0.38299346 , 0.99        , 3           , 50          , 0           , 0
0.0191361886, 0.0605483651, -9.787771   , 0.00105358532, -0.00122019893, 0.0010319564, 0.40056628  , 0.160172582 , 0.333153576 , -0.00400323328, 0.00101871067, -0.3829832  , 1           , 3           , 11          , 0.0368575975, 0.0368576
0.0184449926, 0.0380429924, -9.801881   , 0.00386793236, 0.0007698555, 0.000765625853, 0.400970757 , 0.15990293  , 0.333625466 , -0.00396454567, 0.00102643971, -0.382975578, 1.01        , 3           , 12          , 0.0368558019, 0
0.000365370885, 0.04854743  , -9.776666   , 0.00103448424, 0.00244014245, -0.000657627068, 0.400835931 , 0.160037756 , 0.333423227 , -0.003954208, 0.001050815 , -0.382982254, 1.02        , 3           , 14          , 0.000439859956, 0.000547979842
-0.00125067029, 0.06033189  , -9.7865715  , -0.0006489247, 0.000176161819, -0.000669000146, 0.400498867 , 0.16037482  , 0.3328165   , -0.003960704, 0.00105255  , -0.38298893 , 1.03        , 3           , 15          , 0           , 8.61614244E-05
0.02095237  , 0.06231659  , -9.783231   , 0.00105711468, -0.00206489745, -9.94950751E-05, 0.400498867 , 0.16037482  , 0.3328165   , -0.00395013439, 0.00103189726, -0.382989883, 1.04        , 3           , 50          , 0           , 0
0.0235159136, 0.0492164344, -9.787786   , -0.00148939819, -0.001237394, -0.0009576582, 0.400903344 , 0.160037756 , 0.333625466 , -0.003965038, 0.00101948553, -0.38299942 , 1.05        , 3           , 11          , 0.0368575975, 0.0368576
0.0209373776, 0.03470487  , -9.757581   , 0.006413215 , 0.000223918061, 0.00190676039, 0.40056628  , 0.160037756 , 0.333625466 , -0.00390088628, 0.00102179986, -0.382980347, 1.06        , 3           , 12          , 0.0368558019, 0
-0.00255344249, 0.03234695  , -9.779467   , -0.00150317512, 0.00157825742, -0.0006707813, 0.400431454 , 0.160105169 , 0.333086163 , -0.003915925, 0.001037556 , -0.382987022, 1.07        , 3           , 14          , 0.000439859956, 0.000547979842
-0.0105583975, 0.0397018753, -9.791701   , 0.00161467178, -0.0006532536, -0.0006597665, 0.400431454 , 0.160105169 , 0.333086163 , -0.00389978546, 0.00103099772, -0.3829937  , 1.08        , 3           , 15          , 0           , 8.61614244E-05
-0.0151776476, 0.03209301  , -9.794027   , -0.00149768789, 0.00073356845, 0.00158821663, 0.40103817  , 0.16024     , 0.333625466 , -0.00391474552, 0.00103839533, -0.382977724, 1.09        , 3           , 50          , 0           , 0
0.006420915 , 0.05307904  , -9.803267   , -0.00120657287, -0.000953914248, 0.00215200731, 0.400498867 , 0.15990293  , 0.333692878 , -0.003926803, 0.00102891587, -0.382956266, 1.1         , 3           , 11          , 0.0373523533, 0.0373523533
0.01296849  , 0.06790319  , -9.806319   , -7.997986E-05, -0.0003831458, 0.001593068 , 0.400768518 , 0.16037482  , 0.332951337 , -0.0039275866, 0.00102514669, -0.3829403  , 1.11        , 3           , 12          , 0.0373503231, 0
0.0141598377, 0.05882492  , -9.794597   , -0.00177084829, -0.00123930315, 0.0007362522, 0.400768518 , 0.16037482  , 0.332951337 , -0.00394528732, 0.0010127828, -0.3829329  , 1.12        , 3           , 14          , 0.000439862 , 0.000547983567
0.02111781  , 0.03663648  , -9.795539   , -0.000352233561, -0.002637581, -0.000106945117, 0.400970757 , 0.160037756 , 0.33349064  , -0.00394881051, 0.000986403 , -0.382933855, 1.13        , 3           , 15          , 0           , 8.615894E-05
-0.009743111, 0.02845933  , -9.805753   , 0.00274142623, -8.24880262E-05, -0.0009361659, 0.40056628  , 0.1597681   , 0.333692878 , -0.003921406, 0.0009855415, -0.382943153, 1.14        , 3           , 50          , 0           , 0
-0.000730125234, 0.0336746052, -9.778091   , -0.000355511, -0.00207445351, -0.0009536897, 0.4006337   , 0.159970343 , 0.333221    , -0.00392497 , 0.0009647597, -0.3829527  , 1.15        , 3           , 11          , 0.0373523533, 0.0373523533
0.00530830026, 0.0377459973, -9.801983   , 0.00160458568, 0.00131769676, -0.0012218015, 0.4006337   , 0.159970343 , 0.333221    , -0.0039089364, 0.0009778885, -0.382964849, 1.16        , 3           , 12          , 0.0373503231, 0
0.00324769132, 0.0357797146, -9.747317   , 0.00132797228, 0.000471099251, 0.00160095445, 0.400768518 , 0.159970343 , 0.333558053 , -0.00389564084, 0.0009826621, -0.3829491  , 1.17        , 3           , 14          , 0.000439862 , 0.000547983567
-0.014103069, 0.0189029668, -9.766954   , -8.14482046E-05, -0.000383152859, -0.0009497692, 0.400229216 , 0.1603074   , 0.333692878 , -0.00389646459, 0.0009787936, -0.3829584  , 1.18        , 3           , 15          , 0           , 8.615894E-05
-0.0241407454, 0.0389696248, -9.794971   , 0.00161081413, 0.000191439409, -9.338724E-05, 0.400768518 , 0.160172582 , 0.332951337 , -0.00388035714, 0.0009807042, -0.382959366, 1.19        , 3           , 50          , 0           , 0
-0.0139915086, 0.0510564372, -9.801623   , -0.00177551946, -0.000394617033, -0.00011005647, 0.400768518 , 0.160172582 , 0.332951337 , -0.0038981128, 0.0009767102, -0.382960558, 1.2         , 3           , 11          , 0.0378896855, 0.0378896855
0.0138273826, 0.03266721  , -9.79742    , -0.00121206 , -0.000109232031, -0.000106988664, 0.400970757 , 0.160037756 , 0.333625466 , -0.00391023466, 0.0009756137, -0.3829615  , 1.21        , 3           , 12          , 0.0378874131, 0
0.00190124847, 0.0642975941, -9.769357   , 0.00217132317, 0.00103994715, -0.0003719872, 0.4006337   , 0.15990293  , 0.333692878 , -0.0038885253, 0.0009859985, -0.382965326, 1.22        , 3           , 14          , 0.000439861848, 0.0005479903
0.03052872  , 0.0382311828, -9.766081   , -0.0006648389, 0.0035549365, 0.0007488986, 0.40056628  , 0.160172582 , 0.333221    , -0.003895166, 0.001021577 , -0.382957935, 1.23        , 3           , 15          , 0           , 8.615709E-05
0.008498745 , 0.04085021  , -9.796974   , 0.000217781169, -0.00347845862, 0.00158961338, 0.40056628  , 0.160172582 , 0.333221    , -0.0038929726, 0.0009868544, -0.382941961, 1.24        , 3           , 50          , 0           , 0
0.00532257  , 0.03686486  , -9.808313   , -0.00121271249, -0.000109235145, -0.00123713864, 0.400768518 , 0.160037756 , 0.333558053 , -0.00390511169, 0.0009857138, -0.382954359, 1.25        , 3           , 11          , 0.0378896855, 0.0378896855
-0.004005123, 0.05720875  , -9.78751    , 0.00104751787, -9.395147E-05, 0.000186084042, 0.4007011   , 0.159835517 , 0.333895117 , -0.00389463478, 0.0009847815, -0.382952452, 1.26        , 3           , 12          , 0.0378874131, 0
0.0144030564, 0.042581182 , -9.795567   , -0.00205450575, -0.0009596541, 0.00101790845, 0.4007011   , 0.1603074   , 0.33301875  , -0.00391516974, 0.0009752249, -0.3829422  , 1.27        , 3           , 14          , 0.000439861848, 0.0005479903
0.0207913145, 0.0461174771, -9.795954   , 0.00330077833, 0.00132915762, 0.00161147653, 0.4007011   , 0.1603074   , 0.33301875  , -0.00388214621, 0.0009885792, -0.382926226, 1.28        , 3           , 15          , 0           , 8.615709E-05
0.005621733 , 0.0282544047, -9.798404   , -0.00571325654, -0.00380013953, -0.0009813133, 0.400835931 , 0.16024     , 0.333558053 , -0.003939288, 0.0009505398, -0.382935762, 1.29        , 3           , 50          , 0           , 0
-0.0120708039, 0.0279878918, -9.79176    , -0.00431417441, -0.0006933645, 0.00298556965, 0.40056628  , 0.160172582 , 0.333558053 , -0.003982412, 0.0009437171, -0.38290596 , 1.3         , 3           , 11          , 0.03846744  , 0.03846744
0.0212146733, 0.0492127724, -9.778763   , -0.00431023 , -0.0018196326, 0.0001584593, 0.4006337   , 0.16037482  , 0.333153576 , -0.00402551237, 0.000925527245, -0.3829043  , 1.31        , 3           , 12          , 0.03846491  , 0
0.0142776482, 0.031767156 , -9.799679   , -0.000359042, -0.0012297628, 0.000177764246, 0.4006337   , 0.16037482  , 0.333153576 , -0.004029101, 0.000913236931, -0.382902384, 1.32        , 3           , 14          , 0.000439863565, 0.000547991542
0.0183241721, 0.0334815942, -9.786986   , -0.0034764  , 0.00100175035, 0.00101436186, 0.400835931 , 0.159970343 , 0.333423227 , -0.004063857, 0.0009232955, -0.38289237 , 1.33        , 3           , 15          , 0           , 8.615648E-05
-0.0009339312, 0.0477185249, -9.793854   , 0.000485776778, -0.000660901249, 0.000747657963, 0.400835931 , 0.159700692 , 0.333625466 , -0.00405899156, 0.0009167168, -0.382884741, 1.34        , 3           , 50          , 0           , 0
-0.003627006, 0.0219554063, -9.771833   , 0.00020335002, -0.0006628112, 0.000746341 , 0.400296628 , 0.160105169 , 0.333221    , -0.004056951, 0.0009101189, -0.38287735 , 1.35        , 3           , 11          , 0.03846744  , 0.03846744
0.02458886  , 0.03379331  , -9.767501   , 0.000197284477, 0.000463446777, -9.95355149E-05, 0.400296628 , 0.160105169 , 0.333221    , -0.00405498 , 0.00091474934, -0.382878542, 1.36        , 3           , 12          , 0.03846491  , 0
0.008940303 , 0.0484237522, -9.76982    , 0.000486354926, -0.000942470157, -0.0006654632, 0.400903344 , 0.160105169 , 0.333423227 , -0.00405012257, 0.0009052977, -0.382884979, 1.37        , 3           , 14          , 0.000439863565, 0.000547991542
0.0184856858, 0.0452175662, -9.788744   , -0.000365433749, -0.000103506434, -0.00123318727, 0.400498867 , 0.160105169 , 0.3337603   , -0.004053788, 0.0009042127, -0.382897377, 1.38        , 3           , 15          , 0           , 8.615648E-05
0.00756725  , 0.0461960435, -9.773456   , -0.00206352421, 0.000729732157, -0.000109637054, 0.400431454 , 0.1603074   , 0.33301875  , -0.00407442451, 0.0009115055, -0.382898569, 1.39        , 3           , 50          , 0           , 0
0.0209444482, 0.0667736754, -9.76694    , -0.002615832, -0.00180817279, -0.000116181138, 0.400431454 , 0.1603074   , 0.33301875  , -0.004100586, 0.0008934237, -0.382899523, 1.4         , 3           , 11          , 0.03908346  , 0.03908346
0.0218811147, 0.05830758  , -9.801771   , -0.00120599661, -0.00123549043, 0.0007388836, 0.40103817  , 0.159970343 , 0.333625466 , -0.00411263946, 0.0008810993, -0.382892132, 1.41        , 3           , 12          , 0.0390806571, 0
0.021245867 , 0.0434354953, -9.805002   , 0.00105587975, -0.00178334257, 0.000183476252, 0.40056628  , 0.160105169 , 0.333625466 , -0.004102079, 0.00086327357, -0.382890224, 1.42        , 3           , 14          , 0.00043986403, 0.0005479908
-0.00476502348, 0.0350940451, -9.78354    , 0.000196868932, 0.0007450173, 0.00159611832, 0.400498867 , 0.160172582 , 0.333086163 , -0.004100097, 0.000870789343, -0.38287425 , 1.43        , 3           , 15          , 0           , 8.61612862E-05
-0.000716507435, 0.0319002345, -9.787138   , -0.001201162, -0.00208018254, 0.0018677318, 0.400498867 , 0.160172582 , 0.333086163 , -0.004112092, 0.000850064331, -0.382855654, 1.44        , 3           , 50          , 0           , 0
-0.0004956182, 0.04323798  , -9.804716   , 0.00357738882, 0.00217575487, -0.0012112835, 0.401105583 , 0.159970343 , 0.3337603   , -0.00407632859, 0.000871772063, -0.382867575, 1.45        , 3           , 11          , 0.03908346  , 0.03908346
-0.0110092917, 0.03212077  , -9.816594   , 0.004431877 , 0.0010552319, 0.00161630614, 0.4007011   , 0.159970343 , 0.333558053 , -0.00403199531, 0.000882389839, -0.3828516  , 1.46        , 3           , 12          , 0.0390806571, 0
-0.0142160039, 0.0348059237, -9.798981   , -0.000654015341, 0.00130241353, 0.000180347939, 0.400296628 , 0.16024     , 0.333153576 , -0.00403853366, 0.0008954212, -0.382849932, 1.47        , 3           , 14          , 0.00043986403, 0.0005479908
0.00949328952, 0.0502850339, -9.788339   , -0.000940209, 0.00186362921, -0.00151532586, 0.400296628 , 0.16024     , 0.333153576 , -0.00404795026, 0.0009139961, -0.382864952, 1.48        , 3           , 15          , 0           , 8.61612862E-05
0.00158188492, 0.0305625349, -9.799782   , -0.00177896221, 0.000168509432, -0.00123934273, 0.40103817  , 0.160037756 , 0.333692878 , -0.00406575063, 0.000915630953, -0.38287735 , 1.49        , 3           , 50          , 0           , 0
-0.0019817343, 0.04448946  , -9.769467   , -0.00291531347, 0.00156869262, -0.000677361, 0.40056628  , 0.15990293  , 0.333558053 , -0.00409491034, 0.0009312659, -0.382884264, 1.5         , 3           , 11          , 0.0397355966, 0.0397355966
-0.002245673, 0.0553601943, -9.780725   , -0.001490307, -0.0009558419, -0.000109606743, 0.40056628  , 0.16024     , 0.333086163 , -0.004109814, 0.000921703 , -0.382885218, 1.51        , 3           , 12          , 0.0397325121, 0
0.0242554564, 0.0414833054, -9.771992   , -7.415394E-05, -0.00179098814, -0.000386861415, 0.40056628  , 0.16024     , 0.333086163 , -0.00411055936, 0.0009037775, -0.382889032, 1.52        , 3           , 14          , 0.000439864059, 0.000547995
0.0282117967, 0.0346440151, -9.764758   , 0.00359763182, -0.00148458558, 0.0024560676, 0.400835931 , 0.1597681   , 0.333625466 , -0.00407456141, 0.000889032264, -0.382864475, 1.53        , 3           , 15          , 0           , 8.615644E-05
0.008021707 , 0.0408358723, -9.791102   , -0.00120263034, -0.002080194, -0.0006751005, 0.400903344 , 0.160105169 , 0.333692878 , -0.0040865927, 0.000868202944, -0.382871151, 1.54        , 3           , 50          , 0           , 0
0.005823506 , 0.04404016  , -9.796981   , -0.00149342138, -0.000392713264, -0.000673813862, 0.4007011   , 0.160172582 , 0.333086163 , -0.00410153344, 0.0008642482, -0.382877827, 1.55        , 3           , 11          , 0.0397355966, 0.0397355966
0.0005558841, 0.0540580042, -9.805568   , -0.0006576191, 0.001865536 , -0.00123146654, 0.4007011   , 0.160172582 , 0.333086163 , -0.00410812 , 0.000882852764, -0.382890224, 1.56        , 3           , 12          , 0.0397325121, 0
0.000839170069, 0.07928317  , -9.79371    , -0.000377653982, 0.00243057776, -0.000664206746, 0.401105583 , 0.160172582 , 0.33349064  , -0.004111903, 0.000907130947, -0.3828969  , 1.57        , 3           , 14          , 0.000439864059, 0.000547995
0.00578180375, 0.0431136675, -9.789754   , -8.047136E-05, -0.000383159524, 0.000745458063, 0.400431454 , 0.15990293  , 0.3337603   , -0.00411270047, 0.000903330161, -0.3828895  , 1.58        , 3           , 15          , 0           , 8.615644E-05
-0.00383614935, 0.06895077  , -9.791076   , -0.0003646185, -0.000103505969, 0.000179500028, 0.400364041 , 0.160037756 , 0.333086163 , -0.004116345, 0.000902302447, -0.3828876  , 1.59        , 3           , 50          , 0           , 0
-0.000387429231, 0.0509136021, -9.806492   , 0.001322801 , 0.00131577521, -9.29666639E-05, 0.400364041 , 0.160037756 , 0.333086163 , -0.004103165, 0.000915438 , -0.382888556, 1.6         , 3           , 11          , 0.0404217653, 0.04042177
0.009723544 , 0.0367088951, -9.777547   , -0.0003697134, 0.00102275331, 0.00102884753, 0.400903344 , 0.159970343 , 0.333625466 , -0.00410685269, 0.0009257076, -0.382878542, 1.61        , 3           , 12          , 0.04041838  , 0
0.0171749555, 0.04661116  , -9.7959795  , -0.002627067, 0.000162768178, -0.002655977, 0.400498867 , 0.15990293  , 0.333692878 , -0.00413314765, 0.000927226 , -0.382905   , 1.62        , 3           , 14          , 0.0004398724, 0.000547998236
0.0160500333, 0.0348389372, -9.780218   , -0.0003613494, -0.0006666371, 0.0010262439, 0.4006337   , 0.160442233 , 0.3333558   , -0.004136752, 0.000920602062, -0.382894754, 1.63        , 3           , 15          , 0           , 8.615717E-05
0.007168476 , 0.04356702  , -9.795165   , 0.00131787756, 0.00244203862, 0.00103891885, 0.4006337   , 0.160442233 , 0.3333558   , -0.00412356341, 0.000945065171, -0.382884264, 1.64        , 3           , 50          , 0           , 0
0.0326532573, 0.05363977  , -9.79312    , 0.00245127734, 0.00160498114, 0.000195272252, 0.400903344 , 0.160037756 , 0.33349064  , -0.004099049, 0.0009611228, -0.382882357, 1.65        , 3           , 11          , 0.0404217653, 0.04042177
0.0146310544, 0.06106629  , -9.791872   , 0.00329921  , 0.001610714 , 0.0013293731, 0.400768518 , 0.160105169 , 0.333625466 , -0.004066044, 0.0009772842, -0.382869244, 1.66        , 3           , 12          , 0.04041838  , 0
0.005720199 , 0.06798522  , -9.80546951 , -0.002337596, -0.000961575133, -0.000113558286, 0.400768518 , 0.160037756 , 0.333221    , -0.004089421, 0.0009676639, -0.382870436, 1.67        , 3           , 14          , 0.0004398724, 0.000547998236
0.000368120149, 0.047210604 , -9.781643   , -0.006570558, -0.00155335164, 0.0009959696, 0.400768518 , 0.160037756 , 0.333221    , -0.00415511755, 0.0009521716, -0.382860422, 1.68        , 3           , 15          , 0           , 8.615717E-05
0.0208834615, 0.0573509037, -9.782348   , 0.000473637 , 0.00159160828, -0.0009440961, 0.40103817  , 0.159835517 , 0.333625466 , -0.00415038969, 0.000968048233, -0.382869959, 1.69        , 3           , 50          , 0           , 0
0.0117616681, 0.018645335 , -9.780318   , 0.000768022262, -0.000658997335, 0.000466446159, 0.40103817  , 0.159700692 , 0.333558053 , -0.004142756, 0.000961485843, -0.3828652  , 1.7         , 3           , 11          , 0.0411399081, 0.0411399156
0.0279413071, 0.0365824476, -9.80317    , -0.00178866356, 0.00242103171, 0.00130697957, 0.4007011   , 0.1603074   , 0.333086163 , -0.00416063 , 0.00098575  , -0.382852077, 1.71        , 3           , 12          , 0.0411362052, 0
0.008280993 , 0.05622188  , -9.805047   , -7.326703E-05, -0.00207255734, -0.001234899, 0.4007011   , 0.1603074   , 0.333086163 , -0.004161375, 0.0009649732, -0.382864237, 1.72        , 3           , 14          , 0.000439881667, 0.000547996839
-0.0159240589, 0.0131137017, -9.783264   , 0.0007616305, 0.000467258971, -0.000944505329, 0.4012404   , 0.159970343 , 0.333558053 , -0.004153768, 0.0009696067, -0.382873774, 1.73        , 3           , 15          , 0           , 8.614768E-05
0.0051405   , 0.0327001736, -9.777145   , 0.00103962352, 0.001595435 , 0.00103630952, 0.4007011   , 0.160105169 , 0.333692878 , -0.004143361, 0.0009856037, -0.382863522, 1.74        , 3           , 50          , 0           , 0
0.00313609419, 0.0458811931, -9.798349   , -0.000362752646, -0.000385070569, 0.00102668733, 0.400364041 , 0.160037756 , 0.333221    , -0.00414697872, 0.0009817955, -0.38285327 , 1.75        , 3           , 11          , 0.0411399081, 0.0411399156
-0.0120700188, 0.0239713751, -9.804885   , 0.00131737883, 0.00244203769, 0.0001913158, 0.400364041 , 0.160037756 , 0.333221    , -0.004133803, 0.00100622373, -0.382851362, 1.76        , 3           , 12          , 0.0411362052, 0
-0.00156413752, 0.0346359238, -9.792557   , 0.0004833858, -0.000379346136, -0.0009471241, 0.400903344 , 0.160105169 , 0.333625466 , -0.004128979, 0.001002391 , -0.3828609  , 1.77        , 3           , 14          , 0.000439881667, 0.000547996839
-0.00599204935, 0.04637517  , -9.779434   , 0.00386881526, 0.000488271122, -8.240657E-05, 0.400835931 , 0.160037756 , 0.333558053 , -0.00409029145, 0.00100727018, -0.382861853, 1.78        , 3           , 15          , 0           , 8.614768E-05
0.009496268 , 0.0467166454, -9.800558   , 0.000209812453, -0.0020706444, -0.000103432118, 0.4006337   , 0.1603074   , 0.332951337 , -0.004088194, 0.0009865597, -0.3828628  , 1.79        , 3           , 50          , 0           , 0
0.0224718451, 0.0459903851, -9.764303   , -0.00176545535, -0.002365583, 0.0004519857, 0.4006337   , 0.1603074   , 0.332951337 , -0.00410584547, 0.0009628931, -0.382858038, 1.8         , 3           , 11          , 0.0418880545, 0.0418880619
0.0179396365, 0.0375593528, -9.790586   , -0.00177586591, -0.000394630566, -0.000675126445, 0.400970757 , 0.159835517 , 0.333692878 , -0.004123611, 0.0009589189, -0.382864952, 1.81        , 3           , 12          , 0.04188401  , 0
-0.00176558376, 0.01929678  , -9.792623   , 0.00076762127, -0.000940576545, -0.00264190463, 0.4007011   , 0.160105169 , 0.333692878 , -0.00411596 , 0.000949404435, -0.382891178, 1.82        , 3           , 14          , 0.000439882 , 0.0005480023
0.003543575 , 0.0400366224, -9.806055   , 0.00247201486, -0.0026184998, -9.37689547E-05, 0.4007011   , 0.1603074   , 0.333086163 , -0.004091241, 0.0009232158, -0.382892132, 1.83        , 3           , 15          , 0           , 8.615212E-05
0.0189593211, 0.0456755   , -9.792355   , 0.0007636769, 0.000185691577, 0.000185206038, 0.4007011   , 0.1603074   , 0.333086163 , -0.00408360176, 0.0009250803, -0.382890224, 1.84        , 3           , 50          , 0           , 0
0.00139428489, 0.05399295  , -9.789289   , 0.000470513129, 0.00215473282, -0.0015082981, 0.400903344 , 0.159970343 , 0.3337603   , -0.00407891069, 0.000946566 , -0.382905483, 1.85        , 3           , 11          , 0.0418880545, 0.0418880619
0.0165179074, 0.06512353  , -9.797264   , -0.00290573644, -0.000402271282, -0.0009629317, 0.4007011   , 0.159970343 , 0.333692878 , -0.004107977, 0.0009425038, -0.38291502 , 1.86        , 3           , 12          , 0.04188401  , 0
0.0308668967, 0.059483666 , -9.780454   , -0.000373653049, 0.00158587436, -0.000948041852, 0.400970757 , 0.16024     , 0.33301875  , -0.00411172258, 0.000958323537, -0.382924557, 1.87        , 3           , 14          , 0.000439882 , 0.0005480023
0.008514427 , 0.04443372  , -9.789275   , -0.002904016, -0.0006838348, -0.0003982906, 0.400970757 , 0.16024     , 0.33301875  , -0.00414076727, 0.00095146877, -0.382928371, 1.88        , 3           , 15          , 0           , 8.615212E-05
0.0147878164, 0.0362718366, -9.799204   , 0.000195382687, 0.0007449987, -0.0009467097, 0.400835931 , 0.160105169 , 0.333692878 , -0.00413882174, 0.0009588794, -0.3829379  , 1.89        , 3           , 50          , 0           , 0
-0.00547536649, 0.0419581272, -9.809279   , -0.00261355564, -0.00237131468, -0.0009646498, 0.400835931 , 0.160105169 , 0.333625466 , -0.00416498771, 0.0009351386, -0.382947445, 1.9         , 3           , 11          , 0.0426642932, 0.0426643
0.01266894  , 0.04846741  , -9.795555   , -0.00121298875, 0.000172325585, 0.000741065131, 0.4006337   , 0.16037482  , 0.33301875  , -0.00417711074, 0.0009368928, -0.382940054, 1.91        , 3           , 12          , 0.0426598825, 0
0.00204914343, 0.0350324474, -9.788912   , 0.003299523 , 0.00161071366, 0.00189445564, 0.4006337   , 0.16037482  , 0.33301875  , -0.00414409768, 0.000953078736, -0.382921219, 1.92        , 3           , 14          , 0.0004398861, 0.00054800004
0.0205715373, 0.03120983  , -9.790141   , -0.000377839169, 0.002430572 , -0.00094673736, 0.40103817  , 0.1597681   , 0.3338277   , -0.00414788537, 0.0009773449, -0.382930756, 1.93        , 3           , 15          , 0           , 8.614949E-05
0.0133827822, 0.0438379236, -9.763477   , -8.860548E-05, 0.0010246553, -0.00123012764, 0.4006337   , 0.160105169 , 0.333625466 , -0.00414878363, 0.0009875402, -0.382943153, 1.94        , 3           , 50          , 0           , 0
-0.0235980023, 0.0497496128, -9.782268   , -0.004318453, -0.000130249828, 0.000443607423, 0.4006337   , 0.160037756 , 0.333153576 , -0.004191964, 0.0009862562, -0.382938623, 1.95        , 3           , 11          , 0.0426642932, 0.0426643
-0.0148527883, 0.02037894  , -9.800401   , -0.00207314151, 0.00270068  , 0.0001759447, 0.4006337   , 0.160037756 , 0.333153576 , -0.00421269331, 0.00101327  , -0.382936954, 1.96        , 3           , 12          , 0.0426598825, 0
-0.0103354743, 0.0212099459, -9.79494    , 0.00189649453, -0.0003697948, 0.00075468357, 0.400835931 , 0.1597681   , 0.333625466 , -0.00419372 , 0.00100960385, -0.382929564, 1.97        , 3           , 14          , 0.0004398861, 0.00054800004
0.00184975658, 0.025051184 , -9.772231   , -0.0003680068, 0.0007411881, 0.00159349642, 0.40056628  , 0.15990293  , 0.333625466 , -0.004197384, 0.001017083 , -0.3829136  , 1.98        , 3           , 15          , 0           , 8.614949E-05
-0.005658257, 0.0667314   , -9.795618   , -0.00147761975, -0.00348993181, 0.00016903202, 0.40056628  , 0.1603074   , 0.333086163 , -0.00421215873, 0.0009821909, -0.382911682, 1.99        , 3           , 50          , 0           , 0
0.0094527   , 0.045788642 , -9.792878   , 0.000759654969, 0.0010303806, 0.000469041843, 0.40056628  , 0.1603074   , 0.333086163 , -0.00420455076, 0.0009924661, -0.382907152, 2           , 3           , 11          , 0.0434667952, 0.0434668064
0.0131912855, 0.05432101  , -9.793718   , 0.0007585873, 0.00131194736, 0.00103455072, 0.400835931 , 0.160037756 , 0.333558053 , -0.00419695443, 0.001005629 , -0.382896662, 2.01        , 3           , 12          , 0.0434619971, 0
0.0006729169, 0.0310167614, -9.797526   , -0.00149516249, -0.00011116403, -0.001238454, 0.4007011   , 0.160105169 , 0.333692878 , -0.004211919, 0.00100446527, -0.38290906 , 2.02        , 3           , 14          , 0.0004398849, 0.000548009237
0.003980321 , 0.0435891151, -9.790669   , -0.00233932864, -0.0006800225, -0.0006781978, 0.400431454 , 0.159970343 , 0.333153576 , -0.00423531933, 0.0009976364, -0.382915974, 2.03        , 3           , 15          , 0           , 8.615558E-05
0.014577955 , 0.05477436  , -9.79913    , 0.00132697052, 0.000471068983, -9.426688E-05, 0.400431454 , 0.159970343 , 0.333153576 , -0.00422205 , 0.00100234326, -0.382916927, 2.04        , 3           , 50          , 0           , 0
0.02121909  , 0.0425211042, -9.801389   , 0.0007676112, -0.0006590117, -0.000239905363, 0.400970757 , 0.160037756 , 0.333692878 , -0.004214376, 0.0009957429, -0.3829193  , 2.05        , 3           , 11          , 0.0434667952, 0.0434668064
-0.00510072056, 0.0396577343, -9.797535   , 0.000478911359, 0.0006061212, -0.0002392696, 0.400970757 , 0.159835517 , 0.333625466 , -0.00420959 , 0.001001794 , -0.3829217  , 2.06        , 3           , 12          , 0.0434619971, 0
0.00680977339, 0.0222978964, -9.77582    , 5.830391E-05, 4.01272264E-05, 0.00018169338, 0.4007011   , 0.159970343 , 0.3332884   , -0.00420900527, 0.00100220286, -0.3829198  , 2.07        , 3           , 14          , 0.0004398849, 0.000548009237
0.00707390532, 0.0341170356, -9.802436   , 0.00160784007, 0.0007545432, -0.0003750535, 0.4007011   , 0.159970343 , 0.3332884   , -0.004192931, 0.00100973237, -0.3829236  , 2.08        , 3           , 15          , 0           , 8.615558E-05
0.00251806527, 0.0341475159, -9.79569149 , 0.0021760154, 5.44495379E-05, -0.000656041957, 0.401105583 , 0.15990293  , 0.3337603   , -0.00417117728, 0.00101024949, -0.382930279, 2.09        , 3           , 50          , 0           , 0
0.000974497758, 0.0206228718, -9.793951   , 0.00147569063, -0.00107658934, -0.000378521479, 0.4007011   , 0.159835517 , 0.3338277   , -0.00415640976, 0.000999445 , -0.382933855, 2.1         , 3           , 11          , 0.04429383  , 0.0442938358
0.005237297 , 0.0350103565, -9.793407   , 0.00119018659, -0.000374584546, 0.00032759  , 0.400835931 , 0.160442233 , 0.333221    , -0.004144505, 0.0009957129, -0.382930517, 2.11        , 3           , 12          , 0.0442886166, 0
-0.0009088898, 0.0437216721, -9.812854   , -0.0005018312, -0.0009491756, -0.000104985542, 0.400835931 , 0.160442233 , 0.333221    , -0.0041495245, 0.0009862167, -0.3829317  , 2.12        , 3           , 14          , 0.0004398822, 0.000548013661
-0.00349528831, 0.0184913352, -9.815237   , -0.00148974685, -0.00123742956, -0.001522716, 0.400970757 , 0.160037756 , 0.333692878 , -0.0041644373, 0.0009737794, -0.38294673 , 2.13        , 3           , 15          , 0           , 8.614439E-05
0.00307455566, 0.0382433757, -9.807874   , -0.00177287066, -0.001098557, -0.00152381579, 0.40056628  , 0.160037756 , 0.333895117 , -0.004182181, 0.000962730148, -0.382962   , 2.14        , 3           , 50          , 0           , 0
-0.0207122527, 0.0289503671, -9.779619   , -0.00205038139, -0.0019451587, -0.000255016173, 0.4007011   , 0.160172582 , 0.333221    , -0.00420268672, 0.000943267834, -0.382964373, 2.15        , 3           , 11          , 0.04429383  , 0.0442938358
-0.0130148707, 0.0212720726, -9.803999   , -0.001482087, -0.00250446587, 0.0008768997, 0.4007011   , 0.160172582 , 0.333221    , -0.0042174994, 0.000918260368, -0.382955551, 2.16        , 3           , 12          , 0.0442886166, 0
0.0237068217, 0.0226642545, -9.809136   , -0.00246811914, -0.003074282, 0.0003063476, 0.400903344 , 0.160105169 , 0.3338277   , -0.004242177, 0.000887530739, -0.382952452, 2.17        , 3           , 14          , 0.0004398822, 0.000548013661
0.003932466 , 0.04444304  , -9.776203   , -0.00275156926, -0.00293541141, -0.000259827357, 0.400835931 , 0.1603074   , 0.333895117 , -0.00426969538, 0.000858166 , -0.382954836, 2.18        , 3           , 15          , 0           , 8.614439E-05
0.008315367 , 0.03489907  , -9.771236   , -0.0007808545, -0.00165499886, -0.000248656084, 0.4006337   , 0.16024     , 0.333221    , -0.004277506, 0.000841605535, -0.38295722 , 2.19        , 3           , 50          , 0           , 0
0.000854523 , 0.0396445766, -9.814213   , -8.051768E-05, -0.0005239697, -0.0005261699, 0.4006337   , 0.16024     , 0.333221    , -0.004278268, 0.000836315041, -0.382962465, 2.2         , 3           , 11          , 0.0451437347, 0.0451437421
-0.01731591 , 0.0331141278, -9.82161    , -0.000929726055, -0.000107351247, -0.000246932323, 0.400970757 , 0.15990293  , 0.334029943 , -0.004287567, 0.0008352309, -0.382964849, 2.21        , 3           , 12          , 0.0451380759, 0
0.00503915455, 0.0593249276, -9.777489   , -0.00106897438, -0.0003898685, 0.0007408564, 0.40103817  , 0.159970343 , 0.333692878 , -0.00429825066, 0.0008313642, -0.382957458, 2.22        , 3           , 14          , 0.0004398732, 0.0005480191
0.01626245  , 0.0524187237, -9.775623   , 0.001321651 , 0.00159732043, 0.000331281626, 0.4007011   , 0.16024     , 0.333086163 , -0.004285031, 0.000847351446, -0.382954359, 2.23        , 3           , 15          , 0           , 8.614894E-05
0.012733818 , 0.04539552  , -9.82133    , 0.00116838829, 0.003848882 , -0.00121986144, 0.4007011   , 0.16024     , 0.333086163 , -0.004273358, 0.0008857877, -0.382966518, 2.24        , 3           , 50          , 0           , 0
-0.0101847667, 0.0609830841, -9.814661   , 0.0003257791, 0.00299845939, -0.0003775017, 0.400970757 , 0.160172582 , 0.333692878 , -0.00427010376, 0.000915755867, -0.382970572, 2.25        , 3           , 11          , 0.0451437347, 0.0451437421
-0.0144247832, 0.05732647  , -9.786234   , -0.000366800174, 0.0003188172, 3.888979E-05, 0.4006337   , 0.159835517 , 0.333625466 , -0.004273771, 0.000918945647, -0.3829701  , 2.26        , 3           , 12          , 0.0451380759, 0
-0.00463490561, 0.0472509339, -9.77625751 , -0.00262297434, -0.000400376448, -0.0003965366, 0.4006337   , 0.16037482  , 0.3332884   , -0.00430000341, 0.000914924953, -0.382974148, 2.27        , 3           , 14          , 0.0004398732, 0.0005480191
0.00983186252, 0.03947477  , -9.795161   , -0.00276914844, 0.0005841459, -0.000536945066, 0.4006337   , 0.16037482  , 0.3332884   , -0.00432770047, 0.000920743158, -0.3829794  , 2.28        , 3           , 15          , 0           , 8.614894E-05
0.009786103 , 0.0380986333, -9.788388   , -0.00191666279, -0.000395600451, 3.056189E-05, 0.400970757 , 0.159835517 , 0.3338277   , -0.00434686663, 0.0009167885, -0.382979155, 2.29        , 3           , 50          , 0           , 0
0.0161529519, 0.0429566428, -9.77928    , -0.00289462181, -0.00251403032, 0.000163978068, 0.400431454 , 0.1597681   , 0.333692878 , -0.004375819, 0.000891618 , -0.382977247, 2.3         , 3           , 11          , 0.04601494  , 0.04601494
0.0239449982, 0.0474065132, -9.787789   , -0.00332019 , -0.0020945468, 0.000445191021, 0.400835931 , 0.160172582 , 0.333086163 , -0.004409018, 0.000870692369, -0.382972717, 2.31        , 3           , 12          , 0.04600881  , 0
0.00306031178, 0.0315365829, -9.825981   , -0.00107225345, 0.000173252032, -0.000105877058, 0.400835931 , 0.160172582 , 0.333086163 , -0.004419741, 0.0008724202, -0.3829739  , 2.32        , 3           , 14          , 0.000439874828, 0.00054802635
-0.0114579163, 0.03525391  , -9.807545   , 0.0018867919, 0.001460349 , -0.000372634, 0.401173    , 0.160037756 , 0.333558053 , -0.004400877, 0.0008870069, -0.382977724, 2.33        , 3           , 15          , 0           , 8.613774E-05
-0.01379474 , 0.04013127  , -9.77409649 , 0.0004790847, 0.000606105 , 4.328581E-05, 0.4007011   , 0.1597681   , 0.333895117 , -0.00439608563, 0.0008930699, -0.382977247, 2.34        , 3           , 50          , 0           , 0
0.0263695586, 0.06045425  , -9.785005   , -0.0017795068, 0.000309257273, -0.000956564734, 0.400768518 , 0.160172582 , 0.33349064  , -0.004413889, 0.0008961202, -0.382986784, 2.35        , 3           , 11          , 0.04601494  , 0.04601494
0.000126441941, 0.06300924  , -9.782482   , -0.0006536554, 0.001161594 , -0.000384920364, 0.400768518 , 0.160172582 , 0.33349064  , -0.00442042854, 0.000907719135, -0.3829906  , 2.36        , 3           , 12          , 0.04600881  , 0
0.0254431013, 0.02481408  , -9.783803   , -0.00192142453, 0.0007306565, 0.0014449961, 0.400970757 , 0.160172582 , 0.333895117 , -0.00443962961, 0.0009150896, -0.3829763  , 2.37        , 3           , 14          , 0.000439874828, 0.00054802635
0.0174181778, 0.0303674154, -9.796949   , -0.001213348, 0.0003130834, 0.00130636885, 0.4007011   , 0.15990293  , 0.333895117 , -0.004451751, 0.0009182785, -0.382963181, 2.38        , 3           , 15          , 0           , 8.613774E-05
0.009739912 , 0.0335977077, -9.791571   , 0.000482896052, -9.780629E-05, 0.0006072757, 0.4006337   , 0.160172582 , 0.333153576 , -0.00444691675, 0.0009173275, -0.382956982, 2.39        , 3           , 50          , 0           , 0
-0.00333544239, 0.03558217  , -9.799347   , 5.520318E-05, 0.0006032391, -0.0003825  , 0.4006337   , 0.160172582 , 0.333153576 , -0.00444634957, 0.000923344342, -0.382961035, 2.4         , 3           , 11          , 0.0469059646, 0.0469059721
-0.00226400327, 0.0557917058, -9.774847   , 0.0004815498, 4.29734428E-05, -0.000522661256, 0.400903344 , 0.159835517 , 0.333558053 , -0.00444153836, 0.000923751038, -0.382966042, 2.41        , 3           , 12          , 0.0468993336, 0
0.005400314 , 0.05388916  , -9.772536   , 0.000210149039, -0.00207067188, 0.00046164848, 0.4006337   , 0.159970343 , 0.33396253  , -0.00443943264, 0.0009030648, -0.3829615  , 2.42        , 3           , 14          , 0.0004398713, 0.000548026059
0.00133821182, 0.051269412 , -9.78433    , -0.00177278533, -0.0008169973, 0.00101945759, 0.4006337   , 0.16037482  , 0.3332884   , -0.004457152, 0.0008949402, -0.38295126 , 2.43        , 3           , 15          , 0           , 8.614187E-05
0.010704238 , 0.06748316  , -9.807695   , -0.00318873068, -0.0001226359, 0.000448882754, 0.4006337   , 0.16037482  , 0.3332884   , -0.00448903535, 0.0008937339, -0.38294673 , 2.44        , 3           , 50          , 0           , 0
0.005831071 , 0.0467243865, -9.790189   , -0.0007978166, 0.00172376877, -0.000667252461, 0.401173    , 0.159835517 , 0.3337603   , -0.00449701957, 0.00091094157, -0.382953644, 2.45        , 3           , 11          , 0.0469059646, 0.0469059721
-0.0111565916, 0.03467952  , -9.77229    , 0.00244508684, 0.00287199649, 0.000338509126, 0.4006337   , 0.160105169 , 0.333895117 , -0.0044725663, 0.000939676363, -0.3829503  , 2.46        , 3           , 12          , 0.0468993336, 0
-0.0006256979, 0.048935134 , -9.754523   , 0.001898763 , -0.0007921676, 0.00103657774, 0.4007011   , 0.16024     , 0.333423227 , -0.00445356872, 0.000931801 , -0.382939816, 2.47        , 3           , 14          , 0.0004398713, 0.000548026059
0.00132364361, 0.0441159979, -9.803795   , -0.000226118762, 0.000460548472, 0.000322309817, 0.4007011   , 0.16024     , 0.333423227 , -0.004455827, 0.000936420751, -0.382936716, 2.48        , 3           , 15          , 0           , 8.614187E-05
-0.005099181, 0.03921264  , -9.799346   , -0.001079917, 0.00172186038, -0.000103494545, 0.400835931 , 0.159970343 , 0.333895117 , -0.004466627, 0.0009536346, -0.38293767 , 2.49        , 3           , 50          , 0           , 0
0.023506714 , 0.04429913  , -9.801364   , -0.002204747, 0.0007287335, -0.000110276778, 0.4006337   , 0.15990293  , 0.333895117 , -0.004488684, 0.0009608699, -0.382938862, 2.5         , 3           , 11          , 0.04781542  , 0.0478154272
0.0287401956, 0.03603902  , -9.77876    , -0.00205516932, -0.000959702, -0.000112221918, 0.400835931 , 0.1603074   , 0.3333558   , -0.004509236, 0.0009512677, -0.382940054, 2.51        , 3           , 12          , 0.0478082523, 0
0.004853223 , 0.07740048  , -9.784647   , 0.000202072624, -0.000522075046, -0.0002423043, 0.400835931 , 0.1603074   , 0.3333558   , -0.004507218, 0.000946036133, -0.382942438, 2.52        , 3           , 14          , 0.000439872878, 0.000548035139
0.0241149254, 0.06807631  , -9.762842   , 0.000475112116, 0.00131000648, -0.000803241739, 0.400903344 , 0.160172582 , 0.3338277   , -0.004502475, 0.000959099852, -0.382950544, 2.53        , 3           , 15          , 0           , 8.61376247E-05
0.00410517165, 0.0561880879, -9.780673   , -0.000229153055, 0.00102366845, -0.000100624311, 0.4006337   , 0.159835517 , 0.333625466 , -0.00450476725, 0.0009693319, -0.3829515  , 2.54        , 3           , 50          , 0           , 0
-0.0103353476, 0.05907568  , -9.783936   , 0.00047576474, 0.00131000951, 0.0003269082, 0.400768518 , 0.16024     , 0.333423227 , -0.00450000633, 0.0009824469, -0.3829484  , 2.55        , 3           , 11          , 0.04781542  , 0.0478154272
0.00892806  , 0.0368087254, -9.804219   , 0.00146454794, 0.00117591  , -0.0003750431, 0.400768518 , 0.16024     , 0.333423227 , -0.004485364, 0.0009941888, -0.3829522  , 2.56        , 3           , 12          , 0.0478082523, 0
0.00163092616, 0.03640483  , -9.792977   , 0.000893339457, 0.00243913243, -0.000516993, 0.400903344 , 0.159835517 , 0.333692878 , -0.004476436, 0.001018557 , -0.382957458, 2.57        , 3           , 14          , 0.000439872878, 0.000548035139
0.00389756821, 0.04262936  , -9.773499   , 0.0007549957, 0.0018750478, -0.0003772506, 0.40056628  , 0.160172582 , 0.333625466 , -0.00446889037, 0.00103729032, -0.382961273, 2.58        , 3           , 15          , 0           , 8.61376247E-05
0.013338265 , 0.03398214  , -9.78431    , -8.25267343E-05, -0.000101637743, -0.000384238956, 0.400768518 , 0.160172582 , 0.333221    , -0.00446971972, 0.00103625678, -0.3829651  , 2.59        , 3           , 50          , 0           , 0
0.0195554513, 0.0280064717, -9.773439   , -0.00036852216, 0.000600360858, -0.0005257421, 0.400768518 , 0.160172582 , 0.333221    , -0.004473421, 0.0010422169, -0.382970333, 2.6         , 3           , 11          , 0.0487419926, 0.048742
-0.005736782, 0.0363900922, -9.763202   , 5.17960871E-05, 0.00130713917, -0.000240144582, 0.40103817  , 0.160172582 , 0.333692878 , -0.0044729053, 0.0010552773, -0.382972717, 2.61        , 3           , 12          , 0.0487342551, 0
0.017408289 , 0.0321448147, -9.788806   , -0.00192285609, 0.000871422933, 0.000173792068, 0.40056628  , 0.15990293  , 0.333423227 , -0.004492131, 0.00106399949, -0.382971048, 2.62        , 3           , 14          , 0.000439874973, 0.000548039
0.0136189619, 0.0480464436, -9.807753   , -0.000933583535, 0.0007373256, 0.0003194531, 0.400498867 , 0.16037482  , 0.333153576 , -0.00450146431, 0.00107138709, -0.382967949, 2.63        , 3           , 15          , 0           , 8.61400258E-05
0.004614128 , 0.0615844876, -9.77703    , 0.0006204611, 0.0006070479, 0.000326479261, 0.400498867 , 0.16037482  , 0.333153576 , -0.00449525565, 0.00107747223, -0.3829646  , 2.64        , 3           , 50          , 0           , 0
0.009563177 , 0.0565905645, -9.785149   , 0.000754786 , 0.00201582885, 0.0004705762, 0.40103817  , 0.15990293  , 0.333692878 , -0.004487702, 0.00109765155, -0.382960081, 2.65        , 3           , 11          , 0.0487419926, 0.048742
0.000539747067, 0.05493763  , -9.798784   , 0.000192104926, 0.00158966158, 0.0006085602, 0.400768518 , 0.160172582 , 0.333625466 , -0.004485774, 0.0011135753, -0.382954121, 2.66        , 3           , 12          , 0.0487342551, 0
-0.003266928, 0.07261062  , -9.80778    , 0.000199690476, 4.10532375E-05, 0.0004649048, 0.400768518 , 0.160105169 , 0.333086163 , -0.004483771, 0.00111400674, -0.382949352, 2.67        , 3           , 14          , 0.000439874973, 0.000548039
-0.004737922, 0.03645506  , -9.785794   , 0.0009062098, -9.495555E-05, 4.41740231E-05, 0.400768518 , 0.160105169 , 0.333086163 , -0.004474709, 0.00111305912, -0.3829491  , 2.68        , 3           , 15          , 0           , 8.61400258E-05
0.01704425  , 0.0438271426, -9.772941   , 0.00190081343, -0.00135531428, -0.000235706786, 0.400970757 , 0.15990293  , 0.3333558   , -0.00445570331, 0.00109949568, -0.38295126 , 2.69        , 3           , 50          , 0           , 0
0.0181512013, 0.04888954  , -9.805906   , 0.00260835048, -0.00163210975, -9.15698256E-05, 0.400835931 , 0.160105169 , 0.333692878 , -0.00442965142, 0.00108314108, -0.382951975, 2.7         , 3           , 11          , 0.04968445  , 0.0496844649
-0.0053546764, 0.051429268 , -9.808336   , 0.00133316615, -0.0007960098, -0.000237462984, 0.400768518 , 0.160105169 , 0.333423227 , -0.00441632234, 0.00107517047, -0.382954359, 2.71        , 3           , 12          , 0.0496761   , 0
0.0226347949, 0.05460308  , -9.77647    , 0.000482356118, 4.295871E-05, 0.0008900379, 0.400768518 , 0.160105169 , 0.333423227 , -0.00441148924, 0.00107563927, -0.382945538, 2.72        , 3           , 14          , 0.0004398808, 0.0005480447
0.0133296875, 0.03754599  , -9.770735   , -0.000924446736, -0.00109285268, 0.000457911141, 0.400835931 , 0.160105169 , 0.333625466 , -0.004420729, 0.00106473127, -0.382941   , 2.73        , 3           , 15          , 0           , 8.61302251E-05
0.0070086997, 0.0367422961, -9.778019   , 0.0007784781, -0.00277078315, 0.00046320926, 0.400970757 , 0.15990293  , 0.333625466 , -0.00441293931, 0.00103704422, -0.382936239, 2.74        , 3           , 50          , 0           , 0
0.0101459865, 0.06606397  , -9.786462   , 0.00275086868, -0.00163114828, 0.00216938835, 0.400835931 , 0.16024     , 0.3332884   , -0.004385408, 0.00102082815, -0.382914543, 2.75        , 3           , 11          , 0.04968445  , 0.0496844649
0.016078148 , 0.02995187  , -9.802837   , 0.00274226  , 5.82407665E-05, 0.0017481856, 0.400835931 , 0.16024     , 0.3332884   , -0.004357968, 0.00102148694, -0.3828969  , 2.76        , 3           , 12          , 0.0496761   , 0
0.015377203 , 0.0470896177, -9.7978     , 0.002320429 , -0.0005077591, 5.01176146E-05, 0.400970757 , 0.1597681   , 0.333692878 , -0.004334764, 0.0010164117, -0.382896423, 2.77        , 3           , 14          , 0.0004398808, 0.0005480447
0.008469975 , 0.0448440537, -9.77707    , 0.001611003 , 5.05934622E-05, -0.0009411881, 0.4006337   , 0.160037756 , 0.333625466 , -0.00431866338, 0.00101687713, -0.38290596 , 2.78        , 3           , 15          , 0           , 8.61302251E-05
0.0144640086, 0.0168164   , -9.782564   , -0.0007863476, -0.000528768869, -0.000105637439, 0.40056628  , 0.16024     , 0.3332884   , -0.00432652747, 0.00101158454, -0.3829069  , 2.79        , 3           , 50          , 0           , 0
0.01997976  , 0.0573630445, -9.782806   , -0.00247377413, -0.00194805162, 0.000166821585, 0.40056628  , 0.16024     , 0.3332884   , -0.004351258, 0.0009921204, -0.382905245, 2.8         , 3           , 11          , 0.0506416447, 0.0506416559
0.022338286 , 0.0591985323, -9.799956   , -0.00233280566, -0.001947098, -0.00025632605, 0.400903344 , 0.159835517 , 0.333625466 , -0.004374588, 0.0009726385, -0.382907629, 2.81        , 3           , 12          , 0.05063265  , 0
-0.00381270982, 0.0377993956, -9.786234   , -0.00232969131, -0.0025102268, 0.000307880924, 0.400903344 , 0.159835517 , 0.3337603   , -0.00439788168, 0.00094755  , -0.38290453 , 2.82        , 3           , 14          , 0.000439879746, 0.000548043
-0.00179782882, 0.05624358  , -9.776649   , -0.00247315876, -0.002088835, 2.533584E-05, 0.4006337   , 0.16037482  , 0.333086163 , -0.00442261342, 0.0009266628, -0.382904053, 2.83        , 3           , 15          , 0           , 8.61374137E-05
0.0133587578, 0.0415866971, -9.764842   , -0.0016344873, -0.000393715716, -0.000391915964, 0.4006337   , 0.16037482  , 0.333086163 , -0.00443896139, 0.0009227085, -0.3829081  , 2.84        , 3           , 50          , 0           , 0
0.00220207963, 0.05033229  , -9.777095   , -0.000798603462, 0.00186453387, -0.0008083  , 0.40103817  , 0.16024     , 0.333895117 , -0.0044469554, 0.000941317645, -0.3829162  , 2.85        , 3           , 11          , 0.0506416447, 0.0506416559
0.00578478351, 0.03954529  , -9.801972   , -0.00277489424, 0.00171038159, -0.000817735447, 0.400835931 , 0.15943104  , 0.333625466 , -0.004474712, 0.000958384946, -0.382924318, 2.86        , 3           , 12          , 0.05063265  , 0
0.008560744 , 0.0440249   , -9.801932   , -0.00134861993, -0.000954932533, 0.000738683 , 0.4006337   , 0.15990293  , 0.333221    , -0.00448819064, 0.0009488688, -0.382916927, 2.87        , 3           , 14          , 0.000439879746, 0.000548043
0.0291419141, 0.06002109  , -9.7999     , 0.00190671091, -0.002481577, 0.000327634974, 0.4006337   , 0.15990293  , 0.333221    , -0.00446912041, 0.0009240681, -0.3829136  , 2.88        , 3           , 15          , 0           , 8.61374137E-05
0.0289896019, 0.05320242  , -9.784562   , 0.00175975845, -0.00135627249, 4.61748E-05 , 0.4012404   , 0.160037756 , 0.3337603   , -0.004451522, 0.0009105076, -0.3829131  , 2.89        , 3           , 50          , 0           , 0
0.025155101 , 0.04102153  , -9.771987   , -0.00107341388, 0.000454808527, 0.000318371458, 0.400970757 , 0.16024     , 0.333692878 , -0.00446228636, 0.000915106444, -0.382909775, 2.9         , 3           , 11          , 0.0516124852, 0.0516124927
0.00894767  , 0.0457516164, -9.780228   , -0.00135707157, 0.00073446444, 0.000600026 , 0.400768518 , 0.1603074   , 0.3333558   , -0.004475852, 0.000922478037, -0.3829038  , 2.91        , 3           , 12          , 0.0516027957, 0
0.004570691 , 0.0557467341, -9.785192   , 0.0004809197, 0.000183746219, -0.00038116306, 0.400768518 , 0.1603074   , 0.3333558   , -0.00447104638, 0.0009242985, -0.382907629, 2.92        , 3           , 14          , 0.000439886033, 0.0005480362
0.01865597  , 0.0587460548, -9.786879   , -0.000220142334, -0.000947291846, -0.0013750724, 0.40103817  , 0.160037756 , 0.333692878 , -0.0044732606, 0.000914764067, -0.382921457, 2.93        , 3           , 15          , 0           , 8.612942E-05
0.00743634626, 0.03805567  , -9.767615   , -0.001770294, -0.001520925, -0.0006768395, 0.400970757 , 0.15990293  , 0.3338277   , -0.00449096924, 0.0008995248, -0.382928133, 2.94        , 3           , 50          , 0           , 0
0.02145648  , 0.0285043977, -9.793762   , -0.0007970527, 0.00158297631, -0.000526188232, 0.4007011   , 0.16037482  , 0.333153576 , -0.004498944, 0.0009153308, -0.382933378, 2.95        , 3           , 11          , 0.0516124852, 0.0516124927
-0.01339724 , 0.0333859064, -9.782257   , 0.001458588 , 0.00244295341, 0.0001919927, 0.4007011   , 0.16037482  , 0.333153576 , -0.00448435638, 0.0009397687, -0.382931471, 2.96        , 3           , 12          , 0.0516027957, 0
-0.0111199273, 0.0338165238, -9.784047   , 0.000759817369, 0.00103035453, 0.000751605548, 0.4012404   , 0.16024     , 0.333692878 , -0.00447675167, 0.0009501058, -0.38292408 , 2.97        , 3           , 14          , 0.000439886033, 0.0005480362
0.00240546186, 0.0331635624, -9.771289   , -0.00262930477, 0.00100743491, 0.0007358024, 0.400768518 , 0.160172582 , 0.333895117 , -0.004503037, 0.0009602131, -0.3829167  , 2.98        , 3           , 15          , 0           , 8.612942E-05
-0.0113417385, 0.0487385578, -9.792574   , -0.00164244941, 0.00129568379, 0.000317039434, 0.40056628  , 0.1603074   , 0.333558053 , -0.00451945839, 0.000973184069, -0.3829136  , 2.99        , 3           , 50          , 0           , 0
0.0133626191, 0.03667998  , -9.781587   , 0.00160521758, 0.0013176389, -9.163468E-05, 0.40056628  , 0.1603074   , 0.333558053 , -0.00450339029, 0.0009863119, -0.382914782, 3           , 3           , 11          , 0.0525959581, 0.05259596
0.008926621 , 0.0399320163, -9.793811   , -7.896988E-05, -0.0008055593, -0.000244059542, 0.401173    , 0.15990293  , 0.3338277   , -0.00450418238, 0.0009782453, -0.382917166, 3.01        , 3           , 12          , 0.0525855348, 0
0.002176446 , 0.0382600538, -9.809689   , -0.00120961911, -0.0006724179, -0.0006729166, 0.400768518 , 0.160037756 , 0.333692878 , -0.004516285, 0.000971490867, -0.382923841, 3.02        , 3           , 14          , 0.000439882715, 0.0005480444
-0.0233075842, 0.03175871  , -9.800419   , 0.00132303557, 0.00131573016, 0.0003308546, 0.400903344 , 0.160105169 , 0.3333558   , -0.00450305128, 0.0009846628, -0.3829205  , 3.03        , 3           , 15          , 0           , 8.614212E-05
-0.00018971134, 0.06624972  , -9.805524   , 0.00287351361, 0.001889365 , 0.000197696863, 0.400903344 , 0.160105169 , 0.3333558   , -0.004474315, 0.00100356538, -0.3829186  , 3.04        , 3           , 50          , 0           , 0
-0.00227369368, 0.0201499667, -9.776351   , 0.00061221543, 0.002155648 , -0.000660017133, 0.401105583 , 0.160172582 , 0.333692878 , -0.00446819933, 0.00102509232, -0.382925272, 3.05        , 3           , 11          , 0.0525959581, 0.05259596
0.0235447511, 0.0554887056, -9.774652   , -0.0009378549, 0.00158201519, 0.0001794842, 0.4006337   , 0.159970343 , 0.3337603   , -0.004477576, 0.00104092038, -0.3829236  , 3.06        , 3           , 12          , 0.0525855348, 0
0.00288845832, 0.0260411222, -9.801598   , 0.00104093493, 0.00131382165, 0.000894612458, 0.4006337   , 0.159970343 , 0.333423227 , -0.004467157, 0.00105409836, -0.382914782, 3.07        , 3           , 14          , 0.000439882715, 0.0005480444
-0.0195306949, 0.0416611657, -9.806224   , 5.54366125E-05, 0.000603221939, 4.13060225E-05, 0.4006337   , 0.159970343 , 0.333423227 , -0.004466602, 0.0010601324, -0.3829143  , 3.08        , 3           , 15          , 0           , 8.614212E-05
-0.000206307508, 0.028816998 , -9.811102   , -0.00206374354, 0.0005888925, -0.00166379579, 0.400970757 , 0.1597681   , 0.333692878 , -0.00448725745, 0.00106594665, -0.382931   , 3.09        , 3           , 50          , 0           , 0
-0.004737137, 0.03243854  , -9.798918   , -0.000508423254, 0.000317820552, -0.000668090535, 0.4007011   , 0.15990293  , 0.333895117 , -0.00449230662, 0.00106901792, -0.38293767 , 3.1         , 3           , 11          , 0.05359112  , 0.0535911247
-0.007916323, 0.0396095   , -9.773602   , 0.0006278834, -0.0009415808, -9.970052E-05, 0.4006337   , 0.160172582 , 0.333423227 , -0.004486029, 0.00105959782, -0.382938623, 3.11        , 3           , 12          , 0.0535799153, 0
0.0221451856, 0.0425271   , -9.806354   , 0.000484786462, -0.0006609731, -0.0009475374, 0.4006337   , 0.160172582 , 0.333423227 , -0.00448119128, 0.00105294562, -0.38294816 , 3.12        , 3           , 14          , 0.000439874915, 0.0005480587
0.0246060751, 0.0369317159, -9.761612   , -0.000222266724, -0.000384180952, -0.000244052222, 0.401105583 , 0.159835517 , 0.3337603   , -0.004483416, 0.00104909274, -0.382950544, 3.13        , 3           , 15          , 0           , 8.61270746E-05
-0.0006986046, 0.0283439513, -9.802971   , -0.00190961256, -0.00180346472, 0.000169682753, 0.400768518 , 0.159970343 , 0.3338277   , -0.00450251065, 0.001031066 , -0.382948637, 3.14        , 3           , 50          , 0           , 0
0.009065675 , 0.0413837358, -9.823183   , -0.00190436293, -0.00292972662, -0.0003971278, 0.4007011   , 0.160037756 , 0.3337603   , -0.0045215576, 0.00100175117, -0.382952452, 3.15        , 3           , 11          , 0.05359112  , 0.0535911247
-0.00398008432, 0.0532118864, -9.80651    , -0.00148994708, -0.00109668972, -0.000674869341, 0.4007011   , 0.160037756 , 0.3337603   , -0.00453646341, 0.0009907539, -0.382959127, 3.16        , 3           , 12          , 0.0535799153, 0
0.0203123726, 0.05368956  , -9.765191   , 0.000757373753, 0.00131189206, -0.0010844518, 0.400970757 , 0.160105169 , 0.3338277   , -0.0045289  , 0.00100382359, -0.3829701  , 3.17        , 3           , 14          , 0.000439874915, 0.0005480587
0.006129544 , 0.0448086374, -9.758556   , 0.00145880645, 0.002302146 , -0.0006558345, 0.4006337   , 0.160105169 , 0.3337603   , -0.00451431843, 0.00102681527, -0.38297677 , 3.18        , 3           , 15          , 0           , 8.61270746E-05
-0.001569081, 0.0355246179, -9.788485   , -0.000658000645, 0.00200625625, -0.0006661454, 0.400768518 , 0.160037756 , 0.3333558   , -0.004520905, 0.00104684744, -0.382983446, 3.19        , 3           , 50          , 0           , 0
0.003366449 , 0.03498324  , -9.778958   , -0.000796014152, 0.00144216581, 3.86741267E-05, 0.400768518 , 0.160037756 , 0.3333558   , -0.004528844, 0.0010612316, -0.3829832  , 3.2         , 3           , 11          , 0.05459709  , 0.0545971
0.009656733 , 0.02951315  , -9.784357   , 0.00103744667, 0.00180653448, -0.000941104663, 0.40103817  , 0.1597681   , 0.3337603   , -0.004518479, 0.0010792542, -0.382992744, 3.21        , 3           , 12          , 0.0545850545, 0
0.00103273336, 0.03138247  , -9.773568   , 0.00180749886, 0.00314922119, -0.0009354217, 0.400768518 , 0.159835517 , 0.3338277   , -0.004500414, 0.00111070368, -0.383002043, 3.22        , 3           , 14          , 0.000439870928, 0.000548065931
-0.00116313994, 0.0301251374, -9.79438    , -0.000441175158, 0.00102220417, -0.000454771041, 0.400768518 , 0.1603074   , 0.333423227 , -0.00450483151, 0.00112090528, -0.3830068  , 3.23        , 3           , 15          , 0           , 8.61249355E-05
0.008714237 , 0.0575397871, -9.796      , 0.00068162143, 0.00250806264, 0.000259118358, 0.400768518 , 0.1603074   , 0.333423227 , -0.00449801236, 0.00114599708, -0.3830042  , 3.24        , 3           , 50          , 0           , 0
0.0005850522, 0.0607768968, -9.791076   , 5.7520705E-05, 0.000110459725, -0.0005951455, 0.401105583 , 0.159970343 , 0.3338277   , -0.00449744472, 0.001147075 , -0.383010149, 3.25        , 3           , 11          , 0.05459709  , 0.0545971
-0.0138144465, 0.0285101943, -9.806687   , -0.000361774379, -0.000737099734, -0.000315885176, 0.40056628  , 0.159835517 , 0.333692878 , -0.004501066, 0.0011396897, -0.383013248, 3.26        , 3           , 12          , 0.0545850545, 0
0.00290973485, 0.029629169 , -9.795256   , -0.0001462431, -0.00150997192, -0.000527993951, 0.4006337   , 0.16024     , 0.3332884   , -0.0045025344, 0.00112456642, -0.3830185  , 3.27        , 3           , 14          , 0.000439870928, 0.000548065931
0.00890387  , 0.00427970057, -9.7921505  , 0.00118570821, 0.000540449866, 0.0003996542, 0.4006337   , 0.16024     , 0.3332884   , -0.004490673, 0.00112998881, -0.383014441, 3.28        , 3           , 15          , 0           , 8.61249355E-05
0.009931345 , 0.012848503 , -9.794368   , 0.00330642983, 6.203616E-05, 0.0005500405, 0.4012404   , 0.160105169 , 0.333895117 , -0.00445760228, 0.00113063375, -0.383008957, 3.29        , 3           , 50          , 0           , 0
0.00269168988, 0.0196327865, -9.77405548 , 0.0006975863, -0.000589160831, 0.00131387  , 0.4007011   , 0.160172582 , 0.3338277   , -0.00445050467, 0.001124744 , -0.382995844, 3.3         , 3           , 11          , 0.0556130372, 0.05561304
0.00318853464, 0.051279895 , -9.793808   , 0.000262712652, 0.00166049472, 0.00117409707, 0.4006337   , 0.16024     , 0.3332884   , -0.004447864, 0.00114140089, -0.382984161, 3.31        , 3           , 12          , 0.05560012  , 0
0.0219049826, 0.0302810017, -9.786971   , 0.000465023069, 0.00349209853, 0.0004009273, 0.4006337   , 0.16024     , 0.3332884   , -0.00444320962, 0.00117633922, -0.382980347, 3.32        , 3           , 14          , 0.000439851778, 0.0005480764
0.013409595 , 0.0371643864, -9.791528   , 0.000271325 , -0.000169680658, 0.000394298462, 0.400903344 , 0.159700692 , 0.334029943 , -0.004440492, 0.00117465993, -0.3829763  , 3.33        , 3           , 15          , 0           , 8.61157459E-05
0.0215241779, 0.034361802 , -9.791477   , -1.378244E-05, 0.000180361109, -0.00123106653, 0.400498867 , 0.159835517 , 0.333895117 , -0.004440645, 0.00117640907, -0.3829887  , 3.34        , 3           , 50          , 0           , 0
0.00134908129, 0.0508318655, -9.788401   , -0.00177678128, -0.000113137481, 0.000102321726, 0.4006337   , 0.159835517 , 0.33349064  , -0.0044584116, 0.00117528229, -0.382987738, 3.35        , 3           , 11          , 0.0556130372, 0.05561304
-0.000180871226, 0.03553286  , -9.795707   , -0.00213432661, 0.000869954645, 0.0007379037, 0.4006337   , 0.159835517 , 0.33349064  , -0.0044797454, 0.0011840146, -0.382980347, 3.36        , 3           , 12          , 0.05560012  , 0
0.0162908919, 0.0479782671, -9.796885   , -0.00247511431, -0.00187769858, -0.00159890717, 0.401105583 , 0.159970343 , 0.33396253  , -0.00450451532, 0.00116516592, -0.382996321, 3.37        , 3           , 14          , 0.000439851778, 0.0005480764
0.0181803666, 0.05560843  , -9.791415   , 0.0005674658, -0.00291302917, 0.00060328783, 0.4006337   , 0.1597681   , 0.333895117 , -0.00449883332, 0.00113606313, -0.382990122, 3.38        , 3           , 15          , 0           , 8.61157459E-05
-0.01598953 , 0.04289197  , -9.782237   , -0.000715307659, -0.000387535372, 0.00180205121, 0.400970757 , 0.160105169 , 0.3332884   , -0.004505966, 0.00113226881, -0.382972   , 3.39        , 3           , 50          , 0           , 0
-0.009648671, 0.0428190567, -9.782641   , -0.000226854492, 0.0006716657, 0.00081710564, 0.400970757 , 0.160105169 , 0.3332884   , -0.0045081987, 0.00113898015, -0.3829639  , 3.4         , 3           , 11          , 0.0566381924, 0.0566381961
-0.007910066, 0.0405072719, -9.772242   , -0.000226917473, 0.0007420584, 0.00131165469, 0.401105583 , 0.159970343 , 0.333895117 , -0.004510453, 0.00114646  , -0.382950783, 3.41        , 3           , 12          , 0.056624338 , 0
0.0133181689, 0.0370903127, -9.76938152 , 0.00259665679, 0.000761154748, 0.000124039987, 0.400768518 , 0.160172582 , 0.333895117 , -0.00448448444, 0.001154077 , -0.3829496  , 3.42        , 3           , 14          , 0.000439847034, 0.000548084
-0.003555348, 0.02558427  , -9.777695   , -1.26952273E-05, 0.000109965891, 4.02474652E-05, 0.4007011   , 0.16037482  , 0.3332884   , -0.004484611, 0.00115517853, -0.3829491  , 3.43        , 3           , 15          , 0           , 8.611193E-05
-0.00693457946, 0.0392142422, -9.793484   , 0.00112219912, -0.000938263431, -2.67462965E-05, 0.4007011   , 0.16037482  , 0.3332884   , -0.00447338959, 0.00114579475, -0.382949352, 3.44        , 3           , 50          , 0           , 0
0.00843236  , 0.0367792733, -9.793827   , 0.0006111648, 0.00236678217, -0.000730295957, 0.400835931 , 0.15990293  , 0.333895117 , -0.004467286, 0.00116942986, -0.382956743, 3.45        , 3           , 11          , 0.0566381924, 0.0566381961
0.0103719542, 0.05426975  , -9.768881   , -0.00129873841, 0.00291701616, -0.002009736, 0.400498867 , 0.15990293  , 0.333895117 , -0.004480298, 0.00119850971, -0.382977   , 3.46        , 3           , 12          , 0.056624338 , 0
-0.0137194488, 0.0410849825, -9.789459   , 0.000132311092, -0.0006633832, -3.09216848E-05, 0.400903344 , 0.160442233 , 0.333423227 , -0.004478975, 0.00119187438, -0.382977247, 3.47        , 3           , 14          , 0.000439847034, 0.000548084
0.00646527251, 0.0326570161, -9.769      , 0.001407844 , -0.00156987447, 0.000114863054, 0.400903344 , 0.160442233 , 0.333423227 , -0.004464895, 0.00117618078, -0.382976055, 3.48        , 3           , 15          , 0           , 8.611193E-05
0.00182081666, 0.0161007252, -9.793963   , -0.000939064834, 0.00165236276, -0.00137433317, 0.401307821 , 0.159970343 , 0.33396253  , -0.00447430229, 0.00119264261, -0.382989883, 3.49        , 3           , 50          , 0           , 0
0.00668069953, 0.0390804745, -9.801063   , -0.00136939983, 0.003127702 , -0.000314499048, 0.40056628  , 0.159970343 , 0.333895117 , -0.004487932, 0.00122382084, -0.382992983, 3.5         , 3           , 11          , 0.05767183  , 0.0576718338
0.008022228 , 0.0466388576, -9.772547   , 0.00154006784, 0.000331631483, 0.00082481  , 0.400768518 , 0.1603074   , 0.333558053 , -0.004472522, 0.00122717407, -0.382984877, 3.51        , 3           , 12          , 0.0576569773, 0
-0.004112657, 0.0504263565, -9.783019   , 0.00119585043, -0.00150093 , 0.0003965371, 0.400768518 , 0.1603074   , 0.333558053 , -0.00446055876, 0.00121218234, -0.382980824, 3.52        , 3           , 14          , 0.000439834985, 0.0005480991
-0.007912361, 0.0373809673, -9.781747   , -0.002198829, -0.0003271964, 0.0010182875, 0.401105583 , 0.159970343 , 0.334164768 , -0.00448253471, 0.00120895635, -0.382970572, 3.53        , 3           , 15          , 0           , 8.609596E-05
-0.009562972, 0.0477983654, -9.787591   , -0.000438395655, 0.0005998264, 0.0006747567, 0.400970757 , 0.15990293  , 0.33396253  , -0.00448691 , 0.00121498457, -0.3829639  , 3.54        , 3           , 50          , 0           , 0
0.0152352024, 0.0416183472, -9.780648   , -0.000149469663, -0.0007356983, 0.0004621093, 0.4006337   , 0.160172582 , 0.3333558   , -0.00448839925, 0.00120764854, -0.382959366, 3.55        , 3           , 11          , 0.05767183  , 0.0576718338
0.0196286477, 0.031190224 , -9.78111    , 6.06079848E-05, -0.000382309459, 0.000463639444, 0.4006337   , 0.160172582 , 0.3333558   , -0.004487788, 0.00120384665, -0.3829546  , 3.56        , 3           , 12          , 0.0576569773, 0
0.006686691 , 0.0497977436, -9.76802349 , -0.000231632614, 0.00137555716, -0.00144209317, 0.40103817  , 0.15990293  , 0.3338277   , -0.00449012127, 0.00121753733, -0.382969141, 3.57        , 3           , 14          , 0.000439834985, 0.0005480991
0.006916913 , 0.0611430444, -9.787863   , -0.00122010789, 0.00143926521, -0.000810884638, 0.4006337   , 0.1597681   , 0.33396253  , -0.004502333, 0.00123189308, -0.382977247, 3.58        , 3           , 15          , 0           , 8.609596E-05
0.009235111 , 0.03132912  , -9.78616    , 0.002933961 , 0.00386074116, -0.0005758683, 0.4006337   , 0.1603074   , 0.3333558   , -0.004473   , 0.001270474 , -0.3829832  , 3.59        , 3           , 50          , 0           , 0
0.02202027  , 0.0451039821, -9.767474   , 0.00166613853, 0.0032186145, -0.0006534151, 0.4006337   , 0.1603074   , 0.3333558   , -0.00445633335, 0.00130257232, -0.382989883, 3.6         , 3           , 11          , 0.05871328  , 0.0587132834
0.024229696 , 0.03432083  , -9.788745   , 0.0007667404, -0.000447937346, -2.76271549E-05, 0.40103817  , 0.159970343 , 0.3338277   , -0.004448666, 0.00129809172, -0.382990122, 3.61        , 3           , 12          , 0.0586973764, 0
0.0310716219, 0.03651349  , -9.793655   , -0.00242636586, 0.002698182 , -0.000249463919, 0.400768518 , 0.160037756 , 0.333895117 , -0.004472933, 0.00132506178, -0.382992744, 3.62        , 3           , 14          , 0.00043983254, 0.0005481093
0.02241541  , 0.06774168  , -9.791332   , 0.0005364907, 0.00328136748, 4.77691065E-05, 0.400768518 , 0.1603074   , 0.333221    , -0.004467567, 0.00135787716, -0.3829925  , 3.63        , 3           , 15          , 0           , 8.61059161E-05
0.01065769  , 0.07012354  , -9.787797   , 0.0006189055, 0.0008885417, -2.62243429E-05, 0.400768518 , 0.1603074   , 0.333221    , -0.00446137832, 0.00136676163, -0.382992744, 3.64        , 3           , 50          , 0           , 0
0.000433295 , 0.0521732755, -9.781622   , -0.00107350154, 0.000384341634, -0.000529325858, 0.401173    , 0.159700692 , 0.333895117 , -0.00447212 , 0.00137058122, -0.382998   , 3.65        , 3           , 11          , 0.05871328  , 0.0587132834
-0.0006810874, 0.039516896 , -9.771286   , -0.00128888828, 0.00108682155, -0.000670497539, 0.40056628  , 0.159970343 , 0.3338277   , -0.004485019, 0.00138141937, -0.383004665, 3.66        , 3           , 12          , 0.0586973764, 0
-0.00271737948, 0.0223944113, -9.771373   , -0.0007866443, -0.0005992282, -0.00130650576, 0.400768518 , 0.160442233 , 0.333423227 , -0.00449290266, 0.00137536856, -0.383017778, 3.67        , 3           , 14          , 0.00043983254, 0.0005481093
0.002005903 , 0.03455107  , -9.779875   , -0.00149234408, -0.00060400134, -0.000674088835, 0.400768518 , 0.160442233 , 0.333423227 , -0.00450783549, 0.00136929844, -0.383024454, 3.68        , 3           , 15          , 0           , 8.61059161E-05
0.0138259456, 0.0357905   , -9.787011   , 0.00140367309, -0.000584418769, 0.00131717208, 0.400903344 , 0.159633279 , 0.334029943 , -0.004493782, 0.00136351353, -0.383011341, 3.69        , 3           , 50          , 0           , 0
-0.008821763, 0.03471039  , -9.789448   , -0.000922221749, -0.00151527254, 0.0005985797, 0.400835931 , 0.159633279 , 0.333895117 , -0.00450297166, 0.00134834251, -0.383005142, 3.7         , 3           , 11          , 0.05976191  , 0.0597619154
0.0130789373, 0.0435175672, -9.800996   , -0.0007949855, 0.00116054749, -0.000668058, 0.400903344 , 0.1603074   , 0.333221    , -0.00451093 , 0.00135991769, -0.383011818, 3.71        , 3           , 12          , 0.05974489  , 0
0.013273648 , 0.0272345264, -9.790215   , 0.00153595558, 0.001105916 , 0.000331579358, 0.400903344 , 0.1603074   , 0.333221    , -0.00449556671, 0.00137099158, -0.38300848 , 3.72        , 3           , 14          , 0.000439828378, 0.0005481173
-0.008140387, 0.0264837872, -9.761003   , -0.000363333238, -0.000314801175, 0.0005324234, 0.4012404   , 0.160037756 , 0.3338277   , -0.004499193, 0.00136786769, -0.383003235, 3.73        , 3           , 15          , 0           , 8.60794753E-05
0.0166345425, 0.0140360454, -9.768547   , -0.00311086676, -0.00153007393, 0.0008709109, 0.401173    , 0.1597681   , 0.3337603   , -0.004530289, 0.00135260611, -0.3829944  , 3.74        , 3           , 50          , 0           , 0
0.0224663783, 0.0410761   , -9.778787   , -0.001000655, -0.000107928747, -0.0008829015, 0.4007011   , 0.160172582 , 0.33349064  , -0.004540308, 0.00135148689, -0.383003235, 3.75        , 3           , 11          , 0.05976191  , 0.0597619154
0.00245704874, 0.03231267  , -9.78666    , 0.0009691181, 0.00131326541, -0.00129531953, 0.4007011   , 0.160172582 , 0.33349064  , -0.004530634, 0.0013645608, -0.383016348, 3.76        , 3           , 12          , 0.05974489  , 0
0.00441854447, 0.0190968774, -9.755061   , 0.00111007947, 0.00159579108, 0.00068353524, 0.40103817  , 0.160037756 , 0.3338277   , -0.004519524, 0.00138054951, -0.383009434, 3.77        , 3           , 14          , 0.000439828378, 0.0005481173
0.0155875925, 0.034390077 , -9.77932    , 0.001462746 , 0.00159817655, 4.94721644E-05, 0.4006337   , 0.160037756 , 0.333692878 , -0.004504896, 0.00139653333, -0.3830092  , 3.78        , 3           , 15          , 0           , 8.60794753E-05
0.0212630834, 0.0465738922, -9.799113   , 0.0009716355, 0.0009613126, 4.6191E-05  , 0.4007011   , 0.160105169 , 0.3332884   , -0.00449517928, 0.00140614831, -0.383008718, 3.79        , 3           , 50          , 0           , 0
0.0196276   , 0.06235975  , -9.791375   , -0.0009446699, 0.00284897769, -0.000878014544, 0.4007011   , 0.160105169 , 0.3332884   , -0.00450454932, 0.00143457181, -0.38301754 , 3.8         , 3           , 11          , 0.06081714  , 0.06081714
0.004293955 , 0.0394538864, -9.769893   , -0.000434681075, -0.000244893949, -0.000174139539, 0.401307821 , 0.160037756 , 0.333692878 , -0.004508898, 0.00143211521, -0.3830192  , 3.81        , 3           , 12          , 0.0607989319, 0
0.0105355261, 0.0285881311, -9.780738   , 0.00181226933, 0.0023044718, -1.8429806E-05, 0.400835931 , 0.15990293  , 0.3338277   , -0.004490775, 0.00145515916, -0.3830197  , 3.82        , 3           , 14          , 0.000439812953, 0.000548121869
0.0249346   , 0.0577300265, -9.775084   , -0.00113966188, -0.0004608425, -0.000107122789, 0.400903344 , 0.160037756 , 0.3333558   , -0.004502174, 0.00145054562, -0.383020639, 3.83        , 3           , 15          , 0           , 8.607803E-05
0.0146815963, 0.03127592  , -9.789283   , -0.00148663 , -0.00158948777, 0.0007371076, 0.400903344 , 0.160037756 , 0.3333558   , -0.004517029, 0.00143468415, -0.383013248, 3.84        , 3           , 50          , 0           , 0
-0.00225297268, 0.04285647  , -9.819196   , -0.0007819161, -0.00130314764, 0.0008114683, 0.401105583 , 0.160037756 , 0.33396253  , -0.00452483725, 0.00142168952, -0.3830049  , 3.85        , 3           , 11          , 0.06081714  , 0.06081714
0.008527488 , 0.0444443077, -9.79243851 , -0.000856782659, -0.0005997162, -0.0005298292, 0.400835931 , 0.1597681   , 0.3337603   , -0.004533412, 0.00141566829, -0.3830104  , 3.86        , 3           , 12          , 0.0607989319, 0
0.0105349366, 0.0552945137, -9.805487   , 0.00076785  , -0.0007999094, -0.00115829159, 0.400835931 , 0.16037482  , 0.3333558   , -0.00452575 , 0.00140761677, -0.383021832, 3.87        , 3           , 14          , 0.000439812953, 0.000548121869
-8.057617E-05, 0.0400776342, -9.805631   , 0.000268531439, 0.0005341896, 0.00152557122, 0.400835931 , 0.16037482  , 0.3333558   , -0.004523043, 0.00141302776, -0.383006573, 3.88        , 3           , 15          , 0           , 8.607803E-05
-0.0006464198, 0.0435621366, -9.76675    , -0.00156016566, -0.001097229, -0.0001100746, 0.401173    , 0.160172582 , 0.3338277   , -0.004538647, 0.00140205049, -0.383007765, 3.89        , 3           , 50          , 0           , 0
-0.007929645, 0.06675193  , -9.793829   , -0.00269985362, 0.0009364683, 9.971305E-05, 0.400431454 , 0.160037756 , 0.333895117 , -0.00456562452, 0.00141135813, -0.383006573, 3.9         , 3           , 11          , 0.0618784055, 0.06187841
0.007338007 , 0.05352409  , -9.804614   , -0.000794051, 0.0012309294, 0.00152172369, 0.40056628  , 0.160172582 , 0.3333558   , -0.004573544, 0.0014237368, -0.382991552, 3.91        , 3           , 12          , 0.061858952 , 0
0.00108199753, 0.0349931978, -9.774003   , -0.000503790448, -0.000456553622, 0.00060219015, 0.40056628  , 0.160172582 , 0.3333558   , -0.0045785727, 0.00141919882, -0.382985353, 3.92        , 3           , 14          , 0.000439809839, 0.0005481324
0.0116516463, 0.0461557619, -9.775684   , 0.000418816053, -0.00157661061, -0.0008785872, 0.401105583 , 0.15990293  , 0.334029943 , -0.00457439572, 0.00140339253, -0.382994175, 3.93        , 3           , 15          , 0           , 8.607163E-05
-0.000529857352, 0.0423175357, -9.799297   , 0.0003492291, -0.00157708325, 0.0008869429, 0.400835931 , 0.159970343 , 0.3337603   , -0.00457089255, 0.00138766249, -0.382985115, 3.94        , 3           , 50          , 0           , 0
-0.0019029082, 0.0400898233, -9.802932   , -0.0008559417, -0.000670115638, 0.000317681319, 0.400835931 , 0.160172582 , 0.3333558   , -0.00457944674, 0.001380976 , -0.382982016, 3.95        , 3           , 11          , 0.0618784055, 0.06187841
0.011511608 , 0.0606976971, -9.805456   , -0.00333139556, 1.708122E-05, -0.000964175735, 0.400835931 , 0.160172582 , 0.3333558   , -0.00461277459, 0.00138110272, -0.382991552, 3.96        , 3           , 12          , 0.061858952 , 0
0.00563636236, 0.0630074441, -9.800972   , -0.00255331281, -4.80524759E-05, 0.0008758309, 0.401105583 , 0.159835517 , 0.333895117 , -0.004638295, 0.0013806629, -0.382982969, 3.97        , 3           , 14          , 0.000439809839, 0.0005481324
-0.00741038052, 0.0307202525, -9.815217   , 0.00111813587, -9.361626E-05, 0.000115864532, 0.400835931 , 0.160037756 , 0.3338277   , -0.0046271123, 0.00137973228, -0.382981539, 3.98        , 3           , 15          , 0           , 8.607163E-05
-0.00308790337, 0.052744057 , -9.804697   , 5.88720832E-05, -0.000100779427, -0.000171611377, 0.400835931 , 0.160172582 , 0.3333558   , -0.004626526, 0.00137871655, -0.382983446, 3.99        , 3           , 50          , 0           , 0
0.011791979 , 0.05698188  , -9.77518749 , -1.378852E-05, 0.000321071682, -0.000100657468, 0.400835931 , 0.160172582 , 0.3333558   , -0.004626687, 0.00138180854, -0.3829844  , 4           , 3           , 11          , 0.0629451945, 0.0629451945
0.0191690549, 0.0320827328, -9.776589   , -0.00171033689, 0.000661567 , -0.0005318229, 0.4012404   , 0.159835517 , 0.3338277   , -0.004643798, 0.00138839975, -0.382989645, 4.01        , 3           , 12          , 0.06292442  , 0
0.01954062  , 0.0480060726, -9.816296   , -0.0019212967, 0.0005193528, -0.000250490062, 0.400835931 , 0.15990293  , 0.3338277   , -0.004663014, 0.00139358162, -0.382992268, 4.02        , 3           , 14          , 0.000439813448, 0.0005481516
-0.00233870558, 0.04546511  , -9.789806   , -0.0009182916, -0.00228961045, 0.0007386609, 0.400835931 , 0.1603074   , 0.333423227 , -0.004672186, 0.00137071987, -0.382984877, 4.03        , 3           , 15          , 0           , 8.607376E-05
-0.0141257187, 0.0460378379, -9.784923   , 0.000839702 , -0.0008698486, 0.0003958895, 0.400835931 , 0.1603074   , 0.333423227 , -0.004663783, 0.00136204  , -0.382980824, 4.04        , 3           , 50          , 0           , 0
0.0109072914, 0.04986782  , -9.803246   , 0.00132033881, 0.00180836034, -0.000233392668, 0.401307821 , 0.1597681   , 0.33396253  , -0.00465058349, 0.00138011284, -0.3829832  , 4.05        , 3           , 11          , 0.0629451945, 0.0629451945
0.00519893225, 0.06614965  , -9.794635   , 5.622133E-05, 0.0005327252, 0.0006769751, 0.4007011   , 0.15990293  , 0.333558053 , -0.004650012, 0.00138547109, -0.382976532, 4.06        , 3           , 12          , 0.06292442  , 0
-0.0081143  , 0.051426392 , -9.797961   , -0.00142157741, -0.00053317257, 0.000173993511, 0.4007011   , 0.160037756 , 0.333558053 , -0.004664225, 0.00138014765, -0.382974625, 4.07        , 3           , 14          , 0.000439813448, 0.0005481516
-0.00468096323, 0.0378402621, -9.7952795  , -0.0002928712, -0.000455144618, -0.000950780232, 0.4007011   , 0.160037756 , 0.333558053 , -0.004667166, 0.0013755518, -0.382984161, 4.08        , 3           , 15          , 0           , 8.607376E-05
-0.0126877232, 0.0554597825, -9.774025   , -0.00255741319, 0.000655837939, -0.000182602031, 0.400970757 , 0.159970343 , 0.33396253  , -0.004692743, 0.00138210168, -0.382986069, 4.09        , 3           , 50          , 0           , 0
-0.00189669046, 0.0485755168, -9.777134   , -0.0003069173, 0.00229008822, -0.001723518, 0.400768518 , 0.160172582 , 0.333895117 , -0.004695872, 0.00140477251, -0.383003235, 4.1         , 3           , 11          , 0.06401703  , 0.06401704
0.0192691218, 0.03885907  , -9.779273   , 0.00139010162, 0.0018792022, -0.00108055794, 0.400768518 , 0.160509646 , 0.3333558   , -0.00468198629, 0.00142351363, -0.3830142  , 4.11        , 3           , 12          , 0.06399488  , 0
0.0122277765, 0.05160659  , -9.788314   , 0.00202289643, 0.00244663  , -0.000864824, 0.400768518 , 0.160509646 , 0.3333558   , -0.00466177054, 0.00144793908, -0.383023024, 4.12        , 3           , 14          , 0.000439819327, 0.000548176351
0.009516007 , 0.0507497936, -9.792405   , 0.00131963252, 0.002089904 , 0.0009678348, 0.401105583 , 0.160105169 , 0.333895117 , -0.00464855973, 0.00146888325, -0.3830135  , 4.13        , 3           , 15          , 0           , 8.60644E-05
0.009499837 , 0.01644186  , -9.788028   , 0.0016770371, 0.00103641837, -0.000515467953, 0.400768518 , 0.160105169 , 0.3338277   , -0.00463179732, 0.00147922372, -0.3830185  , 4.14        , 3           , 50          , 0           , 0
-5.67771531E-05, 0.0445604175, -9.797025   , 0.00146810489, 0.000542249065, 0.000259762979, 0.4007011   , 0.16037482  , 0.3332884   , -0.004617112, 0.00148465752, -0.383015871, 4.15        , 3           , 11          , 0.06401703  , 0.06401704
-0.0112440614, 0.0497104041, -9.81336    , -0.0007934451, 0.0010901026, 0.0013802452, 0.4007011   , 0.16037482  , 0.3332884   , -0.004625025, 0.00149562221, -0.383002281, 4.16        , 3           , 12          , 0.06399488  , 0
-0.0141952513, 0.0325909853, -9.811193   , -0.00149907835, 0.000874151 , 0.000317112019, 0.401173    , 0.159700692 , 0.333895117 , -0.004640011, 0.00150437828, -0.382999182, 4.17        , 3           , 14          , 0.000439819327, 0.000548176351
0.007281246 , 0.05749526  , -9.777931   , -0.002135132, 0.000940243539, -0.000109548768, 0.400498867 , 0.160037756 , 0.333895117 , -0.00466136448, 0.00151377555, -0.383000374, 4.18        , 3           , 15          , 0           , 8.60644E-05
0.0177468974, 0.0565220974, -9.793222   , -0.00255364855, -4.809798E-05, 0.0003107631, 0.400768518 , 0.160509646 , 0.333558053 , -0.004686896, 0.001513309 , -0.382997274, 4.19        , 3           , 50          , 0           , 0
0.0160555355, 0.0321653038, -9.790173   , 0.000551977 , 0.00025445834, 0.0008907379, 0.400768518 , 0.160509646 , 0.333558053 , -0.00468137441, 0.00151577324, -0.382988453, 4.2         , 3           , 11          , 0.06509347  , 0.06509348
0.0016268678, 0.03595519  , -9.793431   , 0.000341105857, -0.000169327221, -0.00108866289, 0.40103817  , 0.1597681   , 0.333895117 , -0.00467798 , 0.00151402911, -0.382999182, 4.21        , 3           , 12          , 0.06506985  , 0
0.02125703  , 0.0510325   , -9.783275   , -9.19180457E-05, 0.00151719362, -0.00285389414, 0.400768518 , 0.159835517 , 0.33396253  , -0.004678943, 0.00152906717, -0.3830278  , 4.22        , 3           , 14          , 0.000439821044, 0.0005481963
0.008634266 , 0.0476552732, -9.808246   , 0.00180926546, 0.00300831278, 0.000830260629, 0.400835931 , 0.160037756 , 0.333625466 , -0.004660838, 0.00155918882, -0.3830197  , 4.23        , 3           , 15          , 0           , 8.60847E-05
-0.021930702, 0.0366676338, -9.789088   , 0.000762158539, 0.000537454849, 0.000468353537, 0.400835931 , 0.160037756 , 0.333625466 , -0.004653209, 0.001564585 , -0.383015156, 4.24        , 3           , 50          , 0           , 0
0.016111277 , 0.0344422162, -9.796491   , -0.004665861, -0.00147027289, -0.00139652879, 0.401173    , 0.1603074   , 0.334164768 , -0.004699889, 0.00154981716, -0.383028984, 4.25        , 3           , 11          , 0.06509347  , 0.06509348
0.02740043  , 0.025803972 , -9.816326   , -0.003759889, 0.00114041648, 0.000306990056, 0.400835931 , 0.159970343 , 0.3337603   , -0.00473748334, 0.001561236 , -0.383025885, 4.26        , 3           , 12          , 0.06506985  , 0
-0.00276897 , 0.0405788161, -9.811072   , 0.00345167145, -0.000781835231, 0.000196265726, 0.40056628  , 0.160037756 , 0.33349064  , -0.004702964, 0.00155342731, -0.383023977, 4.27        , 3           , 14          , 0.000439821044, 0.0005481963
-0.0007088827, 0.0621840954, -9.80238    , 0.00281760166, -0.000926912, 0.00139386987, 0.40056628  , 0.160037756 , 0.33349064  , -0.00467476528, 0.00154422328, -0.3830099  , 4.28        , 3           , 15          , 0           , 8.60847E-05
0.00291222334, 0.0381118469, -9.768553   , 0.0008357572, -2.5196985E-05, 0.000820986636, 0.401173    , 0.1597681   , 0.33396253  , -0.004666395, 0.00154400954, -0.3830018  , 4.29        , 3           , 50          , 0           , 0
0.0111246845, 0.04163747  , -9.772091   , 0.000269782176, 0.000182138465, 0.0006774361, 0.400835931 , 0.1603074   , 0.3337603   , -0.004663651, 0.0015457524, -0.3829949  , 4.3         , 3           , 11          , 0.06617408  , 0.06617408
0.0196138844, 0.06145594  , -9.790928   , -0.00106290681, -0.00172750081, -0.0003206295, 0.400768518 , 0.16024     , 0.3333558   , -0.00467428472, 0.00152846251, -0.382998   , 4.31        , 3           , 12          , 0.0661489144, 0
0.02507261  , 0.0302422829, -9.786495   , -0.00211661658, -0.00279053138, -4.4657907E-05, 0.400768518 , 0.16024     , 0.3333558   , -0.004695452, 0.00150055543, -0.382998228, 4.32        , 3           , 14          , 0.000439815281, 0.0005482143
0.0229281653, 0.0406317376, -9.782401   , -0.00170119957, -0.00102788233, 0.000807641947, 0.40103817  , 0.15990293  , 0.333895117 , -0.00471245125, 0.001490315 , -0.382990122, 4.33        , 3           , 15          , 0           , 8.605813E-05
-0.00130583066, 0.04868209  , -9.81057549 , -1.78944683E-05, 0.00130649074, 0.00124292972, 0.400768518 , 0.160105169 , 0.333895117 , -0.004712611, 0.001503438 , -0.382977724, 4.34        , 3           , 50          , 0           , 0
-0.00538322143, 0.0531915464, -9.795672   , -0.00163770025, 0.000169241059, -0.00123858114, 0.4007011   , 0.160037756 , 0.333558053 , -0.004729007, 0.00150507188, -0.382990122, 4.35        , 3           , 11          , 0.06617408  , 0.06617408
-0.0006674696, 0.03774253  , -9.780334   , 0.0008349658, 4.51741253E-05, 4.41436459E-05, 0.4007011   , 0.160037756 , 0.333558053 , -0.004720656, 0.001505526 , -0.382989645, 4.36        , 3           , 12          , 0.0661489144, 0
0.00542326458, 0.05212236  , -9.783844   , 0.00132302125, 0.00131555984, 0.0001896696, 0.401173    , 0.160037756 , 0.334029943 , -0.004707423, 0.00151869038, -0.382987738, 4.37        , 3           , 14          , 0.000439815281, 0.0005482143
0.00238555484, 0.058961615 , -9.794233   , -0.000355301134, -0.00207468332, -0.0006710514, 0.400970757 , 0.1597681   , 0.3338277   , -0.00471098674, 0.0014979121, -0.3829944  , 4.38        , 3           , 15          , 0           , 8.605813E-05
0.012691    , 0.04803893  , -9.802336   , -0.00488930149, 0.0009919739, -0.0004048116, 0.400903344 , 0.16024     , 0.333423227 , -0.004759886, 0.0015078123, -0.3829987  , 4.39        , 3           , 50          , 0           , 0
0.0189789627, 0.0470304638, -9.792801   , -0.000364245032, -0.000103738108, 0.000744667836, 0.400903344 , 0.16024     , 0.333423227 , -0.00476352731, 0.0015067209, -0.382991076, 4.4         , 3           , 11          , 0.06725848  , 0.06725847
-0.008249298, 0.0504243076, -9.768135   , 0.001054533 , -0.00150201516, 0.000184007833, 0.40103817  , 0.159970343 , 0.334029943 , -0.004752979, 0.00149170973, -0.382989168, 4.41        , 3           , 12          , 0.06723167  , 0
-0.0041482076, 0.0477194525, -9.78303051 , 0.00245223776, 0.00132318307, -0.000652680348, 0.400835931 , 0.16024     , 0.333895117 , -0.00472846674, 0.00150491053, -0.382995844, 4.42        , 3           , 14          , 0.000439816882, 0.0005482287
0.0219016727, 0.03340278  , -9.776112   , 0.00217956887, -0.0006496825, -0.000657034863, 0.400835931 , 0.160105169 , 0.333153576 , -0.00470668031, 0.00149838289, -0.383002281, 4.43        , 3           , 15          , 0           , 8.60636355E-05
0.0105214836, 0.0272376928, -9.781648   , -9.550629E-05, 0.00243225228, -0.001227872, 0.400835931 , 0.160105169 , 0.333153576 , -0.004707655, 0.0015226471, -0.383014679, 4.44        , 3           , 50          , 0           , 0
0.0116982944, 0.0461935624, -9.78698349 , -0.00347396568, 0.0001568094, -0.00209475914, 0.40103817  , 0.159970343 , 0.33396253  , -0.00474242633, 0.00152411626, -0.38303566 , 4.45        , 3           , 11          , 0.06725848  , 0.06725847
0.004752269 , 0.07196248  , -9.777439   , 0.00246945512, -0.00205559563, 0.00018972464, 0.400768518 , 0.160172582 , 0.333692878 , -0.004717729, 0.00150356966, -0.383033752, 4.46        , 3           , 12          , 0.06723167  , 0
-0.00317353476, 0.0580308735, -9.766708   , -0.00290099974, -0.0012471904, -0.000116532545, 0.400835931 , 0.160442233 , 0.3333558   , -0.00474674068, 0.00149109226, -0.383034945, 4.47        , 3           , 14          , 0.000439816882, 0.0005482287
0.0168996584, 0.02719503  , -9.791091   , -0.00347314961, 0.0001568133, -0.0006820717, 0.400835931 , 0.160442233 , 0.3333558   , -0.00478148274, 0.001492628 , -0.38304162 , 4.48        , 3           , 15          , 0           , 8.60636355E-05
0.018344041 , 0.03260499  , -9.794673   , -0.004594582, -0.00125864567, 0.00157079066, 0.40103817  , 0.160037756 , 0.333895117 , -0.00482740439, 0.00148011709, -0.383025885, 4.49        , 3           , 50          , 0           , 0
0.00727326  , 0.05168623  , -9.794678   , -0.00290361838, -0.000684068946, 0.000166880374, 0.4007011   , 0.16024     , 0.33396253  , -0.00485639833, 0.00147322542, -0.383024216, 4.5         , 3           , 11          , 0.06834628  , 0.06834627
0.00741915824, 0.0273293331, -9.797943   , -0.00122397626, 0.002143037 , -0.0015161034, 0.401105583 , 0.1603074   , 0.333558053 , -0.00486866 , 0.00149458169, -0.383039474, 4.51        , 3           , 12          , 0.06831776  , 0
-0.00208281912, 0.0612947121, -9.80149    , -8.378402E-05, 0.0004612964, 0.00215954776, 0.401105583 , 0.1603074   , 0.333558053 , -0.00486946572, 0.0014993   , -0.383017778, 4.52        , 3           , 14          , 0.00043981045, 0.000548238051
-0.008137903, 0.0522999763, -9.78937    , -0.003180469, -0.00181223941, 0.0001638277, 0.401173    , 0.15990293  , 0.33396253  , -0.004901268, 0.0014811859, -0.3830161  , 4.53        , 3           , 15          , 0           , 8.60558357E-05
0.00129975192, 0.0196215156, -9.76593    , -0.002351474, 0.00185383623, -0.000109117609, 0.40103817  , 0.160037756 , 0.3338277   , -0.00492478441, 0.00149971864, -0.3830173  , 4.54        , 3           , 50          , 0           , 0
-0.0122517943, 0.045174744 , -9.80299    , 0.00132286293, 0.0013155354, -9.286533E-05, 0.4007011   , 0.160172582 , 0.33349064  , -0.004911557, 0.00151286938, -0.383018255, 4.55        , 3           , 11          , 0.06834628  , 0.06834627
-0.001008762, 0.04230169  , -9.79297352 , 0.00076621  , -0.0003776758, -0.0003806403, 0.4007011   , 0.160172582 , 0.33349064  , -0.004903901, 0.00150907389, -0.38302207 , 4.56        , 3           , 12          , 0.06831776  , 0
0.00239001121, 0.0273484923, -9.786229   , 0.00189452374, -8.847087E-05, -0.000374938623, 0.40103817  , 0.159835517 , 0.334029943 , -0.004884962, 0.00150817062, -0.383025885, 4.57        , 3           , 14          , 0.00043981045, 0.000548238051
0.002702294 , 0.04634825  , -9.801515   , -0.000924495, -0.00123383244, -0.0009549187, 0.400768518 , 0.160037756 , 0.3338277   , -0.00489422027, 0.001495786 , -0.383035183, 4.58        , 3           , 15          , 0           , 8.60558357E-05
0.0112610888, 0.0471042022, -9.787888   , 0.001332621 , -0.0006554202, -9.590286E-05, 0.400903344 , 0.16024     , 0.333423227 , -0.0048808963, 0.00148922729, -0.383036375, 4.59        , 3           , 50          , 0           , 0
0.02208502  , 0.0469418541, -9.77741    , -0.0006446823, -0.000668813242, -0.000670203357, 0.400903344 , 0.16024     , 0.333423227 , -0.004887283, 0.00148236658, -0.383043051, 4.6         , 3           , 11          , 0.0694371462, 0.06943713
0.003573399 , 0.04764874  , -9.788848   , -0.00486886548, -0.00323155 , -0.00125893776, 0.4012404   , 0.160105169 , 0.334029943 , -0.00493598962, 0.00144998939, -0.383055449, 4.61        , 3           , 12          , 0.06940683  , 0
-0.0147969425, 0.0253340434, -9.7981205  , -0.0006551818, 0.00158371078, 0.00046341776, 0.400835931 , 0.15990293  , 0.333692878 , -0.00494253449, 0.00146584923, -0.383050919, 4.62        , 3           , 14          , 0.000439799653, 0.000548259763
0.0081263585, 0.0538648367, -9.77477551 , -0.000367505243, 0.000459358649, -0.000102075755, 0.400835931 , 0.160172582 , 0.333423227 , -0.004946212, 0.00147043786, -0.383051872, 4.63        , 3           , 15          , 0           , 8.606285E-05
0.0121039059, 0.0403474681, -9.794237   , -0.00346715585, -0.000687904365, 0.00242453953, 0.400835931 , 0.160172582 , 0.333423227 , -0.00498084724, 0.00146367867, -0.383027554, 4.64        , 3           , 50          , 0           , 0
-0.00340424851, 0.0332946628, -9.78986549 , 0.000755068846, 0.00187482312, -0.000377175835, 0.401173    , 0.160037756 , 0.334029943 , -0.0049733026, 0.00148240791, -0.383031368, 4.65        , 3           , 11          , 0.0694371462, 0.06943713
-0.004927323, 0.02737458  , -9.768658   , 0.00160325388, 0.00159898563, -0.00122127135, 0.40103817  , 0.16024     , 0.333625466 , -0.0049572885, 0.0014983369, -0.383043766, 4.66        , 3           , 12          , 0.06940683  , 0
-0.00965492148, 0.0419212952, -9.784      , -0.00234219455, -0.000117143667, -0.000959774654, 0.400768518 , 0.1603074   , 0.3333558   , -0.00498072524, 0.0014971178, -0.3830533  , 4.67        , 3           , 14          , 0.000439799653, 0.000548259763
-0.0223920271, 0.0326488763, -9.799956   , -9.47476656E-05, 0.002150653 , -0.002358455, 0.400768518 , 0.1603074   , 0.3333558   , -0.004981707, 0.00151850667, -0.3830769  , 4.68        , 3           , 15          , 0           , 8.606285E-05
-0.009105115, 0.0419945978, -9.8075     , -0.000358073536, -0.00151159847, -0.0006701882, 0.401307821 , 0.160105169 , 0.334097356 , -0.004985298, 0.00150335766, -0.383083582, 4.69        , 3           , 50          , 0           , 0
0.00036494527, 0.0454226322, -9.786622   , -0.000357728015, -0.00151163363, -0.000105104904, 0.4006337   , 0.160037756 , 0.3337603   , -0.00498875231, 0.001487998 , -0.383084536, 4.7         , 3           , 11          , 0.07053075  , 0.070530735
0.009702398 , 0.02821111  , -9.799729   , -0.00347074075, -0.000124814746, 0.0010127282, 0.400835931 , 0.160442233 , 0.333625466 , -0.00502344454, 0.00148680038, -0.383074522, 4.71        , 3           , 12          , 0.07049854  , 0
0.0122061688, 0.0475719348, -9.796014   , 0.000474470347, 0.00130974152, -0.00207457715, 0.400835931 , 0.160442233 , 0.333625466 , -0.005018731, 0.00149979361, -0.383095264, 4.72        , 3           , 14          , 0.000439780444, 0.000548296433
0.0105968732, 0.03086958  , -9.788412   , 0.00104522647, 0.0001873027, -0.001508604, 0.400903344 , 0.160172582 , 0.334097356 , -0.005008301, 0.00150159083, -0.383110285, 4.73        , 3           , 15          , 0           , 8.605446E-05
0.0122652585, 0.0218056366, -9.782561   , -9.423902E-05, 0.0021506187, -0.00151083432, 0.401105583 , 0.1597681   , 0.3338277   , -0.00500926655, 0.00152302126, -0.383125544, 4.74        , 3           , 50          , 0           , 0
-0.005375917, 0.0229197852, -9.784047   , 0.000754761742, 0.00187478517, -0.000942242448, 0.400970757 , 0.1603074   , 0.3332884   , -0.00500173355, 0.00154172175, -0.38313508 , 4.75        , 3           , 11          , 0.07053075  , 0.070530735
0.000480765448, 0.0232731123, -9.77541351 , 0.00328717125, 0.00386293232, -0.000362277526, 0.400970757 , 0.1603074   , 0.3332884   , -0.004968868, 0.00158033241, -0.3831389  , 4.76        , 3           , 12          , 0.07049854  , 0
0.009012287 , 0.05249924  , -9.774322   , 0.00105858815, -0.002346779, -9.98220348E-05, 0.400835931 , 0.1597681   , 0.334029943 , -0.00495828362, 0.00155685993, -0.383139849, 4.77        , 3           , 14          , 0.000439780444, 0.000548296433
-0.00235196482, 0.04009816  , -9.803841   , -0.0003774072, 0.002430277 , -0.0003815673, 0.400768518 , 0.160105169 , 0.333895117 , -0.00496206339, 0.00158114312, -0.383143663, 4.78        , 3           , 15          , 0           , 8.605446E-05
0.00644127652, 0.0228178669, -9.794806   , 0.00273502734, 0.00132502685, -8.627929E-05, 0.400903344 , 0.160037756 , 0.333423227 , -0.00493471324, 0.00159438921, -0.383144617, 4.79        , 3           , 50          , 0           , 0
-0.0180093534, 0.06811196  , -9.760905   , -0.00346267456, -0.00181423174, 0.0004450564, 0.400903344 , 0.160037756 , 0.333423227 , -0.00496914657, 0.00157610513, -0.3831401  , 4.8         , 3           , 11          , 0.071626775 , 0.07162677
-0.009209501, 0.0445881151, -9.773591   , 0.000200836541, -0.00010000998, 0.00102985511, 0.401105583 , 0.15990293  , 0.3338277   , -0.004967122, 0.00157515635, -0.383129835, 4.81        , 3           , 12          , 0.0715925843, 0
0.00299278554, 0.0386234745, -9.786631   , -0.00234165764, -0.000117202864, -0.000112147012, 0.400970757 , 0.16024     , 0.3337603   , -0.00499054044, 0.00157397846, -0.383131027, 4.82        , 3           , 14          , 0.000439752155, 0.0005483213
-0.003963026, 0.0260724816, -9.787188   , -0.0006438191, -0.000668870867, 0.000742499 , 0.400903344 , 0.160037756 , 0.333558053 , -0.004996967, 0.001567327 , -0.3831234  , 4.83        , 3           , 15          , 0           , 8.60476939E-05
-0.00119099673, 0.0251927152, -9.803441   , 0.000477361 , 0.00102815859, 0.000467832753, 0.400903344 , 0.160037756 , 0.333558053 , -0.004992185, 0.0015776318, -0.383118868, 4.84        , 3           , 50          , 0           , 0
0.0172711927, 0.05070629  , -9.806357   , 0.000201904229, -0.000381576654, 0.0004643462, 0.401442617 , 0.160172582 , 0.334029943 , -0.004990159, 0.00157383946, -0.3831141  , 4.85        , 3           , 11          , 0.071626775 , 0.07162677
0.0214027315, 0.0640947148, -9.776892   , -8.519407E-05, 0.0004612062, -0.00038328112, 0.400903344 , 0.15990293  , 0.3338277   , -0.004991017, 0.00157843216, -0.383118153, 4.86        , 3           , 12          , 0.0715925843, 0
0.0007154029, 0.070702225 , -9.791033   , -0.0023433778, 0.000164360565, -0.00067678804, 0.401105583 , 0.160105169 , 0.33349064  , -0.005014461, 0.001580042 , -0.383124828, 4.87        , 3           , 14          , 0.000439752155, 0.0005483213
-0.0006029196, 0.03422403  , -9.80746651 , -0.00571233174, -0.00380046712, 0.0004314834, 0.401105583 , 0.160105169 , 0.33349064  , -0.00507157762, 0.00154205936, -0.3831203  , 4.88        , 3           , 15          , 0           , 8.60476939E-05
0.00123113766, 0.0400238931, -9.794322   , -0.00149585982, 0.0004516634, 0.00215297122, 0.401105583 , 0.159970343 , 0.334097356 , -0.005086503, 0.00154668523, -0.383098841, 4.89        , 3           , 50          , 0           , 0
-0.007971281, 0.03331607  , -9.780408   , 0.000474673376, 0.00130969309, -0.00179202168, 0.400903344 , 0.15990293  , 0.33396253  , -0.005081706, 0.00155952841, -0.383116961, 4.9         , 3           , 11          , 0.07272495  , 0.0727249458
0.009658043 , 0.0312996171, -9.778926   , 0.00471066032, 0.00161991268, -7.66087E-05, 0.400903344 , 0.160037756 , 0.333558053 , -0.005034601, 0.00157572376, -0.383117676, 4.91        , 3           , 12          , 0.0726886839, 0
-0.006878865, 0.0490791   , -9.775362   , -0.00176261459, -0.00264748512, 0.00271196733, 0.400903344 , 0.160037756 , 0.333558053 , -0.005052184, 0.00154938607, -0.383090258, 4.92        , 3           , 14          , 0.000439740543, 0.0005483457
-0.01112507 , 0.029348854 , -9.797172   , -0.0009119679, -0.00348645449, 0.001301929 , 0.400970757 , 0.160172582 , 0.33396253  , -0.005061283, 0.0015145879, -0.383077145, 4.93        , 3           , 15          , 0           , 8.603635E-05
-0.0148336729, 0.05870641  , -9.792559   , -0.000361543818, -0.000666986045, 0.000461289776, 0.4007011   , 0.15990293  , 0.333895117 , -0.00506489165, 0.00150794128, -0.3830726  , 4.94        , 3           , 50          , 0           , 0
-0.00291139632, 0.0319827572, -9.803877   , 0.001054283 , -0.00150213379, -0.00038103963, 0.400768518 , 0.160037756 , 0.33349064  , -0.005054355, 0.00149290089, -0.3830762  , 4.95        , 3           , 11          , 0.07272495  , 0.0727249458
0.00444165152, 0.04760787  , -9.779802   , 0.000775385357, -0.00234874221, -0.00151380838, 0.400768518 , 0.160037756 , 0.33349064  , -0.005046623, 0.001469337 , -0.3830912  , 4.96        , 3           , 12          , 0.0726886839, 0
0.004142425 , 0.0286187027, -9.767678   , 0.0004956578, -0.00263221073, 0.000744740537, 0.401105583 , 0.15990293  , 0.33396253  , -0.00504165562, 0.001443053 , -0.38308382 , 4.97        , 3           , 14          , 0.000439740543, 0.0005483457
-0.007370372, 0.044589527 , -9.780357   , -0.002345991, 0.0007274672, -0.000393371331, 0.4006337   , 0.160105169 , 0.3338277   , -0.005065121, 0.00145030743, -0.383087635, 4.98        , 3           , 15          , 0           , 8.603635E-05
-0.0117795961, 0.0487559661, -9.796192   , 0.000487545738, -0.00122439093, -0.0012308521, 0.4012404   , 0.160442233 , 0.33349064  , -0.00506026344, 0.00143800164, -0.383100033, 4.99        , 3           , 50          , 0           , 0
