Acc X       , Acc Y       , Acc Z       , Gyro X      , Gyro Y      , Gyro Z      , Magn X      , Magn Y      , Magn Z      , Euler X     , Euler Y     , Euler Z     , Time        , Status      , LowRate X   , LowRate Y   , LowRate Z    
0.0126623912, -0.0205738954, -9.794485   , -0.0004459088, -0.00156065053, -0.000262330374, -0.5156397  , -0.0570311435, 0.326681942 , 0.00209851447, 3.220229E-05, 3.03011584  , 0           , 3           , 11          , 0.0346410163, 0.0346410163
0.00749726128, -0.00556316227, -9.81209    , -0.001582586, -0.000160465162, -0.000265428447, -0.5156397  , -0.0568963178, 0.326816767 , 0.00208268873, 3.06031943E-05, 3.03011346  , 0.01        , 3           , 12          , 0.0346410163, 0
-0.0218704678, -0.000256489031, -9.81184    , 0.00180874544, -0.000419106684, 0.001162628 , -0.516853154, -0.0570985563, 0.3259404   , 0.00210077642, 2.638781E-05, 3.030125    , 0.02        , 3           , 14          , 0.000245371251, 0.000595402729
-0.0164029375, 0.005509914 , -9.801379   , -0.00100371812, -0.00269072363, 0.002276137 , -0.516853154, -0.0570985563, 0.3259404   , 0.00209073955, -5.67059033E-07, 3.03014779  , 0.03        , 3           , 15          , 0           , -4.05744941E-05
-0.0009993995, -0.0253876764, -9.791446   , -0.00298258942, -0.002422531, 0.00141974015, -0.515167832, -0.0570311435, 0.325738162 , 0.00206091348, -2.48217912E-05, 3.03016162  , 0.04        , 3           , 50          , 0           , 0
0.009425398 , -0.0210377332, -9.779595   , -0.00242773117, -0.000729328371, -0.00140039716, -0.515841961, -0.0568963178, 0.327019    , 0.0020366367, -3.20863765E-05, 3.03014779  , 0.05        , 3           , 11          , 0.0346410163, 0.0346410163
0.0142226536, -0.009713839, -9.808891   , -0.00101847388, 0.0001249229, 0.0008677891, -0.5165161  , -0.0568289049, 0.326075226 , 0.002026452 , -3.08547824E-05, 3.03015637  , 0.06        , 3           , 12          , 0.0346410163, 0
-0.0117525579, -0.02025813 , -9.803257   , -0.00129286293, -0.00156637887, 0.000298793544, -0.5165161  , -0.0568289049, 0.326075226 , 0.00201352313, -4.65245757E-05, 3.03015924  , 0.07        , 3           , 14          , 0.000245371251, 0.000595402729
-0.008270739, -0.0262170229, -9.787889   , -0.000455014262, 0.000410307955, 0.0008708569, -0.515167832, -0.0570311435, 0.325805575 , 0.00200897269, -4.243901E-05, 3.03016782  , 0.08        , 3           , 15          , 0           , -4.05744941E-05
-0.007537285, -0.00457010232, -9.78689    , -0.00185632252, -0.001851764, 0.000295725768, -0.515774548, -0.0568289049, 0.3269516   , 0.001990409 , -6.09625567E-05, 3.03017068  , 0.09        , 3           , 50          , 0           , 0
0.00568114873, 0.00293473527, -9.783593   , -0.00158274942, -0.000160466036, -0.000547965639, -0.5165835  , -0.057233382, 0.3259404   , 0.001974568 , -6.256321E-05, 3.03016543  , 0.1         , 3           , 11          , 0.0346410163, 0.0346410163
-0.00491455942, -0.0234248638, -9.824462   , -0.0007238275, -0.00240725442, 0.000300125917, -0.5165835  , -0.057233382, 0.3259404   , 0.00196732953, -8.66416158E-05, 3.03016829  , 0.11        , 3           , 12          , 0.0346410163, 0
-0.0270186458, -0.0150633324, -9.81872    , -0.00213661417, -0.00241680746, -0.0008366085, -0.515033   , -0.0568963178, 0.325738162 , 0.00194596453, -0.000110793284, 3.03016019  , 0.12        , 3           , 14          , 0.000245371455, 0.000595402846
0.00318889762, -0.0159704126, -9.788662   , -0.00243683648, 0.00124163018, -0.000267209281, -0.515774548, -0.05696373 , 0.326816767 , 0.00192159624, -9.837186E-05, 3.03015733  , 0.13        , 3           , 15          , 0           , -4.057478E-05
-0.0114211515, -0.0230398942, -9.782476   , -0.00270655425, -0.00129436469, 1.01058686E-05, -0.5164487  , -0.057233382, 0.325805575 , 0.00189453084, -0.000111315676, 3.03015733  , 0.14        , 3           , 50          , 0           , 0
-0.005433332, -0.0167777631, -9.786924   , 0.0006764132, 0.000136384158, 0.001440766 , -0.5164487  , -0.057233382, 0.325805575 , 0.00190129329, -0.000109979192, 3.03017163  , 0.15        , 3           , 11          , 0.0346410163, 0.0346410163
-0.00254647154, -0.0411469042, -9.796042   , -0.0004426315, -0.00212377869, 0.0005844142, -0.515167832, -0.057233382, 0.325670749 , 0.00189686613, -0.000131228036, 3.03017735  , 0.16        , 3           , 12          , 0.0346410163, 0
-0.00306400284, -0.04297945 , -9.786111   , 0.00292418664, 0.00240418268, 0.0006071604, -0.515707135, -0.0568289049, 0.3269516   , 0.00192610733, -0.000107197855, 3.030184    , 0.17        , 3           , 14          , 0.000245371455, 0.000595402846
0.0117117167, -0.0210461672, -9.785003   , 0.000945403648, 0.00239080423, -0.00250997045, -0.5167183  , -0.05696373 , 0.326075226 , 0.00193556375, -8.32413862E-05, 3.03015876  , 0.18        , 3           , 15          , 0           , -4.057478E-05
-0.0019903793, -0.004988283, -9.815776   , -0.000166759623, -0.0009956129, -0.00110775768, -0.5167183  , -0.05696373 , 0.326075226 , 0.00193389726, -9.3176066E-05, 3.03014779  , 0.19        , 3           , 50          , 0           , 0
-0.02420209 , -0.006087316, -9.814141   , 0.0004022762, -0.00183648849, -0.00110642507, -0.5151004  , -0.0570311435, 0.325805575 , 0.00193792512, -0.00011152323, 3.03013635  , 0.2         , 3           , 11          , 0.0346694253, 0.0346694253
0.0192997959, -0.0328301825, -9.79584    , -0.00101740623, -0.000156643888, 0.000302281 , -0.515707135, -0.05696373 , 0.327153832 , 0.00192775053, -0.000113095506, 3.03013921  , 0.21        , 3           , 12          , 0.0346692465, 0
0.008925573 , -0.03178294 , -9.802696   , 0.000115830451, -0.0009937023, -0.000823902839, -0.516381264, -0.0570985563, 0.326142639 , 0.00192890991, -0.000123016624, 3.03013158  , 0.22        , 3           , 14          , 0.000245371339, 0.000595402962
0.0048579704, -0.0317290537, -9.804535   , 0.00349486782, 0.00100017129, -0.001370137, -0.516381264, -0.0570985563, 0.326142639 , 0.00196386036, -0.00011298828, 3.03011727  , 0.23        , 3           , 15          , 0           , -4.057535E-05
0.00870396  , -0.0115045467, -9.794025   , -0.002139654, -0.001572107, 0.00114245608, -0.515235245, -0.0570311435, 0.325873    , 0.00194246264, -0.000128731641, 3.03012872  , 0.24        , 3           , 50          , 0           , 0
-0.02355669 , -0.0201456249, -9.795664   , 0.000396285031, -0.000428658328, 0.0005909692, -0.5160442  , -0.056761492, 0.32688418  , 0.00194642472, -0.00013302968, 3.030135    , 0.25        , 3           , 11          , 0.0346694253, 0.0346694253
-0.0121627878, -0.0130767263, -9.790576   , 0.00096581  , -0.0012695312, 0.00143991387, -0.5165161  , -0.0570311435, 0.325805575 , 0.00195608079, -0.00014575306, 3.03014922  , 0.26        , 3           , 12          , 0.0346692465, 0
0.0245957356, 0.000396756484, -9.765831   , 0.000675434363, 0.000136379385, -0.0002544582, -0.5165161  , -0.0570311435, 0.325805575 , 0.0019628352, -0.000144384278, 3.03014684  , 0.27        , 3           , 14          , 0.000245371339, 0.000595402962
-0.00182332844, -0.0208473913, -9.796857   , -0.00158971932, 0.00124735921, -0.0005457954, -0.515167832, -0.05716597 , 0.325738162 , 0.00194693881, -0.000131900044, 3.030141    , 0.28        , 3           , 15          , 0           , -4.057535E-05
-0.00463350024, -0.03383538 , -9.815915   , 0.00069667073, -0.004087095, 0.000304107525, -0.5161116  , -0.05716597 , 0.327019    , 0.001953905 , -0.000172776839, 3.030144    , 0.29        , 3           , 50          , 0           , 0
0.0104854451, -0.006193631, -9.769583   , 0.00180939806, -0.00041910357, 0.00229277858, -0.5165161  , -0.0570985563, 0.325805575 , 0.001971998 , -0.000177009, 3.03016686  , 0.3         , 3           , 11          , 0.0347551145, 0.03475512
-0.004163624, -0.0257925447, -9.794184   , -0.00102577009, 0.001532747 , 0.000304884452, -0.5165161  , -0.0570985563, 0.325805575 , 0.0019617395, -0.000161687611, 3.0301702   , 0.31        , 3           , 12          , 0.03475475  , 0
0.00402104575, -0.0169332325, -9.773745   , 0.0006674856, 0.00154420058, -0.00194751355, -0.5151004  , -0.05716597 , 0.325603336 , 0.00196841755, -0.000146207356, 3.03015065  , 0.32        , 3           , 14          , 0.0002453712, 0.0005954028
-0.00381120481, 0.002166736 , -9.79045    , 0.002369343 , 0.000147836225, -0.00137670676, -0.5160442  , -0.056761492, 0.327019    , 0.00199211319, -0.000144701742, 3.0301373   , 0.33        , 3           , 15          , 0           , -4.05752071E-05
0.004703397 , -0.006486483, -9.796295   , 0.000121896039, -0.00211996026, 2.19738322E-05, -0.516381264, -0.057233382, 0.325873    , 0.00199333183, -0.000165901758, 3.0301373   , 0.34        , 3           , 50          , 0           , 0
0.0163985621, -0.0102580879, -9.78899    , -0.0007295664, -0.00128099485, 1.93248325E-05, -0.516381264, -0.057233382, 0.325873    , 0.001986036 , -0.000178712071, 3.0301373   , 0.35        , 3           , 11          , 0.0347551145, 0.03475512
0.0112914015, -0.01744374 , -9.781374   , -0.00071423233, -0.00437821075, 1.45515578E-05, -0.5149656  , -0.05696373 , 0.325670749 , 0.00197889376, -0.0002224944, 3.0301373   , 0.36        , 3           , 12          , 0.03475475  , 0
0.0148509331, -0.02423236 , -9.78770351 , 0.004910606 , 0.000446595019, 4.82671167E-05, -0.5161116  , -0.0568289049, 0.32688418  , 0.00202799938, -0.000218029425, 3.03013825  , 0.37        , 3           , 14          , 0.0002453712, 0.0005954028
0.0228618756, -0.003536512, -9.797501   , 9.269631E-05, 0.00407447852, 0.00257435767, -0.5166509  , -0.0570311435, 0.325670749 , 0.00202892139, -0.000177336944, 3.030164    , 0.38        , 3           , 15          , 0           , -4.05752071E-05
-0.007785218, 0.0103307646, -9.789089   , -0.00102019415, 0.000406486331, 0.000303148758, -0.5166509  , -0.0570311435, 0.325670749 , 0.00201871875, -0.000173278226, 3.03016686  , 0.39        , 3           , 50          , 0           , 0
-0.0142189441, -0.0293226112, -9.782976   , -0.00157668546, -0.00128672237, 0.0002979119, -0.515033   , -0.0570985563, 0.325873    , 0.002002922 , -0.000186127436, 3.03016973  , 0.4         , 3           , 11          , 0.0348972268, 0.03489723
0.011726018 , -0.0295152366, -9.815772   , -0.001001822, -0.00353542855, -0.001680688, -0.5160442  , -0.0570311435, 0.327288657 , 0.00199290714, -0.000221448077, 3.03015256  , 0.41        , 3           , 12          , 0.0348966755, 0
-0.000465204, -0.0186317675, -9.789605   , 0.001239708 , 0.0004217699, 0.00116129732, -0.5166509  , -0.0570311435, 0.325805575 , 0.00200530165, -0.0002172536, 3.03016448  , 0.42        , 3           , 14          , 0.000245373085, 0.0005954013
-0.003786227, -0.0294297524, -9.787416   , 0.0003900547, 0.000697600539, -0.000537444255, -0.5166509  , -0.0570311435, 0.325805575 , 0.00200920342, -0.000210266851, 3.03015924  , 0.43        , 3           , 15          , 0           , -4.05758328E-05
-0.00711579667, -0.044251807, -9.79609    , -0.00129351742, -0.00156638073, -0.0008313549, -0.5148982  , -0.05696373 , 0.325738162 , 0.00199626968, -0.000225913944, 3.03015065  , 0.44        , 3           , 50          , 0           , 0
0.0005706167, -0.01139526 , -9.798156   , 0.0009658083, -0.00126952957, 0.00143991434, -0.5159768  , -0.0570311435, 0.327019    , 0.0020059247, -0.000238638022, 3.030165    , 0.45        , 3           , 11          , 0.0348972268, 0.03489723
0.02542107  , 0.017654622 , -9.80146    , 0.000407183339, -0.00239960663, 0.00256569474, -0.516381264, -0.057233382, 0.3260078   , 0.00200999016, -0.0002626856, 3.03019071  , 0.46        , 3           , 12          , 0.0348966755, 0
-0.00344464462, -0.008620856, -9.80404949 , -0.001872563, 0.00152702071, 0.00114854681, -0.516381264, -0.057233382, 0.3260078   , 0.0019912615, -0.00024743838, 3.03020215  , 0.47        , 3           , 14          , 0.000245373085, 0.0005954013
0.00561063364, -0.0118519608, -9.813937   , -0.00128958735, -0.00212950539, 0.00114553946, -0.5149656  , -0.057233382, 0.325805575 , 0.001978363 , -0.00026875615, 3.03021359  , 0.48        , 3           , 15          , 0           , -4.05758328E-05
0.005619409 , -0.01005945 , -9.810314   , -0.00015856039, -0.00268500252, -0.0013928978, -0.516179   , -0.0566940829, 0.3269516   , 0.001976781 , -0.00029557856, 3.03019977  , 0.49        , 3           , 50          , 0           , 0
-0.0128468731, -0.02843474 , -9.783413   , -0.0010102021, -0.00128289289, 0.00312592275, -0.5165835  , -0.0568963178, 0.325873    , 0.00196665  , -0.00030844775, 3.03023076  , 0.5         , 3           , 11          , 0.0350946523, 0.0350946561
-0.00191616453, -0.0253861155, -9.78874    , 0.0009349012, 0.004643331 , -0.00137634529, -0.5165835  , -0.0568963178, 0.325873    , 0.001976003 , -0.000261987443, 3.03021741  , 0.51        , 3           , 12          , 0.0350939073, 0
-0.00286665 , -0.003168514, -9.81713    , 0.00321530038, 0.000716706563, 0.00117095222, -0.5151004  , -0.0570311435, 0.325670749 , 0.00200815266, -0.000254843675, 3.03022885  , 0.52        , 3           , 14          , 0.000245374657, 0.0005953996
-0.005945012, -0.0284252781, -9.810027   , -0.0004400099, -0.00268690614, 0.000301012449, -0.516246438, -0.057233382, 0.32688418  , 0.0020037517, -0.000281718734, 3.03023171  , 0.53        , 3           , 15          , 0           , -4.05783E-05
-0.00566961337, -0.00633096276, -9.806317   , 0.000961135258, -0.000424835045, 0.000593606033, -0.5164487  , -0.0570985563, 0.325670749 , 0.00201336155, -0.000285979, 3.030238    , 0.54        , 3           , 50          , 0           , 0
0.0131767523, -0.0205293261, -9.809397   , -0.00130344019, 0.000404575752, -0.00111085223, -0.5164487  , -0.0570985563, 0.325670749 , 0.00200033  , -0.000281910936, 3.030227    , 0.55        , 3           , 11          , 0.0350946523, 0.0350946561
0.00567862764, -0.0407354943, -9.812701   , -0.00243061129, 0.000115376206, 0.0008612083, -0.515302658, -0.0570311435, 0.325873    , 0.00197602157, -0.000280774257, 3.03023553  , 0.56        , 3           , 12          , 0.0350939073, 0
0.025774505 , -0.0207431689, -9.78986549 , -0.0004558334, 0.000410307141, -0.0005418265, -0.516179   , -0.0568289049, 0.327019    , 0.0019714646, -0.000276660547, 3.03022981  , 0.57        , 3           , 14          , 0.000245374657, 0.0005953996
0.02565699  , -0.02842635 , -9.7858305  , 0.00208756537, 0.0001459326, -0.000247870543, -0.5165161  , -0.0568963178, 0.325738162 , 0.001992341 , -0.000275196275, 3.030228    , 0.58        , 3           , 15          , 0           , -4.05783E-05
-0.0251619965, -0.00388896675, -9.7938     , 0.000384640181, 0.00182386325, -0.000253168546, -0.5165161  , -0.0568963178, 0.325738162 , 0.00199618819, -0.0002569526, 3.030225    , 0.59        , 3           , 50          , 0           , 0
-0.009756404, -0.0120951654, -9.822192   , -0.00128680118, -0.002692632, 0.00114467565, -0.515033   , -0.0573682077, 0.325873    , 0.00198331429, -0.0002838836, 3.03023648  , 0.6         , 3           , 11          , 0.03534604  , 0.03534604
-0.01977015 , -0.009788991, -9.802372   , -0.00186034525, -0.0010070632, 0.0005795705, -0.516246438, -0.0568963178, 0.3269516   , 0.00196470926, -0.000293965684, 3.0302422   , 0.61        , 3           , 12          , 0.0353451   , 0
-0.0133689586, -0.00133235846, -9.790084   , -0.000443124416, -0.00212377612, -0.0002631928, -0.5164487  , -0.0570311435, 0.3259404   , 0.00196027872, -0.000315198238, 3.03023934  , 0.62        , 3           , 14          , 0.000245374918, 0.0005953979
0.006279865 , -0.0290154144, -9.811292   , 0.00123954308, 0.0004217726, 0.000878763967, -0.5164487  , -0.0570311435, 0.3259404   , 0.00197267137, -0.000310997857, 3.0302484   , 0.63        , 3           , 15          , 0           , -4.05799437E-05
-0.009566214, -0.024364721, -9.797382   , 0.00153697771, -0.00267353468, 0.0003102326, -0.515235245, -0.0573682077, 0.325805575 , 0.00198804028, -0.000337739271, 3.03025174  , 0.64        , 3           , 50          , 0           , 0
-0.0233059824, -0.00119575765, -9.796036   , -0.00129270344, -0.00156637351, 0.0005813365, -0.516381264, -0.0568289049, 0.327153832 , 0.0019751112, -0.0003534145, 3.03025746  , 0.65        , 3           , 11          , 0.03534604  , 0.03534604
-0.00276972167, -0.0231015868, -9.794161   , 0.000683705963, -0.00127143459, 0.00200367649, -0.5164487  , -0.056761492, 0.325805575 , 0.001981941 , -0.000366168475, 3.03027749  , 0.66        , 3           , 12          , 0.0353451   , 0
-0.024603473, -0.0296227727, -9.791643   , 0.000389889756, 0.0006976031, -0.0008199777, -0.5164487  , -0.056761492, 0.325805575 , 0.001985843 , -0.0003591762, 3.030269    , 0.67        , 3           , 14          , 0.000245374918, 0.0005953979
0.009662101 , -0.0110262316, -9.805315   , -0.005817762, -0.000470675761, -0.000568148447, -0.514830768, -0.0573007949, 0.325738162 , 0.0019276673, -0.0003638718, 3.03026319  , 0.68        , 3           , 15          , 0           , -4.05799437E-05
0.0244761854, -0.02023223 , -9.80298    , 0.000115085451, -0.0007121291, 0.000306685484, -0.516313851, -0.0568963178, 0.3269516   , 0.001928817 , -0.000370999, 3.030266    , 0.69        , 3           , 50          , 0           , 0
-0.00210281834, -0.0358034149, -9.776581   , 0.00407233741, -0.00124851649, 0.00117186888, -0.5164487  , -0.056761492, 0.325805575 , 0.001969532 , -0.000383499137, 3.03027844  , 0.7         , 3           , 11          , 0.03564983  , 0.0356498323
-0.0172414  , -0.0220246464, -9.795624   , 0.0015291915, -0.00126571255, -0.00110028312, -0.5164487  , -0.056761492, 0.325805575 , 0.00198482838, -0.000396134448, 3.030267    , 0.71        , 3           , 12          , 0.0356486924, 0
-0.000360615551, -0.015868919, -9.806316   , 0.000119355878, -0.001838395, -0.0019553483, -0.5148982  , -0.0570985563, 0.325805575 , 0.00198602956, -0.00041447964, 3.03024745  , 0.72        , 3           , 14          , 0.000245375326, 0.0005953971
0.0400841758, -0.004171515, -9.802794   , -0.000167668069, -0.000714039837, -0.000259704422, -0.5160442  , -0.056761492, 0.3269516   , 0.00198435388, -0.000421614852, 3.030245    , 0.73        , 3           , 15          , 0           , -4.05817082E-05
0.01148519  , -0.007467005, -9.7967     , -0.00101889309, 0.0004064983, 0.00256345537, -0.5164487  , -0.0570985563, 0.325873    , 0.00197415426, -0.0004176006, 3.03027081  , 0.74        , 3           , 50          , 0           , 0
0.00546405  , -0.0235758461, -9.815796   , -0.000449694257, -0.000434376125, 0.00284732459, -0.5164487  , -0.0570985563, 0.325873    , 0.00196964527, -0.000422000448, 3.030299    , 0.75        , 3           , 11          , 0.03564983  , 0.0356498323
0.008798007 , -0.007857541, -9.805309   , 0.000113364775, -0.000430564774, -0.000257953565, -0.5148982  , -0.0570985563, 0.325873    , 0.00197078  , -0.000426301034, 3.03029656  , 0.76        , 3           , 12          , 0.0356486924, 0
0.00731368642, -0.0168706663, -9.80355    , -0.000732684857, -0.00071786053, -0.0005448758, -0.516381264, -0.0568963178, 0.327019    , 0.00196345546, -0.000433468958, 3.03029084  , 0.77        , 3           , 14          , 0.000245375326, 0.0005953971
-0.00363391521, -0.0226110741, -9.802753   , -0.000174148619, 0.000693787937, 0.0005900774, -0.516179   , -0.05716597 , 0.325738162 , 0.00196171133, -0.000426542654, 3.03029656  , 0.78        , 3           , 15          , 0           , -4.05817082E-05
0.0009322371, -0.0212941524, -9.807685   , -0.000454440044, 0.000128744578, -0.000542257039, -0.516179   , -0.05716597 , 0.325738162 , 0.001957169 , -0.000425244565, 3.0302918   , 0.79        , 3           , 50          , 0           , 0
-0.004048303, -0.0185574964, -9.799124   , -0.00185542274, -0.00213332288, -0.0005523142, -0.5148982  , -0.0573007949, 0.325738162 , 0.0019386122, -0.000446541118, 3.030286    , 0.8         , 3           , 11          , 0.03600429  , 0.0360042937
-0.008352542, -0.000915492361, -9.797276   , 0.00349781453, 0.000437050825, -0.001088462, -0.516381264, -0.0568289049, 0.327086419 , 0.00197359547, -0.0004421493, 3.030275    , 0.81        , 3           , 12          , 0.03600295  , 0
0.0121187679, -0.0300155468, -9.802663   , 0.00321989646, -0.000409552827, -0.000526005751, -0.516313851, -0.05696373 , 0.325603336 , 0.00200579618, -0.0004462344, 3.03026986  , 0.82        , 3           , 14          , 0.0002453759, 0.000595394056
-0.0131304543, -0.0189189687, -9.794223   , 0.00236901175, 0.000147843384, -0.00194177614, -0.516313851, -0.05696373 , 0.325603336 , 0.002029495 , -0.000444716745, 3.03025031  , 0.83        , 3           , 15          , 0           , -4.0580715E-05
0.008305185 , -0.014133567, -9.815735   , -0.00157373725, -0.00184984482, 0.000579586369, -0.515033   , -0.05716597 , 0.325873    , 0.002013755 , -0.000463226868, 3.030256    , 0.84        , 3           , 50          , 0           , 0
-0.0118999286, -0.0279654954, -9.791991   , -0.0024220855, -0.00157400791, 0.00114114454, -0.516313851, -0.0570985563, 0.326816767 , 0.00198952877, -0.0004789897, 3.03026748  , 0.85        , 3           , 11          , 0.03600429  , 0.0360042937
-0.00392086525, -0.03757315 , -9.78067    , -0.00497375941, 9.818573E-05, -0.00141094148, -0.516381264, -0.0573007949, 0.325670749 , 0.00193979777, -0.000477980153, 3.03025365  , 0.86        , 3           , 12          , 0.03600295  , 0
0.004473827 , -0.0169385523, -9.773742   , -0.000457065471, 0.0006918786, -0.00025885267, -0.516381264, -0.0573007949, 0.325670749 , 0.00193522836, -0.0004710564, 3.03025079  , 0.87        , 3           , 14          , 0.0002453759, 0.000595394056
0.0146697136, -0.00481393747, -9.791693   , 0.00378654385, -0.000405724335, 0.00258454052, -0.5151004  , -0.057233382, 0.326075226 , 0.00197308185, -0.000475164125, 3.03027654  , 0.88        , 3           , 15          , 0           , -4.0580715E-05
-0.0118044754, -0.0198538452, -9.789245   , 0.0009609708, -0.000424830272, 0.000311071 , -0.5165161  , -0.05662667 , 0.327086419 , 0.00198268984, -0.000479418522, 3.0302794   , 0.89        , 3           , 50          , 0           , 0
-0.00676425733, -0.014954187, -9.78783    , 0.0006783806, -0.0004267391, 2.722203E-05, -0.516246438, -0.0570985563, 0.325805575 , 0.001989471 , -0.000483671261, 3.03027987  , 0.9         , 3           , 11          , 0.03640754  , 0.03640754
-0.00332994037, -0.0272004791, -9.78107548 , 0.0009595766, -0.000143263256, 0.000311510143, -0.516246438, -0.0570985563, 0.325805575 , 0.00199906575, -0.00048511 , 3.03028321  , 0.91        , 3           , 12          , 0.0364059843, 0
0.008918307 , -0.0264326241, -9.78369    , 0.00123946741, 0.000140206248, -0.00166450127, -0.5149656  , -0.05696373 , 0.3259404   , 0.00201146817, -0.000483674667, 3.03026652  , 0.92        , 3           , 14          , 0.000245376228, 0.000595392135
-0.0153634455, -0.01485017 , -9.788799   , 0.000404970546, -0.00211803662, 0.00115345116, -0.5164487  , -0.0566940829, 0.32688418  , 0.0020155122, -0.000504878059, 3.030278    , 0.93        , 3           , 15          , 0           , -4.05859319E-05
0.0130710527, -0.019722268, -9.780919   , -0.000720717944, -0.00297037233, 0.000864344242, -0.516246438, -0.0570985563, 0.325603336 , 0.00200830027, -0.0005345991, 3.03028655  , 0.94        , 3           , 50          , 0           , 0
0.0119572263, -0.0341635942, -9.776466   , -0.0004550192, 0.000410318549, 0.0008708684, -0.516246438, -0.0570985563, 0.325603336 , 0.00200374541, -0.0005305134, 3.03029513  , 0.95        , 3           , 11          , 0.03640754  , 0.03640754
-0.0152395824, -0.04636652 , -9.80972    , 0.000951790658, 0.00126455817, -0.00109900744, -0.515033   , -0.05716597 , 0.3259404   , 0.002013269 , -0.000517845852, 3.03028417  , 0.96        , 3           , 12          , 0.0364059843, 0
-0.0243035331, -0.0422497429, -9.794857   , -0.0007464626, 0.002097796 , -0.000257994718, -0.5166509  , -0.0568963178, 0.327019    , 0.00200580549, -0.0004968628, 3.03028178  , 0.97        , 3           , 14          , 0.000245376228, 0.000595392135
-0.017099   , -0.00584065 , -9.778379   , -0.00213498762, -0.00241678883, 0.00198877743, -0.516313851, -0.056761492, 0.325535923 , 0.00198444561, -0.0005210703, 3.03030133  , 0.98        , 3           , 15          , 0           , -4.05859319E-05
0.003795305 , -0.00737058837, -9.798566   , 0.0009678517, -0.00155108236, 0.00256964052, -0.516313851, -0.056761492, 0.325535923 , 0.00199411064, -0.0005366322, 3.030327    , 0.99        , 3           , 50          , 0           , 0
0.00541236252, -0.0254031271, -9.809024   , 0.001234219 , 0.00126646832, -0.00109768671, -0.5151004  , -0.0570985563, 0.3259404   , 0.0020064672, -0.000523944153, 3.03031659  , 1           , 3           , 11          , 0.0368575864, 0.0368575826
0.008755092 , -0.007892305, -9.794914   , 0.00520262355, -0.00152244046, -0.000235976549, -0.5165161  , -0.05696373 , 0.327153832 , 0.0020584953, -0.000539163651, 3.03031373  , 1.01        , 3           , 12          , 0.0368558019, 0
-0.01552882 , -0.0216794237, -9.770298   , 0.00349756354, 0.0007186235, 0.000889743154, -0.516246438, -0.0570311435, 0.325603336 , 0.00209346577, -0.00053199596, 3.03032279  , 1.02        , 3           , 14          , 0.000245375 , 0.000595391961
-0.00759591442, -0.0433759429, -9.786598   , -0.00326444185, -0.002705999, 5.31721162E-06, -0.516246438, -0.0570311435, 0.325603336 , 0.00206082128, -0.000559056061, 3.03032279  , 1.03        , 3           , 15          , 0           , -4.05896644E-05
0.01752846  , -0.0242960118, -9.778192   , -0.00326985447, -0.00157973811, 0.000289590185, -0.515033   , -0.0568963178, 0.3259404   , 0.00202812115, -0.0005748593, 3.03032565  , 1.04        , 3           , 50          , 0           , 0
0.006537781 , -0.0002400065, -9.781793   , 0.000110250781, 0.000132568879, -0.000822152768, -0.5167183  , -0.0568289049, 0.3269516   , 0.00202922849, -0.00057351694, 3.03031754  , 1.05        , 3           , 11          , 0.0368575864, 0.0368575826
-0.0157726631, -0.0139168482, -9.796482   , 0.002934104 , 0.000433238456, 0.0008866753, -0.516179   , -0.05696373 , 0.325805575 , 0.002058565 , -0.000569202646, 3.03032613  , 1.06        , 3           , 12          , 0.0368558019, 0
0.00172362768, 0.00307781738, -9.812098   , -0.00102733111, 0.00181432208, 2.279563E-05, -0.516179   , -0.05696373 , 0.325805575 , 0.00204829127, -0.000551059842, 3.0303266   , 1.07        , 3           , 14          , 0.000245375 , 0.000595391961
0.008814471 , -0.008290546, -9.810735   , -0.0007365402, 0.0001268413, 2.150896E-05, -0.515167832, -0.05716597 , 0.326142639 , 0.002040926 , -0.0005497919, 3.030327    , 1.08        , 3           , 15          , 0           , -4.05896644E-05
-0.004619684, -0.030253388, -9.807765   , 0.0003910317, 0.0006976145, 0.00115779426, -0.5165161  , -0.05662667 , 0.32688418  , 0.00204483024, -0.000542839465, 3.03033853  , 1.09        , 3           , 50          , 0           , 0
-0.0175853446, -0.0134504857, -9.794687   , 0.00124602206, -0.0009860467, 2.899751E-05, -0.516246438, -0.0568289049, 0.325535923 , 0.00205727969, -0.000552684069, 3.03033853  , 1.1         , 3           , 11          , 0.0373523422, 0.03735234
0.0179217   , 0.005928104 , -9.777159   , 0.0009597394, -0.000143259909, 0.0005940571, -0.516246438, -0.0568289049, 0.325535923 , 0.00206687371, -0.0005541289, 3.03034472  , 1.11        , 3           , 12          , 0.0373503268, 0
0.0220041312, 0.003208126 , -9.787535   , -0.0004546044, 0.00012875133, -0.000824780844, -0.515302658, -0.05696373 , 0.326142639 , 0.00206233212, -0.000552824349, 3.03033662  , 1.12        , 3           , 14          , 0.000245376519, 0.0005953896
-0.007408738, -0.027155662, -9.780203   , -0.00073015 , -0.0009994126, 0.0014324662, -0.5166509  , -0.0566940829, 0.326816767 , 0.00205502287, -0.000562848058, 3.030351    , 1.13        , 3           , 15          , 0           , -4.05954124E-05
0.00264966022, -0.024515802, -9.79503    , -0.00186460314, -0.000443931727, -0.00196238328, -0.516246438, -0.0568963178, 0.325670749 , 0.002036388 , -0.0005672472, 3.030331    , 1.14        , 3           , 50          , 0           , 0
-0.008677433, -0.0243889578, -9.793308   , -0.000153729226, -0.00352968322, -0.000264030066, -0.516246438, -0.0568963178, 0.325670749 , 0.00203485228, -0.0006025386, 3.03032851  , 1.15        , 3           , 11          , 0.0373523422, 0.03735234
-0.0003189426, -0.007354499, -9.789105   , -0.001582428, -0.000160451222, 1.71299725E-05, -0.5148982  , -0.0570985563, 0.326075226 , 0.00201902771, -0.0006041435, 3.03032851  , 1.16        , 3           , 12          , 0.0373503268, 0
0.007880683 , -0.00607102737, -9.796721   , 0.000383081235, 0.00210543768, -0.000535255, -0.5166509  , -0.0568963178, 0.327019    , 0.002022862 , -0.0005830783, 3.03032327  , 1.17        , 3           , 14          , 0.000245376519, 0.0005953896
-0.00362569443, -0.01903362 , -9.793247   , 0.00124528073, -0.000704478531, 0.00115958112, -0.516313851, -0.05696373 , 0.325670749 , 0.002035308 , -0.0005901466, 3.03033471  , 1.18        , 3           , 15          , 0           , -4.05954124E-05
0.0136176581, -0.013849006, -9.784959   , 0.00125027844, -0.00154916977, 0.002570967 , -0.516313851, -0.05696373 , 0.325670749 , 0.00204779534, -0.0006056908, 3.03036046  , 1.19        , 3           , 50          , 0           , 0
-0.004228046, -0.0271837953, -9.78289    , -0.00158013264, -0.0007235789, -0.0008313494, -0.5151004  , -0.05696373 , 0.326075226 , 0.00203197822, -0.0006128786, 3.03035188  , 1.2         , 3           , 11          , 0.037889678 , 0.0378896743
-0.0112889661, -0.0483006127, -9.785293   , -0.00496630371, -0.0013096279, -0.0005654829, -0.516853154, -0.056761492, 0.326816767 , 0.001982319 , -0.0006259634, 3.03034663  , 1.21        , 3           , 12          , 0.0378874168, 0
0.0130120628, -0.0340532735, -9.812617   , -0.00101946131, 0.000124936225, -0.000827413751, -0.516246438, -0.05696373 , 0.325603336 , 0.00197212957, -0.0006246977, 3.03033853  , 1.22        , 3           , 14          , 0.00024537975, 0.000595384743
0.00127663743, -0.03433145 , -9.823104   , 0.0003875863, 0.00126074883, 2.85192273E-05, -0.516246438, -0.05696373 , 0.325603336 , 0.001976005 , -0.000612090749, 3.03033853  , 1.23        , 3           , 15          , 0           , -4.059646E-05
-0.00585056841, -0.0140655441, -9.786917   , -0.001293776, -0.00128479348, 0.00114686193, -0.5151004  , -0.0570311435, 0.326142639 , 0.00196306035, -0.0006249614, 3.03035     , 1.24        , 3           , 50          , 0           , 0
-0.00626734551, -0.0158164483, -9.801389   , 0.0003875863, 0.00126074883, 2.85192273E-05, -0.5165835  , -0.05662667 , 0.32688418  , 0.00196693582, -0.00061235443, 3.03035     , 1.25        , 3           , 11          , 0.037889678 , 0.0378896743
0.00367900077, -0.01594549 , -9.797698   , -0.000166856742, -0.0007140236, 0.00115299749, -0.516179   , -0.056761492, 0.325535923 , 0.0019652606, -0.0006195173, 3.030362    , 1.26        , 3           , 12          , 0.0378874168, 0
0.007490847 , -0.03673873 , -9.800015   , -0.00128934206, -0.00241105957, -0.000832636, -0.516179   , -0.056761492, 0.325535923 , 0.00195237249, -0.0006436115, 3.03035378  , 1.27        , 3           , 14          , 0.00024537975, 0.000595384743
-0.00259305164, -0.0135850776, -9.806776   , 0.00293581956, 0.000151682 , 0.00145132316, -0.515235245, -0.0570985563, 0.326142639 , 0.00198172126, -0.0006421232, 3.030368    , 1.28        , 3           , 15          , 0           , -4.059646E-05
-0.00550662633, -0.0226397067, -9.787853   , -0.00411762949, -0.00158546306, -0.000561966037, -0.5167183  , -0.05696373 , 0.327086419 , 0.00194054842, -0.000657966768, 3.03036237  , 1.29        , 3           , 50          , 0           , 0
0.000441804528, -0.0217656866, -9.800007   , -0.0007238339, -0.00240723277, 0.0003001497, -0.5161116  , -0.05696373 , 0.325670749 , 0.00193331984, -0.000682022132, 3.03036523  , 1.3         , 3           , 11          , 0.0384674333, 0.03846743
-0.01474028 , -0.0414242968, -9.805177   , -0.00328445 , 0.00123592047, -0.000836211257, -0.5161116  , -0.05696373 , 0.325670749 , 0.001900481 , -0.00066964695, 3.03035665  , 1.31        , 3           , 12          , 0.03846491  , 0
-0.0066769924, -0.01800793 , -9.81903    , 0.0003945582, -0.00014707286, 2.635166E-05, -0.515235245, -0.0570985563, 0.326075226 , 0.00190442649, -0.000671118149, 3.03035712  , 1.32        , 3           , 14          , 0.000245377858, 0.000595381
0.00101518817, -0.0149780316, -9.807658   , 0.00179709715, 0.00183343352, 0.0003185111, -0.5165161  , -0.0566940829, 0.326816767 , 0.00192239531, -0.00065279007, 3.03036046  , 1.33        , 3           , 15          , 0           , -4.05985629E-05
0.014356019 , -0.02827834 , -9.790436   , 0.002105269 , -0.00323282485, 0.00144216721, -0.516179   , -0.0570311435, 0.325535923 , 0.00194343855, -0.000685146137, 3.03037477  , 1.34        , 3           , 50          , 0           , 0
0.01020183  , -0.03186541 , -9.782799   , 0.000684281345, -0.00155298656, 0.000590573647, -0.516179   , -0.0570311435, 0.325535923 , 0.00195027725, -0.000700687466, 3.03038049  , 1.35        , 3           , 11          , 0.0384674333, 0.03846743
0.0120914355, -0.02914499 , -9.793169   , 0.00180267333, 0.000707173 , 0.000316775375, -0.515235245, -0.0573007949, 0.326075226 , 0.00196830183, -0.000693621871, 3.03038383  , 1.36        , 3           , 12          , 0.03846491  , 0
-0.0190636385, -0.0193342753, -9.784327   , 0.000667226966, 0.00182579306, 3.07061346E-05, -0.516853154, -0.0568963178, 0.326749355 , 0.00197497383, -0.00067536463, 3.0303843   , 1.37        , 3           , 14          , 0.000245377858, 0.000595381
-0.004321633, -0.0352939367, -9.786088   , -0.0007348227, -0.000154711161, 0.000586158654, -0.5161116  , -0.0570985563, 0.3254011   , 0.00196762173, -0.000676923257, 3.03039     , 1.38        , 3           , 15          , 0           , -4.05985629E-05
0.00392967928, -0.0321831778, -9.800475   , -0.0024210196, -0.00185556151, 0.000575653452, -0.5161116  , -0.0570985563, 0.3254011   , 0.0019434077, -0.0006954901, 3.03039575  , 1.39        , 3           , 50          , 0           , 0
-0.00171657919, -0.01004849 , -9.788223   , -0.000156839567, -0.00296654133, -0.000828235352, -0.515033   , -0.0570311435, 0.326277465 , 0.00194187649, -0.000725113263, 3.03038716  , 1.4         , 3           , 11          , 0.0390834473, 0.0390834436
0.00220247125, -0.02450595 , -9.796389   , 0.0009637623, -0.000987943, 0.0003102197, -0.5167183  , -0.05696373 , 0.326816767 , 0.00195151207, -0.00073499867, 3.0303905   , 1.41        , 3           , 12          , 0.0390806571, 0
-0.00487959757, -0.0113450773, -9.794128   , 0.00292804115, 0.00155951211, 4.08064079E-05, -0.516179   , -0.0568289049, 0.3254685   , 0.00198079227, -0.0007194045, 3.030391    , 1.42        , 3           , 14          , 0.000245372561, 0.000595376652
0.0103442278, -0.0156814158, -9.765555   , 0.00152173487, 0.000142130884, -0.00194571039, -0.516179   , -0.0568289049, 0.3254685   , 0.00199602358, -0.000717944466, 3.03037143  , 1.43        , 3           , 15          , 0           , -4.05973E-05
0.006475028 , -0.00698610628, -9.788149   , -0.000176933856, 0.00125693856, 0.0005909609, -0.515302658, -0.0570311435, 0.3260078   , 0.00199424964, -0.0007053869, 3.03037763  , 1.44        , 3           , 50          , 0           , 0
0.007629709 , -0.0152013954, -9.76467    , 0.002081413 , 0.00155378494, 0.00116700528, -0.516853154, -0.0566940829, 0.326749355 , 0.00201505586, -0.0006898725, 3.030389    , 1.45        , 3           , 11          , 0.0390834473, 0.0390834436
0.004520279 , -0.0222571213, -9.802238   , 0.0006807572, -0.000708284031, 0.00172202417, -0.5159768  , -0.0568963178, 0.3254011   , 0.00202185125, -0.0006969901, 3.03040624  , 1.46        , 3           , 12          , 0.0390806571, 0
-0.00193796866, -0.0347771421, -9.813639   , 0.0029337802, 0.000433252135, 0.00032160792, -0.5159768  , -0.0568963178, 0.3254011   , 0.00205118721, -0.0006926641, 3.03040957  , 1.47        , 3           , 14          , 0.000245372561, 0.000595376652
-0.0137411188, -0.0333247855, -9.801971   , 0.00208896166, -0.000135609473, -0.000248285476, -0.5151004  , -0.0568289049, 0.326277465 , 0.00207207841, -0.0006940151, 3.03040719  , 1.48        , 3           , 15          , 0           , -4.05973E-05
-0.009531974, -0.0234442782, -9.802802   , 0.00154443958, -0.00408133632, 0.00115569273, -0.516920567, -0.0570311435, 0.326816767 , 0.00208751461, -0.000734852452, 3.03041863  , 1.49        , 3           , 50          , 0           , 0
0.0003208844, -0.0290052742, -9.79371    , -0.00357039878, 0.00207871734, 0.0002939225, -0.5161116  , -0.056761492, 0.3254685   , 0.00205182051, -0.0007140495, 3.0304215   , 1.5         , 3           , 11          , 0.0397355929, 0.0397355855
-0.00453258026, -0.02080945 , -9.798685   , -0.00186238741, -0.0007254762, -0.0005501275, -0.5161116  , -0.056761492, 0.3254685   , 0.00203320058, -0.0007212929, 3.03041577  , 1.51        , 3           , 12          , 0.0397325121, 0
0.00239920616, -0.01050968 , -9.799494   , -0.00129088992, -0.00212948327, -0.00111473829, -0.515167832, -0.0570311435, 0.326344877 , 0.00202029967, -0.000742565142, 3.03040481  , 1.52        , 3           , 14          , 0.0002453705, 0.000595372869
-0.00733685261, -0.02575836 , -9.79330349 , -0.00242256932, -0.001573989, 0.000293549063, -0.516853154, -0.0566940829, 0.326614529 , 0.00199607178, -0.0007583108, 3.03040767  , 1.53        , 3           , 15          , 0           , -4.059775E-05
-0.0266723391, -0.0102450736, -9.777116   , 0.0006982287, -0.00436862931, 0.0005862335, -0.5160442  , -0.0568963178, 0.3254685   , 0.00200304925, -0.000802008668, 3.03041339  , 1.54        , 3           , 50          , 0           , 0
-0.0143676624, -0.0138950031, -9.807772   , -0.00213375082, -0.00269833533, 0.00170581776, -0.5160442  , -0.0568963178, 0.3254685   , 0.00198169821, -0.000829026045, 3.03043056  , 1.55        , 3           , 11          , 0.0397355929, 0.0397355855
0.0116800256, -0.0286598019, -9.801757   , -0.000176353555, 0.000975373259, -0.000822159869, -0.5151004  , -0.05696373 , 0.326210052 , 0.0019799415, -0.000819256064, 3.03042245  , 1.56        , 3           , 12          , 0.0397325121, 0
0.00448525231, -0.01916105 , -9.783693   , 0.00180760422, -0.0004190823, -0.0008151109, -0.516988   , -0.056761492, 0.326681942 , 0.001998024 , -0.0008234307, 3.03041387  , 1.57        , 3           , 14          , 0.0002453705, 0.000595372869
-0.0199685525, -0.0184304118, -9.781618   , -0.00270171883, -0.002139027, 0.00113897678, -0.5159768  , -0.0570311435, 0.3254011   , 0.00197099755, -0.0008448435, 3.03042531  , 1.58        , 3           , 15          , 0           , -4.059775E-05
-0.0170969069, -0.00807070453, -9.786074   , -0.00271524373, 0.000395054143, -0.000552342564, -0.5159768  , -0.0570311435, 0.3254011   , 0.00194384973, -0.0008408822, 3.03042     , 1.59        , 3           , 50          , 0           , 0
0.0107183149, 0.00113666244, -9.802997   , 0.000947198831, 0.00239084335, 0.000597964157, -0.515302658, -0.05716597 , 0.326210052 , 0.00195331383, -0.0008169823, 3.03042626  , 1.6         , 3           , 11          , 0.0404217653, 0.0404217578
-0.008583388, -0.0207419544, -9.804591   , 0.0009626961, -0.000706372, 0.000875728438, -0.516853154, -0.056761492, 0.326816767 , 0.00196293346, -0.0008240631, 3.03043485  , 1.61        , 3           , 12          , 0.04041838  , 0
0.004985342 , -0.0182353351, -9.792274   , -0.00129983271, -0.00015852318, 0.000300985819, -0.5159768  , -0.0570311435, 0.3254011   , 0.00194993278, -0.0008256541, 3.03043771  , 1.62        , 3           , 14          , 0.000245371048, 0.0005953723
0.009078443 , 0.0160262659, -9.797072   , -0.00242798286, -0.0004477274, 0.0005778216, -0.5159768  , -0.0570311435, 0.3254011   , 0.00192564819, -0.0008301425, 3.03044343  , 1.63        , 3           , 15          , 0           , -4.059707E-05
-0.00190919463, 0.004004507 , -9.806698   , 0.0009538425, 0.0009830161, 3.07197733E-05, -0.515235245, -0.0566940829, 0.326277465 , 0.00193518633, -0.00082031294, 3.030444    , 1.64        , 3           , 50          , 0           , 0
-0.00177481852, -0.0208080821, -9.808607   , -0.00100190879, -0.00325382827, 0.000580066931, -0.516988   , -0.0570311435, 0.32688418  , 0.00192516251, -0.0008528624, 3.03044963  , 1.65        , 3           , 11          , 0.0404217653, 0.0404217578
0.007142517 , -0.029060822, -9.80089    , -0.00157726172, -0.00100512453, 0.00171105459, -0.5159768  , -0.0570985563, 0.3254685   , 0.00190937507, -0.0008629464, 3.03046632  , 1.66        , 3           , 12          , 0.04041838  , 0
-0.00183465518, -0.0159467161, -9.778305   , -0.00269818981, -0.00298372423, 7.52455162E-06, -0.5159768  , -0.0570985563, 0.3254685   , 0.00188239326, -0.0008927837, 3.03046632  , 1.67        , 3           , 14          , 0.000245371048, 0.0005953723
-0.005575862, -0.02805201 , -9.788328   , -0.00383872329, -0.0007388423, 0.000570803 , -0.515302658, -0.057233382, 0.326142639 , 0.00184400065, -0.000900182757, 3.030472    , 1.68        , 3           , 15          , 0           , -4.059707E-05
-0.009429383, -0.015773192, -9.803222   , -0.000451974047, -0.000434362271, -0.00110818457, -0.516920567, -0.05696373 , 0.326816767 , 0.00183949107, -0.000904505956, 3.03046155  , 1.69        , 3           , 50          , 0           , 0
0.00255610235, 0.00256160926, -9.795822   , -0.00243184017, 0.000396974268, 0.00114420126, -0.5159094  , -0.0568963178, 0.325603336 , 0.00181515445, -0.0009005303, 3.030473    , 1.7         , 3           , 11          , 0.0411399081, 0.0411399
0.000114297494, -0.00603659963, -9.780058   , -0.0013057366, 0.0009677404, -0.000262350281, -0.5159094  , -0.0568963178, 0.325603336 , 0.00180209917, -0.0008908481, 3.03047013  , 1.71        , 3           , 12          , 0.0411362   , 0
-0.00661947159, -0.0357411876, -9.779327   , -0.00186845486, 0.000400787219, -0.001396002, -0.515167832, -0.0573007949, 0.326344877 , 0.00178342708, -0.000886815251, 3.03045583  , 1.72        , 3           , 14          , 0.0002453725, 0.0005953674
-0.0008509476, -0.0136622814, -9.79004    , -0.00157947291, -0.0007235584, 0.000298803934, -0.516853154, -0.0568289049, 0.326749355 , 0.00176762976, -0.000894056051, 3.03045917  , 1.73        , 3           , 15          , 0           , -4.05999854E-05
-0.02532109 , -0.017408384, -9.798378   , -0.00187010085, 0.0009639228, 0.000582628069, -0.516179   , -0.0570311435, 0.3254685   , 0.00174892368, -0.000884427, 3.030465    , 1.74        , 3           , 50          , 0           , 0
0.00906404  , -0.0209583342, -9.801745   , -0.000739488867, 0.000689995359, -0.000260150351, -0.516179   , -0.0570311435, 0.3254685   , 0.001741531 , -0.000877522456, 3.0304625   , 1.75        , 3           , 11          , 0.0411399081, 0.0411399
0.0189458653, -0.02515681 , -9.795359   , -0.00131163886, 0.00209399965, -0.0008256896, -0.515167832, -0.0568289049, 0.326075226 , 0.00172842178, -0.0008565682, 3.030454    , 1.76        , 3           , 12          , 0.0411362   , 0
-0.0137304487, -0.0391186923, -9.823238   , 0.00122446334, 0.0032374484, -0.00109463884, -0.516853154, -0.05696373 , 0.326614529 , 0.00174067542, -0.0008241748, 3.03044343  , 1.77        , 3           , 14          , 0.0002453725, 0.0005953674
0.008128418 , -0.0263282564, -9.811719   , 0.0009587644, -0.000143242418, -0.001101163, -0.5160442  , -0.05716597 , 0.325333685 , 0.00175027223, -0.000825588, 3.030432    , 1.78        , 3           , 15          , 0           , -4.05999854E-05
0.0233559757, -0.0306615736, -9.78405    , -0.000453784625, 0.0001287774, 0.000587910938, -0.5160442  , -0.05716597 , 0.325333685 , 0.00174572947, -0.0008243105, 3.03043818  , 1.79        , 3           , 50          , 0           , 0
0.003952923 , -0.0259154458, -9.785986   , -0.00326968334, -0.00157970341, 0.0005721358, -0.515235245, -0.0570311435, 0.326344877 , 0.00171305612, -0.0008400666, 3.030444    , 1.8         , 3           , 11          , 0.0418880545, 0.041888047
0.00105499383, -0.006465126, -9.789995   , 0.000116323965, -0.0009936551, 2.373215E-05, -0.516988   , -0.0566940829, 0.326749355 , 0.00171421922, -0.0008500035, 3.03044438  , 1.81        , 3           , 12          , 0.0418840051, 0
-0.016341297, -0.0269495621, -9.810101   , 0.00491323462, -0.000116491145, -0.000235115658, -0.516246438, -0.0566940829, 0.325670749 , 0.00176335336, -0.0008511643, 3.03044152  , 1.82        , 3           , 14          , 0.000245367264, 0.000595358
-0.0168551952, -0.0314572752, -9.809671   , 0.0006858491, -0.00183452794, 0.0008726765, -0.516246438, -0.0566940829, 0.325670749 , 0.00177020428, -0.000869524956, 3.03045     , 1.83        , 3           , 15          , 0           , -4.0597788E-05
0.0199724566, -0.0152496686, -9.793051   , 0.000671582762, 0.0009811211, 0.0003119408, -0.5153701  , -0.05696373 , 0.326277465 , 0.0017769176, -0.0008597193, 3.03045344  , 1.84        , 3           , 50          , 0           , 0
-0.005886743, -0.0252536125, -9.814081   , 0.000678389566, -0.000426705, 2.72338839E-05, -0.516785741, -0.0570311435, 0.326547116 , 0.00178370124, -0.0008639868, 3.030454    , 1.85        , 3           , 11          , 0.0418880545, 0.041888047
0.009810584 , -0.00688876165, -9.828349   , -0.00298019778, -0.00326719 , -0.0016894507, -0.5161116  , -0.0573007949, 0.325535923 , 0.00175391417, -0.0008966288, 3.03043675  , 1.86        , 3           , 12          , 0.0418840051, 0
-0.00856463052, -0.0180486515, -9.800512   , -0.00214267545, -0.00129050459, -0.00168246229, -0.5161116  , -0.0573007949, 0.325535923 , 0.00173250248, -0.0009095044, 3.03042     , 1.87        , 3           , 14          , 0.000245367264, 0.000595358
0.0061841486, -0.0273075681, -9.782359   , -0.00383912027, -0.00102040172, -0.00253754249, -0.5153701  , -0.0570985563, 0.326277465 , 0.00169413467, -0.0009196648, 3.03039479  , 1.88        , 3           , 15          , 0           , -4.0597788E-05
0.00692637265, -0.00386813446, -9.777736   , -0.00103273627, 0.0029406168, 0.000307076727, -0.516785741, -0.056761492, 0.3269516   , 0.00168380444, -0.0008902638, 3.03039765  , 1.89        , 3           , 50          , 0           , 0
0.0171283111, 0.00379788224, -9.811525   , -0.000453036366, -0.000152772176, -0.0005426655, -0.5159094  , -0.05696373 , 0.325535923 , 0.00167928741, -0.0008917342, 3.03039241  , 1.9         , 3           , 11          , 0.0426642932, 0.04266429
-0.00583463162, -0.020301532, -9.810896   , 0.0006742091, 0.00041799937, 2.85450878E-05, -0.5159094  , -0.05696373 , 0.325535923 , 0.00168602937, -0.0008875544, 3.030393    , 1.91        , 3           , 12          , 0.0426598825, 0
-0.003640622, -0.01904571 , -9.789632   , 0.003789431 , -0.00125038065, 0.000322964974, -0.515235245, -0.0570311435, 0.3260078   , 0.00172392081, -0.0009000638, 3.03039575  , 1.92        , 3           , 14          , 0.0002453657, 0.0005953489
-0.002324597, -0.0284693129, -9.809547   , 0.002072077 , 0.00324319862, -0.000525605865, -0.516853154, -0.056761492, 0.3264797   , 0.00174464611, -0.0008676228, 3.030391    , 1.93        , 3           , 15          , 0           , -4.060719E-05
0.009793007 , -0.00288584922, -9.811157   , 0.0006655188, 0.00210738857, -0.0005339263, -0.5161116  , -0.0568963178, 0.3254685   , 0.00175130577, -0.0008465396, 3.03038526  , 1.94        , 3           , 50          , 0           , 0
-0.00518913474, -0.0316816531, -9.783819   , 0.00180121732, 0.000707198167, -0.002226053, -0.5161116  , -0.0568963178, 0.3254685   , 0.00176933652, -0.0008394284, 3.03036332  , 1.95        , 3           , 11          , 0.0426642932, 0.04266429
0.0165470764, -0.031042058, -9.781391   , 0.000387600361, 0.00126078469, 2.85299575E-05, -0.515167832, -0.05716597 , 0.326210052 , 0.00177321222, -0.000826821, 3.03036332  , 1.96        , 3           , 12          , 0.0426598825, 0
0.00591254467, -0.0217992384, -9.809004   , 0.002928463 , 0.00127796968, -0.00165484252, -0.5167183  , -0.05696373 , 0.326749355 , 0.00180251047, -0.0008140117, 3.030347    , 1.97        , 3           , 14          , 0.0002453657, 0.0005953489
0.006805613 , -0.0236054026, -9.811717   , 0.00237869145, -0.00154149556, 0.000315946381, -0.5159094  , -0.0568963178, 0.325333685 , 0.001826295 , -0.0008294324, 3.03035     , 1.98        , 3           , 15          , 0           , -4.060719E-05
0.0131371422, -0.0236858688, -9.809861   , -0.00213660859, -0.00241675368, -0.0008365761, -0.5159094  , -0.0568963178, 0.325333685 , 0.00180493586, -0.00085358473, 3.03034139  , 1.99        , 3           , 50          , 0           , 0
-0.0107261948, -0.008119423, -9.793709   , 0.0020856054, 0.000709130254, 0.00116571749, -0.5151004  , -0.05716597 , 0.326344877 , 0.00182580017, -0.0008464466, 3.03035331  , 2           , 3           , 11          , 0.0434668   , 0.0434667952
-0.00372347422, -0.0226836428, -9.781059   , 0.00151640654, 0.001550005 , 0.0008818481, -0.516920567, -0.0568289049, 0.326614529 , 0.00184095686, -0.00083096273, 3.03036237  , 2.01        , 3           , 12          , 0.0434619933, 0
0.0294326674, -0.0176321752, -9.788468   , 0.000388419547, 0.00126080145, 0.00144122122, -0.5161116  , -0.05696373 , 0.3254685   , 0.001844829 , -0.0008183813, 3.03037667  , 2.02        , 3           , 14          , 0.0002453623, 0.000595336
0.00305962819, -0.0218777116, -9.776032   , 0.000675280229, 0.000136445509, -0.000536959735, -0.5161116  , -0.05696373 , 0.3254685   , 0.00185158628, -0.000817006861, 3.030371    , 2.03        , 3           , 15          , 0           , -4.061128E-05
-0.011181565, -0.0366084762, -9.773943   , 0.003229416 , -0.00209888 , 0.00144918333, -0.515235245, -0.0570311435, 0.326277465 , 0.00188386859, -0.000838022563, 3.03038526  , 2.04        , 3           , 50          , 0           , 0
0.0072014085, -0.0174079947, -9.777789   , 0.00152600138, -0.000420951546, 0.0005962729, -0.516785741, -0.0568963178, 0.326614529 , 0.00189912354, -0.000842243433, 3.03039145  , 2.05        , 3           , 11          , 0.0434668   , 0.0434667952
-0.0141868982, -0.02885029 , -9.7893     , 0.0009653297, -0.00126946671, 0.0005923372, -0.5161116  , -0.05716597 , 0.3254011   , 0.00190877169, -0.0008549494, 3.03039765  , 2.06        , 3           , 12          , 0.0434619933, 0
-0.00188817631, -0.0253634378, -9.79552    , -0.000451475877, -0.000434323651, -0.000260557863, -0.5161116  , -0.05716597 , 0.3254011   , 0.0019042592, -0.0008592876, 3.03039479  , 2.07        , 3           , 14          , 0.0002453623, 0.000595336
-0.000794088468, -0.014955258, -9.808125   , 0.00181014847, -0.000700605044, 0.00116223085, -0.515033   , -0.0570985563, 0.326142639 , 0.00192235084, -0.0008663159, 3.03040624  , 2.08        , 3           , 15          , 0           , -4.061128E-05
0.0141618671, -0.0137802474, -9.8071     , -0.00186565658, -0.000162311539, -0.0013968586, -0.516853154, -0.0568289049, 0.3264797   , 0.00190370623, -0.0008679123, 3.03039241  , 2.09        , 3           , 50          , 0           , 0
-0.00167366769, -0.0100137126, -9.798619   , -0.00128497765, -0.00325569464, -0.0005513785, -0.5160442  , -0.0568289049, 0.325535923 , 0.00189087144, -0.0009004036, 3.03038716  , 2.1         , 3           , 11          , 0.044293832 , 0.0442938246
-0.00470145047, -0.0298732929, -9.786521   , 0.00323032215, -0.00238043675, 0.0006011439, -0.5160442  , -0.0568289049, 0.325535923 , 0.00192316924, -0.0009242193, 3.030393    , 2.11        , 3           , 12          , 0.0442886129, 0
0.00474965246, -0.0344949253, -9.786919   , -0.000443109981, -0.00212370371, -0.0002631545, -0.515167832, -0.0570985563, 0.326075226 , 0.00191874057, -0.000945451437, 3.03039     , 2.12        , 3           , 14          , 0.0002453604, 0.000595325546
-0.009066908, -0.0194224976, -9.792837   , 0.00265415362, -0.000131736859, 0.000319444051, -0.516853154, -0.05696373 , 0.326681942 , 0.00194527919, -0.000946774962, 3.03039336  , 2.13        , 3           , 15          , 0           , -4.061823E-05
0.008878729 , -0.0371771  , -9.808595   , 0.000387442531, 0.00126080727, -0.0002539965, -0.5160442  , -0.0573007949, 0.3254011   , 0.001949156 , -0.000934161944, 3.030391    , 2.14        , 3           , 50          , 0           , 0
0.009577843 , -0.01912881 , -9.810773   , -0.00102018332, 0.000406563544, 0.000303191773, -0.5160442  , -0.0573007949, 0.3254011   , 0.0019389512, -0.0009301022, 3.03039384  , 2.15        , 3           , 11          , 0.044293832 , 0.0442938246
-0.0139947506, -0.0211066362, -9.811415   , -0.00157200138, -0.00213133986, 0.00114426494, -0.515302658, -0.0570985563, 0.326344877 , 0.00192322046, -0.0009514377, 3.03040528  , 2.16        , 3           , 12          , 0.0442886129, 0
0.0167771988, -0.02237494 , -9.809829   , 0.000685529667, -0.0018344972, 0.0003076219, -0.516920567, -0.0570985563, 0.326816767 , 0.0019300729, -0.000969788642, 3.03040814  , 2.17        , 3           , 14          , 0.0002453604, 0.000595325546
0.0190754347, -0.0112149594, -9.782194   , -0.000728814164, -0.0015624857, -0.001111216, -0.515841961, -0.0570311435, 0.325535923 , 0.00192279567, -0.000985392, 3.03039718  , 2.18        , 3           , 15          , 0           , -4.061823E-05
0.0014336342, -0.0185819771, -9.810834   , -0.00326967635, -0.001579671, 0.0005721562, -0.515841961, -0.0570311435, 0.325535923 , 0.00189009332, -0.00100119959, 3.030403    , 2.19        , 3           , 50          , 0           , 0
0.0136353336, -0.015173736, -9.79355049 , -0.000864493661, -0.002548901, 1.67562011E-05, -0.515235245, -0.05716597 , 0.326210052 , 0.00188146043, -0.00102661434, 3.03040338  , 2.2         , 3           , 11          , 0.04514374  , 0.04514373
0.0129431915, -0.00383141171, -9.809328   , -0.0007386959, 0.000549269258, -0.000119080782, -0.516853154, -0.0568289049, 0.326681942 , 0.00187407457, -0.00102111942, 3.030402    , 2.21        , 3           , 12          , 0.0451380722, 0
-0.00112689845, -0.03397165 , -9.787866   , -0.00272150454, 0.00166215876, -0.0005503697, -0.5159768  , -0.05696373 , 0.3254685   , 0.001846865 , -0.00100448728, 3.0303967   , 2.22        , 3           , 14          , 0.000245358038, 0.0005953112
-0.00408692937, -0.0203741975, -9.795516   , -0.00228925538, -2.43656814E-05, -0.000127191786, -0.5159768  , -0.05696373 , 0.3254685   , 0.00182397384, -0.00100472861, 3.03039479  , 2.23        , 3           , 15          , 0           , -4.0617866E-05
-0.009601633, -0.03198138 , -9.813233   , 0.0005417753, -0.00127230654, 0.0007316372, -0.515235245, -0.05716597 , 0.326277465 , 0.001829384 , -0.001017465, 3.03040242  , 2.24        , 3           , 50          , 0           , 0
-0.0146014849, -0.0301530734, -9.802869   , -2.61110472E-05, -0.000712997455, 0.000306065078, -0.516853154, -0.0568289049, 0.326614529 , 0.00182912  , -0.00102460047, 3.03040528  , 2.25        , 3           , 11          , 0.04514374  , 0.04514373
0.0032116475, -0.0230935868, -9.817167   , -0.00186840317, 0.0005416294, -0.000124348546, -0.516246438, -0.0570311435, 0.3254685   , 0.00181043707, -0.00101918192, 3.03040433  , 2.26        , 3           , 12          , 0.0451380722, 0
0.002248954 , 0.00536303176, -9.82248    , -0.0007407869, 0.000971617 , -0.000118429911, -0.516246438, -0.0570311435, 0.3254685   , 0.00180303026, -0.00100946345, 3.03040338  , 2.27        , 3           , 14          , 0.000245358038, 0.0005953112
0.0140975062, 0.0124281263, -9.81784    , -0.0004570476, 0.0006919616, -0.000258815533, -0.515235245, -0.05716597 , 0.326547116 , 0.00179846236, -0.0010025393, 3.03040051  , 2.28        , 3           , 15          , 0           , -4.0617866E-05
0.0009954441, -0.01901118 , -9.81581    , -0.00143500487, -0.001426461, -0.000125410574, -0.516920567, -0.0566940829, 0.326681942 , 0.0017841137, -0.00101680181, 3.030399    , 2.29        , 3           , 50          , 0           , 0
0.003776447 , -0.0127420733, -9.811243   , 0.0008234206, -0.00112960162, 0.000591915043, -0.5159094  , -0.0570311435, 0.3254011   , 0.00179232657, -0.00102804229, 3.03040528  , 2.3         , 3           , 11          , 0.046014946 , 0.04601493
0.00428950228, -0.0318174735, -9.776517   , 0.00335386512, 0.00114010763, 0.000183432741, -0.5159094  , -0.0570311435, 0.3254011   , 0.00182586326, -0.0010166443, 3.03040719  , 2.31        , 3           , 12          , 0.046008803 , 0
0.0134591209, -0.0291533768, -9.795419   , 0.00222817645, 0.0002877717, -0.000105674284, -0.5153701  , -0.0573007949, 0.326210052 , 0.001848146 , -0.00101376453, 3.03040624  , 2.32        , 3           , 14          , 0.000245361036, 0.000595298538
-0.0180074871, -0.01743749 , -9.815045   , -0.00115241809, -0.00142453774, 0.000158456387, -0.516853154, -0.0568963178, 0.326749355 , 0.00183662015, -0.001028013, 3.03040719  , 2.33        , 3           , 15          , 0           , -4.06304353E-05
0.008848253 , -0.002906967, -9.801673   , -0.00228191749, -0.00157296238, -0.000694640737, -0.5159768  , -0.0570985563, 0.325603336 , 0.00181380822, -0.00104373 , 3.03040051  , 2.34        , 3           , 50          , 0           , 0
0.01089767  , -0.0182832722, -9.798557   , -0.000313827739, 0.000270581222, -0.000400064164, -0.5159768  , -0.0570985563, 0.325603336 , 0.00181067409, -0.00104101689, 3.0303967   , 2.35        , 3           , 11          , 0.046014946 , 0.04601493
-0.007487662, -0.008100698, -9.810407   , -3.59908445E-05, 0.00111718441, -0.0011037892, -0.5151004  , -0.0568289049, 0.326344877 , 0.00181032566, -0.00102982507, 3.03038526  , 2.36        , 3           , 12          , 0.046008803 , 0
-0.0204560049, -0.0224703383, -9.786158   , -0.00229068985, 0.000116426 , -0.00139838073, -0.516920567, -0.0566940829, 0.326749355 , 0.00178743317, -0.00102863566, 3.030372    , 2.37        , 3           , 14          , 0.000245361036, 0.000595298538
-0.02275031 , -0.0282709319, -9.797499   , -0.00272322772, 0.001943735 , -0.00111499825, -0.515841961, -0.0568289049, 0.325535923 , 0.001760212 , -0.00100917846, 3.03036046  , 2.38        , 3           , 15          , 0           , -4.06304353E-05
-0.0140774  , -0.0193882082, -9.785645   , -0.000754893, 0.00378728  , -0.000396615447, -0.515841961, -0.0568289049, 0.325535923 , 0.00175266725, -0.000971298839, 3.03035665  , 2.39        , 3           , 50          , 0           , 0
0.011956634 , -0.00745720463, -9.801215   , 0.00151112233, 0.00253552152, 0.000177049253, -0.5154375  , -0.0568963178, 0.326344877 , 0.00176778343, -0.0009459296, 3.03035855  , 2.4         , 3           , 11          , 0.04690597  , 0.04690596
0.0032468373, -0.0132453619, -9.794074   , 0.0008157994, 0.000278223946, -0.0005360582, -0.516920567, -0.05696373 , 0.326749355 , 0.0017759467, -0.00094313774, 3.03035283  , 2.41        , 3           , 12          , 0.04689933  , 0
-0.0008872506, -0.0199406  , -9.801366   , 0.0003937162, -6.205255E-06, -0.000255930034, -0.5160442  , -0.05696373 , 0.325266272 , 0.0017798862, -0.0009431952, 3.03035045  , 2.42        , 3           , 14          , 0.0002453597, 0.0005952952
-0.01350874 , -0.0139434244, -9.796465   , 0.002085074 , 0.0008499545, 0.001448498 , -0.5160442  , -0.05696373 , 0.325266272 , 0.00180072349, -0.000934721669, 3.03036523  , 2.43        , 3           , 15          , 0           , -4.06373729E-05
-0.00137800816, -0.0208587535, -9.795046   , 0.00124947971, -0.00154907943, 0.00115832116, -0.5153701  , -0.05716597 , 0.326277465 , 0.00181320752, -0.000950233371, 3.03037667  , 2.44        , 3           , 50          , 0           , 0
0.001907369 , -0.015445862, -9.805845   , -0.000158265088, -0.00254410948, 0.000302605476, -0.516920567, -0.056761492, 0.326749355 , 0.001811622 , -0.000975679839, 3.03037953  , 2.45        , 3           , 11          , 0.04690597  , 0.04690596
-0.0218268335, -0.0318378545, -9.813327   , 0.00026258704, -0.00197811425, 0.000305448746, -0.515841961, -0.0570311435, 0.325535923 , 0.001814245 , -0.0009954666, 3.03038239  , 2.46        , 3           , 12          , 0.04689933  , 0
0.00724763051, -0.0204949938, -9.799046   , 0.00224018982, -0.00210552732, 0.000173181645, -0.515841961, -0.0570311435, 0.325535923 , 0.00183664507, -0.0010165252, 3.0303843   , 2.47        , 3           , 14          , 0.0002453597, 0.0005952952
0.00638648076, -0.013306763, -9.786819   , 0.00237131934, -0.000133618509, -0.0003881974, -0.5154375  , -0.05696373 , 0.326210052 , 0.00186036248, -0.00101785385, 3.03038049  , 2.48        , 3           , 15          , 0           , -4.06373729E-05
0.0108811054, -0.0205284432, -9.80173    , 0.00038650143, 0.00140161894, -0.000677566859, -0.516853154, -0.0568963178, 0.326816767 , 0.001864234 , -0.00100382511, 3.03037381  , 2.49        , 3           , 50          , 0           , 0
-0.0118712876, -0.02704959 , -9.796055   , -0.000459058181, 0.00111433654, -0.000116869378, -0.5159768  , -0.0568963178, 0.3254685   , 0.00185964745, -0.0009926223, 3.03037238  , 2.5         , 3           , 11          , 0.0478154235, 0.04781542
0.0234244242, -0.021232754, -9.77045    , -0.0014415239, -0.000159392541, -0.0005472374, -0.5159768  , -0.0568963178, 0.3254685   , 0.00184523745, -0.0009942062, 3.03036714  , 2.51        , 3           , 12          , 0.04780825  , 0
0.00811071  , -0.0174156018, -9.77868748 , -0.00115856307, -0.000298265921, -0.000828675, -0.515302658, -0.05716597 , 0.326344877 , 0.00183366006, -0.0009971735, 3.03035855  , 2.52        , 3           , 14          , 0.000245359173, 0.0005952843
-0.0115774907, -0.0378961377, -9.79203    , -0.000461964926, 0.00153667992, -0.00152890594, -0.5170554  , -0.05662667 , 0.326614529 , 0.0018290556, -0.0009817787, 3.03034329  , 2.53        , 3           , 15          , 0           , -4.06444851E-05
0.0135675371, -0.023709327, -9.804435   , 0.000234588835, 0.00351241161, -0.00109876972, -0.5159094  , -0.0570985563, 0.325535923 , 0.00183141208, -0.0009466345, 3.0303328   , 2.54        , 3           , 50          , 0           , 0
0.02135468  , -0.0432921946, -9.778241   , 0.00108514668, 0.002955014 , -0.0002480743, -0.5159094  , -0.0570985563, 0.325535923 , 0.00184226583, -0.0009170798, 3.03033     , 2.55        , 3           , 11          , 0.0478154235, 0.04781542
-0.0018018214, -0.0194909126, -9.797755   , 0.00109219842, 0.001547189 , -0.00010897524, -0.5154375  , -0.05696373 , 0.326344877 , 0.001853189 , -0.00090160605, 3.030329    , 2.56        , 3           , 12          , 0.04780825  , 0
0.003674645 , 0.0183458086, -9.797104   , 0.00264374376, 0.001839257 , -0.000807641947, -0.5170554  , -0.0566940829, 0.326749355 , 0.00187963364, -0.0008831984, 3.03032136  , 2.57        , 3           , 14          , 0.000245359173, 0.0005952843
0.017315194 , -0.00534989731, -9.775855   , 0.00376816443, 0.002832373 , -0.00150719925, -0.5160442  , -0.05696373 , 0.325333685 , 0.00191732834, -0.000854846148, 3.030306    , 2.58        , 3           , 15          , 0           , -4.06444851E-05
0.0169261768, -0.004846561, -9.789867   , 0.00123550254, 0.00112579623, -0.000108967884, -0.5160442  , -0.05696373 , 0.325333685 , 0.00192968431, -0.000843586167, 3.03030515  , 2.59        , 3           , 50          , 0           , 0
4.57176939E-05, -0.0105556762, -9.777817   , 0.0010991185, 0.0002801681, 0.001019225 , -0.515302658, -0.05716597 , 0.326277465 , 0.00194063946, -0.00084070547, 3.03031516  , 2.6         , 3           , 11          , 0.048742    , 0.0487419926
0.0199266   , -0.0193039812, -9.794876   , 0.0008116495, 0.00126373512, 0.0007368894, -0.516785741, -0.0568289049, 0.326681942 , 0.00194874976, -0.000828082557, 3.03032231  , 2.61        , 3           , 12          , 0.04873425  , 0
0.00830044  , -0.007888509, -9.794465   , -0.00158479635, 0.000402805075, 0.0007243935, -0.5159768  , -0.0570311435, 0.325603336 , 0.001932896 , -0.000824068557, 3.03033     , 2.62        , 3           , 14          , 0.0002453644, 0.000595265359
-0.02099904 , 0.00149061624, -9.797814   , -0.00228381157, -0.00100979488, 0.000860200264, -0.5159768  , -0.0570311435, 0.325603336 , 0.00191005075, -0.000834182953, 3.03033853  , 2.63        , 3           , 15          , 0           , -4.06476065E-05
-0.007983459, -0.0108083328, -9.808614   , -0.00185877748, -0.001288495, 0.0008617418, -0.515235245, -0.0570985563, 0.3264797   , 0.00189145573, -0.0008470843, 3.030347    , 2.64        , 3           , 50          , 0           , 0
0.000498405658, -0.0132391695, -9.786412   , 0.000957416 , 0.00027921077, 0.000170954183, -0.516853154, -0.0568963178, 0.326749355 , 0.00190102833, -0.0008442954, 3.030349    , 2.65        , 3           , 11          , 0.048742    , 0.0487419926
0.0029527843, -0.0353547968, -9.793264   , 0.00194344821, 0.0008490274, 0.00074150617, -0.515841961, -0.0570985563, 0.325535923 , 0.00192045677, -0.0008358194, 3.03035617  , 2.66        , 3           , 12          , 0.04873425  , 0
-0.00277289562, -0.0248895623, -9.799141   , 0.002794829 , 1.00616262E-05, 0.00060288643, -0.515841961, -0.0570985563, 0.325535923 , 0.00194839993, -0.000835730345, 3.03036237  , 2.67        , 3           , 14          , 0.0002453644, 0.000595265359
0.00095043797, -0.0168159045, -9.797722   , 0.0023737317, -0.0005559347, 0.000176236892, -0.515302658, -0.0568289049, 0.326210052 , 0.00197213562, -0.0008412932, 3.0303638   , 2.68        , 3           , 15          , 0           , -4.06476065E-05
0.003869418 , -0.0304466058, -9.78013    , 0.00166905893, -0.0008422747, 0.0001725106, -0.516853154, -0.056761492, 0.326614529 , 0.00198882516, -0.0008497193, 3.03036571  , 2.69        , 3           , 50          , 0           , 0
0.00177590782, -0.02180129 , -9.794121   , 0.00194788119, -0.000277226529, -0.00123798137, -0.5159768  , -0.0570985563, 0.325535923 , 0.00200831075, -0.0008524041, 3.03035331  , 2.7         , 3           , 11          , 0.04968446  , 0.0496844575
-0.0095714815, -0.02392264 , -9.794669   , 0.0005309498, 0.0006987017, -0.00110177847, -0.5159768  , -0.0570985563, 0.325535923 , 0.00201362954, -0.000845394854, 3.03034234  , 2.71        , 3           , 12          , 0.0496761   , 0
-0.00341439713, -0.04065942 , -9.803731   , -0.00186697184, 0.000119336488, -0.00125510886, -0.5151004  , -0.0568963178, 0.326344877 , 0.00199497072, -0.0008441763, 3.03033     , 2.72        , 3           , 14          , 0.000245365052, 0.0005952534
-0.00016234722, -0.00231775548, -9.811231   , -0.002992371, -0.000873783953, -0.00225077686, -0.516853154, -0.056761492, 0.326681942 , 0.001965066 , -0.000852869649, 3.030307    , 2.73        , 3           , 15          , 0           , -4.06582149E-05
-0.0134932548, -0.01571628 , -9.805964   , -0.0017109582, -0.0028361408, -0.0009764695, -0.515707135, -0.05696373 , 0.325535923 , 0.00194796489, -0.0008812117, 3.03029752  , 2.74        , 3           , 50          , 0           , 0
-0.0143251047, -0.0067189103, -9.795086   , 0.0006886394, -0.0023975533, 0.0008718689, -0.515707135, -0.05696373 , 0.325535923 , 0.00195484352, -0.0009052043, 3.030306    , 2.75        , 3           , 11          , 0.04968446  , 0.0496844575
-0.0145476339, -0.02028973 , -9.784296   , 0.00152390765, 1.47866217E-06, 0.000596970844, -0.5156397  , -0.0570311435, 0.3264123   , 0.001970077 , -0.0009052012, 3.03031182  , 2.76        , 3           , 12          , 0.0496761   , 0
-0.0140342591, -0.0215850063, -9.803281   , -3.206485E-05, 0.000554104743, 0.000873133 , -0.5170554  , -0.0570311435, 0.326749355 , 0.00196974841, -0.000899677456, 3.03032041  , 2.77        , 3           , 14          , 0.000245365052, 0.0005952534
0.003192531 , -0.0186455715, -9.798164   , 0.0012422594, -0.00014121343, 0.000736705668, -0.515841961, -0.0570985563, 0.325670749 , 0.00198216457, -0.000901104067, 3.030328    , 2.78        , 3           , 15          , 0           , -4.06582149E-05
-0.01959528 , -0.0327833667, -9.808342   , 0.00166913983, -0.00084226235, 0.0003137901, -0.515841961, -0.0570985563, 0.325670749 , 0.0019988534, -0.0009095332, 3.030331    , 2.79        , 3           , 50          , 0           , 0
0.0006417483, -0.0135693671, -9.82257    , 0.0006844215, -0.001693643, -0.000398467469, -0.515302658, -0.0570311435, 0.326681942 , 0.00200570864, -0.0009264547, 3.030327    , 2.8         , 3           , 11          , 0.05064165  , 0.05064165
0.006386709 , -0.0155383283, -9.79406    , 0.00166250486, 0.000283994363, -0.00152097049, -0.516988   , -0.0568963178, 0.326816767 , 0.00202234765, -0.000923584157, 3.03031182  , 2.81        , 3           , 12          , 0.05063264  , 0
0.005784261 , -0.0263666883, -9.792301   , 0.000802759954, 0.0028123504, -0.00137974718, -0.5159768  , -0.0566940829, 0.325738162 , 0.00203038775, -0.000895432837, 3.03029847  , 2.82        , 3           , 14          , 0.000245363655, 0.0005952521
0.0131633617, -0.02098652 , -9.80759048 , -0.00159057183, 0.00138829206, -0.000828035641, -0.5159768  , -0.0566940829, 0.325738162 , 0.00201448915, -0.0008815332, 3.03029     , 2.83        , 3           , 15          , 0           , -4.065557E-05
0.00552722532, -0.0137049463, -9.799483   , -0.00242342264, -0.00143308647, 1.12865109E-05, -0.515235245, -0.0573007949, 0.326547116 , 0.0019902552, -0.0008958642, 3.03029     , 2.84        , 3           , 50          , 0           , 0
0.0049412176, -0.01737839 , -9.778712   , -0.0010129275, -0.00114197272, -0.00040550108, -0.516785741, -0.05696373 , 0.326816767 , 0.00198012963, -0.0009072758, 3.030286    , 2.85        , 3           , 11          , 0.05064165  , 0.05064165
0.009100346 , -0.0146800084, -9.79042    , -0.0010253475, 0.00125132769, -0.00139069371, -0.5159768  , -0.0570311435, 0.3254685   , 0.00196988857, -0.0008947351, 3.03027225  , 2.86        , 3           , 12          , 0.05063264  , 0
0.000523542054, -0.0145578515, -9.796812   , 0.000531811558, 0.0005579214, -0.000819460547, -0.5159768  , -0.0570311435, 0.3254685   , 0.00197521388, -0.000889139832, 3.03026414  , 2.87        , 3           , 14          , 0.000245363655, 0.0005952521
-0.009997947, -0.0185397938, -9.783802   , 0.00152694213, -0.000561649, 0.00101990649, -0.515235245, -0.05696373 , 0.3264797   , 0.001990474 , -0.0008947765, 3.03027415  , 2.88        , 3           , 15          , 0           , -4.065557E-05
-0.005135025, -0.03163781 , -9.796927   , 0.00095696433, 0.0004200078, 0.0005949851, -0.5171228  , -0.056761492, 0.326681942 , 0.00200003828, -0.0008905882, 3.03028035  , 2.89        , 3           , 50          , 0           , 0
0.00112943165, -0.0117610116, -9.825272   , 0.0005269329, 0.00154340966, -0.000817928056, -0.515774548, -0.05696373 , 0.325535923 , 0.00200531771, -0.000875082449, 3.03027177  , 2.9         , 3           , 11          , 0.0516124852, 0.0516124852
0.007020715 , -0.0349620655, -9.790068   , -0.0005926085, -0.00043518396, -0.000119889693, -0.515774548, -0.05696373 , 0.325535923 , 0.00199939287, -0.000879432, 3.03027081  , 2.91        , 3           , 12          , 0.0516027845, 0
-0.0117962565, -0.0162763819, -9.779739   , 0.00025872796, -0.00113336393, 0.0008718574, -0.5153701  , -0.057233382, 0.3264123   , 0.0020019724, -0.0008907828, 3.0302794   , 2.92        , 3           , 14          , 0.000245363161, 0.000595241669
0.0100427736, -0.0101972762, -9.78497    , -0.000872699544, -0.0008594403, 0.0003019487, -0.516988   , -0.0568963178, 0.3269516   , 0.00199324265, -0.0008993832, 3.03028226  , 2.93        , 3           , 15          , 0           , -4.066931E-05
0.0192753114, -0.030618269, -9.782725   , 0.000819362351, -0.0004256348, -0.0003958424, -0.5159094  , -0.05716597 , 0.3254685   , 0.00200144  , -0.000903631561, 3.03027844  , 2.94        , 3           , 50          , 0           , 0
-0.0156068942, -0.03915035 , -9.807434   , 0.005186931 , 0.0017157098, 0.00033416826, -0.5159094  , -0.05716597 , 0.3254685   , 0.00205330621, -0.0008864814, 3.03028226  , 2.95        , 3           , 11          , 0.0516124852, 0.0516124852
0.0117840255, -0.016524069, -9.788147   , 0.003493438 , 0.00142268336, -0.000239242261, -0.515167832, -0.0570311435, 0.3264797   , 0.00208824244, -0.0008722495, 3.0302794   , 2.96        , 3           , 12          , 0.0516027845, 0
0.007000677 , -0.00425427873, -9.797173   , -0.000591414864, -0.0008575358, -0.00167449657, -0.516785741, -0.05696373 , 0.326749355 , 0.00208234251, -0.0008807898, 3.03026271  , 2.97        , 3           , 14          , 0.000245363161, 0.000595241669
-0.00516978838, -0.0383612365, -9.810062   , -0.00200719712, -0.000163173725, -0.00196253415, -0.5161116  , -0.0568963178, 0.325535923 , 0.00206228788, -0.000882381, 3.03024316  , 2.98        , 3           , 15          , 0           , -4.066931E-05
0.0136425346, -0.04812368 , -9.790524   , 0.000101283331, 0.001962893 , -0.000677983859, -0.5161116  , -0.0568963178, 0.325535923 , 0.002063307 , -0.0008627381, 3.03023648  , 2.99        , 3           , 50          , 0           , 0
0.00269542169, -0.02313967 , -9.801804   , 0.002076678 , 0.00239862851, 0.000179503782, -0.5153701  , -0.057233382, 0.326277465 , 0.002084117 , -0.0008386706, 3.03023839  , 3           , 3           , 11          , 0.0525959581, 0.05259596
-0.01825637 , -0.0287979171, -9.790688   , 0.0009509078, 0.00154629222, -0.000250871875, -0.516853154, -0.056761492, 0.326816767 , 0.00209362828, -0.0008232025, 3.03023553  , 3.01        , 3           , 12          , 0.0525855236, 0
-0.006141024, -0.0312622041, -9.77117    , -0.0008773626, -1.473154E-05, -0.0005443561, -0.5160442  , -0.05696373 , 0.325603336 , 0.002084859 , -0.000823338458, 3.03023028  , 3.02        , 3           , 14          , 0.000245354749, 0.0005952258
0.0117506711, -0.0187828541, -9.787252   , -0.00129653164, -0.00100307621, -0.001254194, -0.5160442  , -0.05696373 , 0.325603336 , 0.00207190425, -0.0008333432, 3.030218    , 3.03        , 3           , 15          , 0           , -4.06750332E-05
0.0125111239, 0.00154689606, -9.797107   , 0.000392987044, -6.13931661E-06, -0.001527311, -0.515302658, -0.05696373 , 0.326681942 , 0.00207584677, -0.000833373, 3.03020263  , 3.04        , 3           , 50          , 0           , 0
-0.00895761 , -0.0153167741, -9.80638    , 0.00124120922, -0.000141190874, -0.001099771, -0.5170554  , -0.0568289049, 0.32688418  , 0.002088268 , -0.000834762, 3.03019166  , 3.05        , 3           , 11          , 0.0525959581, 0.05259596
-0.01575384 , -0.0437329151, -9.78621    , 0.000248859578, 0.000696821 , -0.000538003456, -0.5159768  , -0.0570311435, 0.325670749 , 0.00209076121, -0.000827782555, 3.030186    , 3.06        , 3           , 12          , 0.0525855236, 0
-0.0125905331, -0.0170682743, -9.809579   , 0.0005265706, 0.00168420956, -0.0002526303, -0.5159768  , -0.0570311435, 0.325670749 , 0.00209602923, -0.0008109352, 3.030184    , 3.07        , 3           , 14          , 0.000245354749, 0.0005952258
0.0115504656, 0.000173843466, -9.788079   , 0.001949078 , -0.000417979027, -0.000390568923, -0.515235245, -0.0568289049, 0.326277465 , 0.00211552251, -0.0008151068, 3.03017974  , 3.08        , 3           , 15          , 0           , -4.06750332E-05
0.01773135  , -0.0120801516, -9.788535   , -0.000313287746, 0.000129870663, -0.000682774058, -0.516853154, -0.0570311435, 0.326681942 , 0.00211239536, -0.000813793566, 3.030173    , 3.09        , 3           , 50          , 0           , 0
-0.008740941, -0.0347064771, -9.810979   , -0.00299827382, 0.000534087769, -0.000412091933, -0.5159094  , -0.0568963178, 0.3254685   , 0.002082398 , -0.000808371638, 3.03016877  , 3.1         , 3           , 11          , 0.0535911247, 0.0535911322
0.00503513031, -0.05159711 , -9.801      , -0.00229265867, 0.00067964656, 1.52236144E-05, -0.5159094  , -0.0568963178, 0.3254685   , 0.00205947133, -0.0008015755, 3.03016877  , 3.11        , 3           , 12          , 0.0535799041, 0
-0.02053532 , -0.03146161 , -9.795687   , -0.000459264469, 0.00125519338, 0.0007309952, -0.5153701  , -0.05696373 , 0.3264123   , 0.002054873 , -0.000789038662, 3.0301764   , 3.12        , 3           , 14          , 0.000245358 , 0.000595212332
0.006606916 , 0.00249411119, -9.789916   , 0.00166073849, 0.0009879548, 0.0014467818, -0.517257631, -0.0568963178, 0.32688418  , 0.00207146839, -0.000779189, 3.03019071  , 3.13        , 3           , 15          , 0           , -4.0679588E-05
0.01446368  , 0.0163697861, -9.783922   , 0.0022242798, 0.00127334031, 0.0015911184, -0.5159094  , -0.0573007949, 0.3254011   , 0.0020936993, -0.00076648884, 3.030207    , 3.14        , 3           , 50          , 0           , 0
-0.00311333383, -0.0140808048, -9.791867   , 0.000810588535, 0.00154535484, 0.00130243017, -0.5159094  , -0.0573007949, 0.3254011   , 0.00210179528, -0.000751062646, 3.03021979  , 3.15        , 3           , 11          , 0.0535911247, 0.0535911322
-0.021408353, -0.000254245475, -9.814096   , -0.001306953, 0.00124946143, 2.07006E-05 , -0.515302658, -0.0570311435, 0.3264123   , 0.002088725 , -0.000738568546, 3.03022027  , 3.16        , 3           , 12          , 0.0535799041, 0
-0.0128636053, -0.000848727766, -9.801377   , -0.000741031661, 0.000971714733, -0.0005421743, -0.5170554  , -0.0570311435, 0.326681942 , 0.00208131876, -0.0007288401, 3.03021455  , 3.17        , 3           , 14          , 0.000245358 , 0.000595212332
-0.003849634, -0.0370690823, -9.796487   , 0.00123046187, 0.002111345 , -0.000389951281, -0.5159768  , -0.0570985563, 0.325670749 , 0.00209362619, -0.000707718544, 3.03021073  , 3.18        , 3           , 15          , 0           , -4.0679588E-05
0.0111654429, -0.0264728069, -9.779606   , 0.000248774828, 0.000696834 , -0.0006792678, -0.5159768  , -0.0570985563, 0.325670749 , 0.00209611864, -0.000700736, 3.030204    , 3.19        , 3           , 50          , 0           , 0
0.00126001053, -0.0214007646, -9.7774     , -0.00214263378, -0.0011495658, -0.0004107464, -0.5154375  , -0.05716597 , 0.3264123   , 0.00207466888, -0.000712184934, 3.03020024  , 3.2         , 3           , 11          , 0.0545971   , 0.0545971021
-0.000245753676, -0.004170738, -9.796776   , -0.00213914877, -0.00185347861, -0.00041183125, -0.516853154, -0.0568289049, 0.326749355 , 0.00205328059, -0.000730711152, 3.03019547  , 3.21        , 3           , 12          , 0.0545850359, 0
-0.008138623, -0.0189683661, -9.796898   , -0.000451884174, -0.000434194633, -0.0009668349, -0.5159094  , -0.0570311435, 0.3254685   , 0.0020487688, -0.0007350333, 3.030186    , 3.22        , 3           , 14          , 0.000245362782, 0.000595205347
0.0136504853, -0.0173932128, -9.804408   , 0.00165819773, 0.00126952154, -0.0005305481, -0.5159094  , -0.0570311435, 0.3254685   , 0.00206535449, -0.00072232727, 3.03018069  , 3.23        , 3           , 15          , 0           , -4.067793E-05
0.01143131  , -0.009742418, -9.790834   , 0.000687002961, -0.00211594137, 0.000448516541, -0.515033   , -0.0570311435, 0.3264123   , 0.0020722216, -0.0007434959, 3.030185    , 3.24        , 3           , 50          , 0           , 0
-0.0176155232, -0.0139212869, -9.788813   , -0.0007170564, -0.00367409713, 0.00114588882, -0.516853154, -0.0568289049, 0.326749355 , 0.00206504227, -0.0007802604, 3.03019643  , 3.25        , 3           , 11          , 0.0545971   , 0.0545971021
-0.0280091576, -0.0164605789, -9.802463   , -0.000870771357, -0.00128175213, 1.876897E-05, -0.5159768  , -0.05716597 , 0.325670749 , 0.0020563344, -0.0007930783, 3.03019643  , 3.26        , 3           , 12          , 0.0545850359, 0
0.0198644027, -0.0278350357, -9.807116   , -0.00143988861, -0.000440877484, -0.000123831822, -0.5159768  , -0.05716597 , 0.325670749 , 0.00204193639, -0.0007974845, 3.03019547  , 3.27        , 3           , 14          , 0.000245362782, 0.000595205347
0.004990084 , -0.0244803932, -9.813543   , 0.0008236637, -0.00112950732, 0.00101576862, -0.515302658, -0.0570311435, 0.326547116 , 0.002050165 , -0.000808800338, 3.030206    , 3.28        , 3           , 15          , 0           , -4.067793E-05
-0.0123527134, -0.02796018 , -9.791995   , 0.00279786345, -0.000553007354, 0.00102585508, -0.5171228  , -0.0568963178, 0.326816767 , 0.002078135 , -0.0008143515, 3.030216    , 3.29        , 3           , 50          , 0           , 0
0.00580213545, -0.0223350525, -9.783697   , 0.000395922165, -0.00028766843, 0.00115637446, -0.5155723  , -0.0570311435, 0.325535923 , 0.00208208128, -0.0008172074, 3.03022742  , 3.3         , 3           , 11          , 0.05561305  , 0.0556130558
-0.0218078755, -0.0237881877, -9.792049   , 0.000113250644, -0.000289579562, 0.0007312513, -0.5155723  , -0.0570311435, 0.325535923 , 0.002083208 , -0.0008201183, 3.03023458  , 3.31        , 3           , 12          , 0.055600103 , 0
-0.013545298, -0.0104022473, -9.776111   , -2.46780473E-05, -0.001135234, -0.000824664952, -0.515033   , -0.0570985563, 0.3264797   , 0.002082968 , -0.0008314536, 3.03022647  , 3.32        , 3           , 14          , 0.0002453634, 0.00059519714
0.0115850326, 0.00154090067, -9.792142   , -0.00101464754, -0.0008603543, -0.0009701089, -0.5171228  , -0.0568963178, 0.326816767 , 0.00207282952, -0.0008400369, 3.030217    , 3.33        , 3           , 15          , 0           , -4.068868E-05
-0.00338303484, -0.0334923975, -9.788334   , 0.00123635866, 0.0009851016, 0.000173396926, -0.5159094  , -0.0570311435, 0.3254685   , 0.0020851912, -0.000830189441, 3.03021836  , 3.34        , 3           , 50          , 0           , 0
0.00644415943, -0.043537695, -9.787396   , 0.00180662528, -0.000137339521, -0.000108242421, -0.5159094  , -0.0570311435, 0.3254685   , 0.00210325886, -0.0008315605, 3.03021741  , 3.35        , 3           , 11          , 0.05561305  , 0.0556130558
-0.00427528564, -0.000515200663, -9.796339   , 0.000113295122, -0.00043036518, -0.00039911535, -0.5154375  , -0.0570311435, 0.3264797   , 0.002104395 , -0.0008358557, 3.03021359  , 3.36        , 3           , 12          , 0.055600103 , 0
-0.0104820952, -0.0257014968, -9.799203   , -0.00130449643, 0.0006863448, -0.000545232964, -0.516988   , -0.05696373 , 0.326681942 , 0.00209135446, -0.000828980934, 3.03020787  , 3.37        , 3           , 14          , 0.0002453634, 0.00059519714
0.00338098686, -0.0358263776, -9.788744   , -0.00229677977, 0.00131317833, -0.00167901581, -0.5159094  , -0.0570985563, 0.325333685 , 0.00206840038, -0.0008158142, 3.03019166  , 3.38        , 3           , 15          , 0           , -4.068868E-05
-0.0218776371, -0.0350034721, -9.81108    , 3.84841333E-05, 0.000484245335, 0.000167040533, -0.5159094  , -0.0570985563, 0.325333685 , 0.00206878362, -0.0008109752, 3.030193    , 3.39        , 3           , 50          , 0           , 0
-0.012219484, -0.0242814235, -9.81277    , -0.00137069239, -8.84301044E-05, 0.000442124263, -0.5154375  , -0.057233382, 0.326681942 , 0.00205510878, -0.0008118477, 3.03019738  , 3.4         , 3           , 11          , 0.0566382   , 0.0566382073
0.008438154 , -0.0006353138, -9.804831   , -0.0006654039, 5.71269557E-05, 0.000304364832, -0.5170554  , -0.0568963178, 0.326749355 , 0.00204845215, -0.0008112828, 3.03020024  , 3.41        , 3           , 12          , 0.05662432  , 0
0.00405584276, -0.0177977458, -9.785048   , -0.000587949529, -0.00135022146, 9.062145E-05, -0.515841961, -0.0568963178, 0.3254685   , 0.00204257225, -0.0008247869, 3.0302012   , 3.42        , 3           , 14          , 0.000245357049, 0.000595193356
0.006874388 , -0.0137299709, -9.79676151 , -0.0009429554, -0.000789474871, 0.00150253053, -0.515841961, -0.0568963178, 0.3254685   , 0.00203313  , -0.000832712161, 3.03021646  , 3.43        , 3           , 15          , 0           , -4.06875333E-05
0.00166797917, 0.003479084 , -9.797181   , 4.568309E-05, -0.0008531823, 0.00115385943, -0.515302658, -0.05716597 , 0.3264797   , 0.002033577 , -0.000841267465, 3.030228    , 3.44        , 3           , 50          , 0           , 0
0.00636595441, -0.013323389, -9.781847   , -3.477818E-05, 0.0009061167, -0.000821520051, -0.5167183  , -0.05696373 , 0.326614529 , 0.00203323644, -0.0008321896, 3.03021932  , 3.45        , 3           , 11          , 0.0566382   , 0.0566382073
-0.0103423186, -0.0130904289, -9.792822   , -0.000399393815, 0.00322664087, -0.000960855, -0.515707135, -0.0570311435, 0.325603336 , 0.00202925014, -0.0007999036, 3.03020978  , 3.46        , 3           , 12          , 0.05662432  , 0
0.00304673146, -0.0343859643, -9.813147   , 0.000376786833, 0.00337267644, -0.0006038446, -0.515707135, -0.0570311435, 0.325603336 , 0.00203302316, -0.0007661647, 3.030204    , 3.47        , 3           , 14          , 0.000245357049, 0.000595193356
0.0143150995, -0.0332213454, -9.796333   , 0.00109054311, 0.00175845053, -0.00116812252, -0.515302658, -0.05716597 , 0.326547116 , 0.00204393733, -0.0007485564, 3.03019261  , 3.48        , 3           , 15          , 0           , -4.06875333E-05
0.0206453875, -0.0248221662, -9.7668705  , 0.000395279581, -0.000428453583, -0.00117477775, -0.516988   , -0.0568963178, 0.326681942 , 0.002047899 , -0.0007528168, 3.03018069  , 3.49        , 3           , 50          , 0           , 0
-0.00719913747, -0.01850517 , -9.803668   , 0.00074677245, 6.669522E-05, 0.000381595251, -0.5159768  , -0.057233382, 0.325805575 , 0.00205537258, -0.000752055843, 3.03018451  , 3.5         , 3           , 11          , 0.0576718338, 0.057671845
-0.0240658522, -0.03089839 , -9.816504   , 0.0005406916, -0.00106099667, 0.0006614092, -0.5159768  , -0.057233382, 0.325805575 , 0.00206077425, -0.0007626794, 3.03019118  , 3.51        , 3           , 12          , 0.0576569624, 0
0.00322742271, -0.0168318991, -9.80087    , 0.001471922 , -0.003659264, 0.00143865345, -0.515302658, -0.0568963178, 0.3264797   , 0.00207548239, -0.000799301662, 3.03020549  , 3.52        , 3           , 14          , 0.000245355448, 0.0005951752
6.80116937E-05, -0.01321571 , -9.791839   , 0.0007536983, -0.00120034441, 0.00150979252, -0.516853154, -0.0570311435, 0.326681942 , 0.00208300725, -0.000811336562, 3.03022027  , 3.53        , 3           , 15          , 0           , -4.0698822E-05
-0.00374936685, -0.024936378, -9.781973   , -0.000454219815, 0.0002697534, 0.00101203308, -0.5159094  , -0.0568289049, 0.325670749 , 0.002078457 , -0.0008086602, 3.03023076  , 3.54        , 3           , 50          , 0           , 0
-0.00924740452, -0.03162021 , -9.787919   , -0.000105590829, 0.00104644208, 2.59914614E-05, -0.5159094  , -0.0568289049, 0.325670749 , 0.002077401 , -0.0007981962, 3.03023076  , 3.55        , 3           , 11          , 0.0576718338, 0.057671845
0.000443673664, -0.02176418 , -9.800459   , 0.000109258384, 0.0006255313, 0.00165091862, -0.515235245, -0.0573007949, 0.326547116 , 0.00207848055, -0.000791975239, 3.03024745  , 3.56        , 3           , 12          , 0.0576569624, 0
0.01875106  , -0.0115519436, -9.81474    , -0.00117647741, 0.00336219021, -0.000469807768, -0.5171228  , -0.0568289049, 0.326749355 , 0.002066719 , -0.0007583437, 3.03024316  , 3.57        , 3           , 14          , 0.000245355448, 0.0005951752
0.0107364841, -0.0295726378, -9.795441   , -0.0009645386, 0.00350440876, 0.00094408443, -0.515841961, -0.05696373 , 0.325738162 , 0.00205706712, -0.0007233191, 3.0302527   , 3.58        , 3           , 15          , 0           , -4.0698822E-05
0.0150378142, -0.0160466284, -9.807104   , 0.00052638445, 0.00175465213, 3.00393822E-05, -0.515841961, -0.05696373 , 0.325738162 , 0.00206233072, -0.0007057732, 3.0302527   , 3.59        , 3           , 50          , 0           , 0
0.0180486422, -0.0264784619, -9.8017     , -0.00116046728, 0.000194602631, 9.038784E-05, -0.5153701  , -0.0570985563, 0.326547116 , 0.00205073343, -0.000703726953, 3.03025365  , 3.6         , 3           , 11          , 0.05871328  , 0.0587132946
0.000921794155, -0.0177318119, -9.793658   , -0.00313768117, 0.0002516247, 0.000293180841, -0.5171228  , -0.0566940829, 0.326614529 , 0.00201935438, -0.0007012167, 3.03025651  , 3.61        , 3           , 12          , 0.0586973578, 0
-0.008499328, -0.0179957412, -9.816331   , -0.0003877306, 0.00104455138, 0.0005191173, -0.5159094  , -0.05716597 , 0.325670749 , 0.00201547355, -0.0006907816, 3.03026175  , 3.62        , 3           , 14          , 0.000245353964, 0.0005951572
-0.023561148, 0.0114674894, -9.803669   , 0.00174908573, -0.00274225324, 0.000169964565, -0.5159094  , -0.05716597 , 0.325670749 , 0.002032963 , -0.000718207564, 3.03026319  , 3.63        , 3           , 15          , 0           , -4.07012667E-05
0.0110271033, 0.0005683205, -9.76955    , 0.000821499852, -0.000707111962, 0.0008751742, -0.5155049  , -0.0573007949, 0.326614529 , 0.00204117154, -0.0007252965, 3.03027225  , 3.64        , 3           , 50          , 0           , 0
-0.016029926, 0.0009764601, -9.796423   , 0.00124409818, -0.0006338591, -0.000323526241, -0.516920567, -0.0568963178, 0.326749355 , 0.00205361517, -0.0007316284, 3.030269    , 3.65        , 3           , 11          , 0.05871328  , 0.0587132946
0.00515477266, -0.0109564438, -9.810321   , 0.000250354555, 0.00048571793, 0.0002386751, -0.5156397  , -0.05716597 , 0.325603336 , 0.00205611717, -0.000726776139, 3.03027129  , 3.66        , 3           , 12          , 0.0586973578, 0
-6.98007643E-05, -0.0231470875, -9.790072   , -0.003344704, -0.0007352859, 0.000149405809, -0.5156397  , -0.05716597 , 0.325603336 , 0.00202266849, -0.0007341321, 3.03027272  , 3.67        , 3           , 14          , 0.000245353964, 0.0005951572
0.00013436377, -0.0443323143, -9.797391   , -0.00396214239, -0.00447032275, -0.000636285054, -0.5153701  , -0.0568963178, 0.326547116 , 0.00198305212, -0.000778822461, 3.030266    , 3.68        , 3           , 15          , 0           , -4.07012667E-05
0.009306245 , -0.0309539884, -9.782351   , -0.000440793723, -0.002334703, 0.00192626833, -0.516988   , -0.0568963178, 0.326681942 , 0.0019786288, -0.0008022075, 3.0302856   , 3.69        , 3           , 50          , 0           , 0
-0.0146079678, -0.0288192779, -9.796988   , -0.000379855279, -0.000644827, -0.000331087329, -0.515841961, -0.0568963178, 0.3254011   , 0.00197483762, -0.0008085673, 3.03028226  , 3.7         , 3           , 11          , 0.05976191  , 0.0597619265
-0.017691208, -0.02558772 , -9.807845   , -0.000948579633, -1.51290869E-05, -0.00160416355, -0.515841961, -0.0568963178, 0.3254011   , 0.00196536467, -0.0008086869, 3.030266    , 3.71        , 3           , 12          , 0.0597448722, 0
0.00492438767, 0.007529449 , -9.805275   , 3.36375924E-05, 0.00139938481, -0.000396600168, -0.515302658, -0.0566940829, 0.3264797   , 0.00196570414, -0.000794685329, 3.03026223  , 3.72        , 3           , 14          , 0.000245353149, 0.0005951429
-0.005180197, 0.000388660032, -9.79363    , -0.000456427282, 0.000551346864, -0.00040020654, -0.5170554  , -0.0568963178, 0.326614529 , 0.001961143 , -0.000789164, 3.03025842  , 3.73        , 3           , 15          , 0           , -4.07125444E-05
-0.00571079366, -0.04422996 , -9.807379   , -0.00137341709, 0.000545143732, 0.0011494694, -0.516179   , -0.05716597 , 0.325535923 , 0.00194739993, -0.00078373513, 3.03026986  , 3.74        , 3           , 50          , 0           , 0
0.0005544154, -0.0207817461, -9.82441    , -0.00158658682, 0.00068449066, 1.85488261E-05, -0.516179   , -0.05716597 , 0.325535923 , 0.0019315338, -0.0007768906, 3.03026986  , 3.75        , 3           , 11          , 0.05976191  , 0.0597619265
0.0181795489, -0.0183380879, -9.807541   , -0.0009496731, 0.0004776162, 0.000727530045, -0.5155723  , -0.0568963178, 0.326614529 , 0.00192203152, -0.000772128464, 3.03027749  , 3.76        , 3           , 12          , 0.0597448722, 0
-0.00158747379, -0.0344189852, -9.78742    , 0.00117164594, -0.000211973413, 0.000100613011, -0.516920567, -0.056761492, 0.327019    , 0.00193374732, -0.00077425 , 3.03027844  , 3.77        , 3           , 14          , 0.000245353149, 0.0005951429
0.0103638014, -0.0245925635, -9.799039   , 0.00137385249, 0.00169002253, -0.000248642027, -0.515841961, -0.05716597 , 0.325535923 , 0.00194748759, -0.000757345057, 3.03027558  , 3.78        , 3           , 15          , 0           , -4.07125444E-05
0.0190751348, -0.01924951 , -9.80799    , 0.002929065 , 0.00134857162, -3.0038178E-05, -0.515841961, -0.05716597 , 0.325535923 , 0.00197677827, -0.0007438588, 3.03027558  , 3.79        , 3           , 50          , 0           , 0
-0.0002374053, -0.005503027, -9.803108   , 0.0007448135, 0.00034830888, -0.0006068433, -0.515235245, -0.0570985563, 0.3264123   , 0.00198425283, -0.000740252552, 3.03026938  , 3.8         , 3           , 11          , 0.0608171336, 0.0608171523
0.021990614 , 0.00766068  , -9.769889   , 4.366267E-05, -0.0005011578, 0.0006599811, -0.5171228  , -0.0566940829, 0.326681942 , 0.0019846845, -0.0007452772, 3.030276    , 3.81        , 3           , 12          , 0.0607989132, 0
0.0134226866, -0.03052195 , -9.790905   , 0.001589855 , 0.0009875648, 0.0009520399, -0.515774548, -0.057233382, 0.325738162 , 0.00200057612, -0.0007354205, 3.0302856   , 3.82        , 3           , 14          , 0.000245349423, 0.0005951238
-0.00192536507, -0.03030342 , -9.80232048 , 0.000397411815, -0.000569159631, 0.00129722815, -0.515774548, -0.057233382, 0.325738162 , 0.00200454029, -0.0007411381, 3.03029847  , 3.83        , 3           , 15          , 0           , -4.070745E-05
0.00401701964, -0.0249708071, -9.798637   , -0.00101840764, -1.55838061E-05, -0.000262444752, -0.515302658, -0.05662667 , 0.326681942 , 0.00199435861, -0.0007412887, 3.03029561  , 3.84        , 3           , 50          , 0           , 0
-0.00578716025, -0.00642620726, -9.777843   , -0.0004397993, -0.00275702262, 1.84956552E-05, -0.5170554  , -0.0568963178, 0.326749355 , 0.00198996044, -0.00076885923, 3.030296    , 3.85        , 3           , 11          , 0.0608171336, 0.0608171523
-0.0209070221, -0.02514169 , -9.795212   , -0.000166185157, -0.00106572406, -0.000754561741, -0.515707135, -0.05716597 , 0.325670749 , 0.00198830455, -0.000779501454, 3.03028846  , 3.86        , 3           , 12          , 0.0607989132, 0
-0.02131493 , -0.0224219076, -9.797464   , -0.00037087212, -0.00247498136, -0.000475181558, -0.515707135, -0.05716597 , 0.325670749 , 0.00198459951, -0.0008042418, 3.03028369  , 3.87        , 3           , 14          , 0.000245349423, 0.0005951238
-0.008020779, -0.0108385719, -9.799574   , -2.0834128E-05, -0.00176867878, 0.0003751617, -0.515302658, -0.0568289049, 0.326547116 , 0.001984388 , -0.000821936, 3.0302875   , 3.88        , 3           , 15          , 0           , -4.070745E-05
-0.00994976051, -0.018947104, -9.79691    , -0.00052077946, -0.000645761553, 0.00016268983, -0.516988   , -0.0568963178, 0.326749355 , 0.001979179 , -0.0008283968, 3.030289    , 3.89        , 3           , 50          , 0           , 0
0.003528783 , -0.024994215, -9.790053   , -0.00159115251, 0.00145881565, -0.0012516703, -0.5159094  , -0.056761492, 0.325535923 , 0.00196326827, -0.0008137536, 3.03027654  , 3.9         , 3           , 11          , 0.0618784   , 0.06187842
-0.009854894, -0.0442380458, -9.790688   , 3.64276966E-05, 0.0008362788, -0.000397461758, -0.5159094  , -0.056761492, 0.325535923 , 0.001963636 , -0.000805382966, 3.03027272  , 3.91        , 3           , 12          , 0.061858926 , 0
-0.0224865675, -0.0444980338, -9.80344    , -0.0005941164, -1.271049E-05, 0.0008696919, -0.5155049  , -0.0568963178, 0.326614529 , 0.00195768778, -0.000805527146, 3.03028131  , 3.92        , 3           , 14          , 0.000245351053, 0.0005951186
0.008020002 , -0.0317723081, -9.802703   , -0.00228947448, 4.62187927E-05, 8.492078E-05, -0.5170554  , -0.0568289049, 0.326816767 , 0.00193479215, -0.000805066666, 3.03028226  , 3.93        , 3           , 15          , 0           , -4.07188236E-05
0.00306349061, -0.0267844368, -9.792776   , -0.002295566, 0.00138365559, 0.00100522873, -0.5161116  , -0.0570985563, 0.325805575 , 0.00191182841, -0.0007912494, 3.03029227  , 3.94        , 3           , 50          , 0           , 0
-0.0010358328, -0.0267562456, -9.786931   , 0.000175668742, 0.00140036771, 0.00101675175, -0.5161116  , -0.0570985563, 0.325805575 , 0.00191357709, -0.0007772652, 3.03030229  , 3.95        , 3           , 11          , 0.0618784   , 0.06187842
-0.0160659663, -0.03245487 , -9.784358   , -0.00157904 , -0.0008640935, -0.00019573461, -0.515302658, -0.0568963178, 0.3264797   , 0.001897788 , -0.000785902434, 3.03030038  , 3.96        , 3           , 12          , 0.061858926 , 0
0.009236587 , -0.03949109 , -9.792782   , -0.003490382, 0.000108491535, -0.000344373868, -0.5171902  , -0.0568289049, 0.326749355 , 0.001862887 , -0.0007848111, 3.030297    , 3.97        , 3           , 14          , 0.000245351053, 0.0005951186
-0.0142385866, -0.03067758 , -9.782529   , 0.0003914077, 0.000486710836, -4.31861044E-05, -0.5159768  , -0.05696373 , 0.325603336 , 0.00186680153, -0.000779943133, 3.03029656  , 3.98        , 3           , 15          , 0           , -4.07188236E-05
-0.006927638, -0.0266916789, -9.785621   , 0.000318053761, 0.00104936364, 2.79869055E-05, -0.5159768  , -0.05696373 , 0.325603336 , 0.00186998188, -0.000769450038, 3.030297    , 3.99        , 3           , 50          , 0           , 0
0.003446716 , -0.03264867 , -9.794605   , -0.00228914781, -2.41685484E-05, 1.41831806E-05, -0.5155049  , -0.05716597 , 0.326749355 , 0.00184720254, -0.000769667851, 3.030297    , 4           , 3           , 11          , 0.0629451945, 0.06294521
-0.00578064937, -0.015347939, -9.808164   , 0.000812319748, 0.00105271023, 3.02967073E-05, -0.5170554  , -0.0568963178, 0.326749355 , 0.00185532554, -0.0007591414, 3.03029752  , 4.01        , 3           , 12          , 0.0629244   , 0
0.00351270661, 0.0034850277, -9.805302   , 0.00102495914, 0.0009133606, 0.000242970375, -0.5159094  , -0.0570311435, 0.325603336 , 0.00186557311, -0.000750012347, 3.0303      , 4.02        , 3           , 14          , 0.000245332165, 0.000595114543
-0.00459195767, -0.020411212, -9.782864   , -0.0016539396, 0.000261699373, 0.00199534255, -0.5159094  , -0.0570311435, 0.325603336 , 0.00184901909, -0.000747432467, 3.03032     , 4.03        , 3           , 15          , 0           , -4.072399E-05
0.008614985 , -0.020949997, -9.802653   , -0.0005258452, 0.0003397244, -0.000188946738, -0.515302658, -0.0570311435, 0.326681942 , 0.001843762 , -0.000744031742, 3.030318    , 4.04        , 3           , 50          , 0           , 0
0.02187555  , -0.00939387 , -9.796628   , -0.002644558, 0.000395790237, -0.000481252733, -0.5171228  , -0.0570311435, 0.3269516   , 0.00181732  , -0.000740064948, 3.03031325  , 4.05        , 3           , 11          , 0.0629451945, 0.06294521
0.00177361444, -0.0249275975, -9.803626   , -0.00207330869, -0.000867432158, -0.0002686684, -0.515841961, -0.05696373 , 0.325805575 , 0.00179658877, -0.0007487344, 3.03031039  , 4.06        , 3           , 12          , 0.0629244   , 0
-0.0177461989, -0.0242932271, -9.790213   , -0.0005214405, -0.000434576737, 0.0007987409, -0.515841961, -0.05696373 , 0.325805575 , 0.00179136859, -0.000753094442, 3.0303185   , 4.07        , 3           , 14          , 0.000245332165, 0.000595114543
0.00117293373, -0.0384326279, -9.810918   , -0.00123349146, 0.0006869067, 9.084081E-05, -0.5155723  , -0.0570311435, 0.326681942 , 0.00177903287, -0.0007462271, 3.03031945  , 4.08        , 3           , 15          , 0           , -4.072399E-05
0.006517385 , -0.0479418635, -9.819505   , -0.00200665812, -9.265126E-05, -0.000479048962, -0.516988   , -0.056761492, 0.32688418  , 0.00175896974, -0.000747145154, 3.03031468  , 4.09        , 3           , 50          , 0           , 0
-0.0259106718, -0.0335825235, -9.816981   , 0.0006101571, -0.00106045068, -0.00138661289, -0.5159094  , -0.057233382, 0.325873    , 0.00176519237, -0.000757643546, 3.03030086  , 4.1         , 3           , 11          , 0.06401702  , 0.06401704
-0.0212538131, -0.0179088823, -9.797897   , 0.00173360622, 0.000425410923, 0.000457426562, -0.5159094  , -0.057233382, 0.325873    , 0.0017825251, -0.0007533976, 3.03030515  , 4.11        , 3           , 12          , 0.0639948547, 0
0.00459704269, -0.00657266 , -9.770534   , 0.00158779952, 0.0014099353, 0.0009527274, -0.5155049  , -0.05716597 , 0.326681942 , 0.001798396 , -0.00073931535, 3.03031468  , 4.12        , 3           , 14          , 0.00024531383, 0.0005951009
-0.0136248162, -0.02474989 , -9.802839   , 0.0004596901, 0.001120731 , 0.00130019756, -0.5171228  , -0.0570311435, 0.3269516   , 0.00180298334, -0.0007281315, 3.030328    , 4.13        , 3           , 15          , 0           , -4.07440639E-05
0.0009366246, -0.0203978959, -9.805873   , 0.00349692418, 0.00100048271, 0.00209111581, -0.515707135, -0.0568963178, 0.325873    , 0.00183793763, -0.000718164665, 3.030349    , 4.14        , 3           , 50          , 0           , 0
0.007998824 , -0.032682173, -9.80044651 , 0.00144558144, 0.00162015425, 0.00102302863, -0.515707135, -0.0568963178, 0.325873    , 0.00185238593, -0.0007019821, 3.030359    , 4.15        , 3           , 11          , 0.06401702  , 0.06401704
-0.0030066194, -0.03846945 , -9.78564    , -0.00172753853, 0.0007539717, 0.00100691139, -0.515302658, -0.0570985563, 0.326749355 , 0.00183510326, -0.000694461, 3.030369    , 4.16        , 3           , 12          , 0.0639948547, 0
-0.0008953689, -0.0208398774, -9.802273   , 0.00180204061, 0.0008482355, 0.000317137979, -0.5167183  , -0.0568289049, 0.326816767 , 0.00185312179, -0.000685984443, 3.03037238  , 4.17        , 3           , 14          , 0.00024531383, 0.0005951009
0.009007214 , -0.0272532851, -9.808101   , 0.00109677063, 0.0007730716, 0.00109071517, -0.5159094  , -0.05696373 , 0.325873    , 0.00186408183, -0.00067827414, 3.03038335  , 4.18        , 3           , 15          , 0           , -4.07440639E-05
0.00657771528, -0.0394123271, -9.806812   , 0.00123970432, 0.000492463 , 0.00165601471, -0.5159094  , -0.05696373 , 0.325873    , 0.00187646772, -0.000673380448, 3.03039956  , 4.19        , 3           , 50          , 0           , 0
-0.0155365812, -0.02972002 , -9.794286   , 0.00173995248, -0.0006304406, 0.00236293022, -0.5154375  , -0.0570311435, 0.326681942 , 0.00189395773, -0.0006796546, 3.0304234   , 4.2         , 3           , 11          , 0.06509346  , 0.06509349
-0.03240931 , -0.00246708654, -9.788879   , 0.00158474338, 0.001973076 , 0.0004591575, -0.5170554  , -0.0568963178, 0.326816767 , 0.00190980185, -0.0006599325, 3.03042817  , 4.21        , 3           , 12          , 0.0650698245, 0
0.0256577712, -0.0324428678, -9.798955   , -0.000185711076, 0.00294661452, -0.0002538982, -0.5159768  , -0.0568963178, 0.325805575 , 0.00190794643, -0.0006304616, 3.03042579  , 4.22        , 3           , 14          , 0.000245296367, 0.000595088641
0.0120212184, -0.0358971432, -9.797718   , -0.00136314635, -0.00170732674, -0.000478558242, -0.5159768  , -0.0568963178, 0.325805575 , 0.001894318 , -0.000647525769, 3.03042054  , 4.23        , 3           , 15          , 0           , -4.07467778E-05
0.011856338 , -0.01200198 , -9.791292   , -0.00135564269, -0.00325593539, -0.0007634824, -0.5153701  , -0.0568289049, 0.326816767 , 0.00188076671, -0.0006800706, 3.030413    , 4.24        , 3           , 50          , 0           , 0
0.0119883893, -0.03235294 , -9.778268   , -0.0008722028, -0.000929678034, 0.0004431864, -0.5170554  , -0.0568289049, 0.327086419 , 0.00187204173, -0.0006893756, 3.03041768  , 4.25        , 3           , 11          , 0.06509346  , 0.06509349
0.00554274675, -0.0403992422, -9.77835    , 0.00243620574, 0.001134111 , 0.000461806369, -0.5159768  , -0.057233382, 0.325873    , 0.00189640047, -0.00067804323, 3.03042245  , 4.26        , 3           , 12          , 0.0650698245, 0
-0.01742913 , -0.03645997 , -9.796137   , 0.00350076333, -0.000125773542, -0.0009478952, -0.5159768  , -0.057233382, 0.325873    , 0.00193141471, -0.0006792827, 3.030413    , 4.27        , 3           , 14          , 0.000245296367, 0.000595088641
-0.0197738819, -0.00979202 , -9.801468   , 0.0007549286, -0.00155221717, 0.0005204167, -0.5154375  , -0.05716597 , 0.326614529 , 0.0019389604, -0.000694815, 3.03041768  , 4.28        , 3           , 15          , 0           , -4.07467778E-05
-0.01932869 , -0.004893628, -9.783817   , 0.0006912548, -0.003101306, -0.00075371773, -0.5171902  , -0.0568289049, 0.32688418  , 0.00194587838, -0.0007258135, 3.03041     , 4.29        , 3           , 50          , 0           , 0
0.008723272 , -0.0105961952, -9.79583    , 0.002018831 , -0.000346972549, -0.00137892715, -0.5159768  , -0.0570311435, 0.325805575 , 0.00196612114, -0.000729235355, 3.0303967   , 4.3         , 3           , 11          , 0.066174075 , 0.0661741048
0.005049664 , -0.0195222683, -9.812166   , 0.0019423184, 0.000919594662, -0.000741594238, -0.5159768  , -0.0570311435, 0.325805575 , 0.00198555  , -0.000720024749, 3.030389    , 4.31        , 3           , 12          , 0.06614889  , 0
-0.006341066, -0.0248031877, -9.812275   , 0.000534073333, 0.000346919842, 0.00115808123, -0.515302658, -0.0570985563, 0.326681942 , 0.00199088221, -0.0007165788, 3.03040051  , 4.32        , 3           , 14          , 0.000245289149, 0.000595085265
0.012579673 , -0.0291215815, -9.801753   , -0.0007336849, -0.00050637516, -0.0006150061, -0.5170554  , -0.05696373 , 0.326681942 , 0.00198355  , -0.0007216302, 3.03039479  , 4.33        , 3           , 15          , 0           , -4.07604348E-05
-0.0126534142, -0.0189046264, -9.800096   , 0.00173488772, -6.731805E-05, -0.00159171328, -0.515774548, -0.0568289049, 0.325603336 , 0.00200091023, -0.00072227174, 3.03037858  , 4.34        , 3           , 50          , 0           , 0
-0.000164438039, -8.770451E-05, -9.803537   , 0.0013871633, -0.001125574, -0.00145371794, -0.515774548, -0.0568289049, 0.325603336 , 0.00201479229, -0.0007334983, 3.03036427  , 4.35        , 3           , 11          , 0.066174075 , 0.0661741048
-0.0113361767, -0.0292199459, -9.823178   , 0.00137755  , 0.00077498937, -0.00180396077, -0.515302658, -0.05696373 , 0.3264797   , 0.00202858122, -0.000725712045, 3.03034616  , 4.36        , 3           , 12          , 0.06614889  , 0
-0.0206509046, -0.0115436567, -9.814138   , 0.000241647474, 0.00217517861, -0.0004650056, -0.516853154, -0.0568963178, 0.326749355 , 0.002031001 , -0.0007039508, 3.03034139  , 4.37        , 3           , 14          , 0.000245289149, 0.000595085265
-0.00581721123, -0.0118067609, -9.78781    , -0.00123361149, 0.000686935266, -0.000191660161, -0.515707135, -0.0570985563, 0.3254685   , 0.00201866613, -0.0006970776, 3.03033948  , 4.38        , 3           , 15          , 0           , -4.07604348E-05
-0.007490674, -0.0397198647, -9.800594   , -0.00201043 , 0.000752074935, 0.000157998453, -0.515707135, -0.0570985563, 0.3254685   , 0.00199856074, -0.00068956 , 3.03034139  , 4.39        , 3           , 50          , 0           , 0
-0.009673942, -0.03650347 , -9.810089   , -0.0006660485, 0.000127625535, -0.0003311682, -0.5151004  , -0.0568963178, 0.326681942 , 0.00199192134, -0.000688271131, 3.03033757  , 4.4         , 3           , 11          , 0.06725846  , 0.06725849
0.0208783578, -0.0148136811, -9.791686   , -0.000589621137, -0.0009981561, 9.12313844E-05, -0.5171228  , -0.056761492, 0.326749355 , 0.00198602467, -0.000698254444, 3.03033853  , 4.41        , 3           , 12          , 0.0672316551, 0
0.0172395129, -0.0170163382, -9.794888   , -0.000937690435, -0.00212680688, -0.00097166613, -0.5156397  , -0.0573007949, 0.325738162 , 0.00197665463, -0.0007195032, 3.030329    , 4.42        , 3           , 14          , 0.0002452861, 0.000595084333
0.005436818 , -0.0200271141, -9.797701   , 0.0013154886, -0.000703698257, 0.000312457763, -0.5156397  , -0.0573007949, 0.325738162 , 0.00198980724, -0.000726546568, 3.03033185  , 4.43        , 3           , 15          , 0           , -4.07551743E-05
0.016113406 , -0.0354847573, -9.800396   , 0.00208386127, 0.000920552062, -0.000175866022, -0.5155723  , -0.057233382, 0.326547116 , 0.002010647 , -0.0007173374, 3.03033042  , 4.44        , 3           , 50          , 0           , 0
0.000214990228, -0.03355458 , -9.782431   , -2.41741654E-05, -0.00106472638, 0.0005175631, -0.516853154, -0.0568289049, 0.326749355 , 0.00201040157, -0.0007279951, 3.03033566  , 4.45        , 3           , 11          , 0.06725846  , 0.06725849
-0.021853637, -0.0251643211, -9.785276   , -0.00115310284, -0.00121314824, 0.000653347059, -0.515774548, -0.0570311435, 0.325738162 , 0.00199886574, -0.0007401396, 3.03034234  , 4.46        , 3           , 12          , 0.0672316551, 0
-0.02096077 , -0.0323268548, -9.805186   , -0.0004516924, -0.000152501671, 0.0016471477, -0.515774548, -0.0570311435, 0.325738162 , 0.00199433672, -0.0007416976, 3.03035855  , 4.47        , 3           , 14          , 0.0002452861, 0.000595084333
-0.00725586759, -0.0221219361, -9.801423   , -0.00039106264, 0.00160775182, -0.0005394762, -0.5153701  , -0.0570311435, 0.326614529 , 0.00199042982, -0.0007256094, 3.03035283  , 4.48        , 3           , 15          , 0           , -4.07551743E-05
0.0085778   , -0.0258899815, -9.809454   , -0.00151214271, -1.88844533E-05, 0.0005122763, -0.517257631, -0.0568289049, 0.326749355 , 0.00197530468, -0.0007258084, 3.03035855  , 4.49        , 3           , 50          , 0           , 0
0.0264535174, -0.04236219 , -9.803961   , -0.0005862096, -0.00156127464, 0.00114989479, -0.515707135, -0.0568289049, 0.325535923 , 0.00196950836, -0.000741388241, 3.03037     , 4.5         , 3           , 11          , 0.06834627  , 0.06834629
0.031091297 , -0.02982847 , -9.790315   , 0.00153246254, -0.0016173406, 0.00137156632, -0.515707135, -0.0568289049, 0.325535923 , 0.00198482256, -0.000757588656, 3.03038335  , 4.51        , 3           , 12          , 0.06831775  , 0
-0.00586130936, -0.0185377486, -9.798685   , 0.00208932278, -6.491421E-05, 0.0008115118, -0.5154375  , -0.05716597 , 0.326749355 , 0.0020057098, -0.000758254, 3.030392    , 4.52        , 3           , 14          , 0.000245274423, 0.000595075544
-0.009378217, -0.0197488926, -9.828548   , 0.00122927013, 0.00253383326, 0.00102347811, -0.516988   , -0.056761492, 0.3269516   , 0.00201799441, -0.0007329364, 3.030402    , 4.53        , 3           , 15          , 0           , -4.077087E-05
0.00705511775, -0.00376382028, -9.808921   , -0.0007447816, 0.00174615544, -0.0005408898, -0.515841961, -0.0570985563, 0.325670749 , 0.00201055058, -0.0007154639, 3.0303967   , 4.54        , 3           , 50          , 0           , 0
0.00361359818, -0.0186765864, -9.79048    , -0.00157502969, -0.001567961, 0.0005802105, -0.515841961, -0.0570985563, 0.325670749 , 0.00199479586, -0.0007311551, 3.03040242  , 4.55        , 3           , 11          , 0.06834627  , 0.06834629
-0.01646379 , -0.0261561144, -9.777555   , 0.000680529047, -0.000707984436, 0.00115712266, -0.515167832, -0.0570311435, 0.326614529 , 0.002001593 , -0.000738258, 3.03041387  , 4.56        , 3           , 12          , 0.06831775  , 0
0.00523556769, -0.0300098918, -9.780569   , 0.0001108408, 0.000132887624, 2.56409676E-05, -0.516920567, -0.057233382, 0.32688418  , 0.00200270116, -0.0007369296, 3.03041387  , 4.57        , 3           , 14          , 0.000245274423, 0.000595075544
-0.00598049629, -0.0208660718, -9.777      , -0.00214578584, -0.000445522164, 1.42376266E-05, -0.515707135, -0.0568963178, 0.325738162 , 0.00198124326, -0.00074138504, 3.03041434  , 4.58        , 3           , 15          , 0           , -4.077087E-05
0.0155686364, -0.03376858 , -9.772369   , -0.00158339378, 0.000121429388, 0.0005828141, -0.515707135, -0.0568963178, 0.325738162 , 0.00196540472, -0.000740182237, 3.03042     , 4.59        , 3           , 50          , 0           , 0
0.00203513447, -0.034014903, -9.786035   , 0.0006701291, 0.0012629861, 3.001361E-05, -0.5154375  , -0.05696373 , 0.3264123   , 0.00197217474, -0.0007274361, 3.03042054  , 4.6         , 3           , 11          , 0.06943713  , 0.06943715
-0.008205662, -0.0239325389, -9.796467   , -0.00130349235, 0.000404917228, -0.00139319419, -0.5170554  , -0.0568963178, 0.326749355 , 0.00195914973, -0.0007233596, 3.03040624  , 4.61        , 3           , 12          , 0.06940682  , 0
-0.00608229637, -0.03255367 , -9.789706   , -0.00130144577, 0.000123355247, -0.000263478141, -0.515707135, -0.0568289049, 0.325670749 , 0.00194613694, -0.0007221209, 3.03040385  , 4.62        , 3           , 14          , 0.000245263742, 0.0005950573
0.00225887448, -0.0213358  , -9.799992   , 0.0006741479, 0.0004182901, -0.000253825681, -0.515707135, -0.0568289049, 0.325670749 , 0.00195288029, -0.000717933057, 3.03040147  , 4.63        , 3           , 15          , 0           , -4.07739062E-05
0.008196769 , -0.019577615, -9.806718   , 0.001527909 , -0.0009838077, -0.001099657, -0.5155049  , -0.05696373 , 0.326614529 , 0.00196816749, -0.000727749662, 3.03039     , 4.64        , 3           , 50          , 0           , 0
-0.0278264321, -0.0287361778, -9.775845   , 0.00432134559, 0.005229723 , -0.00135947869, -0.5170554  , -0.0568963178, 0.326749355 , 0.00201139017, -0.000675425457, 3.03037667  , 4.65        , 3           , 11          , 0.06943713  , 0.06943715
-0.0276047532, -0.02141495 , -9.806547   , 0.0009534604, 0.0009833286, -0.000816716, -0.515774548, -0.0570311435, 0.325670749 , 0.00202093  , -0.000665575732, 3.030369    , 4.66        , 3           , 12          , 0.06940682  , 0
0.00388316531, -0.03713072 , -9.805016   , -0.00441216 , 0.000947041553, 5.874863E-06, -0.515774548, -0.0570311435, 0.325670749 , 0.0019768083, -0.000656105462, 3.030369    , 4.67        , 3           , 14          , 0.000245263742, 0.0005950573
-0.00294167362, -0.0312752277, -9.778378   , 0.0003816369, 0.00238733436, -0.0008171802, -0.5153701  , -0.0570311435, 0.326547116 , 0.00198063  , -0.000632215932, 3.03036046  , 4.68        , 3           , 15          , 0           , -4.07739062E-05
-2.8525943E-05, -0.02534539 , -9.807257   , -0.00186121289, -0.00100672734, -0.00111546018, -0.516988   , -0.05696373 , 0.326681942 , 0.00196202518, -0.0006422612, 3.03034949  , 4.69        , 3           , 50          , 0           , 0
-0.0167894661, -0.0282795615, -9.815533   , -0.00129446015, -0.001284466, -0.000265639828, -0.515707135, -0.05716597 , 0.3254685   , 0.00194918283, -0.0006550747, 3.030347    , 4.7         , 3           , 11          , 0.07053073  , 0.07053075
-0.02237684 , -0.0372675247, -9.807026   , 0.0018150229, -0.00182658667, -0.000252021418, -0.515707135, -0.05716597 , 0.3254685   , 0.001967335 , -0.0006733356, 3.03034425  , 4.71        , 3           , 12          , 0.07049853  , 0
0.01197539  , -0.00476390123, -9.797136   , -0.002988769, -0.00157749641, -0.00225173775, -0.515302658, -0.0570985563, 0.3264797   , 0.00193746248, -0.0006890666, 3.03032184  , 4.72        , 3           , 14          , 0.000245248259, 0.0005950533
-0.0167993512, -0.0265021678, -9.807391   , 0.00209096936, -0.000416848867, 0.000599077437, -0.516988   , -0.05696373 , 0.326749355 , 0.00195836788, -0.0006932468, 3.030328    , 4.73        , 3           , 15          , 0           , -4.07819243E-05
-0.0281412452, -0.0312971659, -9.817892   , -0.00100801466, -0.00212725229, -0.000548162148, -0.5159768  , -0.05716597 , 0.325603336 , 0.00194829167, -0.0007145086, 3.03032231  , 4.74        , 3           , 50          , 0           , 0
0.00525127631, -0.0340143144, -9.797309   , 0.0009597046, -0.000142924429, 0.000311706128, -0.5159768  , -0.05716597 , 0.325603336 , 0.00195788639, -0.000715943868, 3.03032517  , 4.75        , 3           , 11          , 0.07053073  , 0.07053075
-0.01737836 , -0.0257064253, -9.773945   , -0.00186882017, 0.000401099 , -0.00224343245, -0.5153701  , -0.0570311435, 0.326547116 , 0.00193921418, -0.000711889239, 3.03030324  , 4.76        , 3           , 12          , 0.07049853  , 0
0.02245535  , -0.0315396376, -9.788128   , -0.00157918548, -0.0007232436, 0.000581523345, -0.517257631, -0.05716597 , 0.326681942 , 0.001923418 , -0.000719132833, 3.030309    , 4.77        , 3           , 14          , 0.000245248259, 0.0005950533
0.006952396 , -0.00652515236, -9.792663   , 0.000962982 , -0.000706052233, 0.00115845073, -0.5156397  , -0.0570985563, 0.325805575 , 0.00193303952, -0.0007262157, 3.03032041  , 4.78        , 3           , 15          , 0           , -4.07819243E-05
-0.01310885 , -0.0148843061, -9.786523   , 0.002093016 , -0.0006984108, 0.00172879361, -0.5156397  , -0.0570985563, 0.325805575 , 0.001953957 , -0.000733233464, 3.03033757  , 4.79        , 3           , 50          , 0           , 0
-0.00135947857, -0.0159338824, -9.783726   , -0.00186864927, 0.000401105353, -0.00196089968, -0.515302658, -0.0568963178, 0.32688418  , 0.001935335 , -0.0007291473, 3.03031754  , 4.8         , 3           , 11          , 0.07162676  , 0.0716268
-0.00357315713, -0.0109567419, -9.780107   , -0.00044979708, -0.0007155996, 2.171161E-05, -0.5171228  , -0.056761492, 0.326749355 , 0.00193083682, -0.0007363037, 3.030318    , 4.81        , 3           , 12          , 0.07159258  , 0
0.0134264212, -0.0305189285, -9.791808   , -0.0024321978, 0.000397291617, 0.000296766026, -0.515774548, -0.0570311435, 0.325535923 , 0.00190651265, -0.0007323365, 3.03032136  , 4.82        , 3           , 14          , 0.000245240662, 0.0005950477
-0.00776515529, -0.0279649571, -9.806423   , -0.0007355901, 0.000127189443, 0.00143438368, -0.515774548, -0.0570311435, 0.325535923 , 0.00189914613, -0.000731091946, 3.03033566  , 4.83        , 3           , 15          , 0           , -4.0777184E-05
0.010815274 , -0.0263843425, -9.804466   , 0.00181626109, -0.002108147, -0.000534997554, -0.515302658, -0.0570311435, 0.326614529 , 0.001917313 , -0.0007521632, 3.03033     , 4.84        , 3           , 50          , 0           , 0
0.0181852449, -0.0156553648, -9.800298   , 0.002361762 , 0.001837585 , -0.000243751114, -0.5170554  , -0.0570311435, 0.326749355 , 0.00194093224, -0.000733782654, 3.03032756  , 4.85        , 3           , 11          , 0.07162676  , 0.0716268
0.011836268 , -0.0164817423, -9.800802   , -0.000732060755, -0.000717508839, 0.0003029319, -0.515774548, -0.0568963178, 0.325603336 , 0.0019336096, -0.000740963558, 3.030331    , 4.86        , 3           , 12          , 0.07159258  , 0
-0.0222207233, -0.020179715, -9.79023    , -0.00608685566, -0.00300631765, 0.0005569762, -0.515774548, -0.0568963178, 0.325603336 , 0.00187273684, -0.0007710372, 3.03033614  , 4.87        , 3           , 14          , 0.000245240662, 0.0005950477
-0.00157683715, -0.03262497 , -9.784247   , -0.00185512425, -0.00213297573, -0.000269580225, -0.5154375  , -0.05696373 , 0.326681942 , 0.00185418781, -0.0007923619, 3.03033376  , 4.88        , 3           , 15          , 0           , -4.0777184E-05
-0.004377477, -0.04024904 , -9.788369   , 0.00152702758, -0.0007022306, -0.000251607358, -0.516920567, -0.056761492, 0.326614529 , 0.00186946  , -0.0007993794, 3.030331    , 4.89        , 3           , 50          , 0           , 0
-0.017058054, -0.008485575, -9.796923   , 0.00321479654, 0.0007170694, 4.10222165E-05, -0.515841961, -0.0570985563, 0.325603336 , 0.0019017054, -0.0007921166, 3.03033137  , 4.9         , 3           , 11          , 0.0727249458, 0.07272497
-0.000189579092, 0.0012309798, -9.793137   , -0.00156989461, -0.00269418163, -0.000269110373, -0.515841961, -0.0570985563, 0.325603336 , 0.00188600889, -0.0008190533, 3.030329    , 4.91        , 3           , 12          , 0.07268868  , 0
0.000486031146, -0.0199444517, -9.804971   , -0.00185568794, -0.00185139279, 0.00114356168, -0.5153701  , -0.0573007949, 0.3264797   , 0.00186744251, -0.0008375888, 3.03034043  , 4.92        , 3           , 14          , 0.000245226023, 0.000595033751
0.009554668 , -0.015130436, -9.792226   , -0.00101094344, -0.00156410318, -0.0008298158, -0.516785741, -0.0568963178, 0.326681942 , 0.00185734022, -0.0008532143, 3.03033185  , 4.93        , 3           , 15          , 0           , -4.07979751E-05
