Acc X       , Acc Y       , Acc Z       , Gyro X      , Gyro Y      , Gyro Z      , Magn X      , Magn Y      , Magn Z      , Euler X     , Euler Y     , Euler Z     , Time        , Status      , LowRate X   , LowRate Y   , LowRate Z    
-0.0806139559, 0.115020238 , -9.805032   , -0.00283700228, -0.000497158035, -0.000487225247, -0.224214643, -0.13037616 , 0.4544964   , -0.009520782, -0.008641703, 2.636802    , 0           , 3           , 11          , 0.0346410163, 0.0346410163
-0.08329891 , 0.0901563838, -9.78210449 , -0.0008710402, 0.0016279472, -0.0014636335, -0.224079818, -0.130106509, 0.4544964   , -0.009529364, -0.008625564, 2.6367867   , 0.01        , 3           , 12          , 0.0346410163, 0
-0.08471529 , 0.08476909  , -9.785301   , 0.0004037287, 0.0010734169, 0.000377918419, -0.224079818, -0.130106509, 0.4544964   , -0.00952536 , -0.008614794, 2.63679051  , 0.02        , 3           , 50          , 0           , 0
-0.07075402 , 0.0814190358, -9.777073   , -0.0022723563, -0.0003525532, 0.000363237836, -0.223877579, -0.130173922, 0.454429    , -0.009548115, -0.008618287, 2.63679433  , 0.03        , 3           , 11          , 0.0346410163, 0.0346410163
-0.07564127 , 0.08423129  , -9.791109   , -0.00113916374, -0.001048826, 0.000367420784, -0.224214643, -0.130106509, 0.454698652 , -0.009559539, -0.008628738, 2.63679814  , 0.04        , 3           , 12          , 0.0346410163, 0
-0.08429367 , 0.0829531252, -9.783498   , -0.000721878256, 0.00022108134, 0.000230080157, -0.224282056, -0.130308747, 0.454698652 , -0.009566778, -0.008626506, 2.63680053  , 0.05        , 3           , 50          , 0           , 0
-0.07982119 , 0.108669281 , -9.797821   , -0.00171726069, 0.00162222225, 0.000368909328, -0.22414723 , -0.130241334, 0.4544964   , -0.009583981, -0.008610249, 2.63680387  , 0.06        , 3           , 11          , 0.0346410163, 0.0346410163
-0.06601077 , 0.09537728  , -9.784662   , 0.0003954462, 0.002762808 , 0.0005217908, -0.22414723 , -0.130241334, 0.4544964   , -0.009580069, -0.008582572, 2.63680863  , 0.07        , 3           , 12          , 0.0346410163, 0
-0.0541847162, 0.09974603  , -9.783197   , 0.00195055874, 0.00235096342, -3.66918357E-05, -0.224079818, -0.130106509, 0.454563826 , -0.009560559, -0.008559067, 2.63680863  , 0.08        , 3           , 50          , 0           , 0
-0.08110602 , 0.11231561  , -9.804143   , 0.00153450388, 0.000799490139, -0.000182322648, -0.2240124  , -0.130241334, 0.454563826 , -0.009545198, -0.00855109 , 2.63680673  , 0.09        , 3           , 11          , 0.0346410163, 0.0346410163
-0.09385107 , 0.11508821  , -9.77937    , 0.00196146569, 9.84416038E-05, -0.000463969453, -0.224079818, -0.130173922, 0.4543616   , -0.009525543, -0.008550148, 2.636802    , 0.1         , 3           , 12          , 0.0346410163, 0
-0.0710341  , 0.0931694061, -9.781547   , 0.0009800235, -0.00131606834, -0.000329479662, -0.224079818, -0.130173922, 0.4543616   , -0.009515718, -0.00856334 , 2.63679862  , 0.11        , 3           , 50          , 0           , 0
-0.08646147 , 0.08439666  , -9.802491   , 0.0009752261, -0.000330590119, -0.000186692108, -0.224079818, -0.130241334, 0.454563826 , -0.00950595 , -0.008566666, 2.63679671  , 0.12        , 3           , 11          , 0.0346410163, 0.0346410163
-0.09177144 , 0.09259478  , -9.806566   , 0.0025223007, 0.00094695756, -0.000177496288, -0.2240124  , -0.130106509, 0.454563826 , -0.00948071 , -0.008557212, 2.63679528  , 0.13        , 3           , 12          , 0.0346410163, 0
-0.09499492 , 0.08767839  , -9.809322   , 0.002094723 , 0.00178878917, 0.0002456362, -0.224214643, -0.130308747, 0.454631239 , -0.009459782, -0.008539301, 2.63679719  , 0.14        , 3           , 50          , 0           , 0
-0.09592687 , 0.09748736  , -9.771322   , 0.001806149 , 0.00291313673, -0.0007428261, -0.224214643, -0.130308747, 0.454631239 , -0.009441656, -0.008510241, 2.63678956  , 0.15        , 3           , 11          , 0.0346410163, 0.0346410163
-0.0970155  , 0.109326974 , -9.799305   , -0.00101082283, 0.0014862133, -0.000193090091, -0.224551708, -0.13037616 , 0.4543616   , -0.009451746, -0.008495399, 2.63678765  , 0.16        , 3           , 12          , 0.0346410163, 0
-0.0828277841, 0.08971956  , -9.787978   , -0.00227395771, 6.979678E-05, 0.00121150143, -0.224079818, -0.130173922, 0.454698652 , -0.009474588, -0.008494586, 2.63679957  , 0.17        , 3           , 50          , 0           , 0
-0.08492021 , 0.102382913 , -9.789297   , -0.00142507569, -0.000346823275, 0.0003671889, -0.224214643, -0.130443573, 0.454429    , -0.00948887 , -0.008498019, 2.63680339  , 0.18        , 3           , 11          , 0.0346410163, 0.0346410163
-0.08360732 , 0.109025382 , -9.756718   , -0.001286895, 0.000217260691, -5.5091E-05 , -0.224214643, -0.130443573, 0.454429    , -0.009501735, -0.008495851, 2.636803    , 0.19        , 3           , 12          , 0.0346410163, 0
-0.106570661, 0.116988719 , -9.763639   , -0.000441256416, 0.0005045532, -0.000474513217, -0.224214643, -0.13037616 , 0.454698652 , -0.00950619951, -0.00849089 , 2.63679814  , 0.2         , 3           , 50          , 0           , 0
-0.07375464 , 0.0905201   , -9.789262   , 0.000553636462, -0.0008965899, -0.00146095478, -0.22414723 , -0.130510986, 0.454766065 , -0.009500538, -0.008499994, 2.63678336  , 0.21        , 3           , 11          , 0.0346699134, 0.0346699171
-0.05691589 , 0.0953027159, -9.794085   , 0.0005492097, -5.189586E-05, -0.00188345916, -0.224214643, -0.1305784  , 0.454631239 , -0.009494887, -0.0085006915, 2.63676476  , 0.22        , 3           , 12          , 0.0346687734, 0
-0.0733696446, 0.0819791853, -9.800141   , -0.00157247635, 0.000637691934, -0.00189225143, -0.224214643, -0.1305784  , 0.454631239 , -0.009510449, -0.008494495, 2.63674569  , 0.23        , 3           , 50          , 0           , 0
-0.101771124, 0.0886634439, -9.810273   , -0.0005796001, -5.95315469E-05, -0.0003347709, -0.22461912 , -0.130241334, 0.454563826 , -0.009516218, -0.008495123, 2.63674235  , 0.24        , 3           , 11          , 0.0346699134, 0.0346699171
-0.10134875 , 0.090418905 , -9.797157   , 0.000554822967, -0.00103737018, -0.0006135593, -0.22414723 , -0.130241334, 0.454631239 , -0.009510618, -0.008505555, 2.63673615  , 0.25        , 3           , 12          , 0.0346687734, 0
-0.08699249 , 0.07942873  , -9.799353   , -0.000430059939, -0.00188875315, -0.00160835159, -0.224079818, -0.130645812, 0.4544964   , -0.009514784, -0.008524594, 2.63672042  , 0.26        , 3           , 50          , 0           , 0
-0.09508789 , 0.08804941  , -9.785368   , 0.0009050685, -0.000471852545, -0.0006110452, -0.224079818, -0.130645812, 0.4544964   , -0.009505681, -0.00852937 , 2.63671422  , 0.27        , 3           , 11          , 0.0346699134, 0.0346699171
-0.07369506 , 0.09547822  , -9.787885   , 0.0012569119, -0.00018789903, -0.000255793217, -0.224079818, -0.130443573, 0.454563826 , -0.00949309 , -0.008531272, 2.63671184  , 0.28        , 3           , 12          , 0.0346687734, 0
-0.07289306 , 0.08645666  , -9.791532   , -0.001713078, 0.0006367399, -0.0008333942, -0.224349469, -0.13037616 , 0.454429    , -0.009510148, -0.008524985, 2.63670325  , 0.29        , 3           , 50          , 0           , 0
-0.09187384 , 0.090280056 , -9.78895    , -0.00184230029, -0.0003506518, -0.0006237361, -0.224079818, -0.130106509, 0.454429    , -0.009384538, -0.008548317, 2.636696    , 0.3         , 3           , 11          , 0.03475349  , 0.0347534865
-0.0858548  , 0.06584348  , -9.789004   , -8.10441E-05, 0.0002948032, -0.001956582, -0.224079818, -0.130106509, 0.454429    , -0.009385182, -0.008545551, 2.636676    , 0.31        , 3           , 12          , 0.0347538032, 0
-0.0752585  , 0.08283019  , -9.778458   , 0.000405824947, 0.0017059691, -0.00265845167, -0.224079818, -0.130241334, 0.454429    , -0.009380897, -0.008528742, 2.63664937  , 0.32        , 3           , 50          , 0           , 0
-0.0771269649, 0.10594108  , -9.800975   , -0.0008630084, 0.00141581229, -0.00146402721, -0.224214643, -0.130173922, 0.454563826 , -0.009389401, -0.008514721, 2.636635    , 0.33        , 3           , 11          , 0.03475349  , 0.0347534865
-0.09035406 , 0.0993219   , -9.799295   , 0.0006237256, 0.0007923225, 2.523193E-05, -0.22414723 , -0.12990427 , 0.454563826 , -0.009383163, -0.008506795, 2.636635    , 0.34        , 3           , 12          , 0.0347538032, 0
-0.06775763 , 0.101699531 , -9.780129   , -0.00106723164, 0.000217736451, 0.00142915  , -0.22414723 , -0.12990427 , 0.454563826 , -0.00939395651, -0.008504484, 2.63664937  , 0.35        , 3           , 50          , 0           , 0
-0.06587889 , 0.1048575   , -9.78643    , -0.0009973814, 0.000288603216, 0.0007232439, -0.224214643, -0.130173922, 0.4544964   , -0.009403992, -0.008501531, 2.63665652  , 0.36        , 3           , 11          , 0.03475349  , 0.0347534865
-0.08080849 , 0.10147208  , -9.801021   , -0.00135170144, 0.00035660257, -0.000902884058, -0.223944992, -0.130173922, 0.4544964   , -0.009417432, -0.008498049, 2.63664746  , 0.37        , 3           , 12          , 0.0347538032, 0
-0.07771088 , 0.100037575 , -9.787896   , -0.00155651453, -0.000911869342, 0.000365593965, -0.224079818, -0.130173922, 0.454631239 , -0.009433028, -0.00850713253, 2.63665128  , 0.38        , 3           , 50          , 0           , 0
-0.0686645061, 0.0999237   , -9.785567   , -0.0011382649, 0.000146863938, 8.665926E-05, -0.224079818, -0.130173922, 0.454631239 , -0.009444418, -0.008505656, 2.63665223  , 0.39        , 3           , 11          , 0.03475349  , 0.0347534865
-0.091646634, 0.112781674 , -9.77213    , 0.00109229551, 0.00173948728, 0.0008770177, -0.22414723 , -0.130241334, 0.4543616   , -0.009632672, -0.008223778, 2.63666224  , 0.4         , 3           , 12          , 0.034895245 , 0
-0.107292138, 0.09133437  , -9.780475   , 0.00180832471, -0.000226692471, 0.00123044418, -0.224214643, -0.130173922, 0.454429    , -0.00961469 , -0.008225926, 2.63667464  , 0.41        , 3           , 50          , 0           , 0
-0.0992922038, 0.07460203  , -9.797207   , 0.004127297 , 0.00197119312, 0.000820865738, -0.224079818, -0.130173922, 0.4543616   , -0.009573481, -0.00820613652, 2.63668275  , 0.42        , 3           , 11          , 0.0177096389, 0.0177096073
-0.09746864 , 0.07369812  , -9.803073   , 0.00215254514, 0.00146508345, 0.000457715942, -0.224079818, -0.130173922, 0.4543616   , -0.009551993, -0.008191442, 2.636687    , 0.43        , 3           , 12          , 0.034895245 , 0
-0.09834537 , 0.07998103  , -9.789946   , -0.0002471632, 0.00137846009, 0.00143529486, -0.224079818, -0.130173922, 0.454294175 , -0.009554582, -0.008177522, 2.63670135  , 0.44        , 3           , 50          , 0           , 0
-0.103986152, 0.09944207  , -9.787647   , 0.00137906754, 0.00089670287, 0.0011595703, -0.223810166, -0.13037616 , 0.454631239 , -0.009540885, -0.008168444, 2.63671279  , 0.45        , 3           , 11          , 0.0177096389, 0.0177096073
-0.122367084, 0.110520914 , -9.797686   , 0.0012393333, 0.000473397376, 9.874543E-05, -0.224349469, -0.130106509, 0.4544964   , -0.009528498, -0.008163701, 2.63671374  , 0.46        , 3           , 12          , 0.034895245 , 0
-0.09987375 , 0.0994244739, -9.796656   , 0.001799145 , 0.00146269437, -0.000179639334, -0.224079818, -0.130106509, 0.4544964   , -0.009510492, -0.008149092, 2.63671184  , 0.47        , 3           , 50          , 0           , 0
-0.1015529  , 0.06882864  , -9.816683   , 0.00165465393, 0.002024867 , -0.0010270424, -0.224079818, -0.130106509, 0.4544964   , -0.009493861, -0.008128941, 2.63670135  , 0.48        , 3           , 11          , 0.0177096389, 0.0177096073
-0.0899064839, 0.08458282  , -9.845455   , 0.001716808 , 0.00399630656, 0.0012366242, -0.22414723 , -0.130173922, 0.4544964   , -0.00947679 , -0.008088863, 2.63671327  , 0.49        , 3           , 12          , 0.034895245 , 0
-0.07970936 , 0.113669761 , -9.809098   , -0.00136780692, 0.003439286 , 0.000796436332, -0.2240124  , -0.130173922, 0.454429    , -0.00939317048, -0.008601332, 2.63672     , 0.5         , 3           , 50          , 0           , 0
-0.0552695021, 0.09693336  , -9.748415   , -0.00347116333, 0.000327742571, -6.582617E-05, -0.223944992, -0.130443573, 0.454226762 , -0.009427877, -0.008598061, 2.63671947  , 0.51        , 3           , 11          , 0.0134418113, 0.0134418188
-0.07748556 , 0.08735013  , -9.773032   , -0.00339346076, -0.00122039055, -0.00105676462, -0.223944992, -0.130443573, 0.454226762 , -0.00946172047, -0.008610364, 2.636709    , 0.52        , 3           , 12          , 0.035091985 , 0
-0.08033957 , 0.100587144 , -9.807801   , -0.000291544682, -0.00014350978, -0.000263673253, -0.224214643, -0.130241334, 0.4544964   , -0.009464614, -0.008611824, 2.63670659  , 0.53        , 3           , 50          , 0           , 0
-0.08014971 , 0.08787097  , -9.784349   , -0.000150861466, -0.000142557343, -0.00118126161, -0.224079818, -0.1305784  , 0.454429    , -0.00946601853, -0.008613362, 2.63669467  , 0.54        , 3           , 11          , 0.0134418113, 0.0134418188
-0.07560281 , 0.05577019  , -9.781284   , -0.000435850146, 0.000348270958, -0.00139372214, -0.223742753, -0.130510986, 0.454294175 , -0.009470257, -0.008610009, 2.63668084  , 0.55        , 3           , 12          , 0.035091985 , 0
-0.08633269 , 0.05957954  , -9.803045   , 0.000414540962, -6.834184E-05, 0.0003754369, -0.223742753, -0.130510986, 0.454294175 , -0.009466142, -0.008610657, 2.63668466  , 0.56        , 3           , 50          , 0           , 0
-0.101099268, 0.07507293  , -9.796766   , 0.0002723637, 0.000141877361, 0.000516372558, -0.224079818, -0.130308747, 0.4543616   , -0.009463464, -0.00860919 , 2.63668942  , 0.57        , 3           , 11          , 0.0134418113, 0.0134418188
-0.1121208  , 0.0977648944, -9.797208   , -0.000288285781, -0.0007770307, -5.27464072E-05, -0.224416882, -0.130241334, 0.4543616   , -0.009466341, -0.008616964, 2.63668942  , 0.58        , 3           , 12          , 0.035091985 , 0
-0.107358024, 0.07521236  , -9.816249   , -0.0006442741, -7.55028959E-05, 0.000864939 , -0.223944992, -0.13037616 , 0.454429    , -0.009472858, -0.008617639, 2.636698    , 0.59        , 3           , 50          , 0           , 0
-0.101604477, 0.1048671   , -9.798906   , 0.0023182733, 0.003179523 , 0.00059959467, -0.223944992, -0.13037616 , 0.454429    , -0.009197917, -0.008803893, 2.63670087  , 0.6         , 3           , 11          , 0.0113597568, 0.0113597447
-0.07531045 , 0.108155914 , -9.795076   , 0.0007758518, 0.0009868895, 0.0008008916, -0.224349469, -0.13037616 , 0.4543616   , -0.009190229, -0.008793952, 2.636709    , 0.61        , 3           , 12          , 0.03534268  , 0
-0.0736765042, 0.09281517  , -9.8010025  , -0.0009101967, -0.0009251391, -0.000763895, -0.224214643, -0.130443573, 0.4544964   , -0.009199264, -0.00880327448, 2.63670182  , 0.62        , 3           , 50          , 0           , 0
-0.08515272 , 0.08791131  , -9.778963   , -0.00287757465, -0.002698286, 0.0007781306, -0.22414723 , -0.130443573, 0.454294175 , -0.009228111, -0.008830183, 2.63670945  , 0.63        , 3           , 11          , 0.0113597568, 0.0113597447
-0.0575945042, 0.0848589838, -9.772438   , -0.0009124322, -0.000432399043, -0.000409963744, -0.22414723 , -0.130443573, 0.454294175 , -0.0092372  , -0.008834545, 2.63670564  , 0.64        , 3           , 12          , 0.03534268  , 0
-0.0639180839, 0.115669914 , -9.78817749 , -7.601112E-05, 0.00154428091, -0.00231010327, -0.224416882, -0.13037616 , 0.454226762 , -0.009237754, -0.00881931651, 2.63668227  , 0.65        , 3           , 50          , 0           , 0
-0.06731446 , 0.0936521143, -9.803662   , 0.000141930243, 0.0006306347, 0.0004442144, -0.22414723 , -0.130241334, 0.4543616   , -0.009236372, -0.008812969, 2.63668656  , 0.66        , 3           , 11          , 0.0113597568, 0.0113597447
-0.100220256, 0.07191634  , -9.800388   , -0.00127081573, 0.0006210819, -0.00062188576, -0.223877579, -0.130241334, 0.4543616   , -0.009249025, -0.008806814, 2.63668036  , 0.67        , 3           , 12          , 0.03534268  , 0
-0.09899419 , 0.102070861 , -9.781723   , -7.40089E-05, 0.00140350475, -5.002066E-05, -0.223877579, -0.130241334, 0.4543616   , -0.009249759, -0.008792785, 2.63668     , 0.68        , 3           , 50          , 0           , 0
-0.07945476 , 0.102791451 , -9.795582   , -0.00204183185, -0.000510430546, -0.0004859743, -0.223944992, -0.13037616 , 0.4543616   , -0.009270135, -0.008797934, 2.63667512  , 0.69        , 3           , 11          , 0.0113597568, 0.0113597447
-0.07405194 , 0.0991320461, -9.79962349 , -0.00185415766, -0.00118697516, 0.00113900308, -0.22414723 , -0.130173922, 0.454294175 , -0.009349272, -0.008754787, 2.636687    , 0.7         , 3           , 12          , 0.0356457531, 0
-0.0898159  , 0.103849269 , -9.8056     , 0.0010351229, -0.000111530724, 0.000518419431, -0.223877579, -0.13037616 , 0.454159349 , -0.009338966, -0.008755853, 2.63669229  , 0.71        , 3           , 50          , 0           , 0
-0.07789636 , 0.113649994 , -9.809536   , 0.00294904853, -0.00164724689, 0.000313019 , -0.223877579, -0.13037616 , 0.454159349 , -0.009309503, -0.008772296, 2.63669515  , 0.72        , 3           , 11          , 0.0101369629, 0.0101369452
-0.102198467, 0.09538463  , -9.794882   , 0.00202923361, -0.00123110588, 0.0005919274, -0.224079818, -0.130241334, 0.454091936 , -0.009289265, -0.008784551, 2.63670135  , 0.73        , 3           , 12          , 0.0356457531, 0
-0.0925997943, 0.103826731 , -9.78935051 , 0.00201996858, 0.00059906597, 0.000241576083, -0.224214643, -0.130173922, 0.454226762 , -0.009269084, -0.008778539, 2.63670373  , 0.74        , 3           , 50          , 0           , 0
-0.0844971538, 0.09744366  , -9.797902   , 0.0002614447, -0.0008206982, -0.000333899225, -0.2240124  , -0.130173922, 0.454294175 , -0.009266443, -0.008786775, 2.63670039  , 0.75        , 3           , 11          , 0.0101369629, 0.0101369452
-0.08017069 , 0.09231748  , -9.764896   , 0.00132218783, -0.00123588566, -0.00110658957, -0.2240124  , -0.130173922, 0.454294175 , -0.009253123, -0.008799236, 2.63668942  , 0.76        , 3           , 12          , 0.0356457531, 0
-0.0785758942, 0.069357045 , -9.78577    , 0.00124766224, -0.000321273663, -4.59932344E-05, -0.224349469, -0.130173922, 0.454091936 , -0.009240644, -0.008802454, 2.63668942  , 0.77        , 3           , 50          , 0           , 0
-0.105644345, 0.07198769  , -9.80269051 , 0.00144714362, 0.00207345979, -0.0008889294, -0.2240124  , -0.12990427 , 0.454226762 , -0.00922609 , -0.008781801, 2.63668     , 0.78        , 3           , 11          , 0.0101369629, 0.0101369452
-0.0927344039, 0.08809541  , -9.807043   , 0.00264876685, 0.00194079755, 0.000175966066, -0.22414723 , -0.130241334, 0.4543616   , -0.0091996165, -0.008762376, 2.6366818   , 0.79        , 3           , 12          , 0.0356457531, 0
-0.07778352 , 0.0950688645, -9.786109   , 0.0027859644, 0.00374101056, -0.000385963765, -0.22414723 , -0.130241334, 0.4543616   , -0.009162818, -0.008776224, 2.636677    , 0.8         , 3           , 50          , 0           , 0
-0.0734927356, 0.109479018 , -9.792344   , 0.00187668961, 0.00190462777, -0.00117004255, -0.22414723 , -0.130443573, 0.454159349 , -0.009143948, -0.008757286, 2.63666558  , 0.81        , 3           , 11          , 0.009381703 , 0.009381694
-0.08627012 , 0.10374476  , -9.787043   , -0.00178620964, 0.0001904091, -0.000695325551, -0.2240124  , -0.130106509, 0.4543616   , -0.00916175 , -0.00875544548, 2.63665843  , 0.82        , 3           , 12          , 0.0359994769, 0
-0.0958257839, 0.09801563  , -9.794372   , -0.000586225535, 0.000339310849, -5.38024433E-05, -0.224282056, -0.130308747, 0.4543616   , -0.009167605, -0.008752058, 2.636658    , 0.83        , 3           , 50          , 0           , 0
-0.07804362 , 0.108620815 , -9.789672   , -0.0008687117, 0.00026700765, -0.0007615716, -0.224282056, -0.130308747, 0.4543616   , -0.009176227, -0.008749458, 2.63665032  , 0.84        , 3           , 11          , 0.009381703 , 0.009381694
-0.0893364847, 0.109668091 , -9.793368   , -0.00163936079, -0.0008645031, 1.00491661E-05, -0.223944992, -0.130308747, 0.454159349 , -0.009192621, -0.008758102, 2.63665032  , 0.85        , 3           , 12          , 0.0359994769, 0
-0.100640975, 0.07239397  , -9.806717   , -0.0007243211, -0.000365558633, -0.000691255031, -0.2240124  , -0.130106509, 0.4543616   , -0.009199806, -0.00876182 , 2.63664365  , 0.86        , 3           , 50          , 0           , 0
-0.112075731, 0.07064817  , -9.784665   , -0.003755367, -0.0013715676, -0.000424393249, -0.223944992, -0.130308747, 0.4543616   , -0.009237324, -0.008775575, 2.63663936  , 0.87        , 3           , 11          , 0.009381703 , 0.009381694
-0.09562955 , 0.08128746  , -9.785399   , -0.00149164826, -0.00220098253, -0.000203256466, -0.224079818, -0.130443573, 0.454091936 , -0.009252225, -0.008797603, 2.636638    , 0.88        , 3           , 12          , 0.0359994769, 0
-0.0845710039, 0.09336667  , -9.792948   , 4.42556229E-05, 0.00125869282, -0.000826407, -0.224079818, -0.130443573, 0.454091936 , -0.009251708, -0.008785091, 2.63662934  , 0.89        , 3           , 50          , 0           , 0
-0.108074367, 0.09680114  , -9.793113   , -0.00150308525, 0.0006864557, -0.000411279732, -0.224214643, -0.130106509, 0.454294175 , -0.009262045, -0.00887487549, 2.636625    , 0.9         , 3           , 11          , 0.008916105 , 0.00891608652
-0.09985841 , 0.102561355 , -9.790316   , 0.0004855439, -0.00155269285, 0.000442079647, -0.224349469, -0.130308747, 0.454429    , -0.00925723 , -0.008890361, 2.63662934  , 0.91        , 3           , 12          , 0.0364019647, 0
-0.08579838 , 0.0690136254, -9.792605   , 0.00069825  , -0.00190322043, -0.00104079687, -0.224079818, -0.130308747, 0.454226762 , -0.009250157, -0.008909488, 2.63661933  , 0.92        , 3           , 50          , 0           , 0
-0.114023954, 0.124418467 , -9.799825   , 0.000696652045, -0.0016216567, -0.00139353459, -0.224079818, -0.130308747, 0.454226762 , -0.009243067, -0.008925833, 2.6366055   , 0.93        , 3           , 11          , 0.008916105 , 0.00891608652
-0.111046888, 0.108603068 , -9.803482   , 0.0009784598, -0.00133817806, -4.97308829E-05, -0.22414723 , -0.130241334, 0.454159349 , -0.009233279, -0.008939219, 2.6366055   , 0.94        , 3           , 12          , 0.0364019647, 0
-0.0786228  , 0.09647225  , -9.797861   , -0.0006473777, -0.00106759754, -0.0009044817, -0.22414723 , -0.130308747, 0.454226762 , -0.009239673, -0.008949977, 2.636596    , 0.95        , 3           , 50          , 0           , 0
-0.07929291 , 0.114974044 , -9.795982   , -0.000164546145, 0.00111787126, -0.00195832946, -0.223944992, -0.130510986, 0.454159349 , -0.009241142, -0.00893898 , 2.636577    , 0.96        , 3           , 11          , 0.008916105 , 0.00891608652
-0.08184222 , 0.09200552  , -9.800164   , -0.0004486783, 0.00160870375, -0.0006874684, -0.223944992, -0.130510986, 0.454159349 , -0.009245566, -0.008922958, 2.63656926  , 0.97        , 3           , 12          , 0.0364019647, 0
-0.105536722, 0.08144825  , -9.798582   , -0.0006372971, -0.00289776549, 0.000858556945, -0.223944992, -0.1300391  , 0.454294175 , -0.00925202 , -0.008951856, 2.6365788   , 0.98        , 3           , 50          , 0           , 0
-0.103281863, 0.07159462  , -9.827985   , -0.0017079392, -0.0005820163, 0.000786563964, -0.224079818, -0.130106509, 0.4543616   , -0.009269168, -0.008957603, 2.63658643  , 0.99        , 3           , 11          , 0.008916105 , 0.00891608652
-0.106124073, 0.100909784 , -9.813873   , 0.0008826485, 0.000388740329, 0.000446398422, -0.223944992, -0.13037616 , 0.454226762 , -0.009280995, -0.00908266753, 2.6365912   , 1           , 3           , 12          , 0.03685121  , 0
-0.07906104 , 0.111218914 , -9.753962   , -0.000660426, -0.00180389639, -0.0004824544, -0.223944992, -0.13037616 , 0.454226762 , -0.009287555, -0.00910075 , 2.63658643  , 1.01        , 3           , 50          , 0           , 0
-0.109919317, 0.0990267545, -9.777752   , -0.00236353278, -0.000196359586, -0.00140610768, -0.224282056, -0.130241334, 0.454294175 , -0.009311065, -0.009102845, 2.63657212  , 1.02        , 3           , 11          , 0.008637817 , 0.008637805
-0.100278914, 0.100807428 , -9.80388451 , -0.000105682469, 0.000382056227, 0.0007243267, -0.224079818, -0.130241334, 0.454294175 , -0.009312187, -0.009098957, 2.63657975  , 1.03        , 3           , 12          , 0.03685121  , 0
-0.103065766, 0.104353279 , -9.775416   , -0.000322667154, 0.00136610016, 0.00023041731, -0.2240124  , -0.13037616 , 0.454294175 , -0.009315434, -0.009085274, 2.63658166  , 1.04        , 3           , 50          , 0           , 0
-0.0831373259, 0.0693829954, -9.777669   , -0.000457136659, 2.77116E-05 , 0.000439600728, -0.2240124  , -0.13037616 , 0.454294175 , -0.009320045, -0.009084957, 2.636586    , 1.05        , 3           , 11          , 0.008637817 , 0.008637805
-0.0794739  , 0.07205191  , -9.778986   , 4.70944833E-05, -0.0020102933, 0.0002268561, -0.224214643, -0.130308747, 0.454159349 , -0.009319595, -0.00910504 , 2.63658834  , 1.06        , 3           , 12          , 0.03685121  , 0
-0.09382522 , 0.08215338  , -9.780862   , 0.0008073072, 0.00130334834, 9.43076E-05 , -0.2240124  , -0.130308747, 0.454294175 , -0.00931153 , -0.00909199752, 2.63658929  , 1.07        , 3           , 50          , 0           , 0
-0.102474168, 0.108031258 , -9.797544   , -0.00130394276, -0.0001891949, -0.0005535567, -0.223877579, -0.1305784  , 0.454159349 , -0.009324519, -0.009093939, 2.63658357  , 1.08        , 3           , 11          , 0.008637817 , 0.008637805
-0.0833542347, 0.108337775 , -9.8209     , 0.001939209 , 0.0008182482, -0.00032499 , -0.223877579, -0.1305784  , 0.454159349 , -0.009305098, -0.009085787, 2.63658071  , 1.09        , 3           , 12          , 0.03685121  , 0
-0.0509713143, 0.10108345  , -9.789495   , 0.000902137544, 0.000120285156, -0.000189396771, -0.2240124  , -0.130308747, 0.454091936 , -0.009356957, -0.00915251 , 2.6365788   , 1.1         , 3           , 50          , 0           , 0
-0.07453163 , 0.103132717 , -9.780175   , -0.000933759147, 0.000107869731, -0.00040986 , -0.2240124  , -0.130241334, 0.4543616   , -0.009366257, -0.009151469, 2.636575    , 1.11        , 3           , 11          , 0.008482455 , 0.00848244
-0.070029445, 0.09859527  , -9.788296   , -1.45186959E-05, -0.000167488164, -0.0004766482, -0.2240124  , -0.130241334, 0.454226762 , -0.009366359, -0.009153189, 2.63657022  , 1.12        , 3           , 12          , 0.0373451263, 0
-0.05933213 , 0.08851062  , -9.778764   , 0.00209791772, 0.00118427479, 0.0010186116, -0.2240124  , -0.130241334, 0.454226762 , -0.009345473, -0.009141252, 2.63658023  , 1.13        , 3           , 50          , 0           , 0
-0.08406654 , 0.09518864  , -9.799717   , 0.002035245 , -0.000435202266, 0.0008745185, -0.224079818, -0.13037616 , 0.454159349 , -0.0093252  , -0.00914552249, 2.63658929  , 1.14        , 3           , 11          , 0.008482455 , 0.00848244
-0.0904395357, 0.09211105  , -9.801586   , -0.000726610364, 0.000953995041, -0.001255183, -0.224079818, -0.130241334, 0.4543616   , -0.00933234952, -0.009136099, 2.63657641  , 1.15        , 3           , 12          , 0.0373451263, 0
-0.06851674 , 0.07556832  , -9.789283   , -0.00178280065, 0.000383703125, -0.0010490861, -0.2240124  , -0.130645812, 0.454226762 , -0.009350082, -0.009132361, 2.636566    , 1.16        , 3           , 50          , 0           , 0
-0.0600509457, 0.101616725 , -9.78233051 , -0.000577529659, -0.000452871027, 0.000297261926, -0.2240124  , -0.130645812, 0.454226762 , -0.009355884, -0.009136862, 2.63656926  , 1.17        , 3           , 11          , 0.008482455 , 0.00848244
-0.08415158 , 0.09110258  , -9.792051   , 0.00111861085, -0.0007933683, 2.20837337E-05, -0.224214643, -0.130308747, 0.454159349 , -0.009344699, -0.009144791, 2.63656926  , 1.18        , 3           , 12          , 0.0373451263, 0
-0.07807785 , 0.10770037  , -9.784252   , -0.0003599109, -0.00150730484, 0.00128550339, -0.224079818, -0.1300391  , 0.454294175 , -0.009348418, -0.009159747, 2.63658214  , 1.19        , 3           , 50          , 0           , 0
-0.0596019924, 0.09893021  , -9.790023   , -0.000844422553, -0.00111619139, 8.53159145E-05, -0.223810166, -0.130241334, 0.454159349 , -0.009424165, -0.008962889, 2.636584    , 1.2         , 3           , 11          , 0.008402864 , 0.008402852
-0.0836580843, 0.09068391  , -9.803348   , -0.0009862256, -0.00118754222, -0.00154004165, -0.223810166, -0.130241334, 0.454159349 , -0.009433891, -0.008974909, 2.63656831  , 1.21        , 3           , 12          , 0.03788159  , 0
-0.1033011  , 0.08095238  , -9.793142   , -0.00147203053, -0.00273948861, -0.000202679948, -0.224079818, -0.130308747, 0.454091936 , -0.009448594, -0.009002323, 2.63656688  , 1.22        , 3           , 50          , 0           , 0
-0.0839593858, 0.07392479  , -9.783532   , -0.00140726671, -0.00154235936, -5.923762E-05, -0.2240124  , -0.130308747, 0.4543616   , -0.009462664, -0.009017752, 2.6365664   , 1.23        , 3           , 11          , 0.008402864 , 0.008402852
-0.109431744, 0.09815693  , -9.789051   , -0.000712188659, 0.00071493705, 0.000230063539, -0.224214643, -0.13037616 , 0.454294175 , -0.009469805, -0.009010579, 2.63656831  , 1.24        , 3           , 12          , 0.03788159  , 0
-0.09197184 , 0.08886159  , -9.76952    , -0.00302750967, -0.00232764613, -0.0002799064, -0.224214643, -0.13037616 , 0.454294175 , -0.00950005651, -0.009033881, 2.636566    , 1.25        , 3           , 50          , 0           , 0
-0.09983567 , 0.103026122 , -9.79438    , -0.0026107356, -0.0009873483, -0.000699676, -0.223944992, -0.130173922, 0.454159349 , -0.009526104, -0.00904382 , 2.63655925  , 1.26        , 3           , 11          , 0.008402864 , 0.008402852
-0.09589018 , 0.0890364349, -9.807516   , -0.001974026, -0.00119422365, -0.00034386653, -0.224282056, -0.130308747, 0.454226762 , -0.009545812, -0.009055795, 2.636556    , 1.27        , 3           , 12          , 0.03788159  , 0
-0.09456452 , 0.08765493  , -9.803896   , -0.00149111275, 0.0009912456, -0.00125644566, -0.224214643, -0.130106509, 0.454429    , -0.009560608, -0.009046003, 2.636543    , 1.28        , 3           , 50          , 0           , 0
-0.09259336 , 0.110080853 , -9.770793   , -0.000285285816, -5.65047E-05, -0.0007580354, -0.224214643, -0.130308747, 0.454091936 , -0.009563394, -0.00904664 , 2.636536    , 1.29        , 3           , 11          , 0.008402864 , 0.008402852
-0.094785   , 0.0794419944, -9.77636051 , -0.00290261023, -0.00137551129, 0.000357777666, -0.224214643, -0.130308747, 0.454091936 , -0.009605755, -0.009099024, 2.6365397   , 1.3         , 3           , 12          , 0.03845843  , 0
-0.103818536, 0.08179802  , -9.774611   , -0.00241902238, 0.000739568437, 1.01650476E-05, -0.2240124  , -0.130241334, 0.454226762 , -0.009629945, -0.009091627, 2.6365397   , 1.31        , 3           , 50          , 0           , 0
-0.09137805 , 0.0929876938, -9.790742   , -0.00234578713, 3.61292E-05 , -0.00147391239, -0.224079818, -0.130173922, 0.454159349 , -0.009653268, -0.009091409, 2.63652444  , 1.32        , 3           , 11          , 0.008365234 , 0.008365224
-0.08159045 , 0.07978585  , -9.79027    , -0.00163531187, -0.000874183141, -0.00168393343, -0.223877579, -0.130308747, 0.454024523 , -0.00966947 , -0.009100313, 2.63650823  , 1.33        , 3           , 12          , 0.03845843  , 0
-0.08507398 , 0.09868753  , -9.763552   , -0.00114107225, -0.0005892688, 0.000720373762, -0.223877579, -0.130308747, 0.454024523 , -0.009680947, -0.009106136, 2.63651538  , 1.34        , 3           , 50          , 0           , 0
-0.08450751 , 0.103684194 , -9.775277   , 0.0008330866, -1.276913E-05, 0.0006598257, -0.22414723 , -0.130510986, 0.454091936 , -0.009672676, -0.009106199, 2.63652158  , 1.35        , 3           , 11          , 0.008365234 , 0.008365224
-0.0916864  , 0.0966808349, -9.814232   , 0.001259804 , -0.0007138188, -4.56273374E-05, -0.224214643, -0.130510986, 0.454159349 , -0.009660075, -0.009113342, 2.63652158  , 1.36        , 3           , 12          , 0.03845843  , 0
-0.1014858  , 0.08405894  , -9.784076   , 0.0007677925, -0.0012099013, -0.000401863159, -0.223944992, -0.13037616 , 0.4539571   , -0.00965236 , -0.0091254795, 2.63651776  , 1.37        , 3           , 50          , 0           , 0
-0.0901481658, 0.0830479339, -9.791226   , 0.00126437179, -0.00148811925, 0.00122459792, -0.223944992, -0.13037616 , 0.4539571   , -0.009639831, -0.009140243, 2.63653016  , 1.38        , 3           , 11          , 0.008365234 , 0.008365224
-0.0895654559, 0.089843154 , -9.801137   , -0.0008535217, -0.00157283561, 0.001143978 , -0.224349469, -0.130308747, 0.454226762 , -0.009648473, -0.009155859, 2.6365416   , 1.39        , 3           , 12          , 0.03845843  , 0
-0.108704634, 0.11622791  , -9.79801    , -0.0005125362, -0.00117021 , 8.569246E-05, -0.224079818, -0.130173922, 0.454294175 , -0.00958405249, -0.00919211 , 2.6365416   , 1.4         , 3           , 50          , 0           , 0
-0.0822582841, 0.101413943 , -9.778886   , -0.00100715377, -0.0010327684, 0.000648679561, -0.224079818, -0.130308747, 0.454226762 , -0.009594184, -0.009202375, 2.63654828  , 1.41        , 3           , 11          , 0.008345621 , 0.008345613
-0.06923019 , 0.09091053  , -9.786965   , -0.0002502372, 0.002773608 , -0.0009664311, -0.224079818, -0.130308747, 0.454226762 , -0.009596596, -0.00917473249, 2.63653874  , 1.42        , 3           , 12          , 0.03907348  , 0
-0.07515706 , 0.118992634 , -9.797742   , 0.0013850953, 0.0004616779, -0.00117434189, -0.224686533, -0.130510986, 0.454159349 , -0.009582636, -0.00917023048, 2.63652682  , 1.43        , 3           , 50          , 0           , 0
-0.0815278962, 0.0811755955, -9.801111   , 0.00349638984, 0.00181343593, -0.00165684416, -0.224282056, -0.130173922, 0.4543616   , -0.009547519, -0.009152255, 2.63651013  , 1.44        , 3           , 11          , 0.008345621 , 0.008345613
-0.103262149, 0.0832157   , -9.795393   , 0.000457898772, 0.00242642849, -0.000398606353, -0.223944992, -0.130510986, 0.454226762 , -0.009542901, -0.009128029, 2.63650584  , 1.45        , 3           , 12          , 0.03907348  , 0
-0.0938207  , 0.07813989  , -9.794889   , -0.00136684242, 2.07064659E-05, -0.00182354217, -0.223944992, -0.130510986, 0.454226762 , -0.009556402, -0.009127996, 2.63648725  , 1.46        , 3           , 50          , 0           , 0
-0.09376537 , 0.07729202  , -9.811165   , 0.00223990181, -0.00115159363, -0.0020204985, -0.22414723 , -0.130510986, 0.454159349 , -0.00953382 , -0.00913970452, 2.63646722  , 1.47        , 3           , 11          , 0.008345621 , 0.008345613
-0.09768126 , 0.09353745  , -9.798019   , -0.00136789132, 0.000372666 , -0.0006222154, -0.2240124  , -0.130173922, 0.454226762 , -0.009547441, -0.009136036, 2.6364615   , 1.48        , 3           , 12          , 0.03907348  , 0
-0.0592521243, 0.0908072   , -9.7909565  , -0.00524232537, -0.0013429838, 0.000345954148, -0.22414723 , -0.130308747, 0.4543616   , -0.009599898, -0.009149433, 2.63646483  , 1.49        , 3           , 50          , 0           , 0
-0.0583778135, 0.08630773  , -9.79774952 , -0.003776084, -0.000437860464, -0.000211268809, -0.22414723 , -0.130308747, 0.4543616   , -0.009569842, -0.009094976, 2.63646245  , 1.5         , 3           , 11          , 0.008329878 , 0.008329868
-0.06660441 , 0.0787534937, -9.803719   , -0.00179442472, -0.0012691837, 0.0006442602, -0.22414723 , -0.130241334, 0.454226762 , -0.009587847, -0.009107605, 2.63646865  , 1.51        , 3           , 12          , 0.0397246   , 0
-0.06557829 , 0.09312376  , -9.786928   , -0.0003759733, -0.00266746245, -0.000481474533, -0.224214643, -0.130241334, 0.454159349 , -0.009591565, -0.009134324, 2.63646436  , 1.52        , 3           , 50          , 0           , 0
-0.08587177 , 0.09566105  , -9.799728   , 0.00214914046, 0.000728508341, -0.000464414916, -0.223944992, -0.130241334, 0.454226762 , -0.00957003 , -0.009127085, 2.63645959  , 1.53        , 3           , 11          , 0.008329878 , 0.008329868
-0.102348596, 0.08901409  , -9.778639   , -0.0034921  , -0.0007175149, 7.215144E-05, -0.223944992, -0.130241334, 0.454226762 , -0.009604958, -0.009134253, 2.63646054  , 1.54        , 3           , 12          , 0.0397246   , 0
-0.09493436 , 0.09397636  , -9.803872   , 0.00216340669, -0.002087141, 9.632045E-05, -0.2240124  , -0.130443573, 0.454024523 , -0.009583334, -0.009155114, 2.6364615   , 1.55        , 3           , 50          , 0           , 0
-0.09913987 , 0.0814207047, -9.812545   , -0.003775758, -0.000437858922, 0.000353805954, -0.224079818, -0.130106509, 0.454294175 , -0.009621125, -0.009159459, 2.63646531  , 1.56        , 3           , 11          , 0.008329878 , 0.008329868
-0.0854581147, 0.08803606  , -9.814672   , 0.0007291314, 0.00240835152, 0.000379216217, -0.223944992, -0.130308747, 0.454226762 , -0.009613868, -0.009135339, 2.63646865  , 1.57        , 3           , 12          , 0.0397246   , 0
-0.08651448 , 0.0883708447, -9.776711   , -0.000958118646, 0.000425924256, -0.00386978476, -0.223944992, -0.130308747, 0.454226762 , -0.00962309353, -0.009131454, 2.63643     , 1.58        , 3           , 50          , 0           , 0
-0.06833196 , 0.0859840959, -9.80099    , -0.00208496372, 0.000136726332, -0.00133264926, -0.224079818, -0.130241334, 0.4539571   , -0.009643821, -0.009130214, 2.63641667  , 1.59        , 3           , 11          , 0.008329878 , 0.008329868
-0.09760256 , 0.0940475762, -9.815643   , -0.00113859831, -0.00202749833, -0.00104962732, -0.224079818, -0.130241334, 0.454024523 , -0.009550865, -0.009052504, 2.63640523  , 1.6         , 3           , 12          , 0.0404096767, 0
-0.107287854, 0.08955244  , -9.787262   , -1.15158909E-05, -0.00145672774, -0.000760954164, -0.22414723 , -0.130308747, 0.454159349 , -0.009550911, -0.009067141, 2.6363976   , 1.61        , 3           , 50          , 0           , 0
-0.0853528157, 0.101958238 , -9.7956295  , 1.35641312E-06, -0.00399081176, -0.000199784612, -0.22414723 , -0.130308747, 0.454159349 , -0.009550883, -0.009107068, 2.63639617  , 1.62        , 3           , 11          , 0.008311357 , 0.00831135
-0.0871034  , 0.108277485 , -9.790194   , 0.000276235049, -0.00229950738, 0.00121682324, -0.224079818, -0.130510986, 0.4539571   , -0.009548233, -0.009129946, 2.63640857  , 1.63        , 3           , 12          , 0.0404096767, 0
-0.0972797  , 0.0872417241, -9.805727   , 0.0008246868, 0.00108309486, 0.00178973924, -0.2240124  , -0.130106509, 0.454024523 , -0.009540149, -0.009118944, 2.63642621  , 1.64        , 3           , 50          , 0           , 0
-0.07762276 , 0.103233434 , -9.799182   , -0.0020010497, 0.00106398819, -0.0007662673, -0.2240124  , -0.130443573, 0.454226762 , -0.009560089, -0.009108377, 2.63641858  , 1.65        , 3           , 11          , 0.008311357 , 0.00831135
-0.07616698 , 0.114008836 , -9.788279   , 0.002231334 , 0.00193733384, -0.000462674, -0.2240124  , -0.130443573, 0.454226762 , -0.009537731, -0.009089049, 2.63641381  , 1.66        , 3           , 12          , 0.0404096767, 0
-0.08340562 , 0.114545032 , -9.788331   , -0.000310833915, 0.00192014233, -0.0010396014, -0.2240124  , -0.130241334, 0.4538223   , -0.009540744, -0.009069948, 2.63640332  , 1.67        , 3           , 50          , 0           , 0
-0.100501627, 0.08188024  , -9.810293   , 0.0005329171, 0.002770571 , 9.58009E-05 , -0.22414723 , -0.1300391  , 0.454091936 , -0.009535423, -0.009042234, 2.63640428  , 1.68        , 3           , 11          , 0.008311357 , 0.00831135
-0.08841713 , 0.07805191  , -9.787616   , -0.002000397, 0.00106399134, 0.0003638824, -0.224079818, -0.13037616 , 0.454226762 , -0.009555458, -0.00903156 , 2.63640761  , 1.69        , 3           , 12          , 0.0404096767, 0
-0.09015851 , 0.08928845  , -9.7686     , 0.0013903277, -0.00115943572, 0.000376370765, -0.22414723 , -0.13037616 , 0.453889728 , -0.009553301, -0.009035548, 2.63641143  , 1.7         , 3           , 50          , 0           , 0
-0.07948451 , 0.105445437 , -9.779751   , 0.0008307237, -0.00228951732, -0.000193073545, -0.22414723 , -0.13037616 , 0.453889728 , -0.009544979, -0.009058461, 2.63641     , 1.71        , 3           , 11          , 0.00827906  , 0.008279055
-0.08361192 , 0.102772765 , -9.775727   , -0.00200109277, -0.000619222759, 0.001209048 , -0.224079818, -0.130308747, 0.454159349 , -0.009565099, -0.009064537, 2.636422    , 1.72        , 3           , 12          , 0.0411266759, 0
-0.06547439 , 0.102581307 , -9.781917   , -0.000582967536, -0.002017503, -0.000481761759, -0.224079818, -0.1300391  , 0.454159349 , -0.009570887, -0.009084757, 2.63641763  , 1.73        , 3           , 50          , 0           , 0
-0.07536037 , 0.103651971 , -9.797355   , -0.00115815736, 0.0002312016, 0.000931763 , -0.2240124  , -0.130308747, 0.4537549   , -0.009582555, -0.00908235647, 2.63642669  , 1.74        , 3           , 11          , 0.00827906  , 0.008279055
-0.0840686038, 0.0898307562, -9.816462   , -0.00115462812, -0.000613496755, -0.000199688482, -0.2240124  , -0.130308747, 0.4537549   , -0.009594083, -0.009088511, 2.63642478  , 1.75        , 3           , 12          , 0.0411266759, 0
-0.0911682546, 0.106994554 , -9.797009   , -0.00340698357, -0.00231817318, -0.00247312756, -0.224079818, -0.130106509, 0.454024523 , -0.009627929, -0.009111929, 2.63640046  , 1.76        , 3           , 50          , 0           , 0
-0.1031645  , 0.09177547  , -9.79174    , -0.000314807025, 0.0008000562, -0.00104118057, -0.224214643, -0.130308747, 0.4543616   , -0.009630982, -0.009104029, 2.63639     , 1.77        , 3           , 11          , 0.00827906  , 0.008279055
-0.07552343 , 0.09236108  , -9.793787   , 0.0005458352, -0.00172829535, 0.0003715521, -0.224079818, -0.130308747, 0.454024523 , -0.009625558, -0.00912127551, 2.63639379  , 1.78        , 3           , 12          , 0.0411266759, 0
-0.07386882 , 0.114902705 , -9.79368    , -2.52470472E-05, -0.000605858455, -0.000759495655, -0.224079818, -0.130308747, 0.454024523 , -0.009625742, -0.009127406, 2.63638616  , 1.79        , 3           , 50          , 0           , 0
-0.09871073 , 0.08987689  , -9.779511   , -0.00293869246, 0.00339665054, -0.00189532025, -0.223877579, -0.130173922, 0.454024523 , -0.00974263251, -0.008992388, 2.636368    , 1.8         , 3           , 11          , 0.008234742 , 0.008234736
-0.111351177, 0.0878244   , -9.795887   , 0.00187297433, 0.00145816733, -0.0007458199, -0.224079818, -0.129971683, 0.4543616   , -0.009723834, -0.008977879, 2.63636041  , 1.81        , 3           , 12          , 0.0418736041, 0
-0.0899353  , 0.09616457  , -9.801113   , 0.00413729763, 0.0009103271, 0.0029368347, -0.2240124  , -0.130308747, 0.454159349 , -0.009682724, -0.008968492, 2.63638949  , 1.82        , 3           , 50          , 0           , 0
-0.08529661 , 0.09977204  , -9.816431   , 0.00132287631, -0.00136129954, 0.00065989414, -0.2240124  , -0.130308747, 0.454159349 , -0.009669555, -0.008982041, 2.63639617  , 1.83        , 3           , 11          , 0.008234742 , 0.008234736
-0.105269849, 0.09951849  , -9.805737   , -0.00151115 , 0.000590556359, 0.00064976234, -0.223877579, -0.130241334, 0.4539571   , -0.009684725, -0.008976072, 2.63640237  , 1.84        , 3           , 12          , 0.0418736041, 0
-0.116602391, 0.0698096   , -9.787867   , -0.00122756662, 2.93283374E-05, -0.00217516324, -0.2240124  , -0.130173922, 0.454226762 , -0.009696807, -0.008975989, 2.636381    , 1.85        , 3           , 50          , 0           , 0
-0.0967229158, 0.09937213  , -9.792112   , 0.000182595249, 0.000602012267, -0.000755023269, -0.224079818, -0.130241334, 0.454024523 , -0.009694912, -0.008970043, 2.6363728   , 1.86        , 3           , 11          , 0.008234742 , 0.008234736
-0.09541799 , 0.0926176459, -9.800718   , -0.00406274945, 0.00254432252, 0.0006409475, -0.224079818, -0.130241334, 0.454024523 , -0.0097355945, -0.008944538, 2.63637948  , 1.87        , 3           , 12          , 0.0418736041, 0
-0.08143677 , 0.0986571   , -9.767139   , -0.00207633 , 0.000586734852, 8.205346E-05, -0.22414723 , -0.130241334, 0.4539571   , -0.009756365, -0.008938664, 2.63638043  , 1.88        , 3           , 50          , 0           , 0
-0.0804873  , 0.100021087 , -9.773454   , -0.00402741 , -0.00449480256, 0.0014777116, -0.224214643, -0.130241334, 0.454091936 , -0.009796773, -0.008983465, 2.63639569  , 1.89        , 3           , 11          , 0.008234742 , 0.008234736
-0.0764862448, 0.08295196  , -9.810104   , -0.0051742103, -3.922981E-05, 0.000348808535, -0.223944992, -0.130173922, 0.4537549   , -0.009840809, -0.009038972, 2.63639855  , 1.9         , 3           , 12          , 0.0426485427, 0
-0.0925441459, 0.103425473 , -9.804267   , 0.002161265 , 0.00141825166, -0.0007449312, -0.223944992, -0.130173922, 0.4537549   , -0.00981912948, -0.009024864, 2.6363914   , 1.91        , 3           , 50          , 0           , 0
-0.08504049 , 0.09603656  , -9.780285   , 0.000183787488, 0.0014048795, -0.00160176225, -0.223877579, -0.130443573, 0.454091936 , -0.009817145, -0.009010973, 2.63637519  , 1.92        , 3           , 11          , 0.008178224 , 0.00817821547
-0.0918367356, 0.09254186  , -9.790747   , 0.000199195871, -0.00141076429, 0.000936735538, -0.224079818, -0.130173922, 0.454091936 , -0.00981524 , -0.009024989, 2.63638473  , 1.93        , 3           , 12          , 0.0426485427, 0
-0.08622391 , 0.100657754 , -9.808298   , 0.000479086681, -0.00112729485, -0.00103927578, -0.224079818, -0.130241334, 0.454226762 , -0.009810356, -0.009036362, 2.63637471  , 1.94        , 3           , 50          , 0           , 0
-0.08561403 , 0.1190801   , -9.787425   , 0.00328506948, 0.00255215028, -0.0013030027, -0.224079818, -0.130241334, 0.454226762 , -0.009777386, -0.00901097 , 2.63636136  , 1.95        , 3           , 11          , 0.008178224 , 0.00817821547
-0.07862391 , 0.100042164 , -9.786096   , -0.00206349627, -0.000862916233, 7.945551E-05, -0.223877579, -0.130106509, 0.454024523 , -0.009798029, -0.009019593, 2.63636184  , 1.96        , 3           , 12          , 0.0426485427, 0
-0.1100964  , 0.08638546  , -9.775092   , -0.001790501, 0.00110995083, 0.000648885034, -0.224214643, -0.1300391  , 0.454226762 , -0.009815992, -0.009008429, 2.636368    , 1.97        , 3           , 50          , 0           , 0
-0.107623711, 0.06383833  , -9.787823   , -0.000388614455, 0.00309045427, -0.000189105063, -0.224214643, -0.1300391  , 0.454024523 , -0.009819858, -0.008977544, 2.63636613  , 1.98        , 3           , 11          , 0.008178224 , 0.00817821547
-0.0886237845, 0.09075448  , -9.807002   , 0.0001947764, -0.000847641961, -0.0018877713, -0.224214643, -0.1300391  , 0.454024523 , -0.009817742, -0.008986205, 2.636347    , 1.99        , 3           , 12          , 0.0426485427, 0
-0.0891841948, 0.1240747   , -9.784269   , 0.00138086965, -0.00201781 , 0.00150530459, -0.224079818, -0.130241334, 0.4539571   , -0.009737115, -0.009076882, 2.63636231  , 2           , 3           , 50          , 0           , 0
-0.0624983162, 0.08542606  , -9.789648   , -0.000601279142, -0.00118648924, -0.000197836882, -0.224214643, -0.130106509, 0.454226762 , -0.00974311 , -0.009088765, 2.63636041  , 2.01        , 3           , 11          , 0.008115752 , 0.008115749
-0.0833049  , 0.1222146   , -9.788299   , -0.000320083171, -0.0009030134, 8.645124E-05, -0.2240124  , -0.130241334, 0.454159349 , -0.009746321, -0.009097788, 2.63636136  , 2.02        , 3           , 12          , 0.0434496664, 0
-0.0663625747, 0.136008129 , -9.789469   , 0.00221799151, -0.0003226981, -0.00159605313, -0.2240124  , -0.130241334, 0.454159349 , -0.009723994, -0.00910117 , 2.63634515  , 2.03        , 3           , 50          , 0           , 0
-0.06566831 , 0.114847839 , -9.805822   , 0.0005169498, 0.00107366964, -0.0007541726, -0.2240124  , -0.130241334, 0.454159349 , -0.009718755, -0.00909050647, 2.63633752  , 2.04        , 3           , 11          , 0.008115752 , 0.008115749
-0.07083625 , 0.103595771 , -9.796417   , -0.000321966625, -0.0006214506, -0.000760727038, -0.224079818, -0.130106509, 0.454091936 , -0.009721907, -0.009096795, 2.63633037  , 2.05        , 3           , 12          , 0.0434496664, 0
-0.09936686 , 0.09946299  , -9.809758   , 0.00504356436, -0.000303592184, 0.000677415868, -0.223944992, -0.130106509, 0.454159349 , -0.009671532, -0.009099765, 2.636337    , 2.06        , 3           , 50          , 0           , 0
-0.0691897348, 0.117650189 , -9.821657   , -0.000319920015, -0.0009030126, 0.000368988723, -0.223944992, -0.130106509, 0.454159349 , -0.009674767, -0.009108758, 2.63634086  , 2.07        , 3           , 11          , 0.008115752 , 0.008115749
-0.105530888, 0.07922122  , -9.8071785  , -0.0008846105, -0.0009068317, 0.000648892368, -0.22414723 , -0.130106509, 0.453889728 , -0.009683673, -0.00911776349, 2.636347    , 2.08        , 3           , 12          , 0.0434496664, 0
-0.106506042, 0.08096086  , -9.78458    , 0.00108614878, 0.0002327953, -0.0004703031, -0.223944992, -0.13037616 , 0.454159349 , -0.009672767, -0.009115482, 2.63634276  , 2.09        , 3           , 50          , 0           , 0
-0.108194828, 0.08509843  , -9.801299   , -0.00378567167, 0.004440954 , -0.00161569787, -0.224214643, -0.1300391  , 0.4539571   , -0.009780302, -0.00904679 , 2.636327    , 2.1         , 3           , 11          , 0.00803963747, 0.008039634
-0.107605465, 0.103504129 , -9.775454   , -0.0006555305, -4.307204E-05, 0.000369607616, -0.224214643, -0.130443573, 0.454024523 , -0.00978689 , -0.009047187, 2.63633037  , 2.11        , 3           , 12          , 0.0442752242, 0
-0.07954298 , 0.09691741  , -9.792895   , 0.00131490245, 0.00109655329, -0.00131466275, -0.224214643, -0.130443573, 0.454024523 , -0.009773622, -0.00903635 , 2.63631749  , 2.12        , 3           , 50          , 0           , 0
-0.0878606439, 0.08214778  , -9.7998     , 0.00101853558, 0.003910294 , -0.00131164037, -0.22414723 , -0.130241334, 0.454091936 , -0.009763314, -0.008997377, 2.63630366  , 2.13        , 3           , 11          , 0.00803963747, 0.008039634
-0.09260261 , 0.09489744  , -9.81740952 , -0.000381052581, 0.0013666586, -0.00132213044, -0.2240124  , -0.130106509, 0.454159349 , -0.009767006, -0.00898384 , 2.63629031  , 2.14        , 3           , 12          , 0.0442752242, 0
-0.107221238, 0.09139182  , -9.797648   , -0.0006524162, -0.000606200658, 0.0009338147, -0.223877579, -0.130173922, 0.4539571   , -0.009773615, -0.008989811, 2.63629937  , 2.15        , 3           , 50          , 0           , 0
-0.09819385 , 0.0908162147, -9.792159   , 0.000754067558, 0.0002480374, -0.00160113594, -0.223877579, -0.130173922, 0.4539571   , -0.00976593047, -0.008987487, 2.63628364  , 2.16        , 3           , 11          , 0.00803963747, 0.008039634
-0.07444518 , 0.06890795  , -9.800656   , -0.00121694361, -0.000610018964, 0.001496256 , -0.22414723 , -0.130443573, 0.4539571   , -0.009778234, -0.008993439, 2.63629842  , 2.17        , 3           , 12          , 0.0442752242, 0
-0.0974541754, 0.07817334  , -9.792206   , 0.00187171844, 0.0027897656, -0.0007443504, -0.22414723 , -0.130241334, 0.454226762 , -0.009759448, -0.008965617, 2.63629079  , 2.18        , 3           , 50          , 0           , 0
-0.103996217, 0.0958631   , -9.796702   , 0.000460073556, 0.00278021814, 9.6677184E-05, -0.2240124  , -0.130443573, 0.454159349 , -0.009754855, -0.008937807, 2.63629174  , 2.19        , 3           , 11          , 0.00803963747, 0.008039634
-0.104070529, 0.09624924  , -9.7772665  , -0.00229917676, 0.00213163137, -0.0007661939, -0.2240124  , -0.130443573, 0.454159349 , -0.009684827, -0.009014873, 2.63628316  , 2.2         , 3           , 12          , 0.0451235548, 0
-0.118263386, 0.111388974 , -9.80172    , 0.0022272754, 0.0007543688, 0.000382856932, -0.224282056, -0.130308747, 0.454024523 , -0.009662587, -0.009007295, 2.636287    , 2.21        , 3           , 50          , 0           , 0
-0.0934160054, 0.141329065 , -9.801405   , 0.00137729547, 0.0010301976, -0.00188095972, -0.224079818, -0.130106509, 0.454294175 , -0.009648644, -0.008997175, 2.636268    , 2.22        , 3           , 11          , 0.0079561   , 0.007956087
-0.08699733 , 0.08299561  , -9.786681   , -0.00200445578, -0.000118973665, 0.00120941375, -0.2240124  , -0.13037616 , 0.454091936 , -0.009668797, -0.008998247, 2.63627982  , 2.23        , 3           , 12          , 0.0451235548, 0
-0.107501343, 0.06795464  , -9.804528   , -3.328157E-05, 0.000739083567, -0.00160544063, -0.2240124  , -0.13037616 , 0.454091936 , -0.009668985, -0.008991012, 2.636264    , 2.24        , 3           , 50          , 0           , 0
-0.103244737, 0.0917104557, -9.772306   , -2.81206449E-05, -0.000105607, 8.848222E-05, -0.224349469, -0.130173922, 0.454091936 , -0.009669273, -0.008992058, 2.63626456  , 2.25        , 3           , 11          , 0.0079561   , 0.007956087
-0.09013744 , 0.08752014  , -9.779456   , -0.00200773333, 0.000444154168, 0.00036266903, -0.22414723 , -0.130106509, 0.454091936 , -0.009689384, -0.008987582, 2.636268    , 2.26        , 3           , 12          , 0.0451235548, 0
-0.06837605 , 0.07925312  , -9.811866   , -0.00200896431, 0.00072572  , 0.000645640539, -0.224079818, -0.130173922, 0.454024523 , -0.009709531, -0.008980263, 2.63627458  , 2.27        , 3           , 50          , 0           , 0
-0.09345551 , 0.09807522  , -9.820115   , 0.000248893339, 0.001022564 , 0.000374072377, -0.224079818, -0.130173922, 0.454024523 , -0.00970707648, -0.008970001, 2.63627839  , 2.28        , 3           , 11          , 0.0079561   , 0.007956087
-0.08264038 , 0.103708275 , -9.788823   , -0.000883601955, 0.00157805451, 0.000369672518, -0.224282056, -0.130173922, 0.4539571   , -0.009715942, -0.008954185, 2.63628221  , 2.29        , 3           , 12          , 0.0451235548, 0
-0.08680102 , 0.0938670859, -9.799744   , 0.00253023463, -0.000124001788, 9.98735341E-05, -0.224079818, -0.130106509, 0.454091936 , -0.009665203, -0.009010224, 2.63628316  , 2.3         , 3           , 50          , 0           , 0
-0.07146053 , 0.09096432  , -9.795117   , -1.11917616E-05, -0.0004227612, -0.00160763739, -0.224079818, -0.130308747, 0.454091936 , -0.009665172, -0.009014606, 2.636267    , 2.31        , 3           , 11          , 0.007867984 , 0.007867977
-0.106107563, 0.07555534  , -9.788667   , -0.00142980646, 0.0009755165, -0.000764440047, -0.224079818, -0.130308747, 0.454091936 , -0.0096793985, -0.009004926, 2.63625932  , 2.32        , 3           , 12          , 0.045993086 , 0
-0.107720762, 0.088681154 , -9.794952   , 0.0005525942, -0.000137374678, -0.00103949476, -0.224079818, -0.13037616 , 0.454024523 , -0.009673779, -0.009006402, 2.63624883  , 2.33        , 3           , 50          , 0           , 0
-0.103906594, 0.106201775 , -9.785359   , -0.00171436858, 0.00153674  , 0.000365260581, -0.224282056, -0.12990427 , 0.454091936 , -0.009690954, -0.008990998, 2.63625216  , 2.34        , 3           , 11          , 0.007867984 , 0.007867977
-0.0645187646, 0.102164879 , -9.79547    , -0.00199245033, 0.0006901355, 0.0006451794, -0.2240124  , -0.129971683, 0.4544964   , -0.009710935, -0.008984035, 2.63625836  , 2.35        , 3           , 12          , 0.045993086 , 0
-0.06383536 , 0.08144211  , -9.80775452 , 0.00224395236, 0.0007187851, 0.0006649334, -0.2240124  , -0.129971683, 0.4544964   , -0.009688555, -0.008976783, 2.636265    , 2.36        , 3           , 50          , 0           , 0
-0.09367992 , 0.0845028758, -9.808874   , -0.00396976434, 0.0006767642, 7.088586E-05, -0.22414723 , -0.130443573, 0.454226762 , -0.00972825848, -0.008970008, 2.636266    , 2.37        , 3           , 11          , 0.007867984 , 0.007867977
-0.102095984, 0.100377545 , -9.803901   , -0.00253852922, -0.0029740273, 0.00176705443, -0.22414723 , -0.130106509, 0.454294175 , -0.009753806, -0.008999575, 2.63628364  , 2.38        , 3           , 12          , 0.045993086 , 0
-0.08340517 , 0.1100819   , -9.802814   , -0.00254696771, -0.001566209, -0.0007736132, -0.224079818, -0.130173922, 0.454294175 , -0.00977920648, -0.00901531149, 2.636276    , 2.39        , 3           , 50          , 0           , 0
-0.0829397738, 0.07177481  , -9.818336   , -0.004515364, -0.00214481982, -0.0005011936, -0.224079818, -0.130173922, 0.454294175 , -0.00981529 , -0.009040188, 2.63627124  , 2.4         , 3           , 11          , 0.00777547341, 0.00777547155
-0.08469674 , 0.08210604  , -9.79842    , -0.00282351626, -0.00128865789, 0.002050847 , -0.224079818, -0.130510986, 0.454024523 , -0.009843713, -0.009052872, 2.63629174  , 2.41        , 3           , 12          , 0.0468823276, 0
-0.08603572 , 0.09329644  , -9.767197   , 3.628753E-06, -0.00211425941, -0.000197585163, -0.224282056, -0.130241334, 0.454091936 , -0.00984366 , -0.009074033, 2.63629031  , 2.42        , 3           , 50          , 0           , 0
-0.08447248 , 0.100588113 , -9.793821   , 0.00140535226, -0.000133757218, -0.001318113, -0.2240124  , -0.130308747, 0.454294175 , -0.009829488, -0.0090755  , 2.636277    , 2.43        , 3           , 11          , 0.00777547341, 0.00777547155
-0.100097053, 0.08228222  , -9.79718    , 0.001110869 , 0.00239842082, -0.000467911945, -0.2240124  , -0.130308747, 0.454294175 , -0.009818333, -0.009051563, 2.63627219  , 2.44        , 3           , 12          , 0.0468823276, 0
-0.08266023 , 0.0969969556, -9.805574   , -0.000284047768, -0.0009899077, 0.0003679084, -0.224282056, -0.130241334, 0.454024523 , -0.009821208, -0.009061428, 2.63627553  , 2.45        , 3           , 50          , 0           , 0
-0.0941163  , 0.09925105  , -9.765427   , -0.00253558764, -0.00269458024, -0.0004928429, -0.224214643, -0.130173922, 0.454294175 , -0.009846522, -0.009088419, 2.63627124  , 2.46        , 3           , 11          , 0.00777547341, 0.00777547155
-0.08165449 , 0.10644085  , -9.799651   , -0.00253575086, -0.002694581, -0.000775380468, -0.224079818, -0.130106509, 0.454294175 , -0.009871813, -0.009115441, 2.63626361  , 2.47        , 3           , 12          , 0.0468823276, 0
-0.06784925 , 0.096269086 , -9.775182   , -0.00113829831, 0.0004121879, 0.000366127235, -0.224079818, -0.130106509, 0.454294175 , -0.009883228, -0.009111282, 2.63626742  , 2.48        , 3           , 50          , 0           , 0
-0.0974541456, 0.113360904 , -9.789801   , -0.00170749682, 0.00125306228, 8.2257684E-05, -0.224214643, -0.130173922, 0.454091936 , -0.00990031 , -0.009098745, 2.636268    , 2.49        , 3           , 11          , 0.00777547341, 0.00777547155
-0.132727712, 0.0746062249, -9.815992   , 0.000829192 , 0.000446834718, 9.316647E-05, -0.224079818, -0.130173922, 0.454226762 , -0.009907546, -0.009058903, 2.63626933  , 2.5         , 3           , 12          , 0.04778988  , 0
-0.117510349, 0.0640157461, -9.805977   , -0.003981822, 0.002385321 , 7.381612E-05, -0.223944992, -0.130241334, 0.454429    , -0.00994737 , -0.009035043, 2.63626981  , 2.51        , 3           , 50          , 0           , 0
-0.06743725 , 0.0864110142, -9.796913   , -0.00424826238, -0.000713801943, 0.001197876 , -0.223944992, -0.130241334, 0.454429    , -0.009989959, -0.009042062, 2.63628221  , 2.52        , 3           , 11          , 0.00768104848, 0.007681047
-0.0927592143, 0.08986071  , -9.795285   , -0.0005665404, -0.0029414976, -0.000483700132, -0.22414723 , -0.130308747, 0.454024523 , -0.009995585, -0.009071524, 2.63627744  , 2.53        , 3           , 12          , 0.04778988  , 0
-0.0967893749, 0.0850350857, -9.822003   , -0.00114886346, 0.0007150315, 0.000649456866, -0.224079818, -0.1305784  , 0.454429    , -0.0100071318, -0.009064309, 2.636284    , 2.54        , 3           , 50          , 0           , 0
-0.106252462, 0.0936641544, -9.805767   , 0.00251341681, 0.00271081924, 0.001517227 , -0.22414723 , -0.130241334, 0.454294175 , -0.009982133, -0.00903705 , 2.63629842  , 2.55        , 3           , 11          , 0.00768104848, 0.007681047
-0.09872189 , 0.0822799   , -9.801238   , -0.00228930777, 0.00267834263, -0.00104799808, -0.224349469, -0.130241334, 0.454226762 , -0.01000493 , -0.009010373, 2.636288    , 2.56        , 3           , 12          , 0.04778988  , 0
-0.0851668641, 0.0838827   , -9.788471   , -0.00114115211, -0.000974362134, -0.000483296433, -0.224349469, -0.130241334, 0.454226762 , -0.0100162979, -0.009020165, 2.63628316  , 2.57        , 3           , 50          , 0           , 0
-0.09876162 , 0.0840330943, -9.785864   , 0.0005548772, -0.000962895341, 0.00206744228, -0.224214643, -0.130308747, 0.454429    , -0.0100109382, -0.009029586, 2.63630414  , 2.58        , 3           , 11          , 0.00768104848, 0.007681047
-0.0800765157, 0.09105473  , -9.792019   , 0.00337061845, 0.000745594152, 0.00180067762, -0.224079818, -0.130308747, 0.454698652 , -0.009977393, -0.00902195 , 2.63632226  , 2.59        , 3           , 12          , 0.04778988  , 0
-0.09133437 , 0.09659388  , -9.789823   , 0.000618553546, 0.00210064137, -0.000189131, -0.224349469, -0.1305784  , 0.454294175 , -0.00983266253, -0.009059039, 2.636319    , 2.6         , 3           , 50          , 0           , 0
-0.08766642 , 0.09524931  , -9.805168   , 0.00174424192, 0.00295297755, 9.99757758E-05, -0.224349469, -0.1305784  , 0.454294175 , -0.009815226, -0.0090295  , 2.6363194   , 2.61        , 3           , 11          , 0.00758469244, 0.00758468965
-0.08131647 , 0.09741553  , -9.80059052 , 0.000629379239, -0.000151880886, -0.0007576774, -0.224282056, -0.130173922, 0.4543616   , -0.00980886351, -0.009031094, 2.63631177  , 2.62        , 3           , 12          , 0.0487144254, 0
-0.0944330841, 0.101598293 , -9.791182   , 0.00260218536, 0.000706184132, -0.0007471571, -0.2244843  , -0.130241334, 0.454631239 , -0.00978277251, -0.009024106, 2.63630414  , 2.63        , 3           , 50          , 0           , 0
-0.08882303 , 0.07586346  , -9.80616    , -0.0004982814, -0.0004410827, 0.0003667706, -0.22414723 , -0.130241334, 0.454563826 , -0.009787789, -0.00902848 , 2.636308    , 2.64        , 3           , 11          , 0.00758469244, 0.00758468965
-0.0716481954, 0.08679511  , -9.762593   , -0.002189565, -0.00101567048, 0.0012056136, -0.22414723 , -0.130241334, 0.454563826 , -0.009809794, -0.009038517, 2.63632035  , 2.65        , 3           , 12          , 0.0487144254, 0
-0.09274693 , 0.0938878059, -9.785325   , -0.003315654, -0.00214957981, -0.00219183951, -0.224214643, -0.130241334, 0.454563826 , -0.009842754, -0.009060227, 2.63629842  , 2.66        , 3           , 50          , 0           , 0
-0.105775043, 0.0692036748, -9.779651   , -0.004728292, -0.00159598864, 0.00175796822, -0.224214643, -0.130308747, 0.454631239 , -0.009890197, -0.009076013, 2.63631654  , 2.67        , 3           , 11          , 0.00758469244, 0.00758468965
-0.09581181 , 0.0717664137, -9.771429   , -0.000226428325, 0.00153177883, -0.00104156218, -0.224349469, -0.130308747, 0.4544964   , -0.009892367, -0.009060798, 2.636306    , 2.68        , 3           , 12          , 0.0487144254, 0
-0.103406608, 0.104449309 , -9.802538   , -0.0005068086, 0.00124830683, 8.6836706E-05, -0.224349469, -0.130308747, 0.4544964   , -0.00989744 , -0.009048308, 2.63630652  , 2.69        , 3           , 50          , 0           , 0
-0.092159614, 0.0993476957, -9.800665   , 0.00154473563, 9.758571E-05, 0.0006584185, -0.22414723 , -0.130241334, 0.454563826 , -0.009759271, -0.009114921, 2.63631177  , 2.7         , 3           , 11          , 0.00748868845, 0.00748868659
-0.0769302547, 0.08474979  , -9.806485   , 0.00126953074, -0.00159372028, -0.00132326421, -0.224416882, -0.1300391  , 0.454563826 , -0.009746457, -0.009130986, 2.63629937  , 2.71        , 3           , 12          , 0.04965471  , 0
-0.08879813 , 0.07677634  , -9.80932    , -0.000698114, -0.00329647562, 0.0003601383, -0.224214643, -0.13037616 , 0.454631239 , -0.009753474, -0.009163915, 2.63630319  , 2.72        , 3           , 50          , 0           , 0
-0.074479714, 0.102728434 , -9.794188   , -0.00238652085, -0.004715765, -0.0010626202, -0.224214643, -0.13037616 , 0.454631239 , -0.009777245, -0.009211174, 2.6362927   , 2.73        , 3           , 11          , 0.00748868845, 0.00748868659
-0.08969411 , 0.109750524 , -9.816422   , 0.00126239762, -0.0001858956, -0.001603632, -0.22414723 , -0.130241334, 0.454631239 , -0.009764475, -0.00921319 , 2.63627648  , 2.74        , 3           , 12          , 0.04965471  , 0
-0.09263027 , 0.09532139  , -9.809273   , 0.000691716 , 0.00121811521, 0.000373665942, -0.22461912 , -0.13037616 , 0.454563826 , -0.009757589, -0.0092009725, 2.6362803   , 2.75        , 3           , 50          , 0           , 0
-0.107437611, 0.07604058  , -9.794098   , 0.000695408555, 0.000373417744, -0.0004752481, -0.22414723 , -0.13037616 , 0.4544964   , -0.009750592, -0.00919728447, 2.63627553  , 2.76        , 3           , 11          , 0.00748868845, 0.00748868659
-0.0877557546, 0.09294517  , -9.790714   , 0.00126133  , 9.567104E-05, -0.00103812316, -0.22414723 , -0.13037616 , 0.4544964   , -0.009737883, -0.00919642951, 2.636265    , 2.77        , 3           , 12          , 0.04965471  , 0
-0.102125958, 0.1052631   , -9.780828   , -0.00157548429, 0.00261065736, -0.00104738714, -0.224079818, -0.130713224, 0.454766065 , -0.009753539, -0.009170427, 2.63625455  , 2.78        , 3           , 50          , 0           , 0
-0.100227356, 0.107544467 , -9.794817   , 0.0018215864, 0.001225756 , 0.0006614712, -0.224349469, -0.130173922, 0.454766065 , -0.009735382, -0.009158106, 2.63626122  , 2.79        , 3           , 11          , 0.00748868845, 0.00748868659
-0.102020174, 0.107134216 , -9.800708   , 0.001816975 , 0.00232132059, 0.002075636 , -0.224282056, -0.130645812, 0.454698652 , -0.009717118, -0.00919157 , 2.63628173  , 2.8         , 3           , 12          , 0.0506095923, 0
-0.09924724 , 0.104916111 , -9.821487   , 0.00238224422, 0.00204357062, 0.000382611062, -0.224282056, -0.130645812, 0.454698652 , -0.009693329, -0.00917109847, 2.636285    , 2.81        , 3           , 50          , 0           , 0
-0.0825973451, 0.09883331  , -9.815057   , 0.000420753349, -0.00106701429, 0.000651156763, -0.22414723 , -0.1305784  , 0.454631239 , -0.009689182, -0.009181705, 2.63629174  , 2.82        , 3           , 11          , 0.007391614 , 0.00739161251
-0.07750872 , 0.0837605745, -9.778922   , -0.000432755769, 5.35129657E-05, -0.00048120803, -0.224416882, -0.130443573, 0.454631239 , -0.009693468, -0.009181215, 2.636287    , 2.83        , 3           , 12          , 0.0506095923, 0
-0.08683376 , 0.100089461 , -9.771694   , -0.001575009, 0.00257995888, -0.0004825704, -0.224214643, -0.130443573, 0.454698652 , -0.009709169, -0.009155464, 2.63628221  , 2.84        , 3           , 50          , 0           , 0
-0.09614813 , 0.110624433 , -9.785734   , -0.00157287368, 0.00201682537, -0.00161358819, -0.224214643, -0.130443573, 0.454698652 , -0.009724749, -0.009135453, 2.636266    , 2.85        , 3           , 11          , 0.007391614 , 0.00739161251
-0.07705281 , 0.1180526   , -9.780133   , -0.00014196492, -0.00163396751, -0.000482494739, -0.224349469, -0.130510986, 0.454698652 , -0.009726127, -0.00915184 , 2.63626122  , 2.86        , 3           , 12          , 0.0506095923, 0
-0.08474055 , 0.126185074 , -9.756654   , 0.0009789631, 0.0003446326, 0.00122103526, -0.224349469, -0.130443573, 0.4549009   , -0.009716448, -0.009148276, 2.63627362  , 2.87        , 3           , 50          , 0           , 0
-0.09468824 , 0.0893401057, -9.768183   , 0.002951606 , 0.00120269682, 0.0009490181, -0.224214643, -0.130308747, 0.454766065 , -0.009687017, -0.009136157, 2.63628268  , 2.88        , 3           , 11          , 0.007391614 , 0.00739161251
-0.08241429 , 0.08700433  , -9.787083   , 0.002958665 , -0.000486699922, -0.00131388509, -0.224214643, -0.130308747, 0.454766065 , -0.009657309, -0.009141151, 2.63626981  , 2.89        , 3           , 12          , 0.0506095923, 0
-0.0680856556, 0.111625634 , -9.778735   , -0.00216569169, -0.000513826963, -0.00133709155, -0.224416882, -0.130510986, 0.454698652 , -0.00975686 , -0.009132509, 2.63625741  , 2.9         , 3           , 50          , 0           , 0
-0.06713246 , 0.112992667 , -9.78595352 , 0.00233255373, 0.00374021  , -0.0007444367, -0.224282056, -0.13037616 , 0.4549009   , -0.009733462, -0.009095183, 2.63624978  , 2.91        , 3           , 11          , 0.007295487 , 0.00729547674
-0.09741831 , 0.0813268647, -9.790836   , 9.19138E-05 , 6.45876353E-05, 0.0003695364, -0.224349469, -0.130308747, 0.454833478 , -0.009732576, -0.009094499, 2.636253    , 2.92        , 3           , 12          , 0.05157797  , 0
-0.06814799 , 0.108004332 , -9.775135   , -0.000481793337, 0.00175015582, -0.000478106, -0.224349469, -0.130308747, 0.454833478 , -0.009737348, -0.009077044, 2.63624787  , 2.93        , 3           , 50          , 0           , 0
-0.06466063 , 0.09178387  , -9.794158   , 0.00206397846, 0.00120422081, 0.00151064072, -0.2240124  , -0.130443573, 0.454766065 , -0.009716846, -0.009064855, 2.63626313  , 2.94        , 3           , 11          , 0.007295487 , 0.00729547674
-0.08530934 , 0.100208074 , -9.811909   , -0.00215364946, -0.00248477166, 0.00261539523, -0.22414723 , -0.130713224, 0.4549009   , -0.00973862 , -0.009089447, 2.63628983  , 2.95        , 3           , 12          , 0.05157797  , 0
-0.0827786252, 0.09065211  , -9.797012   , -0.00188425824, 5.12217666E-05, 0.00177300535, -0.224551708, -0.13037616 , 0.4549683   , -0.009757623, -0.009088761, 2.636307    , 2.96        , 3           , 50          , 0           , 0
-0.105305091, 0.0972581953, -9.80439    , -0.00329490937, -0.0005214644, -0.000494746841, -0.224282056, -0.1305784  , 0.454833478 , -0.009790529, -0.009094025, 2.63630223  , 2.97        , 3           , 11          , 0.007295487 , 0.00729547674
-0.09811222 , 0.09534586  , -9.797564   , -0.00187466328, -0.00191973452, 0.00148743042, -0.224282056, -0.1305784  , 0.454833478 , -0.009809412, -0.009113075, 2.63631749  , 2.98        , 3           , 12          , 0.05157797  , 0
-0.08616878 , 0.0771200061, -9.786699   , 0.0009255805, 0.00288597  , 0.0009429015, -0.224416882, -0.13037616 , 0.454833478 , -0.00980023947, -0.009084124, 2.63632655  , 2.99        , 3           , 50          , 0           , 0
-0.105799921, 0.103478342 , -9.774085   , 0.000663682644, 0.000364568434, 0.000372731127, -0.2244843  , -0.1305784  , 0.455035716 , -0.009777153, -0.009051488, 2.63633037  , 3           , 3           , 11          , 0.007201259 , 0.00720124738
-0.09668011 , 0.0967287347, -9.811106   , -0.003289388, 5.62614441E-05, -0.00049375213, -0.224282056, -0.130713224, 0.454766065 , -0.00981000252, -0.009050973, 2.63632512  , 3.01        , 3           , 12          , 0.0525588319, 0
-0.110854477, 0.0891937   , -9.802206   , -0.003002038, -0.00106809207, -0.00162432087, -0.224282056, -0.130713224, 0.454766065 , -0.009839877, -0.009061812, 2.63630939  , 3.02        , 3           , 50          , 0           , 0
-0.08189754 , 0.0928534   , -9.78389    , -0.00158146559, -0.00246636034, 0.000922931242, -0.224282056, -0.130443573, 0.4549683   , -0.009855776, -0.00908638351, 2.63631845  , 3.03        , 3           , 11          , 0.007201259 , 0.00720124738
-0.06467226 , 0.08865     , -9.801403   , -0.0007527966, 0.001199713 , 8.491076E-05, -0.224282056, -0.130308747, 0.455103129 , -0.009863312, -0.009074379, 2.6363194   , 3.04        , 3           , 12          , 0.0525588319, 0
-0.07882689 , 0.08514811  , -9.784351   , -0.00130805536, -0.000775063236, -0.0002032979, -0.224282056, -0.130510986, 0.454766065 , -0.009876373, -0.009082149, 2.63631749  , 3.05        , 3           , 50          , 0           , 0
-0.0714534  , 0.0905237645, -9.798284   , 0.000389130466, -0.00132673443, -0.000478801667, -0.224282056, -0.130510986, 0.454766065 , -0.00987244 , -0.009095463, 2.63631272  , 3.06        , 3           , 11          , 0.007201259 , 0.00720124738
-0.09427777 , 0.07992713  , -9.788106   , 0.000954310352, -0.001322913, 8.890695E-05, -0.2244843  , -0.130510986, 0.455035716 , -0.009862906, -0.009108682, 2.63631368  , 3.07        , 3           , 12          , 0.0525588319, 0
-0.08671241 , 0.06767836  , -9.794878   , 0.001499648 , 0.00262281834, 9.76158844E-05, -0.224282056, -0.130308747, 0.455170542 , -0.009847917, -0.009082446, 2.63631463  , 3.08        , 3           , 50          , 0           , 0
-0.08034055 , 0.09924729  , -9.811875   , 0.00235529244, 0.0009391575, 9.896308E-05, -0.224214643, -0.130308747, 0.455035716 , -0.009824372, -0.009073046, 2.63631558  , 3.09        , 3           , 11          , 0.007201259 , 0.00720124738
-0.0844275653, 0.09571465  , -9.820508   , 0.0007103671, 0.000106347128, 0.00121978472, -0.224214643, -0.130308747, 0.455035716 , -0.009725523, -0.009024008, 2.636327    , 3.1         , 3           , 12          , 0.0535512157, 0
-0.08409318 , 0.089364484 , -9.811945   , -0.00209798873, -0.00329153752, -0.000211279, -0.224282056, -0.130645812, 0.455103129 , -0.009746486, -0.009056942, 2.63632512  , 3.11        , 3           , 50          , 0           , 0
-0.0976306945, 0.0989346355, -9.793025   , -0.000417531119, -0.000464427518, -0.000481575553, -0.224282056, -0.130510986, 0.455035716 , -0.009750619, -0.009061634, 2.63632035  , 3.12        , 3           , 11          , 0.007108086 , 0.00710807927
-0.100460939, 0.08905481  , -9.797155   , 0.00155987183, -0.0007326276, -0.00216801581, -0.224349469, -0.130510986, 0.4549683   , -0.009734824, -0.009069171, 2.63629937  , 3.13        , 3           , 12          , 0.0535512157, 0
-0.0952857658, 0.102544472 , -9.801128   , 0.00212447369, -0.000447237078, -0.000187185622, -0.224349469, -0.130510986, 0.4549683   , -0.009713562, -0.009073662, 2.63629746  , 3.14        , 3           , 50          , 0           , 0
-0.104391754, 0.105288148 , -9.78039551 , 0.0009877961, 0.00095294835, -0.0001902837, -0.224214643, -0.130713224, 0.4549683   , -0.009703666, -0.009064151, 2.63629556  , 3.15        , 3           , 11          , 0.007108086 , 0.00710807927
-0.118873186, 0.103232741 , -9.789555   , 0.0001332194, 0.00235504238, -0.000757139758, -0.224416882, -0.130443573, 0.4549683   , -0.009702263, -0.009040674, 2.63628745  , 3.16        , 3           , 12          , 0.0535512157, 0
-0.101621695, 0.101728693 , -9.804795   , 0.0004202433, 0.00123068725, -0.00245278352, -0.224214643, -0.130510986, 0.455035716 , -0.009697839, -0.009028607, 2.63626266  , 3.17        , 3           , 50          , 0           , 0
-0.0855077356, 0.09156665  , -9.791155   , 0.00437585032, 0.0012574346, 0.000391028152, -0.224214643, -0.130510986, 0.455035716 , -0.009654114, -0.009015995, 2.636267    , 3.18        , 3           , 11          , 0.007108086 , 0.00710807927
-0.09452142 , 0.09304607  , -9.797093   , 0.00155994622, -0.0004510554, 0.000375255215, -0.224416882, -0.130713224, 0.4549009   , -0.009638548, -0.009020469, 2.63627076  , 3.19        , 3           , 12          , 0.0535512157, 0
-0.104071274, 0.09267783  , -9.78858    , 0.00211135671, 0.0009224523, 0.000379727921, -0.224551708, -0.130443573, 0.455035716 , -0.009631165, -0.009091956, 2.636274    , 3.2         , 3           , 50          , 0           , 0
-0.09685215 , 0.0858769044, -9.803921   , -0.000700617558, -0.00134916254, 0.00234084972, -0.22414723 , -0.130510986, 0.455103129 , -0.009638388, -0.009105221, 2.63629746  , 3.21        , 3           , 11          , 0.007016281 , 0.007016272
-0.09843527 , 0.09679534  , -9.824677   , 0.00182941894, 0.0009205446, 0.00122602354, -0.22414723 , -0.130510986, 0.455103129 , -0.009620203, -0.009095899, 2.63630986  , 3.22        , 3           , 12          , 0.0545542277, 0
-0.09986915 , 0.09808915  , -9.802085   , 0.000697665266, 0.00119446672, 9.10397357E-05, -0.224282056, -0.130443573, 0.4549683   , -0.009613234, -0.009083945, 2.63631082  , 3.23        , 3           , 50          , 0           , 0
-0.08698729 , 0.111496024 , -9.808259   , -0.00155338494, -0.000510203361, 7.79006659E-05, -0.224349469, -0.130443573, 0.455170542 , -0.009628775, -0.00908904 , 2.63631177  , 3.24        , 3           , 11          , 0.007016281 , 0.007016272
-0.082187444, 0.091205284 , -9.829098   , 0.000141917117, -0.0007803118, -0.00104478141, -0.224551708, -0.13037616 , 0.455237955 , -0.009627262, -0.009096944, 2.63630128  , 3.25        , 3           , 12          , 0.0545542277, 0
-0.08109404 , 0.108308174 , -9.819979   , 0.0007075865, -0.0007764879, 0.000370539667, -0.224551708, -0.13037616 , 0.455237955 , -0.00962022 , -0.009104672, 2.636305    , 3.26        , 3           , 50          , 0           , 0
-0.0857984647, 0.101523    , -9.79879951 , 0.00183664123, -0.000768851256, -0.0007543423, -0.224282056, -0.130645812, 0.4549009   , -0.009601786, -0.00911243353, 2.63629746  , 3.27        , 3           , 11          , 0.007016281 , 0.007016272
-0.09401858 , 0.09263496  , -9.810651   , 0.0009827169, 0.000633245858, -0.000191048443, -0.224349469, -0.130241334, 0.455237955 , -0.009591942, -0.009106119, 2.63629556  , 3.28        , 3           , 12          , 0.0545542277, 0
-0.0609333478, 0.09762898  , -9.800885   , -0.001281369, 0.001462659 , -0.00104789459, -0.224416882, -0.1305784  , 0.455305368 , -0.009604659, -0.009091594, 2.636285    , 3.29        , 3           , 50          , 0           , 0
-0.10381268 , 0.07198305  , -9.807648   , -0.00270612747, 5.94718149E-05, -0.00218644529, -0.224416882, -0.1305784  , 0.455305368 , -0.009672911, -0.009060204, 2.63626361  , 3.3         , 3           , 11          , 0.00692612771, 0.00692610862
-0.111377381, 0.08512506  , -9.798159   , -0.00270933053, 0.0009041717, -0.0004899185, -0.22414723 , -0.130510986, 0.4549683   , -0.009699957, -0.00905121 , 2.63625836  , 3.31        , 3           , 12          , 0.0555670336, 0
-0.0879063  , 0.08344983  , -9.784427   , -0.001008289, -0.0004921961, -0.00133179908, -0.224282056, -0.13037616 , 0.455237955 , -0.00970992 , -0.009056262, 2.63624549  , 3.32        , 3           , 50          , 0           , 0
-0.0895427  , 0.08271998  , -9.829641   , -0.00129013765, -0.0007756751, -0.00274623744, -0.2244843  , -0.130510986, 0.455237955 , -0.009722574, -0.009064284, 2.63621831  , 3.33        , 3           , 11          , 0.00692612771, 0.00692610862
-0.0896934643, 0.110643752 , -9.813706   , -0.001575693, 0.000348686939, 0.00149224361, -0.2244843  , -0.130510986, 0.455237955 , -0.009738467, -0.009060654, 2.63623261  , 3.34        , 3           , 12          , 0.0555670336, 0
-0.08403034 , 0.09878876  , -9.796989   , -0.000432209141, -0.00245932443, 0.00121063448, -0.22414723 , -0.1305784  , 0.455103129 , -0.009742899, -0.009085126, 2.636245    , 3.35        , 3           , 50          , 0           , 0
-0.09910522 , 0.0854659453, -9.808008   , 0.002089301 , 0.00149977219, -0.000184125267, -0.224416882, -0.130443573, 0.455372781 , -0.009721988, -0.009070147, 2.636243    , 3.36        , 3           , 11          , 0.00692612771, 0.00692610862
-0.09239736 , 0.0777302459, -9.812056   , -0.000148714549, -0.00273898127, 0.0006464425, -0.224551708, -0.1305784  , 0.455305368 , -0.009723537, -0.009097473, 2.63624978  , 3.37        , 3           , 12          , 0.0555670336, 0
-0.0781418  , 0.0942580551, -9.811879   , 0.0006768401, 0.00149022066, -0.0007557849, -0.224214643, -0.130443573, 0.4549683   , -0.009716699, -0.009082643, 2.63624215  , 3.38        , 3           , 50          , 0           , 0
-0.09273443 , 0.0956833363, -9.782605   , 0.000126000858, -0.001047678, 0.00178051286, -0.224214643, -0.130443573, 0.4549683   , -0.009715601, -0.009092947, 2.63626027  , 3.39        , 3           , 11          , 0.00692612771, 0.00692610862
-0.104335748, 0.097745575 , -9.818393   , 0.00182068453, 0.0023381433, -0.000184321209, -0.2244843  , -0.130443573, 0.455170542 , -0.009656842, -0.009079528, 2.63625836  , 3.4         , 3           , 12          , 0.05658885  , 0
-0.09875448 , 0.08359253  , -9.789029   , 0.00265992759, 0.004033265 , 0.000387307926, -0.22414723 , -0.130443573, 0.455237955 , -0.009630273, -0.00903916 , 2.63626122  , 3.41        , 3           , 50          , 0           , 0
-0.108207464, 0.08821265  , -9.788178   , 0.0012582927, 0.00177119114, -0.000752897933, -0.224349469, -0.130241334, 0.455170542 , -0.009617621, -0.009021523, 2.6362536   , 3.42        , 3           , 11          , 0.006838262 , 0.00683824
-0.08573082 , 0.07978078  , -9.774482   , 0.000134487767, 0.0006372927, -0.00019482644, -0.224349469, -0.130241334, 0.455170542 , -0.009616259, -0.009015169, 2.63625169  , 3.43        , 3           , 12          , 0.05658885  , 0
-0.0709282  , 0.09771872  , -9.792826   , 0.000693928567, 0.00176737364, 9.208043E-05, -0.224349469, -0.130443573, 0.455237955 , -0.009609326, -0.008997488, 2.63625264  , 3.44        , 3           , 50          , 0           , 0
-0.0700861663, 0.09497851  , -9.786052   , 0.0009858614, 7.98986657E-05, 0.00206855615, -0.224349469, -0.13037616 , 0.455170542 , -0.009599654, -0.00899648853, 2.63627315  , 3.45        , 3           , 11          , 0.006838262 , 0.00683824
-0.0803817958, 0.07652415  , -9.764059   , -0.000129579508, -0.00274339039, 0.002624024 , -0.2244843  , -0.130510986, 0.455237955 , -0.009601188, -0.009023669, 2.63629937  , 3.46        , 3           , 12          , 0.05658885  , 0
-0.08702434 , 0.0843127742, -9.775829   , -0.00155203545, -0.00106355932, -0.0007704066, -0.2244843  , -0.130510986, 0.455237955 , -0.00961664 , -0.009034378, 2.63629174  , 3.47        , 3           , 50          , 0           , 0
-0.0839521959, 0.101083845 , -9.808731   , -0.0009966135, 0.000911217765, -0.000199660222, -0.224282056, -0.130510986, 0.455305368 , -0.009626587, -0.009025287, 2.63628983  , 3.48        , 3           , 11          , 0.006838262 , 0.00683824
-0.0840252861, 0.100578263 , -9.792462   , 0.00125894533, 0.00177119428, 0.000377251767, -0.224282056, -0.130645812, 0.455305368 , -0.009614031, -0.009007539, 2.63629365  , 3.49        , 3           , 12          , 0.05658885  , 0
-0.0958213955, 0.09891186  , -9.792559   , -0.0015366677, -0.001896141, -0.0004891391, -0.224416882, -0.130645812, 0.455237955 , -0.009603775, -0.008998437, 2.636289    , 3.5         , 3           , 50          , 0           , 0
-0.0909537449, 0.122344278 , -9.800108   , 0.001280052 , -0.000187647063, 0.000939320948, -0.224416882, -0.130645812, 0.455237955 , -0.009591058, -0.009000225, 2.63629842  , 3.51        , 3           , 11          , 0.00675240159, 0.0067523825
-0.08877869 , 0.115550414 , -9.80012    , 0.00156166323, -0.000185741024, -0.000472049258, -0.22461912 , -0.130443573, 0.455237955 , -0.0095754005, -0.009002128, 2.63629365  , 3.52        , 3           , 12          , 0.05761895  , 0
-0.09746682 , 0.0812875554, -9.779085   , -0.00041966993, 0.0006455837, -0.0007625035, -0.224282056, -0.130443573, 0.4554402   , -0.009579528, -0.008995744, 2.636286    , 3.53        , 3           , 50          , 0           , 0
-0.08817883 , 0.097884424 , -9.782109   , 0.000429983542, 0.0003697532, 0.000936238 , -0.224349469, -0.130443573, 0.455372781 , -0.009575312, -0.008991958, 2.636295    , 3.54        , 3           , 11          , 0.00675240159, 0.0067523825
-0.0755341947, 0.0954768   , -9.781118   , 0.00126308645, 0.00290956115, -0.00188128033, -0.224349469, -0.130443573, 0.455372781 , -0.00956251 , -0.008963044, 2.636276    , 3.55        , 3           , 12          , 0.05761895  , 0
-0.09905957 , 0.09175183  , -9.798942   , -0.00211144285, 7.099369E-05, -0.000771272869, -0.224349469, -0.13037616 , 0.455103129 , -0.009583555, -0.008962408, 2.63626838  , 3.56        , 3           , 50          , 0           , 0
-0.09880277 , 0.08132165  , -9.784518   , -0.000134455055, 8.436347E-05, -0.000762054347, -0.224416882, -0.130443573, 0.455372781 , -0.009584831, -0.0089616375, 2.63626027  , 3.57        , 3           , 11          , 0.00675240159, 0.0067523825
-0.0889286  , 0.0717607662, -9.793523   , 0.00183523644, 0.00150555721, -0.00131574122, -0.224416882, -0.130645812, 0.455305368 , -0.00956636 , -0.008946707, 2.6362474   , 3.58        , 3           , 12          , 0.05761895  , 0
-0.08206826 , 0.0762001   , -9.795712   , 0.00157256308, -0.00215669116, 0.00150267547, -0.224416882, -0.130645812, 0.455305368 , -0.009550769, -0.008968129, 2.63626266  , 3.59        , 3           , 50          , 0           , 0
-0.078163214, 0.09557976  , -9.80238152 , 0.0004550535, 8.29820347E-05, 0.000935543445, -0.224416882, -0.13037616 , 0.455237955 , -0.009489726, -0.008979651, 2.63627172  , 3.6         , 3           , 11          , 0.00666878  , 0.00666876324
-0.07551956 , 0.0874543563, -9.810531   , 0.000168043945, 0.0006441936, -0.00217281771, -0.224416882, -0.130443573, 0.455372781 , -0.00948785 , -0.008973415, 2.63624978  , 3.61        , 3           , 12          , 0.0586566553, 0
-0.0560694337, 0.0858708248, -9.809937   , -0.000682765851, 0.001483162 , -0.00104531681, -0.224416882, -0.1305784  , 0.455237955 , -0.009494583, -0.008958683, 2.63623929  , 3.62        , 3           , 50          , 0           , 0
-0.06299186 , 0.110766158 , -9.808982   , -0.00209826627, 0.00231831148, 0.000362087565, -0.224416882, -0.1305784  , 0.455237955 , -0.00951559749, -0.008935466, 2.63624263  , 3.63        , 3           , 11          , 0.00666878  , 0.00666876324
-0.07355856 , 0.103623129 , -9.795081   , -0.00322411768, 0.00146597472, -0.000209556718, -0.224551708, -0.1305784  , 0.455237955 , -0.009547818, -0.008920828, 2.63624024  , 3.64        , 3           , 12          , 0.0586566553, 0
-0.08697389 , 0.111953229 , -9.810064   , -0.00124171725, 0.0003530834, -0.000484611432, -0.224416882, -0.1305784  , 0.4554402   , -0.009560191, -0.008917346, 2.63623548  , 3.65        , 3           , 50          , 0           , 0
-0.09119411 , 0.0971538946, -9.822362   , -0.000686621643, 0.002327859 , -0.00047894 , -0.224416882, -0.130510986, 0.455372781 , -0.009567014, -0.008894112, 2.63623071  , 3.66        , 3           , 11          , 0.00666878  , 0.00666876324
-0.1005995  , 0.110739574 , -9.804298   , -0.000403705373, 0.00232977141, 0.000369989139, -0.224416882, -0.130510986, 0.455372781 , -0.009571081, -0.00887078 , 2.63623357  , 3.67        , 3           , 12          , 0.0586566553, 0
-0.06137703 , 0.09987343  , -9.795908   , 0.001287415 , 0.00290435832, -0.000751391053, -0.22414723 , -0.130510986, 0.455237955 , -0.00955813751, -0.00884181 , 2.636226    , 3.68        , 3           , 50          , 0           , 0
-0.06351633 , 0.114730552 , -9.77868748 , 0.00185784465, 0.00178191776, -0.000750492967, -0.224282056, -0.13037616 , 0.4554402   , -0.0095394915, -0.008824063, 2.63621831  , 3.69        , 3           , 11          , 0.00666878  , 0.00666876324
-0.08081432 , 0.103699118 , -9.792425   , 0.00155020633, 0.000127662061, 0.000376464217, -0.224349469, -0.130443573, 0.4554402   , -0.009608185, -0.008731688, 2.636223    , 3.7         , 3           , 12          , 0.0597013161, 0
-0.08830537 , 0.115561754 , -9.805088   , -0.00268529146, -0.000182554926, -0.00049133593, -0.224349469, -0.130443573, 0.4554402   , -0.009634995, -0.008733562, 2.63621831  , 3.71        , 3           , 50          , 0           , 0
-0.08546539 , 0.09338638  , -9.795668   , 0.004383491 , -0.0015426256, 0.00151718012, -0.224416882, -0.130645812, 0.4554402   , -0.009591295, -0.008748841, 2.63623357  , 3.72        , 3           , 11          , 0.006587597 , 0.00658757752
-0.0935761258, 0.09887017  , -9.788023   , 0.00126654841, 0.000407317944, 0.000658118748, -0.224551708, -0.1305784  , 0.4554402   , -0.009578686, -0.00874470547, 2.63624024  , 3.73        , 3           , 12          , 0.0597013161, 0
-0.09800885 , 0.106588371 , -9.786668   , -0.0009983534, 0.00123672711, -0.0016114146, -0.2244843  , -0.130443573, 0.455305368 , -0.009588529, -0.008732492, 2.636224    , 3.74        , 3           , 50          , 0           , 0
-0.08649911 , 0.08391981  , -9.794809   , -0.001004834, 0.002644555 , -0.000761632458, -0.2244843  , -0.130443573, 0.455305368 , -0.009598508, -0.008706122, 2.636216    , 3.75        , 3           , 11          , 0.006587597 , 0.00658757752
-0.07811682 , 0.105437055 , -9.782001   , 0.000412298046, 0.00180941343, 0.000656337652, -0.224282056, -0.130443573, 0.455103129 , -0.00959444 , -0.008687965, 2.63622212  , 3.76        , 3           , 12          , 0.0597013161, 0
-0.0760574  , 0.126149088 , -9.776024   , 0.00437291665, 0.00042832605, 0.00010753  , -0.224416882, -0.13037616 , 0.4554402   , -0.00955071952, -0.008683674, 2.63622355  , 3.77        , 3           , 50          , 0           , 0
-0.08092833 , 0.09825053  , -9.782052   , -0.000147721032, 0.0009609014, 0.00178255176, -0.224416882, -0.130308747, 0.455372781 , -0.009552353, -0.008673893, 2.6362412   , 3.78        , 3           , 11          , 0.006587597 , 0.00658757752
-0.09112297 , 0.07764626  , -9.791707   , -0.000714043, 0.0009570743, -0.000762919139, -0.224551708, -0.13037616 , 0.455237955 , -0.00955942553, -0.008664396, 2.63623357  , 3.79        , 3           , 12          , 0.0597013161, 0
-0.0661793649, 0.111681484 , -9.801771   , 0.00407551043, -0.0012594593, 0.00066897925, -0.224551708, -0.13037616 , 0.455237955 , -0.009578561, -0.008668044, 2.6362412   , 3.8         , 3           , 50          , 0           , 0
-0.09606911 , 0.111581169 , -9.802      , 0.00152776681, -0.000150390217, 9.37875448E-05, -0.224416882, -0.130308747, 0.455305368 , -0.009563292, -0.008669539, 2.63624215  , 3.81        , 3           , 11          , 0.00650833827, 0.006508336
-0.09215686 , 0.09801089  , -9.805642   , 0.006607268 , 0.000728684536, 0.000118794167, -0.2244843  , -0.13037616 , 0.4555076   , -0.009497229, -0.008662241, 2.636243    , 3.82        , 3           , 12          , 0.0607523434, 0
-0.113428481, 0.10585621  , -9.783625   , 0.00153186009, -0.0007135141, 0.00235321978, -0.224349469, -0.130645812, 0.455237955 , -0.009482115, -0.008669153, 2.636267    , 3.83        , 3           , 50          , 0           , 0
-0.0693842  , 0.114368163 , -9.784609   , -0.000149902873, -0.00354062975, 0.0003632162, -0.224349469, -0.130645812, 0.455237955 , -0.00948364753, -0.008704521, 2.63627076  , 3.84        , 3           , 11          , 0.00650833827, 0.006508336
-0.07527183 , 0.109972619 , -9.798684   , 0.00238603656, -0.0023971817, -0.000188270351, -0.224282056, -0.130510986, 0.455372781 , -0.009459774, -0.00872851 , 2.63626885  , 3.85        , 3           , 12          , 0.0607523434, 0
-0.0908085853, 0.09441595  , -9.814687   , 0.00010661612, 0.001529447 , -0.00104034331, -0.2244843  , -0.130443573, 0.4554402   , -0.00945861451, -0.008713314, 2.63625836  , 3.86        , 3           , 50          , 0           , 0
-0.101074576, 0.07821739  , -9.79268551 , -0.00130642264, 0.00180146471, -0.000198881491, -0.224551708, -0.130510986, 0.4554402   , -0.00947166 , -0.00869532 , 2.63625646  , 3.87        , 3           , 11          , 0.00650833827, 0.006508336
-0.0941594  , 0.0938598961, -9.772228   , 0.001813471 , -0.000711608038, 0.0009418492, -0.224551708, -0.130510986, 0.4554402   , -0.009453609, -0.008702345, 2.636266    , 3.88        , 3           , 12          , 0.0607523434, 0
-0.089108184, 0.09341227  , -9.790722   , 0.00210442534, -0.00239908765, 0.00122309988, -0.224551708, -0.130645812, 0.4554402   , -0.009432673, -0.00872622 , 2.63627839  , 3.89        , 3           , 50          , 0           , 0
-0.0754908547, 0.0986363739, -9.781558   , 0.00206590514, 0.0009663584, 9.821794E-05, -0.224349469, -0.130173922, 0.455575019 , -0.009466923, -0.008751169, 2.63627982  , 3.9         , 3           , 11          , 0.00643098261, 0.006430977
-0.0739274  , 0.1112844   , -9.790985   , 0.0006698465, -0.00242197514, -0.00104372378, -0.224349469, -0.130510986, 0.4555076   , -0.009460136, -0.008775486, 2.63626981  , 3.91        , 3           , 12          , 0.0618091673, 0
-0.09210802 , 0.0984968   , -9.816036   , 0.0005169472, -2.96264261E-05, -0.0007581564, -0.224349469, -0.130510986, 0.4555076   , -0.00945489947, -0.008775856, 2.63626218  , 3.92        , 3           , 50          , 0           , 0
-0.08508887 , 0.0910875052, -9.784374   , 0.0006507383, 0.00151993753, -0.000331304967, -0.2244843  , -0.13037616 , 0.455575019 , -0.009448362, -0.008760687, 2.63625836  , 3.93        , 3           , 11          , 0.00643098261, 0.006430977
-0.07971777 , 0.08740242  , -9.780732   , -0.000338126265, 0.00165403681, 0.000229377678, -0.224349469, -0.13037616 , 0.4554402   , -0.009451761, -0.008744126, 2.63626075  , 3.94        , 3           , 12          , 0.0618091673, 0
-0.09151157 , 0.08127439  , -9.795763   , -0.00104218384, 0.00122691388, 8.41656438E-05, -0.224416882, -0.1305784  , 0.4554402   , -0.00946219 , -0.00873185 , 2.63626122  , 3.95        , 3           , 50          , 0           , 0
-0.07902694 , 0.09160713  , -9.825457   , -0.00118318968, 0.001085174 , -0.00076432206, -0.224416882, -0.1305784  , 0.4554402   , -0.009473953, -0.008721071, 2.6362536   , 3.96        , 3           , 11          , 0.00643098261, 0.006430977
-0.08277739 , 0.08217245  , -9.824619   , -0.000482780364, 0.002216209 , -0.000900562736, -0.224551708, -0.130713224, 0.4554402   , -0.009478699, -0.008698997, 2.63624454  , 3.97        , 3           , 12          , 0.0618091673, 0
-0.09782662 , 0.08092185  , -9.803044   , -0.00118060922, 0.0006628289, 8.263933E-05, -0.22461912 , -0.130308747, 0.455575019 , -0.009490512, -0.00869236 , 2.636245    , 3.98        , 3           , 50          , 0           , 0
-0.0852325857, 0.115892529 , -9.780205   , -0.00032451257, -0.00116161536, -0.0003400366, -0.224551708, -0.130780637, 0.4555076   , -0.009493729, -0.008704007, 2.63624215  , 3.99        , 3           , 11          , 0.00643098261, 0.006430977
-0.09191845 , 0.120521575 , -9.791535   , 0.00305743376, -0.000720314565, -0.00102992833, -0.224551708, -0.130780637, 0.4555076   , -0.009475536, -0.00872188 , 2.63623166  , 4           , 3           , 12          , 0.06287128  , 0
-0.09975284 , 0.106664054 , -9.802952   , 0.0027715594, 0.000122474172, 0.000241475078, -0.224349469, -0.130510986, 0.4554402   , -0.009447839, -0.008720632, 2.63623452  , 4.01        , 3           , 50          , 0           , 0
-0.08192667 , 0.121322058 , -9.795976   , 0.00249015586, -2.021684E-05, 0.000805016141, -0.224416882, -0.13037616 , 0.455575019 , -0.00942301 , -0.008720761, 2.63624215  , 4.02        , 3           , 11          , 0.006356263 , 0.006356232
-0.08164093 , 0.07706685  , -9.786665   , 0.00306095625, -0.00128344132, 0.000240622539, -0.22414723 , -0.1305784  , 0.4555076   , -0.009392422, -0.00873357 , 2.636245    , 4.03        , 3           , 12          , 0.06287128  , 0
-0.0711858  , 0.112165406 , -9.794124   , 0.00306025939, -0.00114265876, 0.000240839436, -0.22414723 , -0.1305784  , 0.4555076   , -0.009361841, -0.008744975, 2.6362474   , 4.04        , 3           , 50          , 0           , 0
-0.0828753561, 0.115941547 , -9.802785   , 0.00277327979, -0.000159089381, 0.0008061161, -0.224349469, -0.130713224, 0.455237955 , -0.009334179, -0.00874649 , 2.6362555   , 4.05        , 3           , 11          , 0.006356263 , 0.006356232
-0.08135948 , 0.09470257  , -9.798794   , 0.000795187138, -3.167852E-05, 9.077097E-05, -0.22461912 , -0.130443573, 0.4555076   , -0.009326236, -0.008746798, 2.63625646  , 4.06        , 3           , 12          , 0.06287128  , 0
-0.09323339 , 0.09118773  , -9.785791   , -0.00159830786, -0.00145573774, 0.000359944825, -0.2244843  , -0.130443573, 0.455575019 , -0.00934225 , -0.008761321, 2.63626027  , 4.07        , 3           , 50          , 0           , 0
-0.06977826 , 0.113082007 , -9.803148   , -0.00103763631, -0.0006072228, 0.000363880477, -0.2244843  , -0.130443573, 0.455575019 , -0.009352659, -0.008767362, 2.63626361  , 4.08        , 3           , 11          , 0.006356263 , 0.006356232
-0.07727784 , 0.09599912  , -9.796045   , 0.0005102169, 0.0005295428, 0.0005141282, -0.224416882, -0.130645812, 0.455305368 , -0.009347603, -0.008762017, 2.63626885  , 4.09        , 3           , 12          , 0.06287128  , 0
-0.106646121, 0.103090726 , -9.789912   , -0.000926615, -0.00129683153, 0.0005051186, -0.224551708, -0.130443573, 0.4555076   , -0.00944931153, -0.008738403, 2.63627458  , 4.1         , 3           , 50          , 0           , 0
-0.08745275 , 0.079428    , -9.797548   , -0.001208671, -0.00143952563, -6.149029E-05, -0.224551708, -0.130510986, 0.455642432 , -0.009461395, -0.008752803, 2.636274    , 4.11        , 3           , 11          , 0.00628294237, 0.00628291862
-0.111476414, 0.1072882   , -9.813435   , 0.00104508607, -0.000297985942, -0.000190487845, -0.224551708, -0.130510986, 0.455642432 , -0.009450928, -0.008755801, 2.63627219  , 4.12        , 3           , 12          , 0.06393817  , 0
-0.0851883441, 0.117713764 , -9.785169   , 0.00160846417, -1.2601351E-05, -0.000328688679, -0.22461912 , -0.130510986, 0.4554402   , -0.009434814, -0.008755958, 2.63626885  , 4.13        , 3           , 50          , 0           , 0
-0.08929269 , 0.10836453  , -9.80829    , 0.000335163175, 0.0005419359, 0.00037259658, -0.224551708, -0.130443573, 0.4555076   , -0.009431495, -0.008750504, 2.63627267  , 4.14        , 3           , 11          , 0.00628294237, 0.00628291862
-0.08045313 , 0.09067541  , -9.811911   , 0.000617590034, 0.000543845934, 0.000373913528, -0.224551708, -0.130645812, 0.455709845 , -0.009425351, -0.008745031, 2.63627648  , 4.15        , 3           , 12          , 0.06393817  , 0
-0.07013105 , 0.09226404  , -9.783803   , -0.0005087138, -0.000167707069, 0.00022629225, -0.224551708, -0.130645812, 0.455709845 , -0.009430459, -0.008746687, 2.63627839  , 4.16        , 3           , 50          , 0           , 0
-0.07592027 , 0.09999968  , -9.782911   , -0.00135283556, -0.0008773514, -0.000343818334, -0.224349469, -0.130780637, 0.455372781 , -0.009443958, -0.008755492, 2.63627553  , 4.17        , 3           , 11          , 0.00628294237, 0.00628291862
-0.09736988 , 0.0786879957, -9.811185   , -0.00106942269, -0.00115700834, -0.00104927889, -0.2244843  , -0.130510986, 0.4554402   , -0.009454562, -0.00876716152, 2.636265    , 4.18        , 3           , 12          , 0.06393817  , 0
-0.104115054, 0.08639346  , -9.798099   , -0.00219921139, -0.00116464868, -0.00119581551, -0.2244843  , -0.130510986, 0.455642432 , -0.009476448, -0.00877892 , 2.636253    , 4.19        , 3           , 50          , 0           , 0
-0.0901556239, 0.08304189  , -9.789417   , -0.0009373499, -0.000742580043, -0.00118923606, -0.22461912 , -0.130713224, 0.4555076   , -0.0095052775, -0.008811367, 2.63624167  , 4.2         , 3           , 11          , 0.0062116487, 0.006211607
-0.0888794363, 0.0726933   , -9.802558   , 0.0003373821, -0.00143789628, -0.000619319733, -0.22461912 , -0.130713224, 0.4555076   , -0.00950185 , -0.008825804, 2.63623548  , 4.21        , 3           , 12          , 0.0650093853, 0
-0.0813947  , 0.0924422741, -9.797447   , 0.00104479888, -0.00157390081, 0.0005139054, -0.224214643, -0.130713224, 0.455642432 , -0.00949145 , -0.008841494, 2.63624072  , 4.22        , 3           , 50          , 0           , 0
-0.0907913446, 0.07263292  , -9.778166   , 0.00330142514, -0.0009954908, 0.000525308831, -0.224416882, -0.1305784  , 0.455642432 , -0.009458481, -0.008851398, 2.636246    , 4.23        , 3           , 11          , 0.0062116487, 0.006211607
-0.0734876245, 0.07875914  , -9.781624   , 0.003013793 , -1.19245669E-05, -3.9564402E-05, -0.224551708, -0.13037616 , 0.455575019 , -0.009428342, -0.008851521, 2.636246    , 4.24        , 3           , 12          , 0.0650093853, 0
-0.09356045 , 0.102453679 , -9.780324   , 0.000327868824, 0.0005330605, -0.000192476145, -0.224551708, -0.13037616 , 0.455575019 , -0.009425045, -0.008846208, 2.636244    , 4.25        , 3           , 50          , 0           , 0
-0.106156677, 0.10222242  , -9.801663   , -0.000656035147, -0.000318317645, 0.0005079566, -0.224753946, -0.130443573, 0.4555076   , -0.009431651, -0.008849343, 2.63624883  , 4.26        , 3           , 11          , 0.0062116487, 0.006211607
-0.09162338 , 0.07627393  , -9.784485   , -0.00206677523, -0.0006094327, 0.000500938 , -0.2244843  , -0.130510986, 0.455777258 , -0.009452364, -0.008855392, 2.636254    , 4.27        , 3           , 12          , 0.0650093853, 0
-0.09948702 , 0.09579483  , -9.792148   , -0.003763012, -0.00048011457, -0.00120197143, -0.224416882, -0.130645812, 0.4555076   , -0.009489886, -0.008860306, 2.63624215  , 4.28        , 3           , 50          , 0           , 0
-0.07306112 , 0.108563855 , -9.790085   , 0.000184445715, 0.000813666731, -0.001605388, -0.224416882, -0.130645812, 0.4555076   , -0.009487899, -0.008852323, 2.636226    , 4.29        , 3           , 11          , 0.0062116487, 0.006211607
-0.07780194 , 0.09282218  , -9.788831   , 0.00258258218, 0.00152704015, -0.00116935989, -0.224282056, -0.130443573, 0.455372781 , -0.009459812, -0.008856657, 2.63621449  , 4.3         , 3           , 12          , 0.0660845041, 0
-0.09300902 , 0.104760058 , -9.797033   , -0.000241604357, 0.00150794093, -0.00104126032, -0.2244843  , -0.130443573, 0.455642432 , -0.009462136, -0.008841677, 2.63620353  , 4.31        , 3           , 50          , 0           , 0
-0.10424304 , 0.107194066 , -9.810669   , 0.0006091984, 0.0009505442, 0.00023324111, -0.224282056, -0.130443573, 0.455372781 , -0.009456065, -0.008832149, 2.636206    , 4.32        , 3           , 11          , 0.006142657 , 0.006142615
-0.07837343 , 0.07844811  , -9.80607    , 0.003577794 , 0.000407470274, 0.000811276 , -0.224282056, -0.130443573, 0.455372781 , -0.009420359, -0.008827998, 2.636214    , 4.33        , 3           , 12          , 0.0660845041, 0
-0.07062214 , 0.0908992738, -9.77884    , 0.003289917 , 0.00139103539, -0.000177403228, -0.224551708, -0.130645812, 0.455575019 , -0.009387442, -0.008814106, 2.636212    , 4.34        , 3           , 50          , 0           , 0
-0.06553233 , 0.09985624  , -9.776504   , 0.0001874043, 0.000525330543, -0.0001931913, -0.224551708, -0.130308747, 0.455777258 , -0.009385551, -0.008808872, 2.6362102   , 4.35        , 3           , 11          , 0.006142657 , 0.006142615
-0.0584106445, 0.08985193  , -9.778299   , 0.000622975233, -0.00186510733, -5.3635722E-05, -0.224349469, -0.130713224, 0.4555076   , -0.009379317, -0.008827526, 2.63620973  , 4.36        , 3           , 12          , 0.0660845041, 0
-0.07680521 , 0.102705128 , -9.77929    , 0.000905565335, -0.00186319673, 0.000230218575, -0.224349469, -0.130713224, 0.4555076   , -0.009370284, -0.008846136, 2.636212    , 4.37        , 3           , 50          , 0           , 0
-0.08377218 , 0.08255714  , -9.801575   , -0.00108158856, 9.438723E-05, -0.000482306, -0.224282056, -0.1305784  , 0.455575019 , -0.009381059, -0.008845237, 2.63620734  , 4.38        , 3           , 11          , 0.006142657 , 0.006142615
-0.0857725739, 0.103775725 , -9.797886   , -0.000236399137, 0.0005224648, -0.000477704336, -0.2244843  , -0.130443573, 0.455575019 , -0.009383378, -0.008840058, 2.63620257  , 4.39        , 3           , 12          , 0.0660845041, 0
-0.08881631 , 0.107485637 , -9.816877   , 0.0008960435, -0.001703732, -5.183322E-05, -0.224282056, -0.13037616 , 0.455575019 , -0.009399956, -0.008802023, 2.63620257  , 4.4         , 3           , 50          , 0           , 0
-0.07376944 , 0.08559826  , -9.801485   , 0.0004734709, -0.00198816368, -0.000619317347, -0.224282056, -0.13037616 , 0.455575019 , -0.009395168, -0.008821962, 2.63619637  , 4.41        , 3           , 11          , 0.00607538642, 0.00607534125
-0.08112936 , 0.08603618  , -9.77216148 , 0.000328157 , -0.001144423, -0.0004774053, -0.22461912 , -0.1305784  , 0.4555076   , -0.009391845, -0.00883345 , 2.63619161  , 4.42        , 3           , 12          , 0.0671631   , 0
-0.09187033 , 0.09251465  , -9.782612   , 0.001879577 , -0.0007115697, -0.00018697379, -0.224753946, -0.130510986, 0.4555076   , -0.009373034, -0.008840584, 2.63619018  , 4.43        , 3           , 50          , 0           , 0
-0.0921112448, 0.104296766 , -9.7965765  , 0.00300030457, 0.00112624373, -3.76168537E-05, -0.2244843  , -0.130241334, 0.4555076   , -0.009343026, -0.008829325, 2.6361897   , 4.44        , 3           , 11          , 0.00607538642, 0.00607534125
-0.08723613 , 0.09254766  , -9.808339   , 0.00286072958, 0.0008437248, 0.000385096879, -0.2244843  , -0.130241334, 0.4555076   , -0.009314453, -0.008820851, 2.63619351  , 4.45        , 3           , 12          , 0.0671631   , 0
-0.101808213, 0.0864016563, -9.80847549 , 0.0008898892, -0.0002959026, 0.00136302377, -0.224349469, -0.130645812, 0.4555076   , -0.009305675, -0.008823684, 2.63620687  , 4.46        , 3           , 50          , 0           , 0
-0.09411329 , 0.0880947262, -9.802082   , -0.000382959435, 0.000117850941, 0.001640286 , -0.224753946, -0.130308747, 0.455575019 , -0.009309647, -0.008822353, 2.63622355  , 4.47        , 3           , 11          , 0.00607538642, 0.00607534125
-0.102711171, 0.0899852142, -9.797621   , 0.000887879869, 0.000126445419, 0.00150494347, -0.22461912 , -0.130510986, 0.455642432 , -0.0093009  , -0.008820948, 2.63623834  , 4.48        , 3           , 12          , 0.0671631   , 0
-0.09493057 , 0.104245514 , -9.771739   , 0.0001827174, -0.0001598969, 0.000653605 , -0.22461912 , -0.130510986, 0.455642432 , -0.00929913 , -0.008822487, 2.636245    , 4.49        , 3           , 50          , 0           , 0
-0.096374616, 0.09928215  , -9.766799   , -0.00265441881, 0.000651868 , 0.0005004491, -0.22461912 , -0.130443573, 0.4555076   , -0.009351691, -0.00885767 , 2.63625026  , 4.5         , 3           , 11          , 0.006009857 , 0.00600980874
-0.09641443 , 0.09076925  , -9.784463   , -0.00223238021, 0.00107708294, 0.00135068793, -0.224551708, -0.130443573, 0.455642432 , -0.009374133, -0.008846771, 2.63626361  , 4.51        , 3           , 12          , 0.06824482  , 0
-0.08053382 , 0.095073536 , -9.777995   , -0.000244611234, -0.0010212838, 0.00192172674, -0.2244843  , -0.13037616 , 0.455642432 , -0.009376751, -0.008856803, 2.63628316  , 4.52        , 3           , 50          , 0           , 0
-0.0962156057, 0.102535449 , -9.795259   , 0.000461618969, -0.00101650821, 0.00220755651, -0.2244843  , -0.13037616 , 0.455642432 , -0.009372332, -0.008866762, 2.636305    , 4.53        , 3           , 11          , 0.006009857 , 0.00600980874
-0.101676665, 0.103023186 , -9.787164   , -0.00165801356, -0.00089005375, 0.000926477835, -0.2244843  , -0.130510986, 0.455575019 , -0.00938899349, -0.008875574, 2.63631463  , 4.54        , 3           , 12          , 0.06824482  , 0
-0.06882821 , 0.08773959  , -9.784716   , -0.0027834943, -0.00188317464, -0.000210458529, -0.224686533, -0.13037616 , 0.455642432 , -0.009416812, -0.008894429, 2.63631272  , 4.55        , 3           , 50          , 0           , 0
-0.08677745 , 0.100581422 , -9.78389549 , -0.0005318283, -0.0003192875, -0.000338805054, -0.224551708, -0.1305784  , 0.455777258 , -0.009422102, -0.008897651, 2.636309    , 4.56        , 3           , 11          , 0.006009857 , 0.00600980874
-0.12236549 , 0.07756642  , -9.793303   , -0.0003946337, 0.0005263636, -5.43073947E-05, -0.224551708, -0.1305784  , 0.455777258 , -0.009426041, -0.008892393, 2.636309    , 4.57        , 3           , 12          , 0.06824482  , 0
-0.114949524, 0.08743997  , -9.803148   , 0.00073072844, 0.00137869816, -0.000330275332, -0.224416882, -0.130308747, 0.455372781 , -0.009418703, -0.008878637, 2.636305    , 4.58        , 3           , 50          , 0           , 0
-0.08940332 , 0.1100603   , -9.77574    , 0.002001449 , 0.00124650612, -0.00187852222, -0.224551708, -0.130308747, 0.455642432 , -0.009398521, -0.00886635 , 2.6362865   , 4.59        , 3           , 11          , 0.006009857 , 0.00600980874
-0.0587023459, 0.0984684154, -9.790018   , 0.000592947938, -0.001182224, -0.00118253718, -0.22461912 , -0.1305784  , 0.4554402   , -0.009419133, -0.00895823 , 2.63627553  , 4.6         , 3           , 12          , 0.0693292841, 0
-0.103902012, 0.1124544   , -9.76635    , 0.00031195223, -0.00132491312, 8.734768E-05, -0.2244843  , -0.13084805 , 0.455372781 , -0.009416021, -0.00897146948, 2.63627648  , 4.61        , 3           , 50          , 0           , 0
-0.09298228 , 0.113262393 , -9.776207   , -0.00125024887, 0.000353970274, -0.000764904253, -0.2244843  , -0.13084805 , 0.455372781 , -0.009428455, -0.008968002, 2.63626885  , 4.62        , 3           , 11          , 0.00594610069, 0.00594604062
-0.09598787 , 0.08806457  , -9.78673    , -0.002384672, 0.001331809 , -0.000486115779, -0.22461912 , -0.13037616 , 0.455642432 , -0.009452257, -0.008954731, 2.63626361  , 4.63        , 3           , 12          , 0.0693292841, 0
-0.08134125 , 0.0915928856, -9.81327    , -0.000407520944, 0.00134517939, -0.000194359745, -0.22461912 , -0.130308747, 0.455709845 , -0.009456313, -0.008941297, 2.6362617   , 4.64        , 3           , 50          , 0           , 0
-0.06228205 , 0.0980991   , -9.801797   , 0.0015702456, 0.00121776713, -4.40894619E-05, -0.22461912 , -0.130645812, 0.455709845 , -0.00944060553, -0.008929124, 2.63626122  , 4.65        , 3           , 11          , 0.00594610069, 0.00594604062
-0.0611835271, 0.0844820961, -9.781959   , 0.00172224012, -0.0008930145, 0.000518389337, -0.22461912 , -0.130645812, 0.455709845 , -0.00942343 , -0.008938007, 2.63626647  , 4.66        , 3           , 12          , 0.0693292841, 0
-0.0829783753, 0.0878121555, -9.757252   , 0.0008836128, -0.00272891927, -0.00019472561, -0.224551708, -0.1305784  , 0.455575019 , -0.009414579, -0.0089653125, 2.636265    , 4.67        , 3           , 50          , 0           , 0
-0.08787342 , 0.0901717544, -9.77084    , 0.00130188453, -0.00174057879, -0.00103884377, -0.224551708, -0.13037616 , 0.455642432 , -0.00940146949, -0.008982816, 2.63625455  , 4.68        , 3           , 11          , 0.00594610069, 0.00594604062
-0.108638421, 0.090021044 , -9.787723   , 0.00016955247, -0.001185088, -0.0007607062, -0.224416882, -0.130510986, 0.4555076   , -0.009399705, -0.008994738, 2.636247    , 4.69        , 3           , 12          , 0.0693292841, 0
-0.100131541, 0.1085148   , -9.815151   , 0.00115064729, -0.00019154216, 9.309729E-05, -0.224416882, -0.130510986, 0.4555076   , -0.00939772 , -0.008992279, 2.63624787  , 4.7         , 3           , 50          , 0           , 0
-0.0892174244, 0.116906166 , -9.799213   , -0.0003976582, -0.00118752383, 0.00036687273, -0.224349469, -0.1305784  , 0.455777258 , -0.00940173 , -0.00900412 , 2.63625169  , 4.71        , 3           , 11          , 0.00588451233, 0.005884464
-0.109166548, 0.07880655  , -9.8054     , -0.00307444 , -0.00247271126, 0.000352409174, -0.2244843  , -0.130645812, 0.455777258 , -0.009432508, -0.009028813, 2.6362555   , 4.72        , 3           , 12          , 0.07041616  , 0
-0.108832836, 0.114338651 , -9.772707   , -0.000680537138, -0.00104865013, 0.000789579 , -0.224214643, -0.130510986, 0.4555076   , -0.009439385, -0.009039223, 2.63626361  , 4.73        , 3           , 50          , 0           , 0
-0.104708076, 0.07825084  , -9.790001   , 2.4054405E-05, -0.0007623106, 0.0006520366, -0.224214643, -0.130510986, 0.4555076   , -0.009439204, -0.009046787, 2.63626981  , 4.74        , 3           , 11          , 0.00588451233, 0.005884464
-0.111914113, 0.0774744   , -9.802262   , -0.000820682733, -0.00133117184, 0.000223411582, -0.22461912 , -0.130443573, 0.4555076   , -0.009447433, -0.009060076, 2.63627267  , 4.75        , 3           , 12          , 0.07041616  , 0
-0.115471676, 0.08694272  , -9.787787   , -0.00053657277, -0.00175161136, -0.000482266041, -0.224551708, -0.1305784  , 0.455642432 , -0.00945275649, -0.009077637, 2.636268    , 4.76        , 3           , 50          , 0           , 0
-0.113843806, 0.100982    , -9.808508   , 0.00129665819, -0.00117606507, -4.903186E-05, -0.224416882, -0.130510986, 0.455575019 , -0.009439786, -0.009089401, 2.63626742  , 4.77        , 3           , 11          , 0.00588451233, 0.005884464
-0.0899191  , 0.105551064 , -9.774858   , 0.00059099897, -0.0011808381, 0.0006540194, -0.224416882, -0.130510986, 0.455575019 , -0.009433935, -0.009101149, 2.636274    , 4.78        , 3           , 12          , 0.07041616  , 0
-0.07691704 , 0.09770467  , -9.768013   , -0.000539279252, -0.00118848076, -0.0003401294, -0.2244843  , -0.130443573, 0.455575019 , -0.009439297, -0.009113063, 2.63627076  , 4.79        , 3           , 50          , 0           , 0
-0.115903504, 0.09008947  , -9.782805   , -0.00154128869, -8.99217E-05, -0.00034305203, -0.224686533, -0.13037616 , 0.455709845 , -0.00948033947, -0.009181909, 2.636268    , 4.8         , 3           , 11          , 0.00582435774, 0.00582430465
-0.10392753 , 0.103060342 , -9.790343   , -0.00153903465, -0.0005122686, -6.116542E-05, -0.224349469, -0.13037616 , 0.455372781 , -0.009495723, -0.009187036, 2.63626742  , 4.81        , 3           , 12          , 0.07150514  , 0
-0.08919014 , 0.088436    , -9.786676   , -0.000401452737, -0.0021940216, -0.0009061136, -0.224349469, -0.13037616 , 0.455372781 , -0.009499658, -0.009209062, 2.63625836  , 4.82        , 3           , 50          , 0           , 0
-0.08646916 , 0.08662218  , -9.793443   , -0.00152882421, -0.00262400787, -0.000488226127, -0.224416882, -0.13037616 , 0.4554402   , -0.009514904, -0.009235346, 2.636254    , 4.83        , 3           , 11          , 0.00582435774, 0.00582430465
-0.0665277541, 0.09175977  , -9.780614   , -0.00125320419, -0.00121427164, -0.000202202093, -0.2244843  , -0.130510986, 0.455575019 , -0.009527417, -0.009247509, 2.63625169  , 4.84        , 3           , 12          , 0.07150514  , 0
-0.07621707 , 0.079227075 , -9.777123   , 0.0005803159, -0.0007795101, -0.000475528446, -0.224551708, -0.130443573, 0.4555076   , -0.009521572, -0.009255349, 2.6362474   , 4.85        , 3           , 50          , 0           , 0
-0.07876153 , 0.09546714  , -9.767131   , -0.00111182767, -0.001213316, 8.099387E-05, -0.224551708, -0.130443573, 0.4555076   , -0.009532698, -0.009267474, 2.63624787  , 4.86        , 3           , 11          , 0.00582435774, 0.00582430465
-0.07867822 , 0.09464195  , -9.790186   , -0.0006911385, -0.0006473216, -0.000198700363, -0.224551708, -0.1305784  , 0.4554402   , -0.009539593, -0.009273966, 2.63624644  , 4.87        , 3           , 12          , 0.07150514  , 0
-0.09990378 , 0.08645598  , -9.83106    , 0.0009969862, 0.0006311803, -0.0004713834, -0.224686533, -0.130173922, 0.455575019 , -0.0095295785, -0.009267698, 2.6362412   , 4.88        , 3           , 50          , 0           , 0
-0.07711154 , 0.07656859  , -9.788442   , -0.000566735, 0.002732414 , -0.000334103242, -0.224416882, -0.130645812, 0.455709845 , -0.009535213, -0.009240407, 2.63623786  , 4.89        , 3           , 11          , 0.00582435774, 0.00582430465
-0.08407338 , 0.103663757 , -9.770755   , -0.0006980232, 0.0028810387, -0.0003345331, -0.224416882, -0.130645812, 0.455709845 , -0.009507076, -0.009182577, 2.636234    , 4.9         , 3           , 12          , 0.07259592  , 0
-0.08383127 , 0.108323425 , -9.815027   , -0.00110916188, 0.000484873919, 0.00078995293, -0.22461912 , -0.130645812, 0.4555076   , -0.00951824 , -0.00917765 , 2.63624215  , 4.91        , 3           , 50          , 0           , 0
-0.09808971 , 0.09804219  , -9.794388   , -0.00336053851, -0.001219798, 0.000211738763, -0.224551708, -0.130173922, 0.455575019 , -0.009551866, -0.009189828, 2.636244    , 4.92        , 3           , 11          , 0.00576571  , 0.00576565135
-0.08491636 , 0.09747619  , -9.806042   , -0.00237331283, -0.00107233319, -0.000772316067, -0.2244843  , -0.1305784  , 0.455709845 , -0.00957553 , -0.009200626, 2.63623643  , 4.93        , 3           , 12          , 0.07259592  , 0
-0.0846094042, 0.08931841  , -9.796581   , 0.0007296897, -0.000206625919, 9.108438E-05, -0.2244843  , -0.1305784  , 0.455709845 , -0.00956824049, -0.009202682, 2.63623738  , 4.94        , 3           , 50          , 0           , 0
-0.08180042 , 0.09561019  , -9.798794   , 0.0011521806, 7.780526E-05, 0.000517299864, -0.224551708, -0.130308747, 0.4554402   , -0.009556767, -0.009201857, 2.63624263  , 4.95        , 3           , 11          , 0.00576571  , 0.00576565135
-0.09675379 , 0.105596036 , -9.764515   , 0.000454232853, -0.00161636132, 8.759779E-05, -0.224551708, -0.130443573, 0.455709845 , -0.009552235, -0.009218011, 2.636244    , 4.96        , 3           , 12          , 0.07259592  , 0
-0.0686203837, 0.09906675  , -9.79912949 , -0.000107506479, -0.00218330976, 0.000649171066, -0.22461912 , -0.130443573, 0.455709845 , -0.009553371, -0.009239781, 2.63625073  , 4.97        , 3           , 50          , 0           , 0
-0.0827534  , 0.09201161  , -9.798816   , 0.00016446528, -6.966179E-05, 0.000653742463, -0.22461912 , -0.130443573, 0.455709845 , -0.009551786, -0.009240414, 2.636257    , 4.98        , 3           , 11          , 0.00576571  , 0.00576565135
-0.08612171 , 0.0802826   , -9.788042   , 1.6815693E-05, 0.00119642529, 0.0003724992, -0.224349469, -0.130443573, 0.455642432 , -0.009551651, -0.009228415, 2.63626027  , 4.99        , 3           , 12          , 0.07259592  , 0
-0.0668746457, 0.0963144   , -9.791897   , -0.001536647, 0.00133976946, 0.0009307013, -0.224551708, -0.13037616 , 0.455642432 , -0.009566242, -0.009170844, 2.63626981  , 5           , 3           , 50          , 0           , 0
-0.08352874 , 0.106857315 , -9.78294    , -0.00139071757, 0.000355245953, 0.0006473035, -0.2244843  , -0.130645812, 0.455709845 , -0.009580206, -0.009167231, 2.63627648  , 5.01        , 3           , 11          , 0.00570882  , 0.005708766
-0.07790048 , 0.08560074  , -9.787958   , 0.000726541737, 0.00051035214, 0.000233591345, -0.224282056, -0.130241334, 0.455372781 , -0.009572963, -0.009162106, 2.63627839  , 5.02        , 3           , 12          , 0.07368821  , 0
-0.0688718557, 0.119320966 , -9.783229   , 0.001143212 , 0.00192104257, 0.000237736444, -0.224282056, -0.130241334, 0.455372781 , -0.009561553, -0.009142873, 2.63628078  , 5.03        , 3           , 50          , 0           , 0
-0.0698738247, 0.102292165 , -9.814494   , 0.0007188747, 0.00205896026, 0.000235978019, -0.224416882, -0.130106509, 0.4555076   , -0.009554382, -0.009122262, 2.63628316  , 5.04        , 3           , 11          , 0.00570882  , 0.005708766
-0.09587879 , 0.0944018662, -9.793031   , -0.0005397076, -0.000342935731, 0.0010739757, -0.2244843  , -0.130308747, 0.455777258 , -0.009559878, -0.00912558753, 2.63629365  , 5.05        , 3           , 12          , 0.07368821  , 0
-0.07629229 , 0.105872989 , -9.783793   , -0.002094575, 6.890987E-05, 0.00205626455, -0.224416882, -0.130443573, 0.455642432 , -0.009581011, -0.009124704, 2.63631463  , 5.06        , 3           , 50          , 0           , 0
-0.08109626 , 0.115447983 , -9.796447   , -0.0006836273, 0.000219239984, 0.00121545384, -0.224416882, -0.130443573, 0.455642432 , -0.00958795752, -0.009122394, 2.63632655  , 5.07        , 3           , 11          , 0.00570882  , 0.005708766
-0.0751711354, 0.08245464  , -9.801057   , 0.0017180685, -4.609192E-05, 0.0006611389, -0.2244843  , -0.130443573, 0.455709845 , -0.009570837, -0.009122791, 2.63633323  , 5.08        , 3           , 12          , 0.07368821  , 0
-0.0731889158, 0.0919453353, -9.812303   , -0.0002612548, 0.000362884661, 0.000228765115, -0.2244843  , -0.130443573, 0.455777258 , -0.00957347 , -0.009119141, 2.63633561  , 5.09        , 3           , 50          , 0           , 0
-0.0834164  , 0.117660761 , -9.775663   , -0.003362533, -0.00244953064, 0.0007753393, -0.224416882, -0.1305784  , 0.455642432 , -0.00963766 , -0.009060023, 2.63634372  , 5.1         , 3           , 11          , 0.005653151 , 0.00565310335
