Acc X       , Acc Y       , Acc Z       , Gyro X      , Gyro Y      , Gyro Z      , Magn X      , Magn Y      , Magn Z      , Euler X     , Euler Y     , Euler Z     , Time        , Status      , LowRate X   , LowRate Y   , LowRate Z    
-0.12295562 , 0.105952732 , -9.779178   , -0.000292374461, -6.0405433E-05, 0.00183432736, -0.1804638  , -0.164284751, 0.450249434 , -0.00933945 , -0.0122992648, 2.43100429  , 0           , 3           , 11          , 0.0346410163, 0.0346410163
-0.088980034, 0.102889478 , -9.791586   , -0.00100249785, 0.00063872966, 0.000843238842, -0.1804638  , -0.164621815, 0.450249434 , -0.009349578, -0.0122928014, 2.43101239  , 0.01        , 3           , 12          , 0.0346410163, 0
-0.122856468, 0.0962133557, -9.834812   , 0.00111365668, 0.0009346163, -0.000276600127, -0.180261567, -0.164621815, 0.450519085 , -0.00933841 , -0.01228348 , 2.43100953  , 0.02        , 3           , 50          , 0           , 0
-0.144937992, 0.07476184  , -9.819701   , 0.00182521844, -0.00018686938, -0.0004163123, -0.18032898 , -0.164621815, 0.450519085 , -0.009320105, -0.0122853881, 2.43100572  , 0.03        , 3           , 11          , 0.0346410163, 0.0346410163
-0.133031636, 0.08946173  , -9.804634   , 0.0015398775, 0.0005151361, 0.0005723368, -0.18032898 , -0.164621815, 0.450519085 , -0.009304777, -0.0122801811, 2.43101144  , 0.04        , 3           , 12          , 0.0346410163, 0
-0.1329947  , 0.104221217 , -9.766154   , 0.000690305664, 0.000790966849, -0.0009851363, -0.180126742, -0.164486989, 0.450249434 , -0.009297751, -0.0122723645, 2.43100142  , 0.05        , 3           , 50          , 0           , 0
-0.120893277, 0.0954967439, -9.763386   , 0.0005573747, -0.000899378851, -0.00112966681, -0.18032898 , -0.164284751, 0.450384259 , -0.009292039, -0.0122814635, 2.43099046  , 0.06        , 3           , 11          , 0.0346410163, 0.0346410163
-0.1104287  , 0.09050556  , -9.791349   , -0.000141929908, -0.00217119418, -0.000287299423, -0.1803964  , -0.164486989, 0.450384259 , -0.009293427, -0.0123032006, 2.4309876   , 0.07        , 3           , 12          , 0.0346410163, 0
-0.11081861 , 0.09234723  , -9.800837   , -0.00127528526, -0.00147492229, -0.0005740198, -0.180194154, -0.1645544  , 0.450316846 , -0.00930611 , -0.0123180021, 2.43098187  , 0.08        , 3           , 50          , 0           , 0
-0.121934257, 0.108714    , -9.79859352 , -0.00184678275, -7.091535E-05, -9.409155E-06, -0.180194154, -0.1645544  , 0.450316846 , -0.009324577, -0.0123187127, 2.43098187  , 0.09        , 3           , 11          , 0.0346410163, 0.0346410163
-0.136374354, 0.114726409 , -9.7919     , -0.0024109392, -0.000215517866, -1.22616257E-05, -0.180194154, -0.1645544  , 0.450519085 , -0.009348683, -0.01232087 , 2.43098187  , 0.1         , 3           , 12          , 0.0346410163, 0
-0.135909066, 0.11651662  , -9.789177   , -0.00128332293, 0.000214469634, -6.342975E-06, -0.180261567, -0.164419577, 0.450384259 , -0.009361516, -0.0123187248, 2.43098187  , 0.11        , 3           , 50          , 0           , 0
-0.1289414  , 0.08719442  , -9.81546    , -0.000159644085, 0.0014891536, 0.00042468356, -0.180261567, -0.164419577, 0.450384259 , -0.009363162, -0.0123037938, 2.43098569  , 0.12        , 3           , 11          , 0.0346410163, 0.0346410163
-0.132071778, 0.102439232 , -9.776098   , 0.00040570632, 0.001211404 , -0.00112707261, -0.180261567, -0.164419577, 0.450384259 , -0.009358967, -0.0122917835, 2.43097425  , 0.13        , 3           , 12          , 0.0346410163, 0
-0.131125271, 0.09978368  , -9.794634   , 0.000833817641, 0.000228789373, -0.00183295959, -0.1803964  , -0.164486989, 0.450451672 , -0.009350401, -0.0122896666, 2.43095613  , 0.14        , 3           , 50          , 0           , 0
-0.105489656, 0.08461085  , -9.799924   , -0.0009933108, -0.00133222842, -0.000148681473, -0.1804638  , -0.164621815, 0.4505865   , -0.009360319, -0.0123030022, 2.43095422  , 0.15        , 3           , 11          , 0.0346410163, 0.0346410163
-0.138119712, 0.0854160041, -9.791582   , -0.00380983041, -0.00289993547, -2.29687885E-05, -0.180261567, -0.1645544  , 0.450249434 , -0.009398417, -0.0123320045, 2.43095422  , 0.16        , 3           , 12          , 0.0346410163, 0
-0.137559712, 0.09174645  , -9.797427   , -0.00198172312, -0.00133891311, -1.20220648E-05, -0.180261567, -0.1645544  , 0.450249434 , -0.009418233, -0.0123453941, 2.43095422  , 0.17        , 3           , 50          , 0           , 0
-0.131984651, 0.104295254 , -9.791457   , 0.00111623737, 0.000512271 , 0.0005703597, -0.180261567, -0.1645544  , 0.450316846 , -0.009407142, -0.0123402178, 2.43096     , 0.18        , 3           , 11          , 0.0346410163, 0.0346410163
-0.13237448 , 0.07362755  , -9.794752   , -0.00015361578, 0.000222109476, -1.07528422E-06, -0.180598632, -0.1645544  , 0.450249434 , -0.009408679, -0.0123379994, 2.43096     , 0.19        , 3           , 12          , 0.0346410163, 0
-0.117268078, 0.08161972  , -9.808615   , -0.000150991182, -0.000341025734, -0.0002844812, -0.1799245  , -0.1645544  , 0.450451672 , -0.009410163, -0.0123415645, 2.430957    , 0.2         , 3           , 50          , 0           , 0
-0.1344146  , 0.09659933  , -9.775687   , 0.00126261858, -0.000613040465, -0.000137061827, -0.1799245  , -0.1645544  , 0.450451672 , -0.009397522, -0.0123477113, 2.43095613  , 0.21        , 3           , 11          , 0.03466991  , 0.0346699134
-0.133602291, 0.08892518  , -9.777521   , 0.00168310024, 9.37388E-05 , 0.0004310733, -0.1803964  , -0.1645544  , 0.450249434 , -0.009380743, -0.0123467306, 2.43096042  , 0.22        , 3           , 12          , 0.03466881  , 0
-0.142386332, 0.0683473051, -9.799822   , 0.002098621 , 0.00178599532, 0.0008594585, -0.1804638  , -0.164352164, 0.450451672 , -0.009359863, -0.01232879 , 2.43096852  , 0.23        , 3           , 50          , 0           , 0
-0.1130117  , 0.06483163  , -9.795996   , 0.00237871218, 0.002210252 , 0.000437620271, -0.180531219, -0.164689228, 0.450384259 , -0.009336127, -0.0123066474, 2.43097329  , 0.24        , 3           , 11          , 0.03466991  , 0.0346699134
-0.116687819, 0.0977863148, -9.787751   , -0.000720434531, 0.000499847753, -0.0009921569, -0.180531219, -0.164689228, 0.450384259 , -0.009343208, -0.0123017421, 2.4309628   , 0.25        , 3           , 12          , 0.03466881  , 0
-0.111611053, 0.09914477  , -9.80669    , 0.000122337224, 0.00135027128, -0.00155197922, -0.180126742, -0.1645544  , 0.450384259 , -0.00934179 , -0.0122883851, 2.43094754  , 0.26        , 3           , 50          , 0           , 0
-0.136863783, 0.108006775 , -9.804586   , 0.00323099736, 0.00108971877, -0.000549045857, -0.180531219, -0.164352164, 0.450451672 , -0.009309413, -0.0122775389, 2.43094182  , 0.27        , 3           , 11          , 0.03466991  , 0.0346699134
-0.1424594  , 0.103029259 , -9.781147   , 0.00338200643, -0.000739495852, 0.0007202106, -0.18032898 , -0.164352164, 0.450519085 , -0.009275681, -0.0122848675, 2.43094945  , 0.28        , 3           , 12          , 0.03466881  , 0
-0.127349526, 0.0780684948, -9.791079   , 0.00182501052, -4.60888841E-05, 0.0004315149, -0.18032898 , -0.164352164, 0.450519085 , -0.009257485, -0.01228529 , 2.43095326  , 0.29        , 3           , 50          , 0           , 0
-0.119603373, 0.0860519856, -9.776975   , -8.725851E-06, -0.000652034243, 0.000421810546, -0.18032898 , -0.1645544  , 0.450519085 , -0.009273069, -0.012917948, 2.430958    , 0.3         , 3           , 11          , 0.0347534381, 0.0347534344
-0.1079867  , 0.104460135 , -9.789917   , -1.02829972E-05, -0.0003704699, 0.000139706914, -0.18032898 , -0.164621815, 0.4506539   , -0.009273192, -0.0129216379, 2.430959    , 0.31        , 3           , 12          , 0.0347538739, 0
-0.119385011, 0.09649497  , -9.796818   , 0.000545554038, 0.00132273743, -0.0009852055, -0.1803964  , -0.164284751, 0.4505865   , -0.009267608, -0.0129085034, 2.43094945  , 0.32        , 3           , 50          , 0           , 0
-0.124314316, 0.105522051 , -9.780547   , 0.00131991075, 0.00182072911, -0.0007689214, -0.180059329, -0.164486989, 0.450384259 , -0.009254306, -0.0128903678, 2.43094134  , 0.33        , 3           , 11          , 0.0347534381, 0.0347534344
-0.120393291, 0.09374428  , -9.780564   , 0.00314631616, 0.00373370876, -0.000686797837, -0.180059329, -0.164486989, 0.450384259 , -0.009222749, -0.0128530972, 2.43093419  , 0.34        , 3           , 12          , 0.0347538739, 0
-0.1441427  , 0.112081125 , -9.783382   , -2.97433417E-05, 0.00378262065, 0.00205323519, -0.18032898 , -0.164689228, 0.450519085 , -0.009223307, -0.0128150815, 2.43095422  , 0.35        , 3           , 50          , 0           , 0
-0.169209719, 0.0975111946, -9.791318   , 0.0006216294, 0.000408132852, 0.000638303871, -0.180531219, -0.164486989, 0.450451672 , -0.009217171, -0.0128109418, 2.430961    , 0.36        , 3           , 11          , 0.0347534381, 0.0347534344
-0.1543246  , 0.09104083  , -9.797559   , 0.00019452635, 0.00103878777, 7.222986E-05, -0.18032898 , -0.1645544  , 0.450519085 , -0.009215233, -0.0128005473, 2.43096137  , 0.37        , 3           , 12          , 0.0347538739, 0
-0.114863947, 0.0973290056, -9.792259   , -0.0007866268, -0.0005165066, -0.0004998408, -0.18032898 , -0.1645544  , 0.450519085 , -0.009223036, -0.0128057562, 2.43095613  , 0.38        , 3           , 50          , 0           , 0
-0.107142679, 0.09681167  , -9.799434   , -0.00311113871, -0.00144734571, 0.001183109 , -0.18032898 , -0.164419577, 0.4505865   , -0.009254302, -0.01282012 , 2.43096852  , 0.39        , 3           , 11          , 0.0347534381, 0.0347534344
-0.123264246, 0.07668988  , -9.797833   , -0.001305821, -0.00131062942, -7.93208746E-05, -0.1803964  , -0.164284751, 0.450721323 , -0.009534358, -0.012984762, 2.43097138  , 0.4         , 3           , 12          , 0.0348953567, 0
-0.106696367, 0.0981401652, -9.793549   , -0.00110154564, 0.000239411573, 0.000135956419, -0.180194154, -0.164756641, 0.450519085 , -0.00954539049, -0.0129823536, 2.43097234  , 0.41        , 3           , 50          , 0           , 0
-0.09883639 , 0.106215864 , -9.807015   , 0.0005852001, 0.00201065745, 0.00170052634, -0.180194154, -0.164756641, 0.450519085 , -0.009539755, -0.0129620861, 2.4309895   , 0.42        , 3           , 11          , 0.017702898 , 0.0177028775
-0.126012087, 0.110098667 , -9.793648   , -0.0006844862, 0.00157971086, 0.000210627564, -0.18032898 , -0.164486989, 0.450519085 , -0.009546625, -0.0129462685, 2.43099141  , 0.43        , 3           , 12          , 0.0348953567, 0
-0.109787732, 0.100472435 , -9.805315   , 0.000155579546, 0.002993265 , -0.000207058183, -0.180261567, -0.164352164, 0.4505865   , -0.009545039, -0.0129163582, 2.43098855  , 0.44        , 3           , 50          , 0           , 0
-0.113979205, 0.0892672   , -9.813077   , 0.00234711263, 0.00251532975, 0.0002968291, -0.180126742, -0.1645544  , 0.450519085 , -0.009521604, -0.012891178, 2.43099141  , 0.45        , 3           , 11          , 0.017702898 , 0.0177028775
-0.129242331, 0.09848153  , -9.81631851 , 0.0010253716, -0.001646831, -0.00105787988, -0.180126742, -0.1645544  , 0.450519085 , -0.009511216, -0.0129077462, 2.430981    , 0.46        , 3           , 12          , 0.0348953567, 0
-0.133904874, 0.0979792252, -9.785171   , 0.0033607576, -0.00247576367, 0.00100007968, -0.180126742, -0.164486989, 0.450519085 , -0.009477739, -0.0129324077, 2.43099141  , 0.47        , 3           , 50          , 0           , 0
-0.109625846, 0.0877336   , -9.775083   , 0.00264630839, -0.0008615411, 0.000363573345, -0.180194154, -0.164419577, 0.4506539   , -0.009451324, -0.0129409889, 2.43099523  , 0.48        , 3           , 11          , 0.017702898 , 0.0177028775
-0.121454209, 0.08023851  , -9.786053   , -0.000464402023, -0.000178640563, -0.000568074931, -0.180261567, -0.164621815, 0.450519085 , -0.009455894, -0.0129428282, 2.4309895   , 0.49        , 3           , 12          , 0.0348953567, 0
-0.1342201  , 0.09229344  , -9.837174   , -0.00111276144, 0.00119474379, -0.00176931592, -0.180261567, -0.164621815, 0.450519085 , -0.009493664, -0.0127373692, 2.43097234  , 0.5         , 3           , 50          , 0           , 0
-0.12545231 , 0.07588521  , -9.819097   , 0.00129190052, 0.0005774615, -0.0002051424, -0.180194154, -0.164419577, 0.450451672 , -0.009480717, -0.0127316145, 2.43097     , 0.51        , 3           , 11          , 0.0134445559, 0.0134445662
-0.122857332, 0.07263024  , -9.799654   , 0.00122524961, -0.000197319445, 5.23831432E-06, -0.180531219, -0.164486989, 0.450721323 , -0.009468464, -0.0127335871, 2.43097     , 0.52        , 3           , 12          , 0.0350921378, 0
-0.138577133, 0.09434456  , -9.761719   , 0.000716246839, 0.00261498522, -0.00140541431, -0.18032898 , -0.164621815, 0.4505865   , -0.009461121, -0.0127075715, 2.43095565  , 0.53        , 3           , 50          , 0           , 0
-0.138128042, 0.0867482945, -9.78525    , -0.00210122182, 0.0014696311, 0.000698711665, -0.18032898 , -0.164621815, 0.4505865   , -0.009482219, -0.0126928091, 2.4309628   , 0.54        , 3           , 11          , 0.0134445559, 0.0134445662
-0.1321965  , 0.08493052  , -9.801935   , -0.0009012934, 0.00140735344, -0.000567218463, -0.180194154, -0.164352164, 0.450451672 , -0.009491158, -0.0126787918, 2.4309566   , 0.55        , 3           , 12          , 0.0350921378, 0
-0.116549246, 0.06851361  , -9.805047   , 0.00171627512, 0.0005803299, 0.00106825179, -0.1803964  , -0.164217338, 0.4506539   , -0.00947413 , -0.0126728881, 2.43096757  , 0.56        , 3           , 50          , 0           , 0
-0.13069883 , 0.0592132881, -9.807906   , -0.00166689686, -0.000850419747, -0.000715580245, -0.18032898 , -0.164419577, 0.4506539   , -0.009490709, -0.0126814591, 2.43096     , 0.57        , 3           , 11          , 0.0134445559, 0.0134445662
-0.116325647, 0.0861024559, -9.80316448 , -0.000681520847, -0.000139820564, -7.41770054E-05, -0.18032898 , -0.164419577, 0.4506539   , -0.009497515, -0.0126828635, 2.43095946  , 0.58        , 3           , 12          , 0.0350921378, 0
-0.1000796  , 0.08318907  , -9.79853249 , -0.000957163, -0.00147916412, 0.000204982309, -0.180261567, -0.164419577, 0.450316846 , -0.009507113, -0.0126976334, 2.43096185  , 0.59        , 3           , 50          , 0           , 0
-0.104211614, 0.0818517   , -9.789079   , -0.002282659, 0.000296572776, 0.000765212753, -0.18032898 , -0.164486989, 0.450451672 , -0.009245982, -0.012618402, 2.43096566  , 0.6         , 3           , 11          , 0.0113550443, 0.0113550527
-0.118360728, 0.11086373  , -9.779574   , 0.00116155739, 0.00320600625, -0.00133323809, -0.18032898 , -0.1640151  , 0.450519085 , -0.009234194, -0.012586466, 2.43095231  , 0.61        , 3           , 12          , 0.0353428647, 0
-0.110939518, 0.08510764  , -9.79454    , 0.00138124474, 0.00179961754, 0.000219536087, -0.18032898 , -0.164352164, 0.450451672 , -0.009220406, -0.0125684505, 2.43095422  , 0.62        , 3           , 50          , 0           , 0
-0.103829369, 0.07464763  , -9.79498    , -0.000227764758, -0.00123818952, 0.0001366647, -0.18032898 , -0.164352164, 0.450451672 , -0.009222703, -0.0125808194, 2.43095517  , 0.63        , 3           , 11          , 0.0113550443, 0.0113550527
-0.112670369, 0.09546003  , -9.780951   , -0.000230801088, -0.0005342748, 0.0009147275, -0.180194154, -0.164217338, 0.450451672 , -0.009225127, -0.0125860767, 2.43096471  , 0.64        , 3           , 12          , 0.0353428647, 0
-0.127055   , 0.09571479  , -9.806371   , 0.00031060644, 0.003974581 , -0.00105345808, -0.180126742, -0.164352164, 0.4506539   , -0.00922188349, -0.01254643 , 2.43095374  , 0.65        , 3           , 50          , 0           , 0
-0.123712741, 0.07491326  , -9.804623   , 0.00151411665, 0.00341957039, -0.0003423853, -0.18032898 , -0.164284751, 0.450519085 , -0.00920669548, -0.0125122685, 2.43095     , 0.66        , 3           , 11          , 0.0113550443, 0.0113550527
-0.115601406, 0.102832064 , -9.815745   , 0.00082770997, -0.000597508042, -0.000705032959, -0.18032898 , -0.164284751, 0.450519085 , -0.009198329, -0.0125183081, 2.43094277  , 0.67        , 3           , 12          , 0.0353428647, 0
-0.130181268, 0.09623339  , -9.815432   , 0.00153297267, -0.000240772337, 0.000923392246, -0.179991916, -0.164621815, 0.4505865   , -0.009183116, -0.0125206327, 2.43095231  , 0.68        , 3           , 50          , 0           , 0
-0.09930724 , 0.07949968  , -9.777751   , 0.00125099812, -0.000383466249, 0.000498052046, -0.180261567, -0.164149925, 0.450451672 , -0.009170669, -0.01252442 , 2.430957    , 0.69        , 3           , 11          , 0.0113550443, 0.0113550527
-0.09734392 , 0.09120683  , -9.777235   , -0.000420780823, -0.00117454492, 0.000136045943, -0.180126742, -0.164217338, 0.4505865   , -0.009135091, -0.0123984115, 2.430958    , 0.7         , 3           , 12          , 0.03564598  , 0
-0.1341922  , 0.0723044351, -9.79748249 , 0.000138722869, -0.0001148565, -7.159587E-05, -0.180126742, -0.164217338, 0.4505865   , -0.009133695, -0.0123995664, 2.43095756  , 0.71        , 3           , 50          , 0           , 0
-0.127861649, 0.07088411  , -9.7997     , 0.00153919344, 0.00221760455, -0.000343968684, -0.180194154, -0.1640151  , 0.4505865   , -0.009118259, -0.0123774232, 2.43095422  , 0.72        , 3           , 11          , 0.0101342881, 0.0101342835
-0.126326859, 0.08261623  , -9.805063   , 0.00190184056, 0.000319428538, 7.920135E-06, -0.180126742, -0.164149925, 0.450788736 , -0.00909923948, -0.0123742288, 2.43095422  , 0.73        , 3           , 12          , 0.03564598  , 0
-0.136480778, 0.104374118 , -9.799175   , 0.00169754284, -0.00116021931, 0.000357826066, -0.180126742, -0.164419577, 0.4506539   , -0.009082311, -0.0123857968, 2.43095756  , 0.74        , 3           , 50          , 0           , 0
-0.11757461 , 0.0929023   , -9.808118   , 0.000353776064, -0.000535766245, 0.00190650322, -0.180126742, -0.164419577, 0.4506539   , -0.009079009, -0.0123909824, 2.430977    , 0.75        , 3           , 11          , 0.0101342881, 0.0101342835
-0.101452343, 0.0889959   , -9.776372   , 0.002247615 , 0.00187042577, 0.000718296564, -0.180194154, -0.1645544  , 0.450721323 , -0.009056619, -0.0123722134, 2.43098378  , 0.76        , 3           , 12          , 0.03564598  , 0
-0.10554681 , 0.08545721  , -9.783197   , 0.000490258739, 0.000239488378, 0.00035439877, -0.180261567, -0.164217338, 0.4506539   , -0.009051761, -0.0123697845, 2.4309876   , 0.77        , 3           , 50          , 0           , 0
-0.09073139 , 0.07044974  , -9.79987    , -0.0009985069, 0.0013557194, -0.000427757332, -0.180126742, -0.164689228, 0.4505865   , -0.009061692, -0.0123562682, 2.43098283  , 0.78        , 3           , 11          , 0.0101342881, 0.0101342835
-0.111173153, 0.07420593  , -9.77244    , 0.0006948454, 0.00157835218, -0.0007020676, -0.180126742, -0.164689228, 0.4505865   , -0.009054653, -0.0123405475, 2.43097615  , 0.79        , 3           , 12          , 0.03564598  , 0
-0.127930954, 0.09798118  , -9.806369   , -0.00198787218, 0.000465275632, -8.093082E-05, -0.180126742, -0.1645544  , 0.450384259 , -0.008967428, -0.01216665 , 2.43097329  , 0.8         , 3           , 50          , 0           , 0
-0.09871479 , 0.0894272551, -9.779964   , 0.00111822982, 0.000556675368, -0.000490142149, -0.180261567, -0.164082512, 0.4506539   , -0.00895618647, -0.01216113 , 2.43096852  , 0.81        , 3           , 11          , 0.009379287 , 0.009379281
-0.107385613, 0.08590241  , -9.775074   , -0.000642162631, -0.000370347349, -7.597718E-05, -0.180126742, -0.164419577, 0.4506539   , -0.0089626  , -0.0121648367, 2.43096757  , 0.82        , 3           , 12          , 0.03599975  , 0
-0.09120377 , 0.0966997147, -9.82146    , -0.00106590672, -0.000302819826, 0.000345962064, -0.180126742, -0.164419577, 0.4506539   , -0.008973301, -0.0121678337, 2.43097138  , 0.83        , 3           , 50          , 0           , 0
-0.134845957, 0.08769502  , -9.809627   , 0.00168193784, 0.000701275654, -0.00126426946, -0.180126742, -0.1645544  , 0.450519085 , -0.008956327, -0.0121609364, 2.43095851  , 0.84        , 3           , 11          , 0.009379287 , 0.009379281
-0.133615747, 0.0782018751, -9.808753   , 0.00148050953, -0.0013415023, -0.0007739625, -0.180531219, -0.164352164, 0.4506539   , -0.008941429, -0.012174421, 2.43095088  , 0.85        , 3           , 12          , 0.03599975  , 0
-0.102897063, 0.08313932  , -9.774147   , -0.00205833418, 0.000394405855, -0.0004345402, -0.180126742, -0.164621815, 0.4506539   , -0.008961959, -0.012170515, 2.43094659  , 0.86        , 3           , 50          , 0           , 0
-0.09934968 , 0.110189319 , -9.779431   , -0.00185862673, 0.00271874759, -0.00148948829, -0.180059329, -0.164352164, 0.450384259 , -0.008980363, -0.0121434638, 2.43093133  , 0.87        , 3           , 11          , 0.009379287 , 0.009379281
-0.1135183  , 0.09016116  , -9.812166   , 0.0011224082, -0.000147233775, 0.0007095574, -0.180059329, -0.164352164, 0.450384259 , -0.008969224, -0.0121448729, 2.43093848  , 0.88        , 3           , 12          , 0.03599975  , 0
-0.137246385, 0.079576686 , -9.802447   , 0.000274742 , -0.000223358642, -0.000565920549, -0.179991916, -0.164284751, 0.4506539   , -0.008966408, -0.0121471537, 2.43093324  , 0.89        , 3           , 50          , 0           , 0
-0.117100641, 0.0938068554, -9.81037    , -0.00115101726, 0.00185030443, -0.0008514891, -0.180194154, -0.164621815, 0.450788736 , -0.008982511, -0.012070124, 2.43092418  , 0.9         , 3           , 11          , 0.008913354 , 0.008913346
-0.10959895 , 0.08373824  , -9.794536   , 0.0009108435, -0.00095149735, -0.000281205663, -0.180126742, -0.164689228, 0.4505865   , -0.008973368, -0.0120796626, 2.43092179  , 0.91        , 3           , 12          , 0.0364022776, 0
-0.109247483, 0.08543623  , -9.764242   , 0.00381001923, -0.001635829, 0.00114389532, -0.180126742, -0.164689228, 0.4505865   , -0.008935409, -0.0120959179, 2.43093324  , 0.92        , 3           , 50          , 0           , 0
-0.120642565, 0.07167113  , -9.790602   , 0.00112110644, -0.0006685009, -0.000562321569, -0.180126742, -0.164284751, 0.4505865   , -0.008924132, -0.0121026514, 2.43092752  , 0.93        , 3           , 11          , 0.008913354 , 0.008913346
-0.110377662, 0.09143961  , -9.80083752 , -0.0004323855, -0.0006086134, -0.0002162845, -0.180261567, -0.164419577, 0.450721323 , -0.008928429, -0.0121087572, 2.43092561  , 0.94        , 3           , 12          , 0.0364022776, 0
-0.120958664, 0.110099152 , -9.811236   , 0.000473696942, 0.00165011152, -0.001338683, -0.180261567, -0.164621815, 0.450721323 , -0.00892353 , -0.0120923761, 2.43091226  , 0.95        , 3           , 50          , 0           , 0
-0.1182219  , 0.114547037 , -9.801705   , 0.00209771423, 0.0015907014, -0.00182565965, -0.180261567, -0.164621815, 0.450721323 , -0.008902328, -0.012076634, 2.43089366  , 0.96        , 3           , 11          , 0.008913354 , 0.008913346
-0.120823123, 0.0919827744, -9.791876   , 0.0018879   , 0.0013077067, -0.0007675655, -0.18032898 , -0.164419577, 0.4505865   , -0.008883357, -0.0120636281, 2.43088555  , 0.97        , 3           , 12          , 0.0364022776, 0
-0.123730011, 0.08695072  , -9.761635   , 0.003371334 , 0.00131773739, 0.0004401326, -0.180261567, -0.164352164, 0.450788736 , -0.008849695, -0.01205041 , 2.43089032  , 0.98        , 3           , 50          , 0           , 0
-0.115225196, 0.100086585 , -9.805811   , 0.00181747135, 0.00151840888, 0.00135146163, -0.180194154, -0.164284751, 0.450519085 , -0.008831682, -0.0120351063, 2.43090367  , 0.99        , 3           , 11          , 0.008913354 , 0.008913346
-0.132004261, 0.09535235  , -9.81545    , -0.000681234756, 0.0007350606, -0.000142953591, -0.180194154, -0.164284751, 0.450519085 , -0.008965278, -0.0120187337, 2.43090367  , 1           , 3           , 12          , 0.0368515663, 0
-0.138550013, 0.08811764  , -9.788411   , 0.000240979032, -0.000173819572, -0.0004932556, -0.180194154, -0.164419577, 0.4505865   , -0.008962809, -0.0120205143, 2.430899    , 1.01        , 3           , 50          , 0           , 0
-0.119851716, 0.09782806  , -9.789131   , -0.00264955033, -0.001038091, -0.000225518583, -0.180261567, -0.164486989, 0.450856149 , -0.008989278, -0.0120309154, 2.43089652  , 1.02        , 3           , 11          , 0.008635454 , 0.008635447
-0.125699952, 0.09882061  , -9.7955     , -0.0008179174, -0.00018098086, -0.000145022321, -0.180194154, -0.164284751, 0.4505865   , -0.00899744 , -0.012032738, 2.430895    , 1.03        , 3           , 12          , 0.0368515663, 0
-0.12552397 , 0.0722563341, -9.813236   , 0.000166375728, 0.0006000062, -0.0007749292, -0.180194154, -0.164284751, 0.4505865   , -0.008995682, -0.0120268082, 2.430887    , 1.04        , 3           , 50          , 0           , 0
-0.123828873, 0.0966161638, -9.81719    , 0.00164521649, 0.001595516 , 0.000928728434, -0.180194154, -0.164419577, 0.450384259 , -0.008979341, -0.0120107681, 2.430896    , 1.05        , 3           , 11          , 0.008635454 , 0.008635447
-0.11039862 , 0.08829819  , -9.805822   , 0.00214453158, 0.0004022028, -0.000554132857, -0.1803964  , -0.164149925, 0.450856149 , -0.008957828, -0.0120067969, 2.43089032  , 1.06        , 3           , 12          , 0.0368515663, 0
-0.134285033, 0.06776569  , -9.789366   , -0.0006154626, 0.00158023019, -0.00127147243, -0.180194154, -0.164352164, 0.450923562 , -0.008963829, -0.0119911088, 2.430878    , 1.07        , 3           , 50          , 0           , 0
-0.129539967, 0.08931338  , -9.772969   , 0.00100539241, 0.00236552  , 8.711709E-06, -0.180194154, -0.164352164, 0.450923562 , -0.00895377249, -0.0119674532, 2.430878    , 1.08        , 3           , 11          , 0.008635454 , 0.008635447
-0.129908875, 0.08670853  , -9.80191    , 0.00121594092, 0.002648518 , 0.0002220364, -0.180194154, -0.164486989, 0.4506539   , -0.00894163549, -0.01194095 , 2.43087983  , 1.09        , 3           , 12          , 0.0368515663, 0
-0.128081039, 0.0840227   , -9.814563   , 0.00143404619, 0.00091064506, 0.000148804829, -0.1804638  , -0.164284751, 0.450856149 , -0.008929291, -0.0120732412, 2.43088078  , 1.1         , 3           , 50          , 0           , 0
-0.129329592, 0.101535283 , -9.785121   , 0.000938650046, 0.00118886877, 0.0005707404, -0.18032898 , -0.1645544  , 0.450856149 , -0.008919973, -0.0120613016, 2.43088651  , 1.11        , 3           , 11          , 0.008481232 , 0.008481226
-0.122237161, 0.117321432 , -9.807601   , 0.00136559375, 0.00041742716, -0.0003467242, -0.18032898 , -0.1645544  , 0.450856149 , -0.008906275, -0.0120571591, 2.43088317  , 1.12        , 3           , 12          , 0.03734554  , 0
-0.112724096, 0.0806869343, -9.815363   , 0.0011430108, 0.00259812456, -0.0002737145, -0.180261567, -0.1645544  , 0.4506539   , -0.008894809, -0.0120312031, 2.43087983  , 1.13        , 3           , 50          , 0           , 0
-0.133855581, 0.101589948 , -9.785608   , 0.00206854288, 0.00112611672, 0.000293362158, -0.1803964  , -0.164352164, 0.450788736 , -0.008874157, -0.0120199155, 2.43088269  , 1.14        , 3           , 11          , 0.008481232 , 0.008481226
-0.1606309  , 0.09248079  , -9.801217   , 9.294545E-05, 0.0009719675, 0.00148471107, -0.180261567, -0.164352164, 0.450923562 , -0.008873405, -0.012010064, 2.430898    , 1.15        , 3           , 12          , 0.03734554  , 0
-0.127065644, 0.09392077  , -9.809543   , -0.001318184, 0.0007512437, 0.00140716636, -0.180261567, -0.164149925, 0.4505865   , -0.00888675451, -0.0120024243, 2.43091178  , 1.16        , 3           , 50          , 0           , 0
-0.108348943, 0.105877861 , -9.807542   , -0.0002580343, 0.000406446459, 0.00021077838, -0.180261567, -0.164149925, 0.4505865   , -0.008889359, -0.0119983414, 2.43091416  , 1.17        , 3           , 11          , 0.008481232 , 0.008481226
-0.126609564, 0.0907936841, -9.820399   , -0.0006873135, 0.00160023454, 0.000705087732, -0.180126742, -0.164149925, 0.450721323 , -0.00889631547, -0.0119822789, 2.43092084  , 1.18        , 3           , 12          , 0.03734554  , 0
-0.124379247, 0.0983278155, -9.787807   , -0.0026638268, 0.00137568812, -0.0002933374, -0.1803964  , -0.164217338, 0.450721323 , -0.008922918, -0.0119685484, 2.430918    , 1.19        , 3           , 50          , 0           , 0
-0.0844722763, 0.105944462 , -9.776623   , -0.00144505675, 0.00251617539, -0.00176827726, -0.180194154, -0.164149925, 0.4506539   , -0.009068704, -0.0120978216, 2.43090177  , 1.2         , 3           , 11          , 0.008402513 , 0.008402508
-0.117801316, 0.0837915838, -9.781942   , 0.000249507779, 0.00238684937, -0.002961377, -0.180194154, -0.164149925, 0.4506539   , -0.009065848, -0.0120742219, 2.43087173  , 1.21        , 3           , 12          , 0.0378820524, 0
-0.120830134, 0.08751361  , -9.80455    , -0.0006578536, 0.0006912617, 0.000775360735, -0.180059329, -0.164217338, 0.450721323 , -0.009072519, -0.01206724 , 2.43087935  , 1.22        , 3           , 50          , 0           , 0
-0.112730026, 0.0802357942, -9.815365   , 0.000832717342, -0.0008473179, 0.00106242567, -0.180059329, -0.164352164, 0.450923562 , -0.00906432047, -0.012075616, 2.43089032  , 1.23        , 3           , 11          , 0.008402513 , 0.008402508
-0.13706699 , 0.095344305 , -9.795601   , 0.00146190834, 0.000283236324, -0.000133659691, -0.1799245  , -0.164486989, 0.450721323 , -0.009049686, -0.012072796, 2.43088841  , 1.24        , 3           , 12          , 0.0378820524, 0
-0.1228461  , 0.107826851 , -9.799961   , 0.00357184513, 0.00205734465, 0.0006559074, -0.1799245  , -0.164486989, 0.450721323 , -0.009014045, -0.0120521616, 2.430895    , 1.25        , 3           , 50          , 0           , 0
-0.111744016, 0.08564653  , -9.817595   , 0.0008836448, 0.00309506943, 0.0007862925, -0.180126742, -0.1645544  , 0.450721323 , -0.009005301, -0.0120211439, 2.43090272  , 1.26        , 3           , 11          , 0.008402513 , 0.008402508
-0.117780373, 0.08693302  , -9.77695751 , -0.00319529069, -0.000100229, 0.00175119645, -0.180126742, -0.164217338, 0.450788736 , -0.009037465, -0.0120219877, 2.43092     , 1.27        , 3           , 12          , 0.0378820524, 0
-0.105979517, 0.08235435  , -9.798129   , -0.0039770063, 0.000879995234, 0.0014665561, -0.180261567, -0.164352164, 0.450788736 , -0.009077409, -0.0120130554, 2.43093467  , 1.28        , 3           , 50          , 0           , 0
-0.10540843 , 0.0860157162, -9.815285   , -0.00137634063, 0.00307978736, -0.000213124033, -0.180261567, -0.164352164, 0.450788736 , -0.009091144, -0.0119822789, 2.43093228  , 1.29        , 3           , 11          , 0.008402513 , 0.008402508
-0.127283588, 0.08660257  , -9.779743   , -0.00158932689, 0.000852877332, -0.000287844276, -0.179991916, -0.164824054, 0.450721323 , -0.00912084 , -0.0119432947, 2.43092942  , 1.3         , 3           , 12          , 0.0384589434, 0
-0.10643144 , 0.08860926  , -9.778219   , -0.005120401, 0.000969784858, -0.000374723342, -0.180194154, -0.164284751, 0.450856149 , -0.009171997, -0.0119336322, 2.43092561  , 1.31        , 3           , 50          , 0           , 0
-0.11496821 , 0.09501277  , -9.77419    , -0.00426924229, 6.042506E-05, -0.001502333, -0.180059329, -0.164284751, 0.450721323 , -0.009214511, -0.0119331665, 2.43091035  , 1.32        , 3           , 11          , 0.008365593 , 0.008365591
-0.129349008, 0.0979487449, -9.791916   , -0.00172927254, 0.0007111423, 0.0007001613, -0.180059329, -0.164284751, 0.450721323 , -0.009231885, -0.0119259916, 2.430918    , 1.33        , 3           , 12          , 0.0384589434, 0
-0.1367589  , 0.07602868  , -9.822346   , -0.00384343229, -0.000218271365, -0.000158738272, -0.18032898 , -0.1645544  , 0.450519085 , -0.009270302, -0.01192819 , 2.430916    , 1.34        , 3           , 50          , 0           , 0
-0.113827869, 0.09474602  , -9.832489   , -0.001582253, -0.00062534085, -0.0007139286, -0.179991916, -0.164217338, 0.4506539   , -0.009286038, -0.0119345076, 2.430909    , 1.35        , 3           , 11          , 0.008365593 , 0.008365591
-0.146128863, 0.09723103  , -9.788431   , 0.00264824275, 0.0006703535, -5.6512763E-05, -0.180126742, -0.164486989, 0.450856149 , -0.009259549, -0.01192781 , 2.43090844  , 1.36        , 3           , 12          , 0.0384589434, 0
-0.104772195, 0.08489412  , -9.752911   , 0.002427692 , 0.00235830969, -0.0006906062, -0.180126742, -0.164486989, 0.450856149 , -0.0092351865, -0.0119042918, 2.43090081  , 1.37        , 3           , 50          , 0           , 0
-0.113730423, 0.08061592  , -9.790964   , 0.00221269438, 0.00299039856, -0.000761251838, -0.180126742, -0.164419577, 0.450788736 , -0.009212966, -0.01187446 , 2.43089318  , 1.38        , 3           , 11          , 0.008365593 , 0.008365591
-0.117236696, 0.0811988   , -9.817656   , -0.000456342241, 0.000297389081, 0.0005641679, -0.180194154, -0.164217338, 0.450721323 , -0.009217598, -0.011871432, 2.430899    , 1.39        , 3           , 12          , 0.0384589434, 0
-0.135106713, 0.100353733 , -9.815905   , -0.0004763723, -0.00129694655, 0.000136703748, -0.180261567, -0.1645544  , 0.450721323 , -0.009173382, -0.0119357612, 2.43089986  , 1.4         , 3           , 50          , 0           , 0
-0.132696286, 0.09203935  , -9.767559   , 1.38965879E-05, -0.000448907958, 0.00049348193, -0.180194154, -0.164352164, 0.450721323 , -0.009173302, -0.0119402036, 2.43090463  , 1.41        , 3           , 11          , 0.008347257 , 0.008347257
-0.1287046  , 0.0825505853, -9.777512   , -0.00225180923, 0.000732462155, -0.000150918568, -0.180194154, -0.164352164, 0.450721323 , -0.009195801, -0.0119328927, 2.4309032   , 1.42        , 3           , 12          , 0.0390740521, 0
-0.11586652 , 0.08967309  , -9.793203   , -0.00177480222, 0.004184976 , -0.000425835664, -0.1803964  , -0.164486989, 0.450856149 , -0.009213493, -0.0118910847, 2.430899    , 1.43        , 3           , 50          , 0           , 0
-0.124062866, 0.09285577  , -9.772008   , -0.0019881574, 0.00439471472, -0.00127411028, -0.180194154, -0.164284751, 0.450990975 , -0.00923322 , -0.0118472558, 2.43088555  , 1.44        , 3           , 11          , 0.008347257 , 0.008347257
-0.12235985 , 0.112758525 , -9.79225349 , 0.000773064 , 0.00307590747, 0.000361258979, -0.180261567, -0.164419577, 0.450923562 , -0.00922553 , -0.0118164634, 2.430889    , 1.45        , 3           , 12          , 0.0390740521, 0
-0.116992883, 0.09835766  , -9.822102   , -0.00161874783, 0.00122949877, -7.6561686E-05, -0.180261567, -0.164419577, 0.450923562 , -0.009241706, -0.0118041756, 2.430888    , 1.46        , 3           , 50          , 0           , 0
-0.121146545, 0.100573577 , -9.79591    , -0.00253230822, 0.0003082038, -0.000435423834, -0.180126742, -0.164419577, 0.450788736 , -0.009266978, -0.0118011339, 2.43088365  , 1.47        , 3           , 11          , 0.008347257 , 0.008347257
-0.13410224 , 0.0830897242, -9.784782   , -0.00288581266, 0.000376206968, -0.0006488646, -0.18032898 , -0.164419577, 0.4510584   , -0.009295758, -0.0117974337, 2.430877    , 1.48        , 3           , 12          , 0.0390740521, 0
-0.1265032  , 0.07354634  , -9.791091   , -0.000483360869, 4.048576E-05, -0.000496944354, -0.180126742, -0.1645544  , 0.450856149 , -0.009300536, -0.0117970761, 2.4308722   , 1.49        , 3           , 50          , 0           , 0
-0.105687782, 0.108925417 , -9.784006   , 0.00123065873, -0.0008500316, 0.000426634739, -0.180126742, -0.1645544  , 0.450856149 , -0.009270812, -0.0119532207, 2.430876    , 1.5         , 3           , 11          , 0.008330645 , 0.008330645
-0.1297147  , 0.107397988 , -9.78284    , -0.00166976987, 0.000186258738, -0.000150311447, -0.180194154, -0.164352164, 0.450856149 , -0.009287491, -0.0119513711, 2.43087459  , 1.51        , 3           , 12          , 0.0397252366, 0
-0.132708445, 0.0831025   , -9.793359   , -0.00209179381, -2.77773E-05, 0.000836268766, -0.180194154, -0.164621815, 0.450923562 , -0.00930850953, -0.0119515723, 2.43088269  , 1.52        , 3           , 50          , 0           , 0
-0.1191657  , 0.08067821  , -9.790553   , -0.001459837, 0.00061003986, 0.000204498981, -0.180261567, -0.164284751, 0.450856149 , -0.009323133, -0.0119454525, 2.430885    , 1.53        , 3           , 11          , 0.008330645 , 0.008330645
-0.123198405, 0.0825457647, -9.795095   , -0.001741893, 0.00046734573, -0.000362109829, -0.180261567, -0.164284751, 0.450856149 , -0.009340508, -0.0119408136, 2.43088126  , 1.54        , 3           , 12          , 0.0397252366, 0
-0.116078   , 0.105942532 , -9.799917   , -0.000601263542, -0.00156635733, 0.00105269917, -0.180194154, -0.164419577, 0.450923562 , -0.009346649, -0.011956377, 2.43089223  , 1.55        , 3           , 50          , 0           , 0
-0.119816378, 0.09517859  , -9.806317   , 0.0008755564, -0.00050046423, -0.000139543889, -0.18032898 , -0.164419577, 0.450990975 , -0.009337877, -0.0119613949, 2.4308908   , 1.56        , 3           , 11          , 0.008330645 , 0.008330645
-0.135697335, 0.09801561  , -9.789704   , -0.000268765754, 0.00237793662, -0.0007054387, -0.1803964  , -0.1645544  , 0.450923562 , -0.009340477, -0.0119376816, 2.43088365  , 1.57        , 3           , 12          , 0.0397252366, 0
-0.110249512, 0.10091681  , -9.801701   , -0.002170453, 0.0014499583, -0.0004332008, -0.1803964  , -0.1645544  , 0.450923562 , -0.009362128, -0.0119232228, 2.43087888  , 1.58        , 3           , 50          , 0           , 0
-0.104434304, 0.09811206  , -9.79308    , -0.00272940448, 0.000319879648, 0.0001275043, -0.1803964  , -0.164486989, 0.450990975 , -0.009389437, -0.0119200116, 2.43088031  , 1.59        , 3           , 11          , 0.008330645 , 0.008330645
-0.14089033 , 0.108093932 , -9.816369   , 0.001741132 , 0.000317320926, -0.000416250783, -0.180059329, -0.164486989, 0.450923562 , -0.00942895748, -0.0119562112, 2.430877    , 1.6         , 3           , 12          , 0.0404103845, 0
-0.126454756, 0.106095023 , -9.809034   , 0.00343331927, 0.000610341143, -0.00210314 , -0.180194154, -0.1645544  , 0.450990975 , -0.009394371, -0.0119503057, 2.430856    , 1.61        , 3           , 50          , 0           , 0
-0.11978554 , 0.09654263  , -9.809475   , -0.00135622045, -0.00139307429, 0.00126188411, -0.180194154, -0.1645544  , 0.450990975 , -0.009408086, -0.0119641162, 2.43086839  , 1.62        , 3           , 11          , 0.008308436 , 0.008308439
-0.123449288, 0.09342709  , -9.809517   , -0.0016410203, -0.00111342408, -0.000434223621, -0.180261567, -0.164352164, 0.450990975 , -0.009424445, -0.0119752912, 2.430864    , 1.63        , 3           , 12          , 0.0404103845, 0
-0.10853076 , 0.09189369  , -9.808053   , -0.00107551389, -0.001109601, 0.00069856  , -0.1804638  , -0.164284751, 0.451328039 , -0.009435284, -0.01198632 , 2.43087125  , 1.64        , 3           , 50          , 0           , 0
-0.106796831, 0.0806511   , -9.825262   , -0.0005040166, -0.002513608, 0.000133949186, -0.1803964  , -0.1645544  , 0.4511258   , -0.009440346, -0.0120114423, 2.43087316  , 1.65        , 3           , 11          , 0.008308436 , 0.008308439
-0.119589061, 0.07758291  , -9.807745   , -0.00193557772, 0.00113718188, -0.002127294, -0.1803964  , -0.1645544  , 0.4511258   , -0.009459443, -0.012000273, 2.43085122  , 1.66        , 3           , 12          , 0.0404103845, 0
-0.124885432, 0.08400666  , -9.820866   , 0.0014562431, 0.0008785427, 0.000148374937, -0.18032898 , -0.164621815, 0.450990975 , -0.009444896, -0.0119914738, 2.43085313  , 1.67        , 3           , 50          , 0           , 0
-0.115321152, 0.10402599  , -9.769635   , 0.0006055221, 0.00143593969, -0.0009848578, -0.18032898 , -0.164352164, 0.4511932   , -0.009438722, -0.0119772116, 2.43084264  , 1.68        , 3           , 11          , 0.008308436 , 0.008308439
-0.113666587, 0.0913800746, -9.771935   , -0.00277876528, 0.0005683281, 0.000128186977, -0.180194154, -0.1645544  , 0.451260626 , -0.009466524, -0.0119715137, 2.43084359  , 1.69        , 3           , 12          , 0.0404103845, 0
-0.1282111  , 0.08213192  , -9.788809   , 0.0006187454, 1.80396019E-05, 0.000142935984, -0.18032898 , -0.164419577, 0.4510584   , -0.009453486, -0.0119836787, 2.4308455   , 1.7         , 3           , 50          , 0           , 0
-0.124116361, 0.07585112  , -9.813663   , 0.0003410788, -0.00111013465, -0.00127280387, -0.18032898 , -0.164419577, 0.4510584   , -0.00944992248, -0.0119948983, 2.43083262  , 1.71        , 3           , 11          , 0.008276829 , 0.008276832
-0.115136988, 0.105960622 , -9.808496   , -0.00134569639, -0.002529416, 0.000129812048, -0.18032898 , -0.164352164, 0.4511258   , -0.0094634  , -0.0120201791, 2.430834    , 1.72        , 3           , 12          , 0.0411274545, 0
-0.114317477, 0.108112022 , -9.780459   , 0.000320495 , 0.00311334338, -0.0007012199, -0.180194154, -0.1645544  , 0.4510584   , -0.009460107, -0.0119891129, 2.43082643  , 1.73        , 3           , 50          , 0           , 0
-0.123672053, 0.08208784  , -9.791486   , 0.00147118676, -0.000820921152, 0.00184081006, -0.180261567, -0.164419577, 0.4510584   , -0.009445617, -0.0119971475, 2.4308455   , 1.74        , 3           , 11          , 0.008276829 , 0.008276832
-0.122006372, 0.109548278 , -9.778252   , 0.0025913883, 0.0008761038, -0.0001290809, -0.180261567, -0.164419577, 0.4510584   , -0.009419687, -0.0119883977, 2.43084359  , 1.75        , 3           , 12          , 0.0411274545, 0
-0.118904695, 0.100975476 , -9.789112   , -0.00192251778, -0.0002807192, -0.00128203747, -0.180126742, -0.164486989, 0.4510584   , -0.009438758, -0.0119913267, 2.43083119  , 1.76        , 3           , 50          , 0           , 0
-0.128895357, 0.0966050848, -9.796437   , -0.00221790583, 0.00253302627, 0.000416209572, -0.180194154, -0.1645544  , 0.4511258   , -0.009460986, -0.0119659575, 2.430835    , 1.77        , 3           , 11          , 0.008276829 , 0.008276832
-0.09589446 , 0.0908183455, -9.800728   , 0.00259048375, 0.00115767121, 0.0007189653, -0.180126742, -0.164486989, 0.4510584   , -0.009435165, -0.0119543141, 2.43084216  , 1.78        , 3           , 12          , 0.0411274545, 0
-0.121066049, 0.07348558  , -9.791954   , -0.001367511, 0.00197562762, 0.0009843674, -0.180126742, -0.164486989, 0.4510584   , -0.009448956, -0.0119344648, 2.43085217  , 1.79        , 3           , 50          , 0           , 0
-0.12951301 , 0.0777301   , -9.816859   , 4.8855145E-05, 0.003381406 , 0.000710312743, -0.180261567, -0.164486989, 0.4511258   , -0.009434109, -0.0119153177, 2.43085837  , 1.8         , 3           , 11          , 0.008233233 , 0.008233233
-0.122199126, 0.08573553  , -9.807731   , -0.0007866951, 0.0008415864, -0.00071023067, -0.180194154, -0.164621815, 0.4511932   , -0.009441891, -0.0119069684, 2.43085122  , 1.81        , 3           , 12          , 0.0418744534, 0
-0.122853592, 0.07263327  , -9.800559   , 0.00288271834, 0.00142954919, 0.000437907031, -0.180194154, -0.164352164, 0.4511258   , -0.009413113, -0.0118926326, 2.430855    , 1.82        , 3           , 50          , 0           , 0
-0.119222194, 0.07482987  , -9.795549   , -0.0005168143, 0.00337758265, -0.000705008337, -0.180194154, -0.164352164, 0.4511258   , -0.009418194, -0.0118589234, 2.430848    , 1.83        , 3           , 11          , 0.008233233 , 0.008233233
-0.104161039, 0.08724889  , -9.784084   , -0.00135647214, 0.00196402986, 0.000419020915, -0.180261567, -0.1645544  , 0.4510584   , -0.009431806, -0.0118392454, 2.43085217  , 1.84        , 3           , 12          , 0.0418744534, 0
-0.116845191, 0.0891781449, -9.776941   , 6.38628262E-05, 0.000284188485, 0.000140464457, -0.18032898 , -0.164621815, 0.4511932   , -0.009431184, -0.01183639 , 2.43085313  , 1.85        , 3           , 50          , 0           , 0
-0.1343618  , 0.0948567241, -9.794227   , 0.000914183154, -0.000554782455, -0.00183464889, -0.179991916, -0.164486989, 0.4510584   , -0.009421826, -0.01184211 , 2.430835    , 1.86        , 3           , 11          , 0.008233233 , 0.008233233
-0.129032746, 0.089798525 , -9.784716   , 0.00062699616, 0.000569572 , -0.000421542471, -0.179991916, -0.164486989, 0.4510584   , -0.009415505, -0.0118364561, 2.43083072  , 1.87        , 3           , 12          , 0.0418744534, 0
-0.11059697 , 0.107256383 , -9.807101   , 0.0009109802, 0.0002899176, -0.000138121977, -0.1799245  , -0.164756641, 0.450923562 , -0.00940637849, -0.0118335709, 2.43082929  , 1.88        , 3           , 50          , 0           , 0
-0.127805248, 0.07405426  , -9.803303   , 0.0003468679, 4.52948734E-06, -0.00127133983, -0.180194154, -0.164419577, 0.4510584   , -0.009402758, -0.0118336445, 2.430817    , 1.89        , 3           , 11          , 0.008233233 , 0.008233233
-0.11666137 , 0.09825408  , -9.792721   , -0.000447457249, -0.0006279464, -0.00127737247, -0.180059329, -0.164419577, 0.4511932   , -0.009340922, -0.011923925, 2.430803    , 1.9         , 3           , 12          , 0.042649474 , 0
-0.09288763 , 0.090203    , -9.762743   , -0.002711795, 0.000483037322, -0.000156022157, -0.180059329, -0.164419577, 0.4511932   , -0.009368022, -0.0119191119, 2.43080163  , 1.91        , 3           , 50          , 0           , 0
-0.121752068, 0.09063543  , -9.790532   , 9.16517456E-05, 0.00444404176, -0.00239707762, -0.180194154, -0.164419577, 0.4510584   , -0.009366815, -0.0118748974, 2.43077683  , 1.92        , 3           , 11          , 0.008177661 , 0.00817765947
-0.137650684, 0.08720924  , -9.789763   , -0.00187025382, 0.00161502673, -0.000432873116, -0.180194154, -0.164217338, 0.4510584   , -0.009385465, -0.0118587874, 2.43077254  , 1.93        , 3           , 12          , 0.042649474 , 0
-0.1332036  , 0.0812881   , -9.788851   , -0.00072783744, -0.0009114184, -0.0001489733, -0.180194154, -0.164689228, 0.4510584   , -0.009392725, -0.0118679143, 2.430771    , 1.94        , 3           , 50          , 0           , 0
-0.138786048, 0.09633287  , -9.815045   , 0.000403753278, -0.00118534127, 0.000703472761, -0.180126742, -0.164419577, 0.450923562 , -0.009388774, -0.0118797012, 2.43077826  , 1.95        , 3           , 11          , 0.008177661 , 0.00817765947
-0.118003622, 0.10497833  , -9.775076   , 0.00011362951, -6.100093E-05, -0.00296909572, -0.180126742, -0.164419577, 0.450923562 , -0.00938728452, -0.01188059 , 2.43074822  , 1.96        , 3           , 12          , 0.042649474 , 0
-0.113366514, 0.073843345 , -9.790989   , -0.00158692256, 0.00133536919, -0.00127960253, -0.180126742, -0.164419577, 0.4511932   , -0.009402999, -0.0118673565, 2.43073583  , 1.97        , 3           , 50          , 0           , 0
-0.140269682, 0.08062505  , -9.83501    , -0.000443200872, -0.0011910696, 0.00126459682, -0.179991916, -0.164217338, 0.4511258   , -0.009407584, -0.011879148, 2.43074822  , 1.98        , 3           , 11          , 0.008177661 , 0.00817765947
-0.11895863 , 0.08843395  , -9.816282   , -0.00158413465, 0.0007722391, -0.00128047052, -0.180261567, -0.1645544  , 0.450990975 , -0.009423273, -0.0118715493, 2.43073583  , 1.99        , 3           , 12          , 0.042649474 , 0
-0.107485078, 0.104940742 , -9.800307   , -0.000113440074, -0.000433191657, 0.0001355862, -0.180261567, -0.1645544  , 0.450990975 , -0.009352914, -0.0119974418, 2.43073583  , 2           , 3           , 50          , 0           , 0
-0.109819673, 0.102678306 , -9.790391   , 0.002148348 , -0.000699472264, 0.00184091285, -0.179991916, -0.164621815, 0.4510584   , -0.009331653, -0.0120042628, 2.430755    , 2.01        , 3           , 11          , 0.008110869 , 0.008110865
-0.117768258, 0.120791316 , -9.78179    , -0.0009563753, -0.00128361606, 0.0004128711, -0.180194154, -0.164284751, 0.4511932   , -0.009341267, -0.0120170591, 2.43075871  , 2.02        , 3           , 12          , 0.04345068  , 0
-0.10306783 , 0.0989954   , -9.792163   , 0.0029889103, 0.000432512432, -0.00013116296, -0.18032898 , -0.164486989, 0.450923562 , -0.009311362, -0.0120127453, 2.43075776  , 2.03        , 3           , 50          , 0           , 0
-0.1032572  , 0.082327    , -9.799463   , -0.000107864042, -0.0015594518, 0.000133850481, -0.18032898 , -0.164486989, 0.450923562 , -0.009312461, -0.0120283291, 2.43075871  , 2.04        , 3           , 11          , 0.008110869 , 0.008110865
-0.133136123, 0.08937705  , -9.779324   , -0.00264289835, -0.00298446766, -0.00016270885, -0.180126742, -0.164486989, 0.4510584   , -0.00933887251, -0.0120581873, 2.43075776  , 2.05        , 3           , 12          , 0.04345068  , 0
-0.115908019, 0.09410296  , -9.768778   , 0.00186454109, -0.0009829608, -0.0029639753, -0.180194154, -0.164217338, 0.4511932   , -0.009319871, -0.0120682931, 2.4307282   , 2.06        , 3           , 50          , 0           , 0
-0.0976035744, 0.100295655 , -9.795279   , -0.00124953908, 0.000685424835, -0.00128063292, -0.180194154, -0.164689228, 0.450990975 , -0.009332211, -0.0120615587, 2.43071485  , 2.07        , 3           , 11          , 0.008110869 , 0.008110865
-0.110332161, 0.0598597527, -9.802775   , -0.0004066038, 0.00153584918, -0.00155791792, -0.180194154, -0.164689228, 0.450990975 , -0.009336088, -0.0120463455, 2.43069959  , 2.08        , 3           , 12          , 0.04345068  , 0
-0.108746931, 0.099232316 , -9.842376   , 0.002398801 , 0.00549686328, -0.000408523483, -0.180126742, -0.164284751, 0.450856149 , -0.009312046, -0.0119914161, 2.43069482  , 2.09        , 3           , 50          , 0           , 0
-0.128937542, 0.0822876841, -9.832204   , -0.00435138354, 0.0007154589, 0.00237829937, -0.18032898 , -0.164284751, 0.451260626 , -0.009351961, -0.011911328, 2.43071866  , 2.1         , 3           , 11          , 0.00803555548, 0.008035553
-0.114816293, 0.0737852   , -9.768853   , 0.00102071743, -0.000656081829, 0.000705926563, -0.180126742, -0.164486989, 0.4510584   , -0.009341841, -0.011917823, 2.43072534  , 2.11        , 3           , 12          , 0.0442763232, 0
-0.114122026, 0.09540038  , -9.758363   , -0.00068843615, 0.002148106 , -0.000427785475, -0.180126742, -0.164486989, 0.4510584   , -0.009348673, -0.0118963821, 2.430721    , 2.12        , 3           , 50          , 0           , 0
-0.1322419  , 0.119188562 , -9.791397   , 0.000447588536, 0.000747917453, -0.00155483745, -0.179991916, -0.164217338, 0.450923562 , -0.00934401 , -0.01188905 , 2.43070531  , 2.13        , 3           , 11          , 0.00803555548, 0.008035553
-0.11968258 , 0.09707239  , -9.832975   , 0.003287265 , -0.00204862654, 0.0009968297, -0.180059329, -0.164284751, 0.4511258   , -0.009311259, -0.011909442, 2.4307158   , 2.14        , 3           , 12          , 0.0442763232, 0
-0.1241194  , 0.111928888 , -9.807637   , 0.00131815206, -0.00375138922, 0.000137395167, -0.180126742, -0.164352164, 0.450990975 , -0.009298098, -0.0119469445, 2.43071771  , 2.15        , 3           , 50          , 0           , 0
-0.151679784, 0.08961163  , -9.784437   , 0.000456442 , -0.000941470847, -0.0007098285, -0.180126742, -0.164352164, 0.450990975 , -0.009293452, -0.0119564235, 2.43071     , 2.16        , 3           , 11          , 0.00803555548, 0.008035553
-0.104693294, 0.09076062  , -9.753339   , -0.00180420326, -0.000675184652, -0.000437392562, -0.180261567, -0.164352164, 0.450788736 , -0.009311442, -0.0119632147, 2.43070626  , 2.17        , 3           , 12          , 0.0442763232, 0
-0.105515331, 0.08771448  , -9.783639   , -0.000977581, 0.00327245123, -0.00240512914, -0.1804638  , -0.164486989, 0.450990975 , -0.009320926, -0.0119307153, 2.43068147  , 2.18        , 3           , 50          , 0           , 0
-0.151436627, 0.0982893556, -9.816038   , 0.00101021794, 0.001596442 , 0.00183954788, -0.180059329, -0.164284751, 0.4510584   , -0.009311041, -0.011914582, 2.43069959  , 2.19        , 3           , 11          , 0.00803555548, 0.008035553
-0.151361272, 0.09165513  , -9.85584    , -0.00325289369, 8.7110966E-05, 0.000969681 , -0.180059329, -0.164284751, 0.4510584   , -0.009392848, -0.0120215612, 2.43071     , 2.2         , 3           , 12          , 0.04512475  , 0
-0.105040915, 0.0841558948, -9.800375   , 0.000135664421, -0.0001715438, -0.00240539946, -0.18032898 , -0.164352164, 0.450856149 , -0.009391204, -0.012023503, 2.43068624  , 2.21        , 3           , 50          , 0           , 0
-0.1284374  , 0.07614601  , -9.752676   , 0.001263889 , 0.000399232435, -0.000138963864, -0.1804638  , -0.1645544  , 0.450990975 , -0.009378548, -0.0120195234, 2.43068433  , 2.22        , 3           , 11          , 0.007956509 , 0.007956504
-0.117706627, 0.088331826 , -9.79051    , 0.0009802312, 0.0006788883, 0.000142690362, -0.1803964  , -0.164486989, 0.4511932   , -0.009368762, -0.012012721, 2.43068624  , 2.23        , 3           , 12          , 0.04512475  , 0
-0.103490613, 0.08652723  , -9.839675   , 0.000149026222, -0.00270562572, -0.0009966174, -0.18032898 , -0.164419577, 0.450856149 , -0.009367155, -0.0120398663, 2.43067622  , 2.24        , 3           , 50          , 0           , 0
-0.134546652, 0.07417482  , -9.815557   , 0.000139431329, -0.0007346694, -0.0007110423, -0.18032898 , -0.164419577, 0.450856149 , -0.009365675, -0.0120472806, 2.430669    , 2.25        , 3           , 11          , 0.007956509 , 0.007956504
-0.124960221, 0.09644386  , -9.762509   , -0.0006946505, -0.00327448151, 0.00041125124, -0.18032898 , -0.164352164, 0.4510584   , -0.009372677, -0.0120799849, 2.43067384  , 2.26        , 3           , 12          , 0.04512475  , 0
-0.11869368 , 0.0967571   , -9.743477   , -0.002108505, -0.003002468, -0.000159974283, -0.180261567, -0.1645544  , 0.451260626 , -0.009393746, -0.0121100228, 2.43067241  , 2.27        , 3           , 50          , 0           , 0
-0.105980426, 0.0912806243, -9.769165   , 0.000145986269, -0.001860925, 0.0009824466, -0.180261567, -0.164486989, 0.4510584   , -0.009392407, -0.0121285385, 2.43068242  , 2.28        , 3           , 11          , 0.007956509 , 0.007956504
-0.103484713, 0.0945663154, -9.815236   , -0.000714166556, 0.0006674293, 0.0004173263, -0.180261567, -0.164486989, 0.4510584   , -0.0093996  , -0.0121218292, 2.43068624  , 2.29        , 3           , 12          , 0.04512475  , 0
-0.116167858, 0.09783541  , -9.804018   , -0.000416386058, 0.000119409611, -0.0009949639, -0.1803964  , -0.1645544  , 0.450923562 , -0.009383034, -0.0121003846, 2.43067622  , 2.3         , 3           , 50          , 0           , 0
-0.127705187, 0.0808306038, -9.805985   , 0.001833597 , 0.0021056463, -0.00041631583, -0.1804638  , -0.164486989, 0.4510584   , -0.009364645, -0.0120793683, 2.430672    , 2.31        , 3           , 11          , 0.007868261 , 0.00786825549
-0.117834091, 0.07215993  , -9.81137    , 0.0009940278, 0.000410522945, -0.00155302021, -0.180126742, -0.164486989, 0.450923562 , -0.009354519, -0.0120754084, 2.43065667  , 2.32        , 3           , 12          , 0.0459943861, 0
-0.120203279, 0.0761183649, -9.772953   , 0.00128300954, -0.0007138228, 0.000141785669, -0.180126742, -0.164486989, 0.450923562 , -0.009341706, -0.0120825339, 2.43065763  , 2.33        , 3           , 50          , 0           , 0
-0.130419135, 0.07952568  , -9.810984   , 0.0009897569, 0.00153678947, 0.000709015236, -0.18032898 , -0.164621815, 0.450990975 , -0.009331892, -0.0120671  , 2.43066525  , 2.34        , 3           , 11          , 0.007868261 , 0.00786825549
-0.145038113, 0.0929069445, -9.847651   , -0.000129539752, -0.000441802782, 0.00183085981, -0.180531219, -0.164149925, 0.4510584   , -0.009333408, -0.0120713478, 2.43068337  , 2.35        , 3           , 12          , 0.0459943861, 0
-0.135914862, 0.111155719 , -9.805018   , -0.000119040305, -0.00269432645, 0.0006972385, -0.180261567, -0.164621815, 0.4510584   , -0.009334686, -0.0120982248, 2.43069053  , 2.36        , 3           , 50          , 0           , 0
-0.121077642, 0.105539255 , -9.796792   , -0.0009797714, 0.000115596726, 0.00154523959, -0.180261567, -0.164621815, 0.4510584   , -0.009344671, -0.0120969247, 2.43070626  , 2.37        , 3           , 11          , 0.007868261 , 0.00786825549
-0.1011528  , 0.108431689 , -9.787136   , -0.000975174247, -0.00101066835, -0.000151720989, -0.180194154, -0.164352164, 0.4510584   , -0.009354404, -0.0121070463, 2.43070436  , 2.38        , 3           , 12          , 0.0459943861, 0
-0.111782357, 0.09186438  , -9.788191   , -0.0006929849, -0.00129033136, -0.00297621288, -0.1803964  , -0.1645544  , 0.4511258   , -0.009360974, -0.0121202255, 2.43067479  , 2.39        , 3           , 50          , 0           , 0
-0.106232345, 0.09055599  , -9.820696   , -0.006084447, -0.000775489141, -0.00045738148, -0.180261567, -0.164756641, 0.4510584   , -0.009460227, -0.0121472394, 2.4306705   , 2.4         , 3           , 11          , 0.00777558  , 0.007775573
-0.110892326, 0.0833604857, -9.811722   , -0.00100699149, 0.0003851475, -0.00156209082, -0.180261567, -0.164756641, 0.4510584   , -0.009470107, -0.0121435355, 2.43065476  , 2.41        , 3           , 12          , 0.0468837321, 0
-0.109540135, 0.0851249546, -9.804473   , -0.00127368374, -0.00243240455, 0.001540165 , -0.180261567, -0.164486989, 0.4510584   , -0.009483033, -0.0121677127, 2.4306705   , 2.42        , 3           , 50          , 0           , 0
-0.105522051, 0.0912798345, -9.770517   , -0.000156359252, 0.0001093217, 0.00183187576, -0.1804638  , -0.164621815, 0.4511258   , -0.009484821, -0.0121664461, 2.430689    , 2.43        , 3           , 11          , 0.00777558  , 0.007775573
-0.112731583, 0.08826882  , -9.789117   , -0.00016389307, 0.00123557262, -0.00155683828, -0.180531219, -0.164689228, 0.450923562 , -0.009486267, -0.0121542392, 2.430673    , 2.44        , 3           , 12          , 0.0468837321, 0
-0.1345847  , 0.105760716 , -9.815427   , 0.00379860937, -0.000427077524, -0.00125846721, -0.180531219, -0.164689228, 0.450923562 , -0.00944813 , -0.01215863 , 2.43066049  , 2.45        , 3           , 50          , 0           , 0
-0.122601748, 0.08801322  , -9.812696   , 0.0009794136, -0.00100929651, 0.00268301973, -0.180126742, -0.164689228, 0.4510584   , -0.009438663, -0.0121684689, 2.43068767  , 2.46        , 3           , 11          , 0.00777558  , 0.007775573
-0.117714807, 0.07716644  , -9.824455   , 0.002099867 , 0.000406157924, -0.001265067, -0.180194154, -0.1645544  , 0.4511258   , -0.009417509, -0.0121645276, 2.43067479  , 2.47        , 3           , 12          , 0.0468837321, 0
-0.135223284, 0.10159833  , -9.783359   , -0.0001533193, -0.000735379057, -0.000147188373, -0.180261567, -0.1645544  , 0.450990975 , -0.009419027, -0.0121718971, 2.43067384  , 2.48        , 3           , 50          , 0           , 0
-0.099543266, 0.105568953 , -9.746909   , -0.00213695085, 0.0006590782, 0.000410837471, -0.180261567, -0.164689228, 0.450788736 , -0.009440445, -0.0121652642, 2.43067765  , 2.49        , 3           , 11          , 0.00777558  , 0.007775573
-0.110968709, 0.12116424  , -9.782187   , -0.00017354326, 0.000969358953, 0.0004207468, -0.180261567, -0.164689228, 0.450788736 , -0.00946249 , -0.0121300258, 2.43068147  , 2.5         , 3           , 12          , 0.0477913953, 0
-0.106952876, 0.0738294   , -9.80902    , -0.002995676, 0.00038712594, -0.0007234401, -0.18032898 , -0.164352164, 0.450923562 , -0.009492359, -0.0121262232, 2.43067479  , 2.51        , 3           , 50          , 0           , 0
-0.106500581, 0.08587514  , -9.770096   , -0.00300092576, 0.00151338778, -0.0001566294, -0.1803964  , -0.164419577, 0.4511932   , -0.009522348, -0.012111105, 2.430673    , 2.52        , 3           , 11          , 0.00768130273, 0.00768129574
-0.10879191 , 0.119281657 , -9.76681    , -0.00410726154, -0.00328086 , -0.000734348956, -0.1803964  , -0.164284751, 0.450856149 , -0.009563335, -0.0121439854, 2.43066621  , 2.53        , 3           , 12          , 0.0477913953, 0
-0.125166014, 0.11539603  , -9.76198    , -0.00664861361, -0.0032980477, 0.000101410835, -0.1803964  , -0.164284751, 0.450856149 , -0.009629838, -0.0121769533, 2.43066716  , 2.54        , 3           , 50          , 0           , 0
-0.114982523, 0.120815344 , -9.798491   , 0.001524547 , 0.000136120361, -0.0007028031, -0.180059329, -0.164419577, 0.4511258   , -0.009614507, -0.01217566 , 2.43066     , 2.55        , 3           , 11          , 0.00768130273, 0.00768129574
-0.120824635, 0.084839955 , -9.814504   , -0.00244992319, 0.004051287 , -0.00241039 , -0.180261567, -0.164352164, 0.4511932   , -0.009638707, -0.012135379, 2.43063569  , 2.56        , 3           , 12          , 0.0477913953, 0
-0.1314924  , 0.07716867  , -9.77755451 , 0.00124031119, 0.00069734524, 0.0009919725, -0.1803964  , -0.1645544  , 0.4510584   , -0.009626425, -0.0121283093, 2.43064523  , 2.57        , 3           , 50          , 0           , 0
-0.113655493, 0.08871095  , -9.783246   , -0.00072986976, -0.0007238508, 0.0006980469, -0.1803964  , -0.1645544  , 0.4510584   , -0.00963381 , -0.01213548 , 2.43065286  , 2.58        , 3           , 11          , 0.00768130273, 0.00768129574
-0.103824981, 0.07554388  , -9.793168   , -0.00130734383, 0.00152484281, -0.00184395292, -0.1804638  , -0.164419577, 0.450856149 , -0.009646658, -0.01212041 , 2.43063378  , 2.59        , 3           , 12          , 0.0477913953, 0
-0.118967891, 0.098692514 , -9.780987   , -0.000165974459, 0.00268502673, -0.0009892738, -0.180126742, -0.164756641, 0.4510584   , -0.009619314, -0.0120483255, 2.43062329  , 2.6         , 3           , 50          , 0           , 0
-0.117236882, 0.118617922 , -9.808008   , -0.0009959631, -0.0004179099, 0.002392452 , -0.180059329, -0.164621815, 0.4511258   , -0.009629562, -0.0120522752, 2.43064713  , 2.61        , 3           , 11          , 0.0075849276, 0.00758492155
-0.122259721, 0.08702548  , -9.788742   , 0.001536209 , 0.001288664 , 0.000146607912, -0.180059329, -0.164621815, 0.4511258   , -0.009614215, -0.0120393755, 2.430649    , 2.62        , 3           , 12          , 0.0487160534, 0
-0.114982158, 0.09634053  , -9.766501   , 0.00181461731, 0.00213526981, 0.0004317641, -0.180194154, -0.1645544  , 0.450923562 , -0.009596121, -0.012017983, 2.43065286  , 2.63        , 3           , 50          , 0           , 0
-0.1233302  , 0.0757437348, -9.784731   , -0.00156565127, 0.000422962243, 0.0012609699, -0.180261567, -0.164486989, 0.4511932   , -0.009611928, -0.0120136328, 2.43066525  , 2.64        , 3           , 11          , 0.0075849276, 0.00758492155
-0.111455388, 0.07792023  , -9.802258   , -0.0015616325, -0.000421733741, 0.0009771305, -0.180126742, -0.164756641, 0.4510584   , -0.009627662, -0.0120177567, 2.43067527  , 2.65        , 3           , 12          , 0.0487160534, 0
-0.113532051, 0.09684527  , -9.787279   , -0.00184454862, -0.000423646066, 0.0001282011, -0.180126742, -0.164756641, 0.4510584   , -0.009646124, -0.01202198 , 2.4306767   , 2.66        , 3           , 50          , 0           , 0
-0.149267718, 0.0932759047, -9.80881    , -0.00184594246, -0.000142080942, 0.000128635045, -0.180194154, -0.164352164, 0.450990975 , -0.009664599, -0.0120233865, 2.43067765  , 2.67        , 3           , 11          , 0.0075849276, 0.00758492155
-0.148503527, 0.113608688 , -9.819569   , -0.002699704, 0.00126001681, 0.0009744664, -0.18032898 , -0.164217338, 0.450923562 , -0.009691712, -0.0120106936, 2.43068767  , 2.68        , 3           , 12          , 0.0487160534, 0
-0.113235369, 0.07975215  , -9.80407    , -0.001566304, 0.0004229591, 0.000130819841, -0.18032898 , -0.1645544  , 0.450923562 , -0.009707389, -0.0120064551, 2.430689    , 2.69        , 3           , 50          , 0           , 0
-0.115293652, 0.09065776  , -9.819409   , -0.0015527145, 0.00122177578, -0.000433644484, -0.18032898 , -0.1645544  , 0.450923562 , -0.009690488, -0.0120763192, 2.43068433  , 2.7         , 3           , 11          , 0.00748830847, 0.00748830475
-0.127276331, 0.08125225  , -9.798748   , -0.0006807572, -0.00355909579, 0.001258154 , -0.18032898 , -0.164621815, 0.450990975 , -0.009697453, -0.0121117849, 2.43069673  , 2.71        , 3           , 12          , 0.0496564731, 0
-0.0998365954, 0.0691769   , -9.792261   , -0.0006838715, -0.002995967, 0.000693947 , -0.180261567, -0.164419577, 0.4510584   , -0.009704378, -0.0121416757, 2.43070436  , 2.72        , 3           , 50          , 0           , 0
-0.0891222358, 0.09206184  , -9.791633   , 0.00239724247, 0.00209321128, -0.000131368171, -0.180126742, -0.164419577, 0.450990975 , -0.0096803885, -0.0121207563, 2.43070245  , 2.73        , 3           , 11          , 0.00748830847, 0.00748830475
-0.118159741, 0.08789053  , -9.791872   , -0.0004148065, -0.000459975534, -0.0007135179, -0.180126742, -0.164419577, 0.450990975 , -0.00968445 , -0.0121254241, 2.43069577  , 2.74        , 3           , 12          , 0.0496564731, 0
-0.137567937, 0.08816899  , -9.806934   , 0.00325829932, -0.00071671023, -0.000414294162, -0.180261567, -0.164689228, 0.450923562 , -0.009651818, -0.0121326353, 2.430692    , 2.75        , 3           , 50          , 0           , 0
-0.1104147  , 0.09944391  , -9.766002   , -0.00126208691, -0.000465705467, -0.000717468734, -0.18032898 , -0.164284751, 0.4510584   , -0.009664352, -0.012137359, 2.43068433  , 2.76        , 3           , 11          , 0.00748830847, 0.00748830475
-0.09975553 , 0.08307943  , -9.76734352 , 0.00127466791, 0.000677746953, 0.000143731668, -0.180194154, -0.1645544  , 0.450923562 , -0.009651623, -0.0121305669, 2.43068624  , 2.77        , 3           , 12          , 0.0496564731, 0
-0.120113365, 0.06904961  , -9.817728   , 0.0007017764, 0.002363319 , 0.0007087764, -0.180059329, -0.164419577, 0.450788736 , -0.009644687, -0.0121068684, 2.430693    , 2.78        , 3           , 50          , 0           , 0
-0.1345791  , 0.105765253 , -9.816783   , 0.0001447975, 0.000670106267, -0.0001440733, -0.180059329, -0.164419577, 0.450788736 , -0.009643219, -0.0121001815, 2.430691    , 2.79        , 3           , 11          , 0.00748830847, 0.00748830475
-0.115763821, 0.100022346 , -9.785023   , -0.000378345838, 0.000384918181, 0.0006999722, -0.18032898 , -0.164352164, 0.4510584   , -0.009573291, -0.0120959068, 2.4306972   , 2.8         , 3           , 12          , 0.050611496 , 0
-0.126992479, 0.104692467 , -9.792774   , -0.001503708, -0.000467416132, 0.00097594  , -0.180126742, -0.164824054, 0.4510584   , -0.009588446, -0.0121004852, 2.43070722  , 2.81        , 3           , 50          , 0           , 0
-0.143964678, 0.09087472  , -9.784373   , 0.00214825058, 0.00321775256, -0.00154413574, -0.180194154, -0.164486989, 0.450923562 , -0.009566773, -0.0120684579, 2.430691    , 2.82        , 3           , 11          , 0.00739122462, 0.00739122136
-0.118542537, 0.09687956  , -9.780086   , -0.000944267143, 0.0006626649, 0.00126284722, -0.180194154, -0.164486989, 0.450923562 , -0.009576367, -0.01206171 , 2.4307034   , 2.83        , 3           , 12          , 0.050611496 , 0
-0.112185784, 0.0981586   , -9.780031   , -0.0018024476, 0.0026278852, -0.000715828268, -0.180194154, -0.164352164, 0.4511932   , -0.009594303, -0.0120355  , 2.43069625  , 2.84        , 3           , 50          , 0           , 0
-0.133945912, 0.0979459658, -9.775227   , -0.00151402969, 0.00122196483, -0.002411906, -0.18032898 , -0.164419577, 0.4511258   , -0.009609151, -0.0120235123, 2.430672    , 2.85        , 3           , 11          , 0.00739122462, 0.00739122136
-0.132726029, 0.104438923 , -9.831238   , 0.00499113  , -0.000423491583, -0.0006889951, -0.180126742, -0.1645544  , 0.450990975 , -0.009559156, -0.0120278131, 2.43066525  , 2.86        , 3           , 12          , 0.050611496 , 0
-0.113868713, 0.100069121 , -9.805347   , -0.00150050491, -0.00131211616, -0.0007205864, -0.180126742, -0.1645544  , 0.450990975 , -0.009574076, -0.0120410025, 2.430658    , 2.87        , 3           , 50          , 0           , 0
-0.100998469, 0.08542069  , -9.788135   , 0.000183230382, 0.0009518659, -0.000144138365, -0.180126742, -0.1645544  , 0.4510584   , -0.009572226, -0.0120314993, 2.43065667  , 2.88        , 3           , 11          , 0.00739122462, 0.00739122136
-0.106696367, 0.09814016  , -9.79355    , 0.00216481532, -0.000161029224, -0.00183188065, -0.18032898 , -0.164149925, 0.4511258   , -0.009550357, -0.0120332837, 2.43063855  , 2.89        , 3           , 12          , 0.050611496 , 0
-0.116660714, 0.09914731  , -9.790006   , 0.000183544355, -0.00186065142, -0.00156096846, -0.1803964  , -0.164621815, 0.4510584   , -0.009572911, -0.0120460214, 2.43062329  , 2.9         , 3           , 50          , 0           , 0
-0.12892288 , 0.09211929  , -9.80414    , -0.00123302382, -0.000743935641, 0.000411944726, -0.1803964  , -0.164621815, 0.4510584   , -0.009585292, -0.01205342 , 2.430627    , 2.91        , 3           , 11          , 0.00729473168, 0.00729472563
-0.108478084, 0.09506081  , -9.810752   , -0.000669401, -0.000458549766, 0.00069755  , -0.180261567, -0.164352164, 0.450990975 , -0.009592071, -0.01205794 , 2.43063474  , 2.92        , 3           , 12          , 0.051580023 , 0
-0.09209167 , 0.0780521   , -9.77499    , 0.000176974921, -0.000171252352, 0.00154954731, -0.180261567, -0.164486989, 0.450990975 , -0.009590489, -0.0120595023, 2.43065     , 2.93        , 3           , 50          , 0           , 0
-0.09878752 , 0.08178036  , -9.7867775  , 0.000159920659, 0.003207527 , 0.0009896795, -0.18032898 , -0.1645544  , 0.4510584   , -0.009589003, -0.0120273354, 2.43065953  , 2.94        , 3           , 11          , 0.00729473168, 0.00729472563
-0.129322112, 0.0939534   , -9.811367   , 0.00100752746, 0.00321325869, 0.00155870535, -0.18032898 , -0.1645544  , 0.4510584   , -0.009579113, -0.0119950539, 2.43067479  , 2.95        , 3           , 12          , 0.051580023 , 0
-0.131232783, 0.09300129  , -9.790143   , -0.00208890578, 0.000658152159, -0.002415211, -0.180733457, -0.164756641, 0.450923562 , -0.00959971 , -0.011988705, 2.430651    , 2.96        , 3           , 50          , 0           , 0
-0.132622674, 0.09834791  , -9.765272   , -0.00151347835, -0.0013089797, -0.00100292731, -0.180531219, -0.164486989, 0.4511932   , -0.009614726, -0.01200189 , 2.43064046  , 2.97        , 3           , 11          , 0.00729473168, 0.00729472563
-0.132820129, 0.0731923   , -9.797921   , -0.00236166338, -0.00103314221, -0.0001588317, -0.1803964  , -0.164756641, 0.450990975 , -0.009638324, -0.012012234, 2.43063951  , 2.98        , 3           , 12          , 0.051580023 , 0
-0.111997657, 0.09786467  , -9.827039   , 0.000171072665, 0.0009550064, 0.000986208 , -0.1803964  , -0.164756641, 0.450990975 , -0.009636732, -0.012002592, 2.430649    , 2.99        , 3           , 50          , 0           , 0
-0.124338292, 0.0956829   , -9.80635    , 0.00331013557, -0.00129080052, 0.00014916966, -0.18032898 , -0.164419577, 0.450856149 , -0.009560579, -0.0120438421, 2.43065     , 3           , 3           , 11          , 0.00720009347, 0.007200088
-0.146558136, 0.0936845839, -9.805625   , -0.00374323828, -0.00274637365, 0.0006791516, -0.180261567, -0.164419577, 0.4510584   , -0.009598099, -0.012071236, 2.43065667  , 3.01        , 3           , 12          , 0.05256104  , 0
-0.104691148, 0.116130188 , -9.783064   , -0.00177468918, -0.00132518564, -0.00185229734, -0.180261567, -0.1645544  , 0.4511932   , -0.009615623, -0.0120846685, 2.43063855  , 3.02        , 3           , 50          , 0           , 0
-0.1381277  , 0.07960697  , -9.808331   , -0.00121180783, -0.000758231559, -0.000436108123, -0.18032898 , -0.164689228, 0.450990975 , -0.009627691, -0.0120922923, 2.43063378  , 3.03        , 3           , 11          , 0.00720009347, 0.007200088
-0.134839267, 0.0917175859, -9.798311   , -0.00544772157, -0.000786878751, 0.00039175  , -0.18032898 , -0.164689228, 0.450990975 , -0.009682216, -0.0121001219, 2.430638    , 3.04        , 3           , 12          , 0.05256104  , 0
-0.103185587, 0.09354379  , -9.780886   , -0.00179183227, 0.00233516516, -0.000151431261, -0.180261567, -0.164419577, 0.450990975 , -0.009700113, -0.0120767867, 2.43063664  , 3.05        , 3           , 50          , 0           , 0
-0.114378229, 0.0964576751, -9.803106   , -0.00233700662, -0.00161056512, 0.000122397047, -0.18032898 , -0.164352164, 0.4510584   , -0.0097235  , -0.0120928772, 2.4306376   , 3.06        , 3           , 11          , 0.00720009347, 0.007200088
-0.11397142 , 0.08971987  , -9.813527   , -0.000641793245, -0.00159910182, 0.00126044871, -0.18032898 , -0.164284751, 0.450923562 , -0.009730073, -0.0121087451, 2.43065047  , 3.07        , 3           , 12          , 0.05256104  , 0
-0.111325935, 0.0891839042, -9.797689   , 0.000198769209, -0.000467117352, -0.0007116271, -0.18032898 , -0.164284751, 0.450923562 , -0.009727998, -0.0121134855, 2.43064332  , 3.08        , 3           , 50          , 0           , 0
-0.150255769, 0.0825073   , -9.823326   , 0.000194097811, 0.000377575547, -0.00155793771, -0.180194154, -0.164217338, 0.450923562 , -0.009725869, -0.0121098608, 2.430628    , 3.09        , 3           , 11          , 0.00720009347, 0.007200088
-0.12625356 , 0.08847819  , -9.804134   , 0.00107545825, -0.001052899, -0.000426617567, -0.180261567, -0.164486989, 0.4510584   , -0.009660805, -0.012178624, 2.43062329  , 3.1         , 3           , 12          , 0.053553585 , 0
-0.128466487, 0.09702674  , -9.789201   , -0.0008991567, -0.00134782912, 0.00125895476, -0.180059329, -0.164689228, 0.450990975 , -0.009669952, -0.0121919774, 2.43063569  , 3.11        , 3           , 50          , 0           , 0
-0.161985859, 0.09205315  , -9.80349    , -0.00202754443, -0.00191860623, -0.00129001809, -0.180059329, -0.164689228, 0.450990975 , -0.009690073, -0.0122112893, 2.43062329  , 3.12        , 3           , 11          , 0.007106384 , 0.00710637867
-0.123019904, 0.09965172  , -9.783724   , -0.00147195929, 5.61716151E-05, -0.000436734234, -0.18032898 , -0.1645544  , 0.450923562 , -0.009704738, -0.01221077 , 2.43061852  , 3.13        , 3           , 12          , 0.053553585 , 0
-0.118510485, 0.09735188  , -9.786411   , -6.196054E-05, 0.0006288548, 0.0007008681, -0.1803964  , -0.164217338, 0.4511258   , -0.009705443, -0.0122044124, 2.43062568  , 3.14        , 3           , 50          , 0           , 0
-0.134968415, 0.080900535 , -9.801521   , -0.0006286977, 0.0009065976, -0.0001489441, -0.180059329, -0.164486989, 0.450990975 , -0.00971171 , -0.0121953608, 2.43062425  , 3.15        , 3           , 11          , 0.007106384 , 0.00710637867
-0.112667948, 0.09367658  , -9.787287   , -0.0003457814, 0.000908509945, 0.0006999851, -0.180059329, -0.164486989, 0.450990975 , -0.009715253, -0.0121862087, 2.430631    , 3.16        , 3           , 12          , 0.053553585 , 0
-0.09689827 , 0.09164209  , -9.774066   , -0.00145613577, -0.00304104155, 0.000406104722, -0.180261567, -0.164419577, 0.450990975 , -0.009729868, -0.0122165754, 2.43063569  , 3.17        , 3           , 50          , 0           , 0
-0.1245819  , 0.0838804   , -9.784707   , -0.00117379776, -0.00275756069, 0.00266815536, -0.18032898 , -0.164419577, 0.4511258   , -0.009741935, -0.012243893, 2.43066239  , 3.18        , 3           , 11          , 0.007106384 , 0.00710637867
-0.121297412, 0.09063162  , -9.79098    , 0.00276976754, -0.000759868533, 0.00155948044, -0.180261567, -0.164352164, 0.451260626 , -0.009714429, -0.012251338, 2.43067813  , 3.19        , 3           , 12          , 0.053553585 , 0
-0.143019021, 0.0895575061, -9.798383   , 0.00165503554, 0.0009107831, -0.0012689766, -0.180261567, -0.164352164, 0.451260626 , -0.009644844, -0.0122658387, 2.4306643   , 3.2         , 3           , 50          , 0           , 0
-0.127419308, 0.0744411349, -9.78567    , 0.000820375164, -0.00134746043, 0.00126643828, -0.1804638  , -0.1645544  , 0.450990975 , -0.009636797, -0.0122791911, 2.43067765  , 3.21        , 3           , 11          , 0.00701451767, 0.00701451162
-0.128151432, 0.08976823  , -9.778832   , 0.000254705868, -0.00135128421, -0.000148882769, -0.180531219, -0.164352164, 0.4511258   , -0.009634233, -0.0122927176, 2.43067575  , 3.22        , 3           , 12          , 0.0545567758, 0
-0.129130751, 0.105713569 , -9.820357   , 0.0005214723, 0.00174784008, -0.000707867555, -0.18032898 , -0.164486989, 0.4511258   , -0.009628928, -0.0122753121, 2.430669    , 3.23        , 3           , 50          , 0           , 0
-0.111156262, 0.0942312256, -9.822979   , -0.00145100709, 0.0008897766, -0.0001533129, -0.18032898 , -0.164486989, 0.4511258   , -0.009643418, -0.0122664273, 2.43066716  , 3.24        , 3           , 11          , 0.00701451767, 0.00701451162
-0.132513255, 0.09754387  , -9.794654   , 0.00138048315, -0.0007805196, -0.00212050974, -0.180261567, -0.1645544  , 0.450990975 , -0.009629353, -0.0122744385, 2.43064618  , 3.25        , 3           , 12          , 0.0545567758, 0
-0.116222076, 0.09511338  , -9.799511   , -0.00173835724, 0.00201413  , 0.0009772556, -0.18032898 , -0.164352164, 0.451260626 , -0.009646856, -0.0122542027, 2.43065572  , 3.26        , 3           , 50          , 0           , 0
-0.1311234  , 0.0997851938, -9.795085   , 0.001090345 , 0.000906963949, -0.000989073, -0.1804638  , -0.164284751, 0.4511932   , -0.009635829, -0.0122452294, 2.43064523  , 3.27        , 3           , 11          , 0.00701451767, 0.00701451162
-0.124142744, 0.0856494457, -9.775656   , 0.0005406621, -0.00219407259, -0.00127901766, -0.1804638  , -0.164284751, 0.4511932   , -0.009630268, -0.0122672925, 2.43063283  , 3.28        , 3           , 12          , 0.0545567758, 0
-0.114564031, 0.09228997  , -9.771034   , 0.0002549434, -0.0010697114, 0.00267692562, -0.1804638  , -0.1645544  , 0.4511258   , -0.00962805 , -0.0122777317, 2.43065953  , 3.29        , 3           , 50          , 0           , 0
-0.109244362, 0.119733594 , -9.765456   , -0.001137502, -0.00362951215, -0.000159223942, -0.180194154, -0.164419577, 0.4511258   , -0.009620235, -0.012349342, 2.43065858  , 3.3         , 3           , 11          , 0.00692519  , 0.00692518149
-0.108409211, 0.107614428 , -9.787195   , -0.00312375813, -0.00167192449, 0.0006822073, -0.18032898 , -0.1645544  , 0.4511932   , -0.00965156 , -0.0123659931, 2.43066525  , 3.31        , 3           , 12          , 0.0555697754, 0
-0.11850816 , 0.0928902552, -9.801346   , -0.0008827033, 0.00172212848, -0.00212742481, -0.1804638  , -0.1645544  , 0.4510584   , -0.009660121, -0.0123489769, 2.4306438   , 3.32        , 3           , 50          , 0           , 0
-0.101200379, 0.09187818  , -9.828789   , -0.00143182231, -0.001097334, 0.000973514165, -0.1804638  , -0.1645544  , 0.4510584   , -0.00967456 , -0.0123598557, 2.43065381  , 3.33        , 3           , 11          , 0.00692519  , 0.00692518149
-0.108845606, 0.0969206244, -9.825662   , -0.00142894546, -0.00194203539, -0.00128808722, -0.1804638  , -0.164621815, 0.451260626 , -0.009688692, -0.0123793995, 2.430641    , 3.34        , 3           , 12          , 0.0555697754, 0
-0.124429077, 0.09650204  , -9.781488   , 0.00110797258, -0.0007985822, -0.000144349135, -0.180598632, -0.1645544  , 0.451395452 , -0.009677595, -0.0123873986, 2.43063951  , 3.35        , 3           , 50          , 0           , 0
-0.123046257, 0.101862118 , -9.770157   , -0.00142910867, -0.00194203586, -0.00157062477, -0.180261567, -0.164689228, 0.4511258   , -0.009691696, -0.01240697 , 2.43062425  , 3.36        , 3           , 11          , 0.00692519  , 0.00692518149
-0.1414207  , 0.104019225 , -9.810514   , -1.2228702E-05, -0.00249560713, 0.00182554184, -0.180261567, -0.164689228, 0.4511258   , -0.009692047, -0.0124317482, 2.43064237  , 3.37        , 3           , 12          , 0.0555697754, 0
-0.128518477, 0.08716491  , -9.808226   , -0.0017317927, 0.00227953331, -0.00043528268, -0.1804638  , -0.164217338, 0.451260626 , -0.009709308, -0.012408996, 2.4306376   , 3.38        , 3           , 50          , 0           , 0
-0.144758612, 0.09052944  , -9.812856   , 0.00222710613, 0.00118000933, -0.00154873123, -0.180531219, -0.164419577, 0.451328039 , -0.009686844, -0.0123973461, 2.43062234  , 3.39        , 3           , 11          , 0.00692519  , 0.00692518149
-0.11187882 , 0.09000081  , -9.770572   , 0.0011023758, -0.00053912797, -0.000144082383, -0.18032898 , -0.164824054, 0.4510584   , -0.009685267, -0.0124525586, 2.43062139  , 3.4         , 3           , 12          , 0.05659179  , 0
-0.119204238, 0.08153969  , -9.778347   , 0.00362839364, 0.00257527549, -0.0009750692, -0.18032898 , -0.164824054, 0.4510584   , -0.009648858, -0.0124269  , 2.430611    , 3.41        , 3           , 50          , 0           , 0
-0.11260023 , 0.0919460654, -9.80944    , 0.000234022038, 0.0036786173, -0.0004240617, -0.180194154, -0.164621815, 0.4511932   , -0.009646462, -0.0123901591, 2.43060613  , 3.42        , 3           , 11          , 0.006837658 , 0.00683764834
-0.110740237, 0.09241073  , -9.819819   , -0.0008950326, 0.003670981 , 0.000700820354, -0.180194154, -0.1645544  , 0.451395452 , -0.009655494, -0.0123533811, 2.4306128   , 3.43        , 3           , 12          , 0.05659179  , 0
-0.110379189, 0.0842967853, -9.823465   , 0.0005341558, 0.000301751221, 0.00126727275, -0.180261567, -0.164689228, 0.4511932   , -0.009650309, -0.0123502417, 2.43062568  , 3.44        , 3           , 50          , 0           , 0
-0.10003189 , 0.0948328152, -9.772722   , 0.000812652463, 0.0008667859, -0.000708304637, -0.180261567, -0.164689228, 0.4511932   , -0.00964209251, -0.0123416409, 2.43061852  , 3.45        , 3           , 11          , 0.006837658 , 0.00683764834
-0.1131062  , 0.10842324  , -9.743385   , -1.675784E-05, -0.00251771952, 0.00126029958, -0.1804638  , -0.164621815, 0.451260626 , -0.009642419, -0.0123666963, 2.4306314   , 3.46        , 3           , 12          , 0.05659179  , 0
-0.104952954, 0.09984941  , -9.771382   , 0.00279644737, -0.0005276705, -0.0009837933, -0.18032898 , -0.1645544  , 0.451328039 , -0.009614335, -0.0123720672, 2.43062139  , 3.47        , 3           , 50          , 0           , 0
-0.132875264, 0.09673004  , -9.819519   , -0.00258369138, 0.00253326236, 0.001256258 , -0.18032898 , -0.164419577, 0.451395452 , -0.009640324, -0.0123466151, 2.43063378  , 3.48        , 3           , 11          , 0.006837658 , 0.00683764834
-0.117118843, 0.0893286   , -9.82033348 , -0.00033304136, 0.003956359 , -0.00183894916, -0.18032898 , -0.164419577, 0.451395452 , -0.009643424, -0.0123072332, 2.43061566  , 3.49        , 3           , 12          , 0.05659179  , 0
-0.112749234, 0.08200562  , -9.804962   , -0.000315077865, 0.000596248545, 0.0009814356, -0.18032898 , -0.164689228, 0.4511258   , -0.009647619, -0.0122578591, 2.4306252   , 3.5         , 3           , 50          , 0           , 0
-0.126534149, 0.07709206  , -9.772093   , -0.00144174509, -0.000256092, -0.00100289611, -0.1803964  , -0.1645544  , 0.4511932   , -0.009661911, -0.0122605171, 2.43061519  , 3.51        , 3           , 11          , 0.00675213477, 0.006752126
-0.12203636 , 0.07165834  , -9.782025   , 0.00224488555, -0.00304690772, 0.0009876469, -0.180261567, -0.1645544  , 0.451328039 , -0.009639588, -0.0122908894, 2.4306252   , 3.52        , 3           , 12          , 0.0576221   , 0
-0.128751963, 0.07135346  , -9.801965   , 0.00137613132, 0.000889264 , -0.00240067835, -0.180261567, -0.1645544  , 0.451328039 , -0.00962553 , -0.0122822262, 2.43060136  , 3.53        , 3           , 50          , 0           , 0
-0.1156015  , 0.100153886 , -9.824345   , -0.00228344975, -0.0013880824, -0.00100858265, -0.180194154, -0.164486989, 0.451328039 , -0.009648243, -0.0122962045, 2.43059134  , 3.54        , 3           , 11          , 0.00675213477, 0.006752126
-0.122320771, 0.110112078 , -9.810344   , 0.00192769768, 0.003708738 , -0.00126355526, -0.1804638  , -0.1645544  , 0.451328039 , -0.009628805, -0.01225924 , 2.43057847  , 3.55        , 3           , 12          , 0.0576221   , 0
-0.11845959 , 0.103195675 , -9.780059   , -0.00144732115, 0.000870168267, -0.00100116048, -0.18032898 , -0.164689228, 0.4511932   , -0.009643156, -0.0122506376, 2.430568    , 3.56        , 3           , 50          , 0           , 0
-0.118345082, 0.07925969  , -9.7742815  , 0.00109575107, 0.000605792156, -0.0012722793, -0.18032898 , -0.164756641, 0.4511258   , -0.009632043, -0.0122447  , 2.43055558  , 3.57        , 3           , 11          , 0.00675213477, 0.006752126
-0.120580725, 0.104677007 , -9.810352   , 0.00108975987, 0.002013622 , 0.000425114937, -0.18032898 , -0.164756641, 0.4511258   , -0.009621195, -0.0122245224, 2.4305594   , 3.58        , 3           , 12          , 0.0576221   , 0
-0.1346546  , 0.0994551852, -9.818616   , 0.00251878542, -0.00135560811, 0.000709029962, -0.180531219, -0.1645544  , 0.451328039 , -0.009596096, -0.012238008, 2.430567    , 3.59        , 3           , 50          , 0           , 0
-0.12276648 , 0.0820772052, -9.791479   , -0.0005904604, -0.000822401431, -0.000152306326, -0.180531219, -0.164621815, 0.451462865 , -0.009600242, -0.0122675411, 2.430565    , 3.6         , 3           , 11          , 0.006669415 , 0.006669408
-0.100641266, 0.08221346  , -9.775038   , 0.00110844593, -0.00165563577, 0.000136830728, -0.1803964  , -0.164621815, 0.4510584   , -0.009589177, -0.0122840833, 2.430567    , 3.61        , 3           , 12          , 0.05866003  , 0
-0.127575964, 0.101913773 , -9.769737   , 0.0011102549, -0.00221877079, -0.00155926193, -0.1803964  , -0.164621815, 0.4510584   , -0.009577885, -0.01230642 , 2.43055177  , 3.62        , 3           , 50          , 0           , 0
-0.134688571, 0.07138173  , -9.789806   , 0.0016505057, 0.00285322312, -0.0007012047, -0.180059329, -0.164486989, 0.451260626 , -0.009561292, -0.012277958, 2.43054414  , 3.63        , 3           , 11          , 0.006669415 , 0.006669408
-0.102069892, 0.06521115  , -9.81263351 , -0.00116212084, 0.000581604836, 0.0001297667, -0.1804638  , -0.164352164, 0.451260626 , -0.009572928, -0.0122721288, 2.430545    , 3.64        , 3           , 12          , 0.05866003  , 0
-0.127945781, 0.100647278 , -9.794153   , -0.000871819444, -0.001105878, -0.0007191322, -0.1803964  , -0.164689228, 0.4511932   , -0.009581558, -0.0122832553, 2.43053842  , 3.65        , 3           , 50          , 0           , 0
-0.1221908  , 0.09199117  , -9.789625   , -0.00228780927, -0.000270731, -0.000159340067, -0.1803964  , -0.164689228, 0.4511932   , -0.009604419, -0.0122859776, 2.43053651  , 3.66        , 3           , 11          , 0.006669415 , 0.006669408
-0.113563873, 0.09414138  , -9.788196   , -0.00172418647, 1.465474E-05, 0.000126264989, -0.180261567, -0.164621815, 0.451395452 , -0.009621675, -0.0122858183, 2.430538    , 3.67        , 3           , 12          , 0.05866003  , 0
-0.1228765  , 0.109587625 , -9.786846   , 0.00138882606, -0.00137216412, -0.0009915682, -0.1803964  , -0.164486989, 0.451462865 , -0.009607667, -0.0122996354, 2.430528    , 3.68        , 3           , 50          , 0           , 0
-0.124299958, 0.07213154  , -9.780684   , -0.002860864, 0.00141484011, 0.000123166916, -0.180598632, -0.1645544  , 0.451395452 , -0.009636289, -0.0122854784, 2.43052936  , 3.69        , 3           , 11          , 0.006669415 , 0.006669408
-0.128422931, 0.09795475  , -9.79688    , -0.00170105451, -0.000269225973, 0.0006906183, -0.180598632, -0.1645544  , 0.451395452 , -0.009600739, -0.0122937979, 2.43053555  , 3.7         , 3           , 12          , 0.0597049259, 0
-0.121557951, 0.101058781 , -9.804499   , 0.0008443905, -0.000815162552, 0.00211429014, -0.1803964  , -0.164621815, 0.4511932   , -0.009592557, -0.0123017449, 2.430557    , 3.71        , 3           , 50          , 0           , 0
-0.114042655, 0.0892158   , -9.79771    , 0.00252911961, 0.000885680667, -0.0004180417, -0.180531219, -0.164149925, 0.4515977   , -0.009567214, -0.0122929262, 2.43055272  , 3.72        , 3           , 11          , 0.006588055 , 0.00658804644
-0.108919248, 0.09820001  , -9.80351    , 0.000561399967, -0.001098647, -0.0012779102, -0.180194154, -0.164486989, 0.451395452 , -0.009561443, -0.0123040341, 2.43054032  , 3.73        , 3           , 12          , 0.0597049259, 0
-0.12273103 , 0.0821059346, -9.800066   , -0.000292687357, 0.0003034493, -0.0009971539, -0.180194154, -0.164486989, 0.451395452 , -0.009564246, -0.0123010958, 2.43052983  , 3.74        , 3           , 50          , 0           , 0
-0.132223144, 0.0791063756, -9.814162   , -0.00197667442, -0.001678962, 0.000404594175, -0.1804638  , -0.164756641, 0.451328039 , -0.00958406553, -0.0123178456, 2.4305346   , 3.75        , 3           , 11          , 0.006588055 , 0.00658804644
-0.13005197 , 0.07721925  , -9.79743    , -0.003962101, -0.000284513575, -0.002145292, -0.180531219, -0.164689228, 0.451462865 , -0.009623422, -0.0123208985, 2.43051267  , 3.76        , 3           , 12          , 0.0597049259, 0
-0.106760234, 0.09496397  , -9.788139   , 0.00141318876, -0.0019376108, -0.000710186257, -0.18032898 , -0.164621815, 0.451395452 , -0.009609205, -0.0123403408, 2.430506    , 3.77        , 3           , 50          , 0           , 0
-0.0914426446, 0.08624008  , -9.796646   , 0.000277327228, -0.0005374213, 0.0006994029, -0.18032898 , -0.164621815, 0.451395452 , -0.00960652 , -0.0123456484, 2.43051267  , 3.78        , 3           , 11          , 0.006588055 , 0.00658804644
-0.103156157, 0.09044319  , -9.798075   , 0.001970168 , -0.0002443979, 0.000142663412, -0.18032898 , -0.164621815, 0.451328039 , -0.009586834, -0.0123480782, 2.43051457  , 3.79        , 3           , 12          , 0.0597049259, 0
-0.111896232, 0.0815060362, -9.793657   , 0.00113876967, 0.000905119057, -0.00014205536, -0.180733457, -0.164486989, 0.451462865 , -0.009520785, -0.0122657679, 2.43051219  , 3.8         , 3           , 50          , 0           , 0
-0.12945348 , 0.09027615  , -9.791044   , -0.00168598781, 0.000886017049, -0.00100283721, -0.180261567, -0.164419577, 0.451462865 , -0.00953752 , -0.0122570051, 2.43050218  , 3.81        , 3           , 11          , 0.00650897343, 0.006508965
-0.117350012, 0.111830994 , -9.802162   , 0.00141594675, 0.002033291 , 0.000426072045, -0.180261567, -0.164419577, 0.451462865 , -0.00952341 , -0.0122366324, 2.430506    , 3.82        , 3           , 12          , 0.06075619  , 0
-0.10256993 , 0.0994729847, -9.801647   , 0.0005695708, 0.00174599362, -0.0004259249, -0.180261567, -0.164621815, 0.451462865 , -0.009517659, -0.0122192129, 2.43050218  , 3.83        , 3           , 50          , 0           , 0
-0.116007172, 0.07840036  , -9.795058   , 0.00114016363, 0.000623554 , -0.000142489283, -0.1803964  , -0.164756641, 0.451462865 , -0.009506241, -0.0122129926, 2.43050027  , 3.84        , 3           , 11          , 0.00650897343, 0.006508965
-0.111861765, 0.08019492  , -9.806318   , -0.001106868, -0.00192581234, -0.000439467665, -0.180598632, -0.164689228, 0.451462865 , -0.009517257, -0.0122322924, 2.43049645  , 3.85        , 3           , 12          , 0.06075619  , 0
-0.137334272, 0.07414926  , -9.798403   , 0.0005815386, -0.0005065232, 0.0009832908, -0.180261567, -0.1645544  , 0.451328039 , -0.009511564, -0.012237262, 2.430506    , 3.86        , 3           , 50          , 0           , 0
-0.140109256, 0.0710094944, -9.79437    , 0.00142168591, 0.000907031354, 0.000706873834, -0.180261567, -0.1645544  , 0.451328039 , -0.009497432, -0.0122281229, 2.43051267  , 3.87        , 3           , 11          , 0.00650897343, 0.006508965
-0.103246361, 0.08947738  , -9.779095   , 0.000294603524, 0.000336260535, 0.000418200681, -0.1804638  , -0.1645544  , 0.451530278 , -0.009494538, -0.0122247227, 2.43051744  , 3.88        , 3           , 12          , 0.06075619  , 0
-0.100318588, 0.07005126  , -9.782317   , 0.00255975756, -0.0007747192, 0.000709537941, -0.180531219, -0.1645544  , 0.4516651   , -0.00946902949, -0.0122324005, 2.430524    , 3.89        , 3           , 50          , 0           , 0
-0.147356376, 0.09512124  , -9.827319   , 0.0003340879, 7.099938E-05, -0.000147629573, -0.1804638  , -0.164689228, 0.451395452 , -0.009365888, -0.012189351, 2.43052173  , 3.9         , 3           , 11          , 0.00643156469, 0.006431555
-0.117452376, 0.101928353 , -9.808983   , 0.0045627784, 0.00178904249, 0.00100487773, -0.1804638  , -0.164689228, 0.451395452 , -0.009320381, -0.0121713718, 2.43053174  , 3.91        , 3           , 12          , 0.0618132763, 0
-0.13375549 , 0.100778356 , -9.812729   , 0.00118153158, 7.67300662E-05, 0.000138858479, -0.180261567, -0.164486989, 0.451530278 , -0.009308582, -0.0121705877, 2.43053269  , 3.92        , 3           , 50          , 0           , 0
-0.1139475  , 0.09688083  , -9.796323   , 0.00146059215, 0.0009233392, 0.0015541648, -0.18032898 , -0.1645544  , 0.451395452 , -0.009294164, -0.01216121 , 2.43054843  , 3.93        , 3           , 11          , 0.00643156469, 0.006431555
-0.121311441, 0.0892811939, -9.791889   , -0.00192056631, -0.00107054471, -0.00157258823, -0.180194154, -0.164689228, 0.451395452 , -0.009313179, -0.0121720619, 2.43053269  , 3.94        , 3           , 12          , 0.0618132763, 0
-0.113014415, 0.101356015 , -9.788612   , -0.0027774414, 0.0008946819, -0.001290964, -0.180194154, -0.164689228, 0.451395452 , -0.009340795, -0.0121632367, 2.43051982  , 3.95        , 3           , 50          , 0           , 0
-0.129989281, 0.116474733 , -9.797268   , 0.00118071574, 7.67261663E-05, -0.00127382868, -0.1803964  , -0.164621815, 0.451462865 , -0.009328834, -0.0121625876, 2.430507    , 3.96        , 3           , 11          , 0.00643156469, 0.006431555
-0.1512952  , 0.113133483 , -9.802868   , -0.00306233019, 0.00145590352, -0.000726338068, -0.1803964  , -0.1645544  , 0.4515977   , -0.009359367, -0.0121480981, 2.43049979  , 3.97        , 3           , 12          , 0.0618132763, 0
-0.141390353, 0.07465884  , -9.801596   , -0.00165454112, 0.00231014774, -0.00100098923, -0.180261567, -0.164621815, 0.451530278 , -0.009375788, -0.0121250907, 2.43048978  , 3.98        , 3           , 50          , 0           , 0
-0.105920196, 0.09713198  , -9.765073   , 0.00146658323, -0.000484490942, -0.0001432297, -0.180261567, -0.164621815, 0.451530278 , -0.009361106, -0.0121299485, 2.43048787  , 3.99        , 3           , 11          , 0.00643156469, 0.006431555
-0.110201038, 0.108544052 , -9.789013   , 0.00116530806, 0.000617694866, -0.0007080089, -0.18032898 , -0.164689228, 0.451395452 , -0.009383883, -0.0121829528, 2.4304812   , 4           , 3           , 12          , 0.06287566  , 0
-0.09557396 , 0.113395572 , -9.806509   , 0.00118268875, -0.002761083, 0.000416933617, -0.180598632, -0.164217338, 0.451395452 , -0.00937211048, -0.0122105218, 2.43048549  , 4.01        , 3           , 50          , 0           , 0
-0.104639672, 0.112601079 , -9.807034   , 0.000610538758, -0.001357079, -0.000148605322, -0.180194154, -0.1645544  , 0.4515977   , -0.009365989, -0.012224107, 2.430484    , 4.02        , 3           , 11          , 0.00635653129, 0.00635651965
-0.110115349, 0.113523349 , -9.793964   , 0.00314237038, 0.000912636751, 0.00184448075, -0.180194154, -0.1645544  , 0.4515977   , -0.00933479052, -0.0122148078, 2.43050218  , 4.03        , 3           , 12          , 0.06287566  , 0
-0.112732396, 0.117206782 , -9.806624   , -0.000813399849, 0.0008858886, -0.00128186855, -0.180598632, -0.164621815, 0.451462865 , -0.009342765, -0.0122060692, 2.43048978  , 4.04        , 3           , 50          , 0           , 0
-0.111949839, 0.112186611 , -9.792626   , 0.00370206265, 0.00176114717, 0.00015319149, -0.180598632, -0.164486989, 0.451462865 , -0.009305762, -0.0121884439, 2.43049073  , 4.05        , 3           , 11          , 0.00635653129, 0.00635651965
-0.113642983, 0.09050648  , -9.780526   , 0.00173622719, -0.000504743133, 0.000140501463, -0.1804638  , -0.164419577, 0.451395452 , -0.009288417, -0.0121934768, 2.43049264  , 4.06        , 3           , 12          , 0.06287566  , 0
-0.115345374, 0.0964184254, -9.788199   , 0.000459278235, 0.0007537059, 0.00056033436, -0.1804638  , -0.164419577, 0.451395452 , -0.009283892, -0.0121858893, 2.430498    , 4.07        , 3           , 50          , 0           , 0
-0.117027774, 0.09654398  , -9.819399   , 0.0011661239, 0.0006176987, 0.000704678532, -0.1803964  , -0.164284751, 0.451260626 , -0.009272315, -0.0121796466, 2.430505    , 4.08        , 3           , 11          , 0.00635653129, 0.00635651965
-0.106247649, 0.0976852   , -9.794      , 0.0007497428, -0.000933776, -6.02732371E-06, -0.180531219, -0.164621815, 0.451530278 , -0.009264817, -0.0121889841, 2.430505    , 4.09        , 3           , 12          , 0.06287566  , 0
-0.134313881, 0.104268909 , -9.775656   , 0.00057288364, -0.00105497963, 0.00013505861, -0.18032898 , -0.164621815, 0.451732516 , -0.00935882 , -0.0121433251, 2.430508    , 4.1         , 3           , 50          , 0           , 0
-0.129159227, 0.11774195  , -9.774656   , -0.000137610186, -0.000215060529, -0.00029073804, -0.18032898 , -0.164621815, 0.451732516 , -0.009360161, -0.0121455034, 2.430505    , 4.11        , 3           , 11          , 0.00628323853, 0.00628322829
-0.120016269, 0.07939434  , -9.808193   , -5.787115E-07, 0.000630589668, -0.000288777781, -0.180261567, -0.164824054, 0.451395452 , -0.00936013 , -0.0121392244, 2.43050218  , 4.12        , 3           , 12          , 0.06394286  , 0
-0.134618208, 0.07322414  , -9.801098   , 0.0008509654, -0.000208375248, -0.000144860023, -0.180868283, -0.164621815, 0.451462865 , -0.009351604, -0.0121413209, 2.43050027  , 4.13        , 3           , 50          , 0           , 0
-0.121669546, 0.09382674  , -9.800462   , -0.000417864358, -0.0006393177, -0.000151437125, -0.18032898 , -0.164621815, 0.451530278 , -0.009355765, -0.0121477293, 2.43049932  , 4.14        , 3           , 11          , 0.00628323853, 0.00628322829
-0.117156625, 0.0937614962, -9.796811   , -0.000280261971, 0.000206335229, 0.000839404238, -0.1803964  , -0.164621815, 0.451462865 , -0.00935867149, -0.0121455891, 2.43050742  , 4.15        , 3           , 12          , 0.06394286  , 0
-0.118230306, 0.0882796943, -9.773338   , -0.000421067467, 0.0002053822, 0.00154508941, -0.1803964  , -0.164621815, 0.451462865 , -0.009363068, -0.0121433875, 2.43052316  , 4.16        , 3           , 50          , 0           , 0
-0.112681337, 0.09321938  , -9.78548    , -0.0002815743, 0.000487900659, 0.0009811069, -0.18032898 , -0.1645544  , 0.451530278 , -0.009366002, -0.0121384161, 2.43053269  , 4.17        , 3           , 11          , 0.00628323853, 0.00628322829
-0.121706329, 0.116933    , -9.827936   , 0.00140700256, 0.0016256189, 0.000284400536, -0.1804638  , -0.164621815, 0.4515977   , -0.009351964, -0.0121221347, 2.43053555  , 4.18        , 3           , 12          , 0.06394286  , 0
-0.1333035  , 0.10478957  , -9.799602   , -0.000433688023, 0.00245789578, -0.0009942763, -0.180126742, -0.164689228, 0.451328039 , -0.009356179, -0.0120976483, 2.430525    , 4.19        , 3           , 50          , 0           , 0
-0.103616334, 0.100708567 , -9.763233   , -0.000870368269, 0.000332798023, -0.0008581104, -0.180126742, -0.164689228, 0.451328039 , -0.009430965, -0.0121238651, 2.43051744  , 4.2         , 3           , 11          , 0.00621193228, 0.00621191924
-0.136333361, 0.087160036 , -9.77981    , 0.0008280856, -0.000359652884, -0.00014495 , -0.180666044, -0.164419577, 0.451462865 , -0.009422665, -0.0121274749, 2.43051553  , 4.21        , 3           , 12          , 0.06501437  , 0
-0.115519755, 0.09002822  , -9.76608    , 0.000123657257, -0.000645991764, 0.00027513  , -0.180261567, -0.1645544  , 0.4516651   , -0.009421464, -0.0121339094, 2.43051839  , 4.22        , 3           , 50          , 0           , 0
-0.13456744 , 0.08397768  , -9.778906   , -0.001707935, -0.00150310178, 0.000265268143, -0.180194154, -0.164756641, 0.4515977   , -0.009438577, -0.0121489139, 2.43052125  , 4.23        , 3           , 11          , 0.00621193228, 0.00621191924
-0.1541217  , 0.09566876  , -9.832341   , -0.00284641422, 0.000178646733, -0.000443739555, -0.180194154, -0.164756641, 0.4515977   , -0.009466987, -0.0121471705, 2.43051648  , 4.24        , 3           , 12          , 0.06501437  , 0
-0.153983161, 0.07398398  , -9.825197   , -0.00214337977, 0.0007465507, -0.0008633857, -0.1803964  , -0.164419577, 0.451462865 , -0.009488315, -0.012139786, 2.430508    , 4.25        , 3           , 50          , 0           , 0
-0.10652484 , 0.085855484 , -9.76422    , -0.000308836432, 0.00104053132, -0.000571854354, -0.1804638  , -0.164486989, 0.4516651   , -0.009491333, -0.0121294362, 2.43050218  , 4.26        , 3           , 11          , 0.00621193228, 0.00621191924
-0.114866607, 0.101344    , -9.778683   , -0.0006006134, 0.00300957868, 0.000136210045, -0.180531219, -0.164621815, 0.4515977   , -0.009497352, -0.0120993285, 2.43050313  , 4.27        , 3           , 12          , 0.06501437  , 0
-0.119454861, 0.08260152  , -9.824447   , -0.0003113797, 0.00160366262, -0.000147180035, -0.180531219, -0.164621815, 0.4515977   , -0.009500447, -0.012083305, 2.43050218  , 4.28        , 3           , 50          , 0           , 0
-0.111046322, 0.0992301852, -9.833805   , 0.001960255 , -0.000915144861, -0.000705625, -0.18032898 , -0.164689228, 0.451462865 , -0.0094807595, -0.0120925223, 2.43049455  , 4.29        , 3           , 11          , 0.00621193228, 0.00621191924
-0.12616159 , 0.08676731  , -9.832164   , -2.33473656E-05, 0.00102948945, -0.00057076267, -0.1804638  , -0.164486989, 0.451732516 , -0.009472102, -0.0121195549, 2.43048882  , 4.3         , 3           , 12          , 0.06608982  , 0
-0.134224609, 0.07897341  , -9.768077   , 0.000397868018, 0.00173627213, 0.00126879115, -0.1803964  , -0.164621815, 0.451530278 , -0.009468275, -0.0121020721, 2.43050122  , 4.31        , 3           , 50          , 0           , 0
-0.1431121  , 0.0872503445, -9.783026   , 0.003928448 , 0.00176014786, 0.00170905923, -0.1803964  , -0.164621815, 0.451530278 , -0.009429195, -0.01208431 , 2.43051839  , 4.32        , 3           , 11          , 0.006142893 , 0.00614288123
-0.119841605, 0.09381908  , -9.804515   , 0.00265998929, 0.00118842127, 0.00113719  , -0.1804638  , -0.164486989, 0.4515977   , -0.009402731, -0.0120723182, 2.43052936  , 4.33        , 3           , 12          , 0.06608982  , 0
-0.100290954, 0.09454876  , -9.821086   , -0.0005828327, 4.01939578E-05, 0.000272697216, -0.18032898 , -0.164486989, 0.4516651   , -0.009408594, -0.0120718917, 2.43053174  , 4.34        , 3           , 50          , 0           , 0
-0.127743781, 0.114201464 , -9.799971   , -1.44122168E-05, -0.0006598983, 0.000415515038, -0.180194154, -0.164621815, 0.451732516 , -0.009408789, -0.01207845 , 2.43053651  , 4.35        , 3           , 11          , 0.006142893 , 0.00614288123
-0.134469926, 0.09744721  , -9.759414   , 0.002531404 , -0.001346619, 0.00127389492, -0.180194154, -0.164621815, 0.451732516 , -0.009383629, -0.0120917968, 2.430549    , 4.36        , 3           , 12          , 0.06608982  , 0
-0.12397106 , 0.103642575 , -9.75976    , 0.00195871969, 0.000198168127, 0.0009911102, -0.180261567, -0.164756641, 0.451395452 , -0.009364162, -0.0120897219, 2.4305594   , 4.37        , 3           , 50          , 0           , 0
-0.1125175  , 0.100493744 , -9.802172   , -0.0008707093, 0.001023759 , -0.0007159821, -0.1804638  , -0.164621815, 0.4516651   , -0.00937278 , -0.01207955 , 2.43055177  , 4.38        , 3           , 11          , 0.006142893 , 0.00614288123
-0.126466066, 0.06822022  , -9.8173275  , -0.00186006329, 0.00115785585, -0.00100291206, -0.1804638  , -0.164689228, 0.451395452 , -0.00939126 , -0.01206807 , 2.43054175  , 4.39        , 3           , 12          , 0.06608982  , 0
-0.123191312, 0.08969313  , -9.773823   , -0.0007296667, 0.00100899511, 0.0005558983, -0.1803964  , -0.164486989, 0.451395452 , -0.009401283, -0.0121042775, 2.430547    , 4.4         , 3           , 50          , 0           , 0
-0.123146333, 0.09508577  , -9.767472   , 0.000122863552, -0.000111536974, -6.96152256E-06, -0.1803964  , -0.164486989, 0.451395452 , -0.009400054, -0.0121053932, 2.430547    , 4.41        , 3           , 11          , 0.006075648 , 0.006075639
-0.136004925, 0.0803587139, -9.771248   , 0.000546874537, -0.000249456119, -0.000570278, -0.18032898 , -0.164284751, 0.4515977   , -0.009394514, -0.01210794 , 2.43054128  , 4.42        , 3           , 12          , 0.06716876  , 0
-0.126428843, 0.08342632  , -9.777489   , 0.0009641602, 0.00102045131, -0.0007076186, -0.1803964  , -0.164419577, 0.451462865 , -0.009384788, -0.0120978048, 2.43053365  , 4.43        , 3           , 50          , 0           , 0
-0.13250047 , 0.08951991  , -9.823614   , 0.0009636263, 0.00116123457, -0.000424864265, -0.1803964  , -0.164689228, 0.451395452 , -0.009375097, -0.0120862313, 2.43052983  , 4.44        , 3           , 11          , 0.006075648 , 0.006075639
-0.117029168, 0.09207934  , -9.833428   , 0.00293893064, 0.00159695419, 0.000291348755, -0.1803964  , -0.164689228, 0.451395452 , -0.009345743, -0.0120702358, 2.43053269  , 4.45        , 3           , 12          , 0.06716876  , 0
-0.111531809, 0.08053644  , -9.775128   , 0.004633818 , 0.00160841562, 0.0008643254, -0.1803964  , -0.164486989, 0.451732516 , -0.009299506, -0.0120540718, 2.4305408   , 4.46        , 3           , 50          , 0           , 0
-0.0992476642, 0.0844578147, -9.776374   , 0.00111377472, -0.0005271979, 0.000562071858, -0.180261567, -0.164756641, 0.4515977   , -0.009288437, -0.0120592918, 2.43054652  , 4.47        , 3           , 11          , 0.006075648 , 0.006075639
-0.121382333, 0.08163581  , -9.799154   , -0.000579021464, -0.000961006852, -1.15556759E-05, -0.180194154, -0.164756641, 0.4516651   , -0.009294226, -0.012068904, 2.43054652  , 4.48        , 3           , 12          , 0.06716876  , 0
-0.10723716 , 0.09003987  , -9.798107   , 0.000403733167, 0.000171937412, -0.000287748175, -0.180194154, -0.164756641, 0.4516651   , -0.009290154, -0.01206721 , 2.43054366  , 4.49        , 3           , 50          , 0           , 0
-0.111719884, 0.09057593  , -9.807631   , -0.0001527847, 0.0005920943, -0.000572470366, -0.1803964  , -0.164419577, 0.4515977   , -0.00925963651, -0.0120564234, 2.43053651  , 4.5         , 3           , 11          , 0.006010287 , 0.006010276
-0.112613738, 0.09639862  , -9.791794   , -0.000145695944, -0.0006749445, 0.0008382642, -0.1804638  , -0.164486989, 0.4516651   , -0.009261196, -0.0120630972, 2.430545    , 4.51        , 3           , 12          , 0.06825082  , 0
-0.0882025138, 0.09607983  , -9.782118   , 0.000146733641, -0.002643989, 0.00126034976, -0.180531219, -0.1645544  , 0.4516651   , -0.009259883, -0.0120894173, 2.43055844  , 4.52        , 3           , 50          , 0           , 0
-0.1292122  , 0.106540278 , -9.797754   , -0.000426929066, -0.00109920639, -0.00071765983, -0.180531219, -0.1645544  , 0.4516651   , -0.009264067, -0.0121004749, 2.43055081  , 4.53        , 3           , 11          , 0.006010287 , 0.006010276
-0.135254413, 0.09219975  , -9.805996   , -0.0001492997, -0.000111818466, -0.0005735553, -0.18032898 , -0.1645544  , 0.451462865 , -0.009265491, -0.0121016474, 2.43054557  , 4.54        , 3           , 12          , 0.06825082  , 0
-0.134584069, 0.0714663938, -9.815117   , 0.00183211488, -0.000943142746, -0.000141832366, -0.1804638  , -0.164689228, 0.451462865 , -0.009247154, -0.012111092, 2.43054414  , 4.55        , 3           , 50          , 0           , 0
-0.107350938, 0.08235972  , -9.794975   , 0.003098609 , -8.985371E-05, -0.0005584105, -0.180261567, -0.164824054, 0.4516651   , -0.0092161  , -0.0121120419, 2.43053842  , 4.56        , 3           , 11          , 0.006010287 , 0.006010276
-0.08904642 , 0.09881853  , -9.78844    , 0.0009784801, 0.0003181699, -0.0002850991, -0.180261567, -0.164824054, 0.4516651   , -0.00920628 , -0.0121088866, 2.43053555  , 4.57        , 3           , 12          , 0.06825082  , 0
-0.113195047, 0.09406805  , -9.767853   , 0.000701302837, -0.0008100018, -0.000853226753, -0.18032898 , -0.164689228, 0.451395452 , -0.009199165, -0.0121170636, 2.430527    , 4.58        , 3           , 50          , 0           , 0
-0.140180409, 0.09810506  , -9.800586   , 0.0008468614, -0.00165374135, -0.0005713327, -0.180194154, -0.164352164, 0.451395452 , -0.009190628, -0.0121336551, 2.43052173  , 4.59        , 3           , 11          , 0.006010287 , 0.006010276
-0.121172465, 0.105908774 , -9.772385   , -0.0011375047, -0.00110116124, -0.000155817979, -0.1803964  , -0.1645544  , 0.451530278 , -0.009216927, -0.01213597 , 2.4305203   , 4.6         , 3           , 12          , 0.0693356842, 0
-0.121886015, 0.1185728   , -9.778665   , -0.00072566903, 0.00115422136, -0.00128052093, -0.1803964  , -0.1645544  , 0.451530278 , -0.009224027, -0.0121245468, 2.430507    , 4.61        , 3           , 50          , 0           , 0
-0.114337221, 0.104078859 , -9.788612   , -0.00213833712, 0.001285455 , -0.00100435119, -0.18032898 , -0.164756641, 0.451395452 , -0.009245288, -0.012111784, 2.43049741  , 4.62        , 3           , 11          , 0.00594646763, 0.005946454
-0.104903981, 0.0954256058, -9.797615   , -0.00198958279, -0.000121412886, -1.69812956E-05, -0.180531219, -0.1645544  , 0.451260626 , -0.009265182, -0.0121129993, 2.430497    , 4.63        , 3           , 12          , 0.0693356842, 0
-0.105278663, 0.06253843  , -9.811767   , 0.00224255631, 0.0007519315, -0.000137194089, -0.1803964  , -0.164419577, 0.451530278 , -0.009242739, -0.0121054919, 2.4304955   , 4.64        , 3           , 50          , 0           , 0
-0.107337222, 0.08326353  , -9.79542351 , 0.00379947014, 5.85239832E-05, 1.02328222E-05, -0.1803964  , -0.164419577, 0.451530278 , -0.009204748, -0.012104908, 2.4304955   , 4.65        , 3           , 11          , 0.00594646763, 0.005946454
-0.131058   , 0.102516286 , -9.802305   , 0.00295870751, -0.00121424755, 0.000428135449, -0.180261567, -0.164689228, 0.4511932   , -0.009175213, -0.0121170077, 2.43050027  , 4.66        , 3           , 12          , 0.0693356842, 0
-0.125240266, 0.1006063   , -9.791421   , 0.0009804075, -0.000946051849, 0.0005606196, -0.18032898 , -0.164621815, 0.451530278 , -0.009165479, -0.0121264169, 2.430506    , 4.67        , 3           , 50          , 0           , 0
-0.116210781, 0.09780063  , -9.793623   , 0.0005555807, -0.000808136654, -0.000288751267, -0.180194154, -0.164486989, 0.451530278 , -0.009159889, -0.012134525, 2.43050313  , 4.68        , 3           , 11          , 0.00594646763, 0.005946454
-0.127505481, 0.09884642  , -9.796869   , 0.0009876665, -0.00249466184, -0.000148110688, -0.18032898 , -0.164621815, 0.451395452 , -0.0091499975, -0.0121594835, 2.43050218  , 4.69        , 3           , 12          , 0.0693356842, 0
-0.123369746, 0.10018681  , -9.807228   , -0.00129121135, -0.00152397808, 0.000831903541, -0.18032898 , -0.164621815, 0.451395452 , -0.00921092 , -0.0121731227, 2.43051076  , 4.7         , 3           , 50          , 0           , 0
-0.1245076  , 0.08349426  , -9.804142   , -0.00228507374, -0.000545187562, -1.87993464E-05, -0.180194154, -0.164958879, 0.451260626 , -0.009233767, -0.0121785766, 2.43051076  , 4.71        , 3           , 11          , 0.00588454166, 0.005884525
-0.111860588, 0.104224637 , -9.840118   , -0.000303288572, -0.00151729607, -0.0001523683, -0.18032898 , -0.164689228, 0.451462865 , -0.009236786, -0.0121937618, 2.43050885  , 4.72        , 3           , 12          , 0.07042296  , 0
-0.115486689, 0.0842524543, -9.79277    , 0.000683440536, -0.00108826207, 0.000417966745, -0.180598632, -0.164891466, 0.4511932   , -0.009230003, -0.0122046061, 2.43051362  , 4.73        , 3           , 50          , 0           , 0
-0.127608433, 0.09072872  , -9.797808   , -1.76659123E-05, -0.00207851431, 0.000554424361, -0.180598632, -0.164891466, 0.4511932   , -0.00923025 , -0.012225342, 2.43051934  , 4.74        , 3           , 11          , 0.00588454166, 0.005884525
-0.106894307, 0.0850356147, -9.787277   , -0.00199379353, -0.002232666, 0.0008275263, -0.18032898 , -0.164824054, 0.451260626 , -0.009250293, -0.0122475913, 2.430528    , 4.75        , 3           , 12          , 0.07042296  , 0
-0.12124189 , 0.0951401   , -9.790057   , -0.00157117669, -0.00208901986, 0.000264643924, -0.1804638  , -0.165026292, 0.451530278 , -0.00926604 , -0.0122684557, 2.43053031  , 4.76        , 3           , 50          , 0           , 0
-0.113032967, 0.104019068 , -9.775494   , 0.000687296153, -0.00193295872, -0.000148409788, -0.1803964  , -0.164958879, 0.451462865 , -0.009259151, -0.0122877974, 2.43052888  , 4.77        , 3           , 11          , 0.00588454166, 0.005884525
-0.114427626, 0.0977567   , -9.78683    , 0.00011461239, -0.000388171669, -0.000431194552, -0.1803964  , -0.164958879, 0.451462865 , -0.009257952, -0.0122917211, 2.430525    , 4.78        , 3           , 12          , 0.07042296  , 0
-0.109011985, 0.09633946  , -9.786795   , -0.000594405748, 0.000170182873, -0.000716156443, -0.180126742, -0.164891466, 0.4511258   , -0.009263807, -0.0122900838, 2.43051744  , 4.79        , 3           , 50          , 0           , 0
-0.112596177, 0.0999836251, -9.784548   , -0.00102685753, -0.000243516988, -0.000294818659, -0.180261567, -0.164689228, 0.451260626 , -0.009310072, -0.0122553464, 2.43051457  , 4.8         , 3           , 11          , 0.00582443271, 0.00582441455
-0.1292552  , 0.10382732  , -9.79595852 , 0.0001014113, 0.00018647364, 0.0008412499, -0.1804638  , -0.164891466, 0.451260626 , -0.009309161, -0.0122534018, 2.43052316  , 4.81        , 3           , 12          , 0.0715123639, 0
-0.116061442, 0.1081877   , -9.796743   , 0.000949143956, 5.14197382E-05, 0.000421177538, -0.1804638  , -0.164891466, 0.451260626 , -0.009299722, -0.0122528477, 2.430527    , 4.82        , 3           , 50          , 0           , 0
-0.101781234, 0.09267241  , -9.794891   , -0.000460157724, -0.000662045961, -0.0007166418, -0.180531219, -0.164958879, 0.451260626 , -0.009304237, -0.0122595355, 2.4305203   , 4.83        , 3           , 11          , 0.00582443271, 0.00582441455
-0.110778473, 0.101306744 , -9.781816   , -0.00130317465, -0.00151247066, -0.0005806257, -0.180261567, -0.164824054, 0.451462865 , -0.009317199, -0.0122747133, 2.43051457  , 4.84        , 3           , 12          , 0.0715123639, 0
-0.1049448  , 0.09316078  , -9.794912   , -0.0004562204, -0.00150674232, -0.00114174979, -0.180194154, -0.164891466, 0.4511932   , -0.009321622, -0.0122898864, 2.43050313  , 4.85        , 3           , 50          , 0           , 0
-0.102552369, 0.09547008  , -9.81884    , 0.0006702466, -0.0007951886, -0.000711591158, -0.180194154, -0.164891466, 0.4511932   , -0.009314833, -0.0122979051, 2.43049645  , 4.86        , 3           , 11          , 0.00582443271, 0.00582441455
-0.105732761, 0.103532761 , -9.790356   , 0.001941657 , -0.000786591438, 0.00014194753, -0.1804638  , -0.164824054, 0.4511932   , -0.009295436, -0.0123057561, 2.43049741  , 4.87        , 3           , 12          , 0.0715123639, 0
-0.099094145, 0.133160248 , -9.768036   , 0.002498888 , 0.0006250508, -0.0009833988, -0.18032898 , -0.164824054, 0.451328039 , -0.009270324, -0.0122996  , 2.43048787  , 4.88        , 3           , 50          , 0           , 0
-0.131791338, 0.08354756  , -9.794705   , 0.0010826533, 0.00146019657, -0.000847413, -0.18032898 , -0.164891466, 0.451328039 , -0.00925939251, -0.012285077, 2.43047929  , 4.89        , 3           , 11          , 0.00582443271, 0.00582441455
-0.123997323, 0.09067713  , -9.795068   , 0.0009199232, 0.00105650036, -0.000283217261, -0.18032898 , -0.164891466, 0.451328039 , -0.00932923052, -0.012209788, 2.43047643  , 4.9         , 3           , 12          , 0.07260357  , 0
-0.116537213, 0.07477227  , -9.787846   , 0.0007762923, 0.00147789146, -0.0008482997, -0.180261567, -0.164824054, 0.451328039 , -0.009321363, -0.012195088, 2.43046784  , 4.91        , 3           , 50          , 0           , 0
-0.132214084, 0.08893342  , -9.784743   , -0.00190520519, 0.00117818231, -0.000578707, -0.1803964  , -0.164756641, 0.451260626 , -0.009340343, -0.01218336 , 2.43046212  , 4.92        , 3           , 11          , 0.005765653 , 0.00576563273
-0.102644473, 0.102090687 , -9.77497    , -0.00147836911, 0.0006179192, 0.0001287441, -0.18032898 , -0.164958879, 0.451328039 , -0.009355141, -0.0121771684, 2.43046355  , 4.93        , 3           , 12          , 0.07260357  , 0
-0.107745573, 0.09044645  , -9.783193   , 0.0003547802, 0.00119346485, 0.000420709373, -0.180194154, -0.164824054, 0.450990975 , -0.009351644, -0.0121651944, 2.43046784  , 4.94        , 3           , 50          , 0           , 0
-0.127097458, 0.09121689  , -9.810458   , 0.000499560265, 0.0004905076, 0.0005615519, -0.180194154, -0.164824054, 0.450990975 , -0.009346715, -0.0121602379, 2.430473    , 4.95        , 3           , 11          , 0.005765653 , 0.00576563273
-0.100988   , 0.0818583444, -9.802161   , 0.00233767019, 8.057598E-05, 0.0009932673, -0.180261567, -0.164824054, 0.451260626 , -0.00932346 , -0.0121593392, 2.430483    , 4.96        , 3           , 12          , 0.07260357  , 0
-0.0911762938, 0.0735859   , -9.791725   , 0.00191099721, 0.0006408401, 0.0005683536, -0.180261567, -0.164958879, 0.451462865 , -0.009304418, -0.0121528776, 2.43048882  , 4.97        , 3           , 50          , 0           , 0
-0.115729943, 0.06530862  , -9.794207   , 0.0007751431, 0.00175945775, -0.000424059544, -0.18032898 , -0.165161118, 0.4511258   , -0.009296613, -0.0121353231, 2.430484    , 4.98        , 3           , 11          , 0.005765653 , 0.00576563273
-0.100373186, 0.0566165037, -9.812204   , -0.000915525, 0.00104408723, 0.000273297628, -0.18032898 , -0.165161118, 0.4511258   , -0.0093058  , -0.0121248579, 2.430487    , 4.99        , 3           , 12          , 0.07260357  , 0
-0.107443765, 0.077821    , -9.78686    , -0.00116154319, -0.00146981236, 0.000409103 , -0.18032898 , -0.164891466, 0.451328039 , -0.009237211, -0.0120649589, 2.43048882  , 5           , 3           , 50          , 0           , 0
-0.11575789 , 0.1004735   , -9.785022   , 0.000396357063, -0.002444787, -0.0001502476, -0.18032898 , -0.164756641, 0.451395452 , -0.009233231, -0.01208942 , 2.43048787  , 5.01        , 3           , 11          , 0.005708605 , 0.005708584
-0.113238312, 0.1185081   , -9.789448   , -0.00074166985, -0.000903821841, -0.00128327869, -0.1803964  , -0.164824054, 0.451260626 , -0.009240495, -0.012098575, 2.430475    , 5.02        , 3           , 12          , 0.0736963153, 0
-0.122973487, 0.101921082 , -9.787783   , -0.000333156058, 0.00205547432, -0.00212435937, -0.1803964  , -0.164824054, 0.451260626 , -0.009243566, -0.0120782172, 2.43045354  , 5.03        , 3           , 50          , 0           , 0
-0.122851193, 0.07843776  , -9.78245449 , -4.53607754E-05, 0.00107190863, -0.00127694884, -0.180261567, -0.164891466, 0.451328039 , -0.009243865, -0.01206762 , 2.43044066  , 5.04        , 3           , 11          , 0.005708605 , 0.005708584
-0.129829466, 0.0983779952, -9.783781   , -0.00130611553, -0.0009076399, -0.000579568732, -0.1804638  , -0.164689228, 0.451260626 , -0.009256858, -0.0120767476, 2.430435    , 5.05        , 3           , 12          , 0.0736963153, 0
-0.10811574 , 0.09632127  , -9.784529   , -0.00158636982, -0.001331897, -0.000440267759, -0.180059329, -0.164689228, 0.451260626 , -0.00927267 , -0.0120901056, 2.43043065  , 5.06        , 3           , 50          , 0           , 0
-0.0887614042, 0.0861794651, -9.788038   , -3.347459E-05, -0.00118060841, -9.001519E-06, -0.180059329, -0.164689228, 0.451260626 , -0.009273006, -0.0121019119, 2.43043065  , 5.07        , 3           , 11          , 0.005708605 , 0.005708584
-0.138375923, 0.06913978  , -9.781257   , 0.00137402536, -0.000185579687, 0.000422908051, -0.1803964  , -0.164891466, 0.4511258   , -0.009259316, -0.012103729, 2.43043542  , 5.08        , 3           , 12          , 0.0736963153, 0
