Acc X       , Acc Y       , Acc Z       , Gyro X      , Gyro Y      , Gyro Z      , Magn X      , Magn Y      , Magn Z      , Euler X     , Euler Y     , Euler Z     , Time        , Status      , LowRate X   , LowRate Y   , LowRate Z    
0.378450632 , 0.009375493 , -9.7771     , -0.001845857, -0.0019426751, -0.0010082745, -0.184104085, -0.161183774, 0.4199137   , -0.002747491, 0.039242696 , 2.378853    , 0           , 3           , 11          , 0.0346410163, 0.0346410163
0.3654476   , 0.0158820488, -9.78802    , -0.000169744366, 0.00172912877, -0.00155980675, -0.183834434, -0.161251172, 0.419981122 , -0.00274980161, 0.03925994  , 2.37883687  , 0.01        , 3           , 12          , 0.0346410163, 0
0.375279516 , 0.00717963045, -9.783913   , 0.000253280363, 0.00187277677, -0.00141634559, -0.183969259, -0.161048949, 0.420115948 , -0.00274782674, 0.0392786339, 2.37882257  , 0.02        , 3           , 50          , 0           , 0
0.37523818  , -0.0008881819, -9.799766   , -0.0011457369, -0.00067085604, -0.000437954644, -0.183969259, -0.161386   , 0.420183361 , -0.002759455, 0.03927191  , 2.37881875  , 0.03        , 3           , 11          , 0.0346410163, 0.0346410163
0.383722961 , 0.0256219655, -9.795976   , -0.000293785, -0.001509819, 0.000412306777, -0.184036672, -0.161183774, 0.4199137   , -0.00276222918, 0.03925682  , 2.37882257  , 0.04        , 3           , 12          , 0.0346410163, 0
0.394328773 , 0.0479726   , -9.770492   , 0.000133095513, -0.002210868, -1.06087555E-05, -0.184036672, -0.161183774, 0.4199137   , -0.00276090042, 0.03923471  , 2.37882257  , 0.05        , 3           , 50          , 0           , 0
0.4029215   , 0.00642690063, -9.790484   , -1.46356006E-05, -0.0009447813, -0.000433120615, -0.1841715  , -0.160981536, 0.419981122 , -0.00276121637, 0.0392252542, 2.37881875  , 0.06        , 3           , 11          , 0.0346410163, 0.0346410163
0.408172816 , 0.0271198675, -9.7899065  , -0.00129601127, 0.001158362 , -0.000435792346, -0.183901846, -0.161251172, 0.420048535 , -0.00277435081, 0.039236825 , 2.378814    , 0.07        , 3           , 12          , 0.0346410163, 0
0.371048659 , 0.03336176  , -9.772537   , -0.0007333301, 0.00158452918, -0.0005737763, -0.183834434, -0.161251172, 0.4199137   , -0.00278191059, 0.03925266  , 2.37880826  , 0.08        , 3           , 50          , 0           , 0
0.353356153 , 0.0255073085, -9.790333   , 0.0008187049, 0.00187659939, -0.000424830476, -0.183834434, -0.161251172, 0.4199137   , -0.0027738926, 0.03927141  , 2.37880349  , 0.09        , 3           , 11          , 0.0346410163, 0.0346410163
0.396439582 , 0.0272898264, -9.799488   , -0.000449798477, 0.00144565839, 0.000133666312, -0.184104085, -0.161251172, 0.420048535 , -0.00277834083, 0.0392858721, 2.3788054   , 0.1         , 3           , 12          , 0.0346410163, 0
0.4193349   , 0.01302246  , -9.796208   , -0.000724929, 3.59246333E-05, 0.0006952546, -0.183969259, -0.161183774, 0.420115948 , -0.00278531737, 0.03928625  , 2.378812    , 0.11        , 3           , 50          , 0           , 0
0.3896979   , 0.00204232335, -9.782469   , 0.00139442144, -0.000231316837, 0.0002808915, -0.183969259, -0.161453411, 0.4199137   , -0.002771262, 0.03928394  , 2.378815    , 0.12        , 3           , 11          , 0.0346410163, 0.0346410163
0.38745147  , 0.0305753667, -9.80587    , 0.002946175 , -8.003369E-05, -0.00126560451, -0.183969259, -0.161453411, 0.4199137   , -0.00274229445, 0.0392831154, 2.37880254  , 0.13        , 3           , 12          , 0.0346410163, 0
0.394251078 , 0.0309482887, -9.806268   , 0.000117398122, 0.000745560159, -0.001842547, -0.183901846, -0.161048949, 0.419981122 , -0.00274184579, 0.0392905176, 2.37878346  , 0.14        , 3           , 50          , 0           , 0
0.367639452 , 0.00910181  , -9.792099   , -0.000596217345, 0.00243017962, -0.000430548331, -0.183969259, -0.161251172, 0.419981122 , -0.00274798134, 0.03931481  , 2.37877965  , 0.15        , 3           , 11          , 0.0346410163, 0.0346410163
0.355780154 , 0.04033999  , -9.781666   , -0.00143923424, 0.00157975522, -0.000294532219, -0.183901846, -0.161386   , 0.420048535 , -0.00276249135, 0.0393306   , 2.37877679  , 0.16        , 3           , 12          , 0.0346410163, 0
0.387243152 , 0.04863278  , -9.807605   , -0.00129154022, 0.000172882239, -0.00114365574, -0.183901846, -0.161386   , 0.420048535 , -0.00277585723, 0.039332293 , 2.37876534  , 0.17        , 3           , 50          , 0           , 0
0.384647846 , 0.0265196823, -9.797772   , 0.0005561205, -0.00206722 , 0.000132851434, -0.183901846, -0.161116362, 0.4199137   , -0.00277024251, 0.03931163  , 2.3787663   , 0.18        , 3           , 11          , 0.0346410163, 0.0346410163
0.3958819   , 0.01649775  , -9.808577   , -0.000428643718, -0.00277781649, 0.000550963567, -0.1841715  , -0.161183774, 0.4203182   , -0.00277430867, 0.0392838642, 2.378772    , 0.19        , 3           , 12          , 0.0346410163, 0
0.365162134 , -0.009791236, -9.800784   , -1.31592178E-05, -0.00122634612, -0.00029228616, -0.184036672, -0.161318585, 0.420115948 , -0.002774529, 0.0392715856, 2.37876916  , 0.2         , 3           , 50          , 0           , 0
0.3949517   , 0.0236300435, -9.779627   , -1.221747E-05, -0.00136712741, 0.000131303008, -0.184036672, -0.161318585, 0.420115948 , -0.00277459738, 0.0392579176, 2.37877     , 0.21        , 3           , 11          , 0.03466991  , 0.03466991
0.4016742   , 0.0181380026, -9.78005    , -0.00072439434, -0.000104858715, 0.000412500754, -0.183901846, -0.160981536, 0.419778883 , -0.00278168 , 0.03925688  , 2.3787744   , 0.22        , 3           , 12          , 0.0346688181, 0
0.394248217 , 0.0322851129, -9.801291   , -0.000162862532, 0.00060287473, 0.00069875695, -0.183901846, -0.161183774, 0.420048535 , -0.00278303586, 0.03926293  , 2.37878156  , 0.23        , 3           , 50          , 0           , 0
0.37738508  , 0.0221264865, -9.807791   , 0.0008283378, 4.64290679E-05, 0.000561229535, -0.183969259, -0.161318585, 0.419981122 , -0.00277453382, 0.0392634124, 2.37878728  , 0.24        , 3           , 11          , 0.03466991  , 0.03466991
0.373113573 , 0.0162126049, -9.778921   , -0.00100521964, -0.000529118639, -0.000437079434, -0.183901846, -0.161386   , 0.419981122 , -0.00278475787, 0.0392581075, 2.37878251  , 0.25        , 3           , 12          , 0.0346688181, 0
0.382455826 , 0.00302212127, -9.78026    , -0.00184807321, -0.00137954275, -1.85258159E-05, -0.183901846, -0.161386   , 0.419981122 , -0.00280324323, 0.0392443165, 2.37878251  , 0.26        , 3           , 50          , 0           , 0
0.389819562 , 0.005265396 , -9.801889   , -0.000153349363, -0.001368082, 0.000271913275, -0.183901846, -0.161386   , 0.420048535 , -0.00280466839, 0.03923064  , 2.37878537  , 0.27        , 3           , 11          , 0.03466991  , 0.03466991
0.408003777 , 0.0229657758, -9.761903   , 0.000833669 , -0.00107983244, 0.000135687733, -0.183901846, -0.161183774, 0.420183361 , -0.00279627624, 0.03921984  , 2.3787868   , 0.28        , 3           , 12          , 0.0346688181, 0
0.381242931 , 0.0432532951, -9.797277   , -0.00114549114, -0.000670855, -1.41486453E-05, -0.183969259, -0.160981536, 0.420048535 , -0.00280773523, 0.0392131321, 2.37878633  , 0.29        , 3           , 50          , 0           , 0
0.356805623 , 0.035962984 , -9.825066   , -0.00239742175, 3.64083935E-05, 0.000123193 , -0.183969259, -0.160981536, 0.420048535 , -0.00236970861, 0.0394595861, 2.37880588  , 0.3         , 3           , 11          , 0.0347533934, 0.0347533934
0.390246481 , 0.0381949022, -9.800393   , 0.0005629363, 0.00104193971, -0.0002852667, -0.184036672, -0.161116362, 0.420048535 , -0.002364192, 0.0394699946, 2.378803    , 0.31        , 3           , 12          , 0.0347538926, 0
0.406784058 , 0.0288965739, -9.776803   , 0.0002783369, 0.00146237691, -0.0004272015, -0.183901846, -0.161116362, 0.420183361 , -0.0023615798, 0.03948461  , 2.37879872  , 0.32        , 3           , 50          , 0           , 0
0.405445516 , 0.02803593  , -9.7845     , -0.000142025965, 0.0008963842, 0.000417567673, -0.183834434, -0.161116362, 0.419981122 , -0.002362836, 0.0394935869, 2.37880254  , 0.33        , 3           , 11          , 0.0347533934, 0.0347533934
0.38965106  , 0.03183572  , -9.785961   , 0.00240428629, -7.19058444E-05, -0.0002784423, -0.183834434, -0.161116362, 0.419981122 , -0.00233890372, 0.03949286  , 2.37880015  , 0.34        , 3           , 12          , 0.0347538926, 0
0.390185446 , 0.00117250532, -9.793768   , 0.0009936279, -0.000363020372, -0.000144192163, -0.1836322  , -0.161116362, 0.419981122 , -0.00232902076, 0.0394892246, 2.37879872  , 0.35        , 3           , 50          , 0           , 0
0.3996203   , 0.01967376  , -9.826613   , -0.00196984434, -0.0008054231, -0.000299939682, -0.183969259, -0.161183774, 0.420115948 , -0.00234884 , 0.039481163 , 2.37879586  , 0.36        , 3           , 11          , 0.0347533934, 0.0347533934
0.38443023  , 0.03698161  , -9.821686   , -0.00055578223, -0.00121822173, -0.000576543447, -0.183834434, -0.161588237, 0.420048535 , -0.002354624, 0.03946897  , 2.37879014  , 0.37        , 3           , 12          , 0.0347538926, 0
0.378888249 , 0.0365110859, -9.796871   , -0.000412930152, -0.00149883062, -0.0001525126, -0.183834434, -0.161588237, 0.420048535 , -0.002358813, 0.0394539759, 2.37878823  , 0.38        , 3           , 50          , 0           , 0
0.392850041 , 0.0465519466, -9.745649   , -0.000274423073, -0.000934744952, -9.717542E-06, -0.183969259, -0.161318585, 0.4199137   , -0.002361561, 0.0394446254, 2.37878823  , 0.39        , 3           , 11          , 0.0347533934, 0.0347533934
0.394458741 , 0.05745131  , -9.771807   , 0.00208567339, 0.0006440504, -0.000138667354, -0.184238911, -0.161048949, 0.420048535 , -0.00264257519, 0.0395792946, 2.378775    , 0.4         , 3           , 12          , 0.0348953754, 0
0.369806    , 0.0258835088, -9.825008   , 0.00138391415, -0.000346204935, -0.0011323595, -0.183767021, -0.161453411, 0.420048535 , -0.002629185, 0.0395758078, 2.37876344  , 0.41        , 3           , 50          , 0           , 0
0.375665158 , -0.000468044542, -9.792078   , 0.001951185 , -0.000764730969, -0.0005653016, -0.183767021, -0.161453411, 0.420048535 , -0.00260989531, 0.03956814  , 2.37875772  , 0.42        , 3           , 11          , 0.01769368  , 0.0176939182
0.386313647 , -0.0110386238, -9.772153   , 0.003778351 , 0.000937072968, -0.0009779443, -0.183834434, -0.161386   , 0.420048535 , -0.00257249945, 0.03957749  , 2.37874818  , 0.43        , 3           , 12          , 0.0348953754, 0
0.402065665 , -0.0193363242, -9.774778   , 0.00151840237, 0.00106257654, -0.000705725455, -0.1841715  , -0.161048949, 0.420183361 , -0.00255759759, 0.0395881   , 2.3787415   , 0.44        , 3           , 50          , 0           , 0
0.378394663 , 0.009330141 , -9.763541   , 0.000250225334, 0.0006316372, 0.000417847565, -0.183901846, -0.161453411, 0.420183361 , -0.002554929, 0.039594423 , 2.37874532  , 0.45        , 3           , 11          , 0.01769368  , 0.0176939182
0.376820564 , 0.0198095217, -9.787917   , 0.00011983759, -0.00162183994, -0.000151357352, -0.183901846, -0.161453411, 0.420183361 , -0.00255378848, 0.0395781957, 2.378744    , 0.46        , 3           , 12          , 0.0348953754, 0
0.386147439 , 0.02840359  , -9.826229   , -0.000864518865, -0.00233243429, 0.0009730982, -0.184036672, -0.161318585, 0.4199137   , -0.00256204582, 0.0395549   , 2.378754    , 0.47        , 3           , 50          , 0           , 0
0.410933256 , 0.0582937859, -9.811      , 0.0001089301, 0.000630681636, 0.0002759203, -0.183969259, -0.161116362, 0.420183361 , -0.002560846, 0.0395612121, 2.37875676  , 0.48        , 3           , 11          , 0.01769368  , 0.0176939182
0.393266618 , 0.0353585556, -9.772811   , 0.0010890601, 0.00232675718, 0.000283133384, -0.183767021, -0.160981536, 0.420250773 , -0.00254984526, 0.03958449  , 2.37875962  , 0.49        , 3           , 12          , 0.0348953754, 0
0.40446955  , 0.0235259719, -9.781815   , 0.000520381436, 0.002336524 , -2.15313776E-06, -0.183901846, -0.161318585, 0.420115948 , -0.00256227143, 0.0396731421, 2.37875867  , 0.5         , 3           , 50          , 0           , 0
0.376119643 , 0.0369472727, -9.78288    , -0.00116802519, 0.0009172347, -0.00142491178, -0.183901846, -0.161318585, 0.420115948 , -0.00257451879, 0.03968228  , 2.37874436  , 0.51        , 3           , 11          , 0.0134326424, 0.0134326732
0.397398472 , 0.031339556 , -9.799463   , -0.00172636122, -0.000353626936, -0.001005692, -0.183699608, -0.161318585, 0.420183361 , -0.00259218155, 0.0396787226, 2.37873387  , 0.52        , 3           , 12          , 0.0350921638, 0
0.3737945   , 0.0221947078, -9.815501   , -0.000596246, -0.0003459851, -0.0002940807, -0.183834434, -0.161183774, 0.420115948 , -0.002598261, 0.0396752581, 2.378731    , 0.53        , 3           , 50          , 0           , 0
0.364946842 , 0.038984552 , -9.812788   , 0.000671516056, 0.000366524 , 0.000278005231, -0.183969259, -0.161318585, 0.420183361 , -0.00259143417, 0.03967892  , 2.37873387  , 0.54        , 3           , 11          , 0.0134326424, 0.0134326732
0.400348216 , 0.05158226  , -9.791222   , 0.00137680455, 0.000512081 , 0.000140245742, -0.183969259, -0.161318585, 0.420183361 , -0.00257761148, 0.03968405  , 2.3787353   , 0.55        , 3           , 12          , 0.0350921638, 0
0.381934732 , 0.03146435  , -9.782858   , 0.00137377181, 0.00107520993, -0.000282692519, -0.184104085, -0.161183774, 0.420115948 , -0.002563987, 0.0396947935, 2.378733    , 0.56        , 3           , 50          , 0           , 0
0.3799327   , 0.0504498668, -9.785958   , 0.00123059342, 0.00135581731, -0.00127179816, -0.184104085, -0.161183774, 0.420250773 , -0.002552188, 0.0397083238, 2.37871957  , 0.57        , 3           , 11          , 0.0134326424, 0.0134326732
0.401133955 , 0.0407621339, -9.796683   , 0.000532356557, -0.000197564688, -0.0009949395, -0.183969259, -0.161251172, 0.419981122 , -0.00254726014, 0.03970632  , 2.37871     , 0.58        , 3           , 12          , 0.0350921638, 0
0.379926145 , 0.0491054729, -9.788675   , -0.0004524521, -0.000767375459, 0.00055353943, -0.183969259, -0.161251172, 0.419981122 , -0.00255156471, 0.03969866  , 2.37871575  , 0.59        , 3           , 50          , 0           , 0
0.3660419   , 0.0333990641, -9.766248   , 0.00182681251, 0.00148061244, 0.0002812496, -0.183969259, -0.161183774, 0.4203182   , -0.00286229677, 0.0396514237, 2.37870526  , 0.6         , 3           , 11          , 0.0113500021, 0.011350017
0.363242149 , 0.0168487281, -9.799333   , 0.0004088577, 0.00259732152, -0.0001474055, -0.184104085, -0.161116362, 0.420183361 , -0.00285827 , 0.0396773927, 2.37870336  , 0.61        , 3           , 12          , 0.0353429019, 0
0.39584446  , 0.0137893353, -9.808135   , -0.00311381021, 0.00102483924, -0.000166253842, -0.183901846, -0.161251172, 0.420250773 , -0.00288947625, 0.0396876372, 2.378702    , 0.62        , 3           , 50          , 0           , 0
0.383015662 , 0.0391837656, -9.800897   , -0.003529702, -0.000526633346, -2.93471658E-05, -0.183901846, -0.161251172, 0.420250773 , -0.00292478385, 0.03968237  , 2.37870145  , 0.63        , 3           , 11          , 0.0113500021, 0.011350017
0.396726251 , 0.0168838464, -9.792296   , -0.00353138545, -0.000104283848, 0.0006776473, -0.183834434, -0.161386   , 0.420048535 , -0.00295982929, 0.0396813452, 2.37870812  , 0.64        , 3           , 12          , 0.0353429019, 0
0.389271855 , 0.00296204118, -9.786084   , -0.0007115435, 0.000759509858, 0.000268312258, -0.183901846, -0.161116362, 0.420250773 , -0.00296683819, 0.0396889523, 2.378711    , 0.65        , 3           , 50          , 0           , 0
0.372367382 , -0.004998289, -9.775398   , -0.000427930441, 0.000620639767, 0.00111702469, -0.183834434, -0.161453411, 0.420250773 , -0.00297067524, 0.0396951959, 2.37872243  , 0.66        , 3           , 11          , 0.0113500021, 0.011350017
0.383106053 , 0.0103183808, -9.805083   , -0.00395441 , -0.000247931719, 0.0005341864, -0.183834434, -0.161453411, 0.420250773 , -0.00301000359, 0.03969272  , 2.37872767  , 0.67        , 3           , 12          , 0.0353429019, 0
0.386410266 , 0.0211027544, -9.80320549 , -0.003103437, -0.00108689943, -0.000310777134, -0.183901846, -0.161183774, 0.420048535 , -0.00304115936, 0.03968184  , 2.37872434  , 0.68        , 3           , 50          , 0           , 0
0.388100028 , 0.0183050334, -9.78241348 , -0.00211166567, -0.0016433422, 0.000540576642, -0.184036672, -0.161183774, 0.4203182   , -0.00306205824, 0.0396654233, 2.37873     , 0.69        , 3           , 11          , 0.0113500021, 0.011350017
0.392754585 , 0.03085236  , -9.772834   , -0.00256937533, -0.00126603735, 0.000401543017, -0.184238911, -0.161048949, 0.420183361 , -0.00285604061, 0.0395656265, 2.37874341  , 0.7         , 3           , 12          , 0.0356460251, 0
0.381052732 , 0.0381893329, -9.767017   , 0.0005301867, 0.000162796918, 0.000135661408, -0.184238911, -0.161048949, 0.420183361 , -0.002850686, 0.03956726  , 2.37874436  , 0.71        , 3           , 50          , 0           , 0
0.390931845 , 0.0277397558, -9.780093   , 0.00293409219, -0.000384096173, 0.0009935999, -0.183969259, -0.160981536, 0.419981122 , -0.0028209493, 0.0395634435, 2.37875485  , 0.72        , 3           , 11          , 0.0101306774, 0.0101306541
0.393415332 , 0.03726446  , -9.803085   , 0.00293593854, -0.0008064451, 0.000569143 , -0.184104085, -0.161048949, 0.4203182   , -0.00279136328, 0.0395553932, 2.37876058  , 0.73        , 3           , 12          , 0.0356460251, 0
0.386795163 , 0.0526591465, -9.79584    , 0.00194318092, 3.15649922E-05, 0.000424566737, -0.183969259, -0.161520824, 0.420250773 , -0.00277176336, 0.03955572  , 2.37876439  , 0.74        , 3           , 50          , 0           , 0
0.378743082 , 0.0292518474, -9.784699   , -0.0004554004, -0.000266231742, 0.00154308882, -0.183901846, -0.161116362, 0.420183361 , -0.00277570728, 0.0395531   , 2.37877965  , 0.75        , 3           , 11          , 0.0101306774, 0.0101306541
0.348925    , 0.0327804   , -9.790788   , 0.00110504311, -0.00180433749, 0.0005590641, -0.183901846, -0.161116362, 0.420183361 , -0.002764433, 0.03953507  , 2.37878537  , 0.76        , 3           , 12          , 0.0356460251, 0
0.370371729 , 0.0175631717, -9.76854    , 0.00322222128, -0.00164923177, 4.083063E-06, -0.184036672, -0.161048949, 0.420183361 , -0.00273220753, 0.0395185836, 2.37878537  , 0.77        , 3           , 50          , 0           , 0
0.392556816 , 0.0128380638, -9.782402   , 0.000389959518, -0.000119725148, -0.000571774552, -0.184036672, -0.161318585, 0.4203856   , -0.00272853137, 0.03951737  , 2.37878013  , 0.78        , 3           , 11          , 0.0101306774, 0.0101306541
0.4036578   , 0.0294151772, -9.785864   , 0.000518671237, 0.00227452978, -0.00169757754, -0.183767021, -0.161386   , 0.420250773 , -0.00272402051, 0.0395400636, 2.378763    , 0.79        , 3           , 12          , 0.0356460251, 0
0.390018374 , 0.0246195477, -9.788248   , 0.00051362376, 0.00322726043, -0.00155490567, -0.183767021, -0.161386   , 0.420250773 , -0.00271991733, 0.0395180881, 2.37874722  , 0.8         , 3           , 50          , 0           , 0
0.375899673 , 0.0518708155, -9.791859   , -0.0006050576, 0.00110788527, -0.00057454675, -0.183901846, -0.161386   , 0.4203182   , -0.002726195, 0.0395291522, 2.3787415   , 0.81        , 3           , 11          , 0.009377904 , 0.009377905
0.389040768 , 0.05306406  , -9.789946   , -0.00144844514, 0.000398244534, 0.00012676121, -0.184238911, -0.161183774, 0.4203856   , -0.00274062925, 0.03953314  , 2.37874246  , 0.82        , 3           , 12          , 0.0359998   , 0
0.3802005   , 0.0346723944, -9.791445   , -0.00187146978, 0.000254596584, -1.6699767E-05, -0.184575975, -0.161183774, 0.420183361 , -0.00275935163, 0.0395356826, 2.37874246  , 0.83        , 3           , 50          , 0           , 0
0.394908845 , 0.0160073377, -9.793671   , -0.00172377587, -0.00115227606, -0.000865823356, -0.184575975, -0.161183774, 0.420183361 , -0.00277693127, 0.039524138 , 2.37873387  , 0.84        , 3           , 11          , 0.009377904 , 0.009377905
0.3951843   , -0.00199564733, -9.808207   , -0.00171906 , -0.00213775458, -0.00114987954, -0.184036672, -0.161453411, 0.4203856   , -0.00279457588, 0.03950273  , 2.37872243  , 0.85        , 3           , 12          , 0.0359998   , 0
0.389655918 , 0.0206809118, -9.82307    , -0.00186195655, -0.0017163601, -0.000443543628, -0.184441149, -0.161048949, 0.420250773 , -0.00281336787, 0.03948555  , 2.37871766  , 0.86        , 3           , 50          , 0           , 0
0.3905538   , 0.0304837245, -9.789575   , -0.00412981631, -4.22498051E-05, -0.000592744153, -0.183969259, -0.161386   , 0.420250773 , -0.002854901, 0.0394851156, 2.378712    , 0.87        , 3           , 11          , 0.009377904 , 0.009377905
0.3824987   , 0.0355662666, -9.796848   , -0.003279422, -0.0005996483, -2.458628E-05, -0.183969259, -0.161386   , 0.420250773 , -0.00288770418, 0.0394791141, 2.378712    , 0.88        , 3           , 12          , 0.0359998   , 0
0.3758721   , 0.0121974479, -9.801968   , -0.00172119553, -0.0015746213, -1.886192E-05, -0.183969259, -0.161386   , 0.4203856   , -0.00290492084, 0.0394633636, 2.378712    , 0.89        , 3           , 50          , 0           , 0
0.365406573 , 0.0158487931, -9.778078   , -0.00195445423, -0.00272174086, -0.0007265786, -0.184104085, -0.161048949, 0.420587838 , -0.00286308955, 0.0394096263, 2.37870669  , 0.9         , 3           , 11          , 0.00891328  , 0.008913279
0.387438327 , 0.010553089 , -9.756236   , -5.129498E-05, -0.00193454186, 0.000343019463, -0.184104085, -0.161251172, 0.420453    , -0.002863464, 0.03939029  , 2.37871     , 0.91        , 3           , 12          , 0.03640234  , 0
0.374845445 , 0.0347996838, -9.81047    , -0.0004689255, -0.00327484356, -0.000720532669, -0.184104085, -0.161251172, 0.420453    , -0.00286843185, 0.0393575169, 2.37870336  , 0.92        , 3           , 50          , 0           , 0
0.3810706   , 0.0346330442, -9.782851   , -0.000400739664, -0.00271123415, -8.36263353E-05, -0.184104085, -0.161183774, 0.420048535 , -0.00287246751, 0.0393303931, 2.3787024   , 0.93        , 3           , 11          , 0.00891328  , 0.008913279
0.380042523 , 0.06035856  , -9.780945   , -0.000477293041, -0.00144466734, 0.00048307213, -0.1841715  , -0.161048949, 0.4203856   , -0.00287704775, 0.03931596  , 2.37870717  , 0.94        , 3           , 12          , 0.03640234  , 0
0.364669532 , 0.024476653 , -9.791606   , -0.0018287159, 0.000306036382, -0.00156886782, -0.183901846, -0.161318585, 0.4203182   , -0.002895952, 0.03931897  , 2.378692    , 0.95        , 3           , 50          , 0           , 0
0.375112146 , 0.0225921161, -9.80419    , 0.00133983267, 0.0020873053, -0.00162197452, -0.183901846, -0.161318585, 0.4203182   , -0.002883193, 0.0393397957, 2.37867522  , 0.96        , 3           , 11          , 0.00891328  , 0.008913279
0.396287769 , -0.008913414, -9.768001   , 0.00318919821, -0.0006455395, -0.0016176455, -0.184104085, -0.161183774, 0.420048535 , -0.0028519372, 0.03933329  , 2.378659    , 0.97        , 3           , 12          , 0.03640234  , 0
0.392372251 , 0.000190707855, -9.777936   , 0.000234064442, -0.002566154, -9.811811E-06, -0.184104085, -0.161251172, 0.4203182   , -0.00284959842, 0.0393076353, 2.378659    , 0.98        , 3           , 50          , 0           , 0
0.40026933  , 0.00294029247, -9.817639   , 0.00066047057, -0.0030560263, 0.00055647915, -0.184238911, -0.161386   , 0.420587838 , -0.00284277229, 0.0392770879, 2.37866473  , 0.99        , 3           , 11          , 0.00891328  , 0.008913279
0.363845855 , 0.0267853681, -9.804258   , 3.447574E-05, -0.00185328233, 0.000560919754, -0.183969259, -0.161386   , 0.420115948 , -0.00264546787, 0.0392728373, 2.378678    , 1           , 3           , 12          , 0.0368516371, 0
0.377662122 , 0.046453882 , -9.797291   , 0.000450864 , -0.000583379355, -0.001130377, -0.183969259, -0.161386   , 0.420115948 , -0.002641404, 0.0392669737, 2.378667    , 1.01        , 3           , 50          , 0           , 0
0.393376261 , 0.03991089  , -9.784996   , 0.00199510646, 0.0013980841, 1.00535772E-05, -0.184104085, -0.161183774, 0.4203182   , -0.00262145116, 0.0392809547, 2.378667    , 1.02        , 3           , 11          , 0.008636372 , 0.008636375
0.3696612   , 0.0293369927, -9.77844    , 0.00241652969, 0.00196408178, 0.00100177806, -0.184036672, -0.161183774, 0.420250773 , -0.002596893, 0.0393006355, 2.37867665  , 1.03        , 3           , 12          , 0.0368516371, 0
0.3776366   , 0.0121383891, -9.790654   , 0.00263236882, 0.00112081831, 0.0007189264, -0.184036672, -0.161588237, 0.4203856   , -0.00257028779, 0.0393118523, 2.37868428  , 1.04        , 3           , 50          , 0           , 0
0.380370557 , 0.0152448993, -9.784744   , 0.0005899014, -1.92912576E-05, -6.93350157E-05, -0.184036672, -0.161588237, 0.4203856   , -0.0025644158, 0.0393116623, 2.37868333  , 1.05        , 3           , 11          , 0.008636372 , 0.008636375
0.3795568   , 0.0184544139, -9.796942   , -0.0009630978, -0.00010018739, -7.668677E-05, -0.183969259, -0.161318585, 0.420183361 , -0.00257407641, 0.0393106528, 2.37868237  , 1.06        , 3           , 12          , 0.0368516371, 0
0.36724776  , 0.0136201493, -9.792536   , 0.001089539 , -0.00107181713, 0.000213879641, -0.1841715  , -0.161386   , 0.4203856   , -0.00256309262, 0.0392999351, 2.37868428  , 1.07        , 3           , 50          , 0           , 0
0.404205829 , 0.0321651474, -9.800311   , 0.000175092355, -0.00164115138, 0.00133888179, -0.1836322  , -0.161520824, 0.420250773 , -0.00256081531, 0.03928356  , 2.37869763  , 1.08        , 3           , 11          , 0.008636372 , 0.008636375
0.404765934 , 0.04117379  , -9.797558   , 0.000449407 , -0.000231421611, -0.0006353939, -0.1836322  , -0.161520824, 0.420250773 , -0.00255657057, 0.03928123  , 2.378692    , 1.09        , 3           , 12          , 0.0368516371, 0
0.384282261 , 0.0386471227, -9.780098   , -0.000116403011, -0.0007827961, 0.000914890959, -0.184104085, -0.161183774, 0.4203856   , -0.00256284047, 0.0392917246, 2.37870049  , 1.1         , 3           , 50          , 0           , 0
0.3728271   , 0.0243870169, -9.793352   , -0.00167308736, -0.0003005664, -0.0006455489, -0.184306324, -0.161048949, 0.420587838 , -0.00257982477, 0.0392887   , 2.37869382  , 1.11        , 3           , 11          , 0.008482418 , 0.008482429
0.3880475   , 0.0102281552, -9.795554   , -0.0006141722, -0.000223011972, -0.000357964484, -0.183969259, -0.161386   , 0.420453    , -0.0025861077, 0.03928646  , 2.37869     , 1.12        , 3           , 12          , 0.0373456143, 0
0.388246775 , 0.02511917  , -9.796395   , 0.000293745834, 0.002035722 , 0.00169818383, -0.183969259, -0.161386   , 0.420453    , -0.00258250535, 0.03930686  , 2.37870717  , 1.13        , 3           , 50          , 0           , 0
0.366364956 , 0.0492830947, -9.794203   , 0.00149609172, 0.00155109819, 0.0009966777, -0.1841715  , -0.161183774, 0.4203182   , -0.00256715342, 0.0393224023, 2.37871718  , 1.14        , 3           , 11          , 0.008482418 , 0.008482429
0.385718942 , 0.0386946648, -9.79907    , -0.00132411718, 0.000687302731, 0.0007703033, -0.184104085, -0.161048949, 0.420453    , -0.00258009159, 0.03932929  , 2.37872481  , 1.15        , 3           , 12          , 0.0373456143, 0
0.38751483  , 0.02794859  , -9.829836   , -0.00132958579, 0.00160238473, -0.00085287675, -0.184306324, -0.161318585, 0.420250773 , -0.00259372336, 0.0393452942, 2.37871671  , 1.16        , 3           , 50          , 0           , 0
0.376496047 , 0.0243822858, -9.804625   , 0.00157244108, 0.000284530339, 7.68073951E-05, -0.184306324, -0.161318585, 0.420250773 , -0.00257797027, 0.03934814  , 2.37871718  , 1.17        , 3           , 11          , 0.008482418 , 0.008482429
0.3784657   , 0.0120657738, -9.772118   , 0.00220236625, 0.00141508831, 0.0001521405, -0.184238911, -0.161588237, 0.420183361 , -0.002555888, 0.0393622927, 2.37871861  , 1.18        , 3           , 12          , 0.0373456143, 0
0.3820239   , 0.00349068176, -9.783877   , 0.001077597 , 0.0004923638, 0.0008518062, -0.184306324, -0.161183774, 0.420453    , -0.00254477467, 0.0393672362, 2.3787272   , 1.19        , 3           , 50          , 0           , 0
0.381499    , 0.0216637775, -9.818608   , -0.00114626379, 0.000135063179, -0.000358732272, -0.183901846, -0.161386   , 0.420587838 , -0.00251666969, 0.03929981  , 2.37872529  , 1.2         , 3           , 11          , 0.008402536 , 0.008402545
0.366719633 , 0.0451811329, -9.78337    , -0.0007124355, -0.00190341822, -0.0002186343, -0.183901846, -0.161386   , 0.420587838 , -0.00252388 , 0.0392807722, 2.378723    , 1.21        , 3           , 12          , 0.0378821343, 0
0.389505237 , 0.02368325  , -9.776505   , -0.00100207713, -0.0004975041, -0.0006415876, -0.184036672, -0.161116362, 0.420115948 , -0.00253415434, 0.039275784 , 2.37871671  , 1.22        , 3           , 50          , 0           , 0
0.380187243 , 0.02930545  , -9.80548    , -0.00227217819, -0.0006468808, -0.000435827649, -0.183969259, -0.160981536, 0.4203856   , -0.00255704741, 0.03926931  , 2.378712    , 1.23        , 3           , 11          , 0.008402536 , 0.008402545
0.386071563 , 0.0368227661, -9.780544   , -0.0005109517, 0.000350538729, 0.00119851227, -0.183969259, -0.161251172, 0.420453    , -0.0025616847, 0.03927284  , 2.37872434  , 1.24        , 3           , 12          , 0.0378821343, 0
0.39202106  , 0.0417148173, -9.780026   , -0.0023284778, -0.003463007, 0.000195213084, -0.184036672, -0.161318585, 0.4203182   , -0.002584891, 0.03923821  , 2.37872624  , 1.25        , 3           , 50          , 0           , 0
0.382712454 , 0.04734458  , -9.811261   , -0.003406542, 0.0004013511, 0.0005494129, -0.184036672, -0.161318585, 0.4203182   , -0.00261873985, 0.0392422453, 2.378732    , 1.26        , 3           , 11          , 0.008402536 , 0.008402545
0.3945541   , 0.0201093   , -9.804503   , -0.00220259838, -0.000364836742, 0.00020064463, -0.184104085, -0.161251172, 0.420453    , -0.002640687, 0.0392386   , 2.37873387  , 1.27        , 3           , 12          , 0.0378821343, 0
0.398794621 , 0.001969277 , -9.792342   , -0.00115622219, 0.00196523173, -0.001909868, -0.184036672, -0.161183774, 0.420250773 , -0.00265299832, 0.0392582   , 2.3787148   , 1.28        , 3           , 50          , 0           , 0
0.388581783 , 0.01966225  , -9.785116   , -0.000945881358, 0.002389015 , -0.000848713738, -0.183969259, -0.161723062, 0.4203182   , -0.00266279466, 0.0392820649, 2.37870622  , 1.29        , 3           , 11          , 0.008402536 , 0.008402545
0.369196415 , 0.0230836459, -9.795646   , -0.00218660058, -0.0009607501, -8.228289E-05, -0.183969259, -0.161723062, 0.4203182   , -0.002669992, 0.03931484  , 2.37870526  , 1.3         , 3           , 12          , 0.0384590365, 0
0.394042969 , 0.0218526982, -9.784613   , -0.002611179, -0.000963619561, -0.00170884875, -0.183901846, -0.161318585, 0.4203856   , -0.002696777, 0.039305158 , 2.378688    , 1.31        , 3           , 50          , 0           , 0
0.388066351 , 0.01559964  , -9.782878   , -0.002829194, 0.000442777033, -0.000365613727, -0.184373736, -0.161251172, 0.420655251 , -0.002725213, 0.0393095724, 2.37868476  , 1.32        , 3           , 11          , 0.008364707 , 0.008364717
0.385392    , 0.0174512547, -9.787409   , -0.000137860625, -0.00108768314, 0.000704025966, -0.184104085, -0.161453411, 0.4203856   , -0.002726315, 0.0392987281, 2.378692    , 1.33        , 3           , 12          , 0.0384590365, 0
0.384592652 , 0.0300457422, -9.7729     , -0.000920781633, -3.707148E-05, -0.00106382754, -0.184104085, -0.161453411, 0.4203856   , -0.00273594051, 0.0392983221, 2.37868142  , 1.34        , 3           , 50          , 0           , 0
0.375081956 , 0.022121314 , -9.798317   , -0.0004258191, -0.000104118568, -0.000425922161, -0.184104085, -0.161386   , 0.420250773 , -0.00274036685, 0.03929727  , 2.37867665  , 1.35        , 3           , 11          , 0.008364707 , 0.008364717
0.380560279 , 0.0247719884, -9.800524   , -0.00134333922, -0.000110324254, 0.000205507153, -0.1841715  , -0.161183774, 0.420453    , -0.002753721, 0.0392961726, 2.378679    , 1.36        , 3           , 12          , 0.0384590365, 0
0.375754148 , 0.008977403 , -9.78345    , 0.00140522083, 0.000823381648, -0.0007691235, -0.184036672, -0.161116362, 0.420520425 , -0.00273997057, 0.03930438  , 2.378671    , 1.37        , 3           , 50          , 0           , 0
0.388896137 , 0.008832326 , -9.786062   , 0.0007703759, 0.0006783013, -0.000913572148, -0.184036672, -0.161116362, 0.420520425 , -0.002732626, 0.03931114  , 2.37866235  , 1.38        , 3           , 11          , 0.008364707 , 0.008364717
0.4047877   , 0.0153772607, -9.775066   , -0.00105544 , -0.00116428186, 0.0006290032, -0.184104085, -0.161251172, 0.420453    , -0.002742931, 0.0392995141, 2.37866855  , 1.39        , 3           , 12          , 0.0384590365, 0
0.377608836 , 0.009884145 , -9.791117   , -0.000719042553, -0.00148526451, 6.92995454E-05, -0.184036672, -0.161116362, 0.420520425 , -0.00261006178, 0.0393182226, 2.37867475  , 1.4         , 3           , 50          , 0           , 0
0.388222039 , 0.0219747219, -9.800476   , -0.0007214411, -0.0009925254, 0.000140693155, -0.184104085, -0.161116362, 0.4203856   , -0.00261722133, 0.0393083021, 2.37867618  , 1.41        , 3           , 11          , 0.008345979 , 0.008345988
0.4090358   , 0.0199331529, -9.802586   , 0.00258643739, 0.00107126089, -0.0007589335, -0.184104085, -0.161116362, 0.4203856   , -0.00259165443, 0.039319    , 2.37866855  , 1.42        , 3           , 12          , 0.0390741527, 0
0.3975711   , 0.0154849859, -9.781901   , 0.0005410969, 0.0006350668, -0.000486594683, -0.1841715  , -0.161183774, 0.420520425 , -0.00258643366, 0.0393253341, 2.3786633   , 1.43        , 3           , 50          , 0           , 0
0.388448656 , 0.03599518  , -9.810811   , 0.000961808139, 0.00113066845, -0.0013314723, -0.184306324, -0.161318585, 0.420250773 , -0.002577341, 0.0393366   , 2.37865043  , 1.44        , 3           , 11          , 0.008345979 , 0.008345988
0.388421446 , 0.03954391  , -9.792719   , 0.00186825427, 0.00353018125, -0.000617160171, -0.183969259, -0.161183774, 0.420587838 , -0.002558903, 0.03937188  , 2.37864423  , 1.45        , 3           , 12          , 0.0390741527, 0
0.388003051 , 0.0106384866, -9.78335    , -0.00179507479, 0.00188635313, -0.000283603556, -0.183969259, -0.161183774, 0.420587838 , -0.00257696724, 0.03939074  , 2.37864137  , 1.46        , 3           , 50          , 0           , 0
0.393142879 , 0.0191896837, -9.794575   , -9.90163753E-05, 0.00154585543, -0.0007000506, -0.184238911, -0.16165565 , 0.420250773 , -0.00257823616, 0.03940618  , 2.37863374  , 1.47        , 3           , 11          , 0.008345979 , 0.008345988
0.376616955 , 0.0392098   , -9.786482   , 0.0006809385, 0.000847194053, -0.00105068577, -0.184306324, -0.161318585, 0.4203182   , -0.00257184077, 0.0394146219, 2.37862325  , 1.48        , 3           , 12          , 0.0390741527, 0
0.396878362 , 0.0286122579, -9.791795   , -0.0006542529, -0.0004993138, -0.001553443, -0.183901846, -0.161116362, 0.420587838 , -0.00257899612, 0.0394095927, 2.378608    , 1.49        , 3           , 50          , 0           , 0
0.3897961   , 0.03641678  , -9.806732   , -0.000430230284, -0.00143327622, -0.00042343745, -0.184036672, -0.161386   , 0.4203856   , -0.00257574324, 0.03945318  , 2.37860417  , 1.5         , 3           , 11          , 0.008329895 , 0.00832991
0.4008967   , 0.0249476489, -9.789519   , -0.000213738735, -0.00227653678, 0.000423860824, -0.184036672, -0.161386   , 0.4203856   , -0.00257771113, 0.03943043  , 2.37860847  , 1.51        , 3           , 12          , 0.03972534  , 0
0.3944614   , 0.0182487611, -9.787788   , -0.00213270658, 0.000244656345, 0.000348242582, -0.183901846, -0.161183774, 0.4203856   , -0.00259890058, 0.03943288  , 2.3786118   , 1.52        , 3           , 50          , 0           , 0
0.3831203   , 0.01702517  , -9.786976   , -0.000232187085, 0.00138380763, -0.00013557286, -0.183969259, -0.161251172, 0.420453    , -0.00260127545, 0.0394467078, 2.37861085  , 1.53        , 3           , 11          , 0.008329895 , 0.00832991
0.4113617   , 0.0306691974, -9.783089   , -8.74046054E-06, -0.00107845687, -0.00112726318, -0.183834434, -0.161318585, 0.420183361 , -0.00260180817, 0.039435897 , 2.37859941  , 1.54        , 3           , 12          , 0.03972534  , 0
0.391696066 , 0.0507507063, -9.782252   , 0.00147838658, -0.001913124, -0.0007684792, -0.183834434, -0.161318585, 0.420183361 , -0.0025873268, 0.0394167528, 2.37859178  , 1.55        , 3           , 50          , 0           , 0
0.366646469 , 0.0419973731, -9.7757     , -0.000711099769, -0.00171675044, -0.000142650912, -0.1841715  , -0.161183774, 0.4203182   , -0.00259449333, 0.03939958  , 2.37858987  , 1.56        , 3           , 11          , 0.008329895 , 0.00832991
0.396885633 , 0.030849874 , -9.786362   , 0.0015402399, -0.000152864857, -0.0008360724, -0.184036672, -0.161453411, 0.420587838 , -0.00257942034, 0.03939803  , 2.37858224  , 1.57        , 3           , 12          , 0.03972534  , 0
0.405795217 , 0.0145565448, -9.802632   , 6.762048E-05, -0.00199306034, 0.0009906868, -0.1841715  , -0.161318585, 0.4203182   , -0.00257835 , 0.0393781252, 2.37859178  , 1.58        , 3           , 50          , 0           , 0
0.4082802   , 0.03881201  , -9.778559   , -0.000572207267, -0.00108227029, 0.00127167127, -0.1841715  , -0.161318585, 0.4203182   , -0.00258356938, 0.03936733  , 2.37860465  , 1.59        , 3           , 11          , 0.008329895 , 0.00832991
0.402358145 , 0.0281396583, -9.804411   , -0.00142157241, 3.56927776E-05, 6.650053E-05, -0.183834434, -0.161251172, 0.4203182   , -0.00267762132, 0.0395312868, 2.37860227  , 1.6         , 3           , 12          , 0.0404105   , 0
0.399944752 , 0.0151009895, -9.809907   , 0.0008393994, -0.000230591773, 0.0003591395, -0.183969259, -0.161251172, 0.420520425 , -0.002669086, 0.03952899  , 2.3786056   , 1.61        , 3           , 50          , 0           , 0
0.365187824 , 0.029880615 , -9.790224   , -0.00126845075, -0.002286262, 0.0007699227, -0.184104085, -0.161520824, 0.420453    , -0.00268146116, 0.0395061374, 2.37861371  , 1.62        , 3           , 11          , 0.008308074 , 0.008308087
0.356659174 , 0.037183404 , -9.785288   , -0.0020421918, -0.00292503671, 0.000412152818, -0.184104085, -0.161520824, 0.420453    , -0.0027017172, 0.0394768976, 2.37861753  , 1.63        , 3           , 12          , 0.0404105   , 0
0.3795396   , 0.0229039341, -9.778391   , -0.0005057763, 0.0004642479, 7.143129E-05, -0.1841715  , -0.161251172, 0.4203182   , -0.002706746, 0.039481543 , 2.37861848  , 1.64        , 3           , 50          , 0           , 0
0.385481745 , 0.022880191 , -9.791906   , -0.0014843269, -0.0015837847, -0.000218861285, -0.184036672, -0.161116362, 0.420115948 , -0.00272167521, 0.0394657031, 2.37861657  , 1.65        , 3           , 11          , 0.008308074 , 0.008308087
0.37053293  , 0.0212646071, -9.796095   , 0.0005569539, -0.000302894769, -0.000277995161, -0.183969259, -0.161453411, 0.4203856   , -0.00271621649, 0.03946267  , 2.37861371  , 1.66        , 3           , 12          , 0.0404105   , 0
0.413926572 , 0.0193555   , -9.782212   , 0.0005576695, -0.000373284274, 0.000357605546, -0.183969259, -0.161453411, 0.4203856   , -0.002710498, 0.03945894  , 2.378617    , 1.67        , 3           , 50          , 0           , 0
0.374216437 , 0.0284132846, -9.787901   , 0.00154417648, -1.46441953E-05, -6.10488642E-05, -0.184104085, -0.161318585, 0.4203182   , -0.002695082, 0.0394587964, 2.37861657  , 1.68        , 3           , 11          , 0.008308074 , 0.008308087
0.3773495   , 0.0194195788, -9.807802   , 0.00197243225, -0.00106765109, -0.00112021621, -0.184373736, -0.161251172, 0.420655251 , -0.00267579686, 0.03944809  , 2.37860513  , 1.69        , 3           , 12          , 0.0404105   , 0
0.3971777   , 0.0150920656, -9.797726   , 0.0005069332, -0.000683572667, -0.000136926188, -0.184238911, -0.161183774, 0.420520425 , -0.00264773471, 0.0394066237, 2.37860513  , 1.7         , 3           , 50          , 0           , 0
0.382872939 , 0.0225531571, -9.819499   , 0.00191626057, -0.000181285621, -0.00076529145, -0.184238911, -0.161183774, 0.420520425 , -0.00262887357, 0.0394047834, 2.3785975   , 1.71        , 3           , 11          , 0.008275977 , 0.008275983
0.400654852 , 0.0353899263, -9.807557   , -0.0004018336, -0.00244955951, 0.00056242547, -0.184036672, -0.161183774, 0.420250773 , -0.00263266731, 0.0393803045, 2.37860322  , 1.72        , 3           , 12          , 0.0411275774, 0
0.368374    , 0.0271788277, -9.802866   , -0.00117926381, -0.00238442281, -0.000147431259, -0.1841715  , -0.161318585, 0.420520425 , -0.002644514, 0.0393564552, 2.37860131  , 1.73        , 3           , 50          , 0           , 0
0.3743724   , 0.032556802 , -9.812742   , 0.0007973089, -0.00208948343, 0.00155744608, -0.1841715  , -0.161318585, 0.4203182   , -0.00263592578, 0.0393356048, 2.37861753  , 1.74        , 3           , 11          , 0.008275977 , 0.008275983
0.392790884 , 0.0295427516, -9.785947   , -0.00111837417, -0.000412989582, -7.34301E-05, -0.183969259, -0.161453411, 0.420250773 , -0.002647135, 0.03933147  , 2.37861657  , 1.75        , 3           , 12          , 0.0411275774, 0
0.3946939   , 0.0403083   , -9.7736845  , -0.00260189339, -0.000282234949, -0.000221395952, -0.183969259, -0.161453411, 0.420250773 , -0.00267324015, 0.0393286422, 2.37861466  , 1.76        , 3           , 50          , 0           , 0
0.394152939 , 0.0268516522, -9.79544    , 0.000137883631, 0.00276321732, 0.00170323718, -0.184238911, -0.161183774, 0.4203856   , -0.00267119356, 0.0393563174, 2.37863135  , 1.77        , 3           , 11          , 0.008275977 , 0.008275983
0.395118773 , 0.0251044445, -9.815778   , 0.00199576188, -0.001870196, 0.000150681139, -0.184104085, -0.161048949, 0.4203856   , -0.00265117432, 0.0393376164, 2.37863278  , 1.78        , 3           , 12          , 0.0411275774, 0
0.4051154   , 0.0401920862, -9.77541351 , 0.00142539514, -0.0008181484, -0.000344766042, -0.1841715  , -0.161386   , 0.420250773 , -0.0026370557, 0.0393294245, 2.37863     , 1.79        , 3           , 50          , 0           , 0
0.383761585 , 0.035026595 , -9.775145   , -0.00146227668, 0.000858538 , -0.00155818346, -0.1841715  , -0.161386   , 0.420250773 , -0.00272187847, 0.0394355   , 2.37861085  , 1.8         , 3           , 11          , 0.008232287 , 0.008232291
0.3746334   , 0.0279326327, -9.780668   , 0.0008654648, 0.00150782079, -6.30207651E-05, -0.184036672, -0.161251172, 0.4203182   , -0.00271325116, 0.0394505747, 2.37861037  , 1.81        , 3           , 12          , 0.0418745838, 0
0.3953991   , 0.0213886276, -9.785508   , 0.00129971956, -0.000460265728, 0.00141923886, -0.1841715  , -0.161318585, 0.420587838 , -0.00269969436, 0.03944601  , 2.37862468  , 1.82        , 3           , 50          , 0           , 0
0.382870585 , 0.0270147789, -9.804564   , 3.26359223E-05, -0.00138395024, 0.000211118211, -0.184036672, -0.161251172, 0.420587838 , -0.00269928272, 0.03943218  , 2.378627    , 1.83        , 3           , 11          , 0.008232287 , 0.008232291
0.3732555   , 0.0190056823, -9.80467    , -0.00032605158, -0.000400863762, -0.00113106216, -0.184036672, -0.161251172, 0.420587838 , -0.00270298659, 0.0394281447, 2.37861562  , 1.84        , 3           , 12          , 0.0418745838, 0
0.370100349 , 0.0208399389, -9.802427   , 0.00157602178, 0.000597509032, -0.000131773137, -0.184104085, -0.161318585, 0.4203856   , -0.002687278, 0.0394341052, 2.37861419  , 1.85        , 3           , 50          , 0           , 0
0.389138937 , 0.06742682  , -9.767738   , 0.002199737 , 0.00292471726, -0.000549036136, -0.184306324, -0.161386   , 0.4203856   , -0.00266549923, 0.0394633375, 2.378609    , 1.86        , 3           , 11          , 0.008232287 , 0.008232291
0.378873646 , 0.0369456075, -9.791898   , -0.00013239785, 0.00340170087, 5.933339E-06, -0.183969259, -0.161251172, 0.420520425 , -0.00266682426, 0.0394973569, 2.37860847  , 1.87        , 3           , 12          , 0.0418745838, 0
0.374263585 , 0.0591755025, -9.811277   , 0.0005899857, 0.000168478218, 0.000498676032, -0.183969259, -0.161251172, 0.420520425 , -0.00266072969, 0.0394990556, 2.37861371  , 1.88        , 3           , 50          , 0           , 0
0.382383764 , 0.0314560123, -9.781952   , -0.00101824524, -0.00301011116, 0.0005568563, -0.183969259, -0.161116362, 0.420453    , -0.00267068739, 0.03946897  , 2.37861943  , 1.89        , 3           , 11          , 0.008232287 , 0.008232291
0.381050676 , 0.0328314565, -9.783763   , -0.00102060311, 0.000452759617, -7.78816E-05, -0.184238911, -0.161183774, 0.4203182   , -0.00284702657, 0.0393974632, 2.3786118   , 1.9         , 3           , 12          , 0.04264961  , 0
0.396215677 , 0.0271084048, -9.745252   , 0.00116787478, 0.0006083462, 0.0005682508, -0.183901846, -0.161318585, 0.420722663 , -0.002835125, 0.03940356  , 2.37861753  , 1.91        , 3           , 50          , 0           , 0
0.36165756  , 0.00329082878, -9.78765    , 0.000941525039, 0.00335216871, -0.00105309649, -0.183901846, -0.161318585, 0.420722663 , -0.00282613 , 0.03943705  , 2.378607    , 1.92        , 3           , 11          , 0.008176377 , 0.008176376
0.380114615 , 0.0243367348, -9.803693   , 0.00321667758, 0.0004110204, 0.0008600105, -0.184104085, -0.161116362, 0.4203182   , -0.002793624, 0.0394411869, 2.37861562  , 1.93        , 3           , 12          , 0.04264961  , 0
0.4036952   , 0.0321236   , -9.786304   , 0.00174283853, -0.00156996655, -0.0006332626, -0.184373736, -0.161183774, 0.420655251 , -0.00277644442, 0.03942547  , 2.378609    , 1.94        , 3           , 50          , 0           , 0
0.3901315   , 0.0389943942, -9.769657   , -0.00116865674, 0.001578059 , -0.00226646964, -0.184238911, -0.161116362, 0.4203856   , -0.002789027, 0.03944119  , 2.378586    , 1.95        , 3           , 11          , 0.008176377 , 0.008176376
0.3739949   , 0.0161823146, -9.773039   , -0.002091549, 0.00269811461, -0.00128013291, -0.184238911, -0.161116362, 0.4203856   , -0.0028104505, 0.0394681357, 2.37857366  , 1.96        , 3           , 12          , 0.04264961  , 0
0.3907659   , 0.0151075236, -9.780147   , -0.0013127845, 0.00228101923, -0.00127716223, -0.184036672, -0.161386   , 0.420250773 , -0.00282408716, 0.0394909121, 2.3785603   , 1.97        , 3           , 50          , 0           , 0
0.3677856   , 0.0252888259, -9.77576    , -0.00166133163, 0.0015043309, -0.00014985197, -0.184306324, -0.161183774, 0.4203856   , -0.00284076016, 0.0395059474, 2.37855935  , 1.98        , 3           , 11          , 0.008176377 , 0.008176376
0.382575423 , 0.008475246 , -9.791987   , -0.000165677833, -0.00101972546, 0.0004888659, -0.184036672, -0.161183774, 0.420722663 , -0.0028422235, 0.0394957662, 2.37856412  , 1.99        , 3           , 12          , 0.04264961  , 0
0.396805167 , 0.0151623944, -9.81716251 , -0.000180532341, -0.00205873349, 0.0009833074, -0.183969259, -0.161453411, 0.420520425 , -0.0027742032, 0.0394025221, 2.37857652  , 2           , 3           , 50          , 0           , 0
0.38857916  , 0.05886479  , -9.769133   , -0.00102762738, -0.0021348556, 0.000696710544, -0.183969259, -0.161453411, 0.420520425 , -0.00278420374, 0.03938119  , 2.37858415  , 2.01        , 3           , 11          , 0.00811079  , 0.008110779
0.38908416  , 0.023714263 , -9.784191   , 0.001086188 , -0.00127583672, 0.000354717457, -0.1841715  , -0.161318585, 0.420520425 , -0.002773201, 0.03936845  , 2.37858748  , 2.02        , 3           , 12          , 0.04345083  , 0
0.345265746 , 0.02565137  , -9.804857   , 0.0018528183, 0.0007003699, -0.000133063877, -0.184104085, -0.161318585, 0.420520425 , -0.00275472575, 0.0393754467, 2.378586    , 2.03        , 3           , 50          , 0           , 0
0.373949617 , 0.03794267  , -9.802779   , -5.378554E-05, 0.0006170836, -0.00113094284, -0.184238911, -0.161318585, 0.420520425 , -0.00275571016, 0.03938158  , 2.37857461  , 2.04        , 3           , 11          , 0.00811079  , 0.008110779
0.392602682 , 0.01689237  , -9.780577   , -0.00173104729, -0.00277315429, -0.0001551706, -0.184238911, -0.161318585, 0.420520425 , -0.00277308049, 0.0393538475, 2.37857366  , 2.05        , 3           , 12          , 0.04345083  , 0
0.3928973   , 0.02962893  , -9.811708   , 0.002766994 , 0.001480882 , 8.43124144E-05, -0.184036672, -0.161318585, 0.420453    , -0.00274537876, 0.03936866  , 2.37857413  , 2.06        , 3           , 50          , 0           , 0
0.379573047 , 0.0202529766, -9.795125   , 0.000163688586, -0.000366957654, 0.000210578946, -0.184238911, -0.161116362, 0.420520425 , -0.00274365861, 0.0393649936, 2.37857652  , 2.07        , 3           , 11          , 0.00811079  , 0.008110779
0.377667457 , 0.04868998  , -9.791407   , 2.35799926E-05, -0.0005086934, 0.000916047255, -0.184036672, -0.161251172, 0.420453    , -0.0027430607, 0.03935993  , 2.378585    , 2.08        , 3           , 12          , 0.04345083  , 0
0.3899042   , 0.049002137 , -9.792667   , 0.00171467476, 0.000277072017, 0.00156085158, -0.184036672, -0.161251172, 0.420453    , -0.00272529968, 0.0393627547, 2.37860131  , 2.09        , 3           , 50          , 0           , 0
0.371074259 , 0.0351678729, -9.772982   , 0.00121609261, 0.00165044609, -0.0016908315, -0.1841715  , -0.161386   , 0.420183361 , -0.0028081222, 0.0393341966, 2.37858033  , 2.1         , 3           , 11          , 0.008035215 , 0.008035212
0.37714684  , 0.0125600854, -9.780261   , 9.59986937E-05, -0.000257757143, -0.00134585612, -0.184104085, -0.161116362, 0.4203856   , -0.00280769146, 0.0393315852, 2.378567    , 2.11        , 3           , 12          , 0.04427649  , 0
0.371594638 , 0.0307538547, -9.803731   , 0.0006581423, 0.000449979329, -8.448069E-08, -0.184036672, -0.161386   , 0.420520425 , -0.002801112, 0.03933608  , 2.378567    , 2.12        , 3           , 50          , 0           , 0
0.39451164  , 0.0231993273, -9.784152   , 0.000727151055, 0.000732021 , -0.000352493051, -0.184036672, -0.161386   , 0.420520425 , -0.00279397727, 0.0393433981, 2.37856317  , 2.13        , 3           , 11          , 0.008035215 , 0.008035212
0.3958982   , 0.0209744964, -9.798162   , -0.00019831791, 0.002133636 , -0.00141411892, -0.184036672, -0.161318585, 0.420250773 , -0.00279651885, 0.0393646955, 2.37854886  , 2.14        , 3           , 12          , 0.04427649  , 0
0.3877888   , 0.0206568185, -9.809525   , 0.00100455433, 0.001789801 , 3.62297214E-06, -0.184238911, -0.161183774, 0.420520425 , -0.00278647128, 0.03938259  , 2.37854934  , 2.15        , 3           , 50          , 0           , 0
0.377918422 , 0.0302207191, -9.801426   , -0.00273825368, 0.00176449073, -0.00114397635, -0.184104085, -0.161386   , 0.420453    , -0.00281430618, 0.0394002   , 2.37853742  , 2.16        , 3           , 11          , 0.008035215 , 0.008035212
0.3694495   , 0.005062514 , -9.804758   , 0.000383523467, -0.0010301451, 0.0008439329, -0.184104085, -0.161386   , 0.420453    , -0.00281013781, 0.0393899269, 2.378546    , 2.17        , 3           , 12          , 0.04427649  , 0
0.398430854 , 0.0114200432, -9.783719   , 0.00178245921, 0.00151348754, -0.000275726779, -0.184104085, -0.161318585, 0.420115948 , -0.00279242219, 0.03940505  , 2.37854314  , 2.18        , 3           , 50          , 0           , 0
0.410350621 , 0.0265771318, -9.770457   , 0.00093213853, 0.00235245842, 0.0016993864, -0.184036672, -0.161116362, 0.420722663 , -0.002782434, 0.03942862  , 2.3785603   , 2.19        , 3           , 11          , 0.008035215 , 0.008035212
0.384692    , 0.0359288529, -9.778298   , -0.0001463285, 0.00151858362, -0.000565524329, -0.184306324, -0.161386   , 0.420520425 , -0.00271235849, 0.0394711681, 2.37855744  , 2.2         , 3           , 12          , 0.0451249257, 0
0.385150373 , 0.03592807  , -9.779651   , -0.000419160468, -0.000454282621, -0.000852416269, -0.184306324, -0.161386   , 0.420520425 , -0.00271688588, 0.0394666   , 2.37854886  , 2.21        , 3           , 50          , 0           , 0
0.400168747 , 0.04072439  , -9.78222752 , 0.0001327321, 0.00236519286, 0.000849781558, -0.183834434, -0.161386   , 0.420250773 , -0.00271522487, 0.03949027  , 2.37855744  , 2.22        , 3           , 11          , 0.00795283448, 0.007952825
0.3833179   , 0.0296831075, -9.794607   , 0.000717428047, -0.00157289649, 0.00141141552, -0.1841715  , -0.161453411, 0.4203182   , -0.00270749116, 0.03947458  , 2.37857175  , 2.23        , 3           , 12          , 0.0451249257, 0
0.393462926 , 0.0110424813, -9.788278   , 0.000722099445, -0.00241758954, 0.00225772616, -0.1841715  , -0.161318585, 0.420453    , -0.00269937376, 0.0394504629, 2.37859416  , 2.24        , 3           , 50          , 0           , 0
0.387201041 , 0.0196600445, -9.779703   , 0.00015192182, -0.00157671969, 0.000278631545, -0.184036672, -0.161116362, 0.419981122 , -0.002697743, 0.0394347   , 2.378597    , 2.25        , 3           , 11          , 0.00795283448, 0.007952825
0.369459033 , 0.00283851288, -9.814259   , -0.00211864477, 0.000660521036, 0.000271567522, -0.184036672, -0.161116362, 0.419981122 , -0.00271882163, 0.03944132  , 2.3786      , 2.26        , 3           , 12          , 0.0451249257, 0
0.378066838 , 0.04194612  , -9.800019   , -0.00323752663, -0.00159964093, -0.000302246423, -0.184104085, -0.161183774, 0.4203856   , -0.00275131455, 0.039425306 , 2.37859654  , 2.27        , 3           , 50          , 0           , 0
0.384367049 , 0.0449647456, -9.780523   , -0.00155855145, 0.00179060525, 0.00168862462, -0.184238911, -0.161183774, 0.420520425 , -0.002766235, 0.03944326  , 2.37861371  , 2.28        , 3           , 11          , 0.00795283448, 0.007952825
0.372080326 , 0.037470445 , -9.790139   , -0.00100132031, 0.00320224767, 0.0005632782, -0.183767021, -0.161251172, 0.420453    , -0.00277603045, 0.0394752957, 2.37861943  , 2.29        , 3           , 12          , 0.0451249257, 0
0.36662823  , 0.0375191271, -9.785662   , 0.0009594111, 0.00204966636, 0.000287231524, -0.183767021, -0.161251172, 0.420453    , -0.00279975124, 0.0394346677, 2.37862039  , 2.3         , 3           , 50          , 0           , 0
0.376869977 , 0.0185104944, -9.8041935  , 0.00181177841, 0.0009291336, -0.0005581656, -0.183969259, -0.161116362, 0.4203182   , -0.00278185587, 0.0394439436, 2.37861466  , 2.31        , 3           , 11          , 0.007865375 , 0.007865371
0.391737    , 0.0205061734, -9.778761   , -0.00100461557, -0.000779358961, -0.001421551, -0.183901846, -0.161116362, 0.420453    , -0.002792463, 0.0394361131, 2.37860036  , 2.32        , 3           , 12          , 0.0459945761, 0
0.375711054 , 0.03877382  , -9.78784752 , 0.001271112 , -0.0038612904, 0.00027943583, -0.1841715  , -0.161453411, 0.4203856   , -0.0027796363, 0.0393975042, 2.3786037   , 2.33        , 3           , 50          , 0           , 0
0.393271863 , -0.000271072146, -9.777931   , 0.00323810382, -0.00215853774, -0.00253411662, -0.1841715  , -0.161453411, 0.4203856   , -0.00274825282, 0.0393758528, 2.37857842  , 2.34        , 3           , 11          , 0.007865375 , 0.007865371
0.3897191   , -0.004635744, -9.809163   , 0.00295501039, -0.00159730716, 0.00113842147, -0.184441149, -0.161048949, 0.420250773 , -0.00271824864, 0.0393598974, 2.37858987  , 2.35        , 3           , 12          , 0.0459945761, 0
0.369286537 , 0.0213712677, -9.823223   , 0.00154131884, -0.00132529309, 0.0008497331, -0.184036672, -0.161183774, 0.420520425 , -0.00270250021, 0.03934667  , 2.37859845  , 2.36        , 3           , 50          , 0           , 0
0.3940434   , 0.0249775052, -9.774656   , 0.000966054737, 0.000641839462, -0.000280012871, -0.183969259, -0.161251172, 0.4203856   , -0.00269295112, 0.0393530838, 2.37859559  , 2.37        , 3           , 11          , 0.007865375 , 0.007865371
0.4024637   , 0.0149088418, -9.761978   , -0.00155643374, -0.003317262, -0.0005804779, -0.183969259, -0.161251172, 0.4203856   , -0.0027087396, 0.0393199   , 2.37858987  , 2.38        , 3           , 12          , 0.0459945761, 0
0.3834908   , 0.0467845239, -9.781878   , -0.00383085618, -0.00023532442, -2.11653241E-05, -0.183901846, -0.161318585, 0.4203856   , -0.00274705444, 0.03931754  , 2.37858987  , 2.39        , 3           , 50          , 0           , 0
0.3649158   , 0.0398520827, -9.802388   , -0.00379723334, -0.00219766912, -2.3258588E-05, -0.184104085, -0.161386   , 0.420520425 , -0.00274678133, 0.03930935  , 2.37859082  , 2.4         , 3           , 11          , 0.00777411135, 0.007774107
0.36485076  , 0.0050582285, -9.787618   , 0.00239991816, 0.00122313341, 0.000858533545, -0.183969259, -0.161251172, 0.420520425 , -0.00272244681, 0.0393216051, 2.37859941  , 2.41        , 3           , 12          , 0.04688394  , 0
0.379560649 , 0.0211356115, -9.789247   , -0.000687097665, -0.0027397864, 0.00112050981, -0.183969259, -0.161251172, 0.420520425 , -0.00272887433, 0.0392942354, 2.37861085  , 2.42        , 3           , 50          , 0           , 0
0.3995143   , 0.0227123834, -9.790895   , 0.00297371438, -0.000744006, -0.0005545572, -0.183969259, -0.161386   , 0.420183361 , -0.00269935327, 0.03928679  , 2.37860513  , 2.43        , 3           , 11          , 0.00777411135, 0.007774107
0.371887624 , 0.0315117463, -9.762143   , 0.000994591 , -0.000194242486, 0.0005672418, -0.184104085, -0.161251172, 0.420453    , -0.00268918276, 0.03928485  , 2.37861085  , 2.44        , 3           , 12          , 0.04688394  , 0
0.3905768   , 0.0313951   , -9.792283   , 0.00297371438, -0.000744006, -0.0005545572, -0.184306324, -0.160981536, 0.4203856   , -0.00265966356, 0.0392774   , 2.37860513  , 2.45        , 3           , 50          , 0           , 0
0.407453448 , 0.04201094  , -9.787591   , -0.00125990028, -0.00133578572, -0.0005751791, -0.184306324, -0.160981536, 0.4203856   , -0.002672486, 0.039264027 , 2.37859941  , 2.46        , 3           , 11          , 0.00777411135, 0.007774107
0.3779888   , 0.0423292369, -9.779679   , -0.0001211763, -0.003017533, 0.000557634747, -0.184036672, -0.161251172, 0.4203182   , -0.0026734767, 0.03923387  , 2.37860513  , 2.47        , 3           , 12          , 0.04688394  , 0
0.38530916  , 0.006225391 , -9.803276   , -0.002103577, -0.00190464186, 0.000832689344, -0.184306324, -0.161453411, 0.4203182   , -0.00269418256, 0.0392148457, 2.37861371  , 2.48        , 3           , 50          , 0           , 0
0.402945042 , 0.0131412558, -9.774636   , -0.00127105229, 0.0009167349, -0.0005717076, -0.184036672, -0.161251172, 0.4203856   , -0.00270711957, 0.039224    , 2.378608    , 2.49        , 3           , 11          , 0.00777411135, 0.007774107
0.383036971 , 0.01785037  , -9.763923   , 0.000725275255, 0.000682204554, -0.000562128669, -0.183969259, -0.161453411, 0.420048535 , -0.00267021917, 0.03928676  , 2.3786037   , 2.5         , 3           , 12          , 0.0477916226, 0
0.3854487   , 0.0286559574, -9.765216   , -0.000971495232, 0.0009523059, -0.001982284, -0.183969259, -0.161453411, 0.420048535 , -0.00268071471, 0.03929623  , 2.37858367  , 2.51        , 3           , 50          , 0           , 0
0.395654231 , 0.0412347466, -9.784068   , -0.0018148456, 0.0003834513, -9.340263E-06, -0.184104085, -0.161116362, 0.4203856   , -0.00269886525, 0.0393000543, 2.37858367  , 2.52        , 3           , 11          , 0.00768044638, 0.007680443
0.397106022 , 0.05423868  , -9.765019   , -0.0052029  , 7.896501E-05, -0.0005906521, -0.184238911, -0.161318585, 0.420520425 , -0.00275112945, 0.0393008366, 2.37857747  , 2.53        , 3           , 12          , 0.0477916226, 0
0.369078368 , 0.052372966 , -9.783321   , -0.00210424257, 0.00178936671, -8.48755E-06, -0.183901846, -0.161386   , 0.420250773 , -0.00277217617, 0.0393187255, 2.37857747  , 2.54        , 3           , 50          , 0           , 0
0.395544618 , -0.006093074, -9.798729   , -0.000129879743, 0.00236586737, 0.00028413636, -0.183901846, -0.161386   , 0.420250773 , -0.00277336617, 0.03934239  , 2.37858033  , 2.55        , 3           , 11          , 0.00768044638, 0.007680443
0.404328436 , 0.0167163722, -9.769188   , -0.0004113132, 0.0018008186, -0.00282596075, -0.184441149, -0.161386   , 0.420453    , -0.00277859531, 0.0393603258, 2.37855172  , 2.56        , 3           , 12          , 0.0477916226, 0
0.396297    , 0.0236035138, -9.776453   , 0.001877035 , -0.00353362574, 0.00141439238, -0.184104085, -0.161251172, 0.420250773 , -0.00275926432, 0.0393250249, 2.378566    , 2.57        , 3           , 50          , 0           , 0
0.38553673  , 0.0291736275, -9.7851     , -0.000406656181, 0.00151926919, 0.00282435468, -0.183969259, -0.161318585, 0.4203182   , -0.0027622187, 0.0393402949, 2.37859464  , 2.58        , 3           , 11          , 0.00768044638, 0.007680443
0.374704659 , 0.03602463  , -9.772047   , 0.00156640145, 0.00209576357, 0.0008566791, -0.183969259, -0.161318585, 0.4203182   , -0.00274621928, 0.0393612757, 2.37860322  , 2.59        , 3           , 12          , 0.0477916226, 0
0.389388859 , 0.0476177223, -9.781831   , 0.00241196575, 0.0007164612, 0.0005756336, -0.184104085, -0.161386   , 0.4203182   , -0.00273659453, 0.0394077636, 2.378608    , 2.6         , 3           , 50          , 0           , 0
0.400216341 , 0.04210204  , -9.78945351 , 0.001557967 , 0.0018369864, -0.00140434364, -0.184036672, -0.161116362, 0.420520425 , -0.00272157183, 0.0394260958, 2.37859368  , 2.61        , 3           , 11          , 0.00758397253, 0.00758397
0.373479068 , 0.0365945324, -9.802788   , 0.003243096 , 0.003819403 , -0.000828329532, -0.184036672, -0.161251172, 0.420453    , -0.00268947263, 0.0394642726, 2.37858558  , 2.62        , 3           , 12          , 0.0487163   , 0
0.389106423 , 0.0286421534, -9.773775   , 0.002130117 , 0.000432982255, -0.0008388045, -0.184036672, -0.161251172, 0.420453    , -0.00266850647, 0.03946858  , 2.37857747  , 2.63        , 3           , 50          , 0           , 0
0.3869479   , 0.00249362085, -9.772996   , -0.00209677964, -0.00128505239, 0.00111660012, -0.184104085, -0.161318585, 0.4203182   , -0.00268902979, 0.03945576  , 2.37858844  , 2.64        , 3           , 11          , 0.00758397253, 0.00758397
0.386654556 , 0.008877041 , -9.791503   , -0.0029398778, -0.00213547726, 0.00111134746, -0.184036672, -0.161251172, 0.4203182   , -0.002717988, 0.0394344367, 2.37859941  , 2.65        , 3           , 12          , 0.0487163   , 0
0.384408683 , 0.043213062 , -9.79635048 , -0.003778379, -0.00411216728, -0.0005908656, -0.184036672, -0.161520824, 0.420453    , -0.002756   , 0.0393933021, 2.37859368  , 2.66        , 3           , 50          , 0           , 0
0.372473061 , 0.03697014  , -9.777031   , -0.0009678878, -0.00127741625, -0.000290819415, -0.184036672, -0.161520824, 0.420453    , -0.00276579219, 0.03938052  , 2.37859082  , 2.67        , 3           , 11          , 0.00758397253, 0.00758397
0.380502    , 0.0216003228, -9.79647    , -0.0009816648, 0.00153823511, -3.94281233E-06, -0.184036672, -0.161183774, 0.420183361 , -0.00277561252, 0.0393959023, 2.37859082  , 2.68        , 3           , 12          , 0.0487163   , 0
0.3812549   , 0.0392458476, -9.813113   , -0.00125236134, -0.0009977645, -0.00142185227, -0.184036672, -0.161251172, 0.4203182   , -0.00278869481, 0.039385885 , 2.37857652  , 2.69        , 3           , 50          , 0           , 0
0.3706082   , 0.0298062433, -9.78702    , -0.001554137, -0.0007345604, -0.00029337022, -0.184306324, -0.161251172, 0.420453    , -0.00283767818, 0.03934911  , 2.3785727   , 2.7         , 3           , 11          , 0.00748759834, 0.00748759648
0.385065079 , 0.0238074623, -9.797781   , 0.002961163 , 0.000140697433, 0.0008591522, -0.184306324, -0.161251172, 0.420453    , -0.00280772685, 0.0393505357, 2.37858129  , 2.71        , 3           , 12          , 0.0496567376, 0
0.365923524 , 0.0194662921, -9.782125   , -0.00267745228, -0.00186845649, 0.00111231359, -0.184036672, -0.161251172, 0.420250773 , -0.00283406163, 0.03933188  , 2.37859225  , 2.72        , 3           , 50          , 0           , 0
0.387367368 , 0.0278291479, -9.794131   , 0.000153296452, -0.00325718476, 0.0002757007, -0.1841715  , -0.161048949, 0.420453    , -0.00283241668, 0.03929932  , 2.378595    , 2.73        , 3           , 11          , 0.00748759834, 0.00748759648
0.383212    , 0.0251337942, -9.783327   , 0.00268800487, -0.00183217018, 7.18529873E-06, -0.184036672, -0.161183774, 0.420587838 , -0.00280553172, 0.0392809957, 2.37859559  , 2.74        , 3           , 12          , 0.0496567376, 0
0.393557042 , 0.0249555949, -9.766524   , 0.003234736 , 0.00183199556, 1.5460304E-05, -0.184036672, -0.161251172, 0.420183361 , -0.00277317967, 0.03929932  , 2.37859559  , 2.75        , 3           , 50          , 0           , 0
0.399918318 , 0.02222114  , -9.7804985  , 0.00154837617, 0.00013114445, -0.000277582149, -0.184036672, -0.161251172, 0.420183361 , -0.00275780656, 0.03930062  , 2.37859273  , 2.76        , 3           , 11          , 0.00748759834, 0.00748759648
0.3838898   , 0.0119944233, -9.769815   , 0.004361166 , 0.00240276335, -0.0008260163, -0.184306324, -0.161318585, 0.420453    , -0.002714523, 0.03932463  , 2.37858415  , 2.77        , 3           , 12          , 0.0496567376, 0
0.366059    , -0.00132826809, -9.771363   , -0.000151434448, 0.00124594639, 0.0002813267, -0.184238911, -0.161251172, 0.4203856   , -0.002715929, 0.03933709  , 2.378587    , 2.78        , 3           , 50          , 0           , 0
0.392128944 , 0.006168335 , -9.810003   , 0.0006985596, 0.000406974141, -0.00225886144, -0.183901846, -0.161318585, 0.4203856   , -0.00270983484, 0.0393411   , 2.37856412  , 2.79        , 3           , 11          , 0.00748759834, 0.00748759648
0.398317277 , 0.06161731  , -9.816053   , 0.00273658149, 0.000974914932, 0.0008615245, -0.183901846, -0.161318585, 0.4203856   , -0.00256703352, 0.03933502  , 2.37857747  , 2.8         , 3           , 12          , 0.05061177  , 0
0.3765571   , 0.0364832431, -9.780618   , 0.00555118  , 0.00268339878, -0.00138300215, -0.184036672, -0.161453411, 0.4203182   , -0.00251206686, 0.0393618122, 2.37856317  , 2.81        , 3           , 50          , 0           , 0
0.389551222 , 0.0228278115, -9.790519   , 0.00245801033, 0.000128308166, 0.0002938308, -0.1841715  , -0.161048949, 0.420520425 , -0.00248737028, 0.0393631049, 2.378566    , 2.82        , 3           , 11          , 0.00739078131, 0.00739077851
0.3866522   , 0.04584803  , -9.782763   , 0.00245956751, -0.000153256115, 0.0005759344, -0.183969259, -0.161048949, 0.420115948 , -0.002462547, 0.0393615849, 2.37857175  , 2.83        , 3           , 12          , 0.05061177  , 0
0.379155338 , 0.0447618328, -9.835707   , 0.000189653249, 0.002083988 , 0.00169902039, -0.183969259, -0.161048949, 0.420115948 , -0.002459983, 0.0393824726, 2.378589    , 2.84        , 3           , 50          , 0           , 0
0.386707723 , 0.0351806581, -9.830717   , -8.98967555E-05, 0.00123737636, -0.0005638981, -0.184036672, -0.161251172, 0.420520425 , -0.00246110652, 0.03939483  , 2.37858319  , 2.85        , 3           , 11          , 0.00739078131, 0.00739077851
0.376303077 , 0.0103890412, -9.80242348 , 0.000196385838, 0.000394589617, -0.001128958, -0.184238911, -0.161183774, 0.4203856   , -0.00245958962, 0.03939875  , 2.37857175  , 2.86        , 3           , 12          , 0.05061177  , 0
0.384613752 , -0.00423195027, -9.777562   , 0.0010423467, 0.0009634567, 0.001418698 , -0.184036672, -0.161048949, 0.420587838 , -0.0024486063, 0.03940841  , 2.378586    , 2.87        , 3           , 50          , 0           , 0
0.38828218  , 0.007814384 , -9.749912   , -0.00206147181, 9.77455347E-05, -0.0008573899, -0.184036672, -0.161048949, 0.420587838 , -0.00246955873, 0.03940937  , 2.37857747  , 2.88        , 3           , 11          , 0.00739078131, 0.00739077851
0.400801629 , 0.0248705484, -9.766469   , -0.000366584427, 0.000109206921, -0.000284413254, -0.184036672, -0.161116362, 0.420250773 , -0.00247333758, 0.03941045  , 2.37857461  , 2.89        , 3           , 12          , 0.05061177  , 0
0.390363455 , 0.00488754176, -9.82539    , -0.00034677767, -0.000727818464, -0.00282786763, -0.184104085, -0.161116362, 0.4203856   , -0.002445085, 0.0394178331, 2.378548    , 2.9         , 3           , 50          , 0           , 0
0.377409756 , 0.0176830068, -9.828147   , 0.00160732761, 0.00407216139, -0.00139858446, -0.184104085, -0.161386   , 0.4203182   , -0.00242956658, 0.0394585133, 2.3785336   , 2.91        , 3           , 11          , 0.00729485136, 0.00729485229
0.3606918   , 0.0326376557, -9.789343   , 0.0019050889, 0.0009768558, -0.00140204083, -0.184104085, -0.161386   , 0.4203182   , -0.00241106888, 0.0394682474, 2.3785193   , 2.92        , 3           , 12          , 0.05158032  , 0
0.3814534   , 0.0332319438, -9.770198   , 0.000208881742, 0.00152853155, 0.0005686877, -0.183901846, -0.161386   , 0.420183361 , -0.00240875618, 0.0394835435, 2.378525    , 2.93        , 3           , 50          , 0           , 0
0.390174627 , 0.036797598 , -9.78729248 , 0.00472722156, 0.00155908882, -0.000257853681, -0.184508562, -0.161588237, 0.420453    , -0.00236158469, 0.0394991264, 2.37852263  , 2.94        , 3           , 11          , 0.00729485136, 0.00729485229
0.3817209   , 0.009419928 , -9.801481   , 0.00277065439, -0.00267775962, -0.00112119375, -0.183969259, -0.160981536, 0.420587838 , -0.00233431882, 0.03947232  , 2.37851167  , 2.95        , 3           , 12          , 0.05158032  , 0
0.376869619 , 0.02565181  , -9.781113   , -0.00400759 , -0.00272359885, -0.00115280016, -0.183969259, -0.160981536, 0.420587838 , -0.00237484742, 0.0394450575, 2.37850022  , 2.96        , 3           , 50          , 0           , 0
0.3961713   , 0.039942503 , -9.803957   , -0.00345126283, -0.00103038934, -0.00143010006, -0.183834434, -0.161251172, 0.4203182   , -0.00240992242, 0.0394347161, 2.378486    , 2.97        , 3           , 11          , 0.00729485136, 0.00729485229
0.411542475 , 0.0330474153, -9.819688   , -0.00261062616, 0.000383167615, -0.000858904736, -0.184306324, -0.161251172, 0.420587838 , -0.00243636756, 0.0394385271, 2.37847686  , 2.98        , 3           , 12          , 0.05158032  , 0
0.377509236 , 0.04142015  , -9.776071   , -0.000644301064, 0.00264906045, 1.39753683E-06, -0.184036672, -0.161116362, 0.420453    , -0.00244281162, 0.0394650176, 2.37847686  , 2.99        , 3           , 50          , 0           , 0
0.373622239 , 0.0314285   , -9.743599   , 0.00160025037, -0.000995488, -0.000277543731, -0.1841715  , -0.161453411, 0.420250773 , -0.00249213143, 0.0394560657, 2.37847161  , 3           , 3           , 11          , 0.007199577 , 0.00719957938
0.366633117 , 0.03395224  , -9.798332   , -0.001227221, -0.000169887731, 0.0014058135, -0.1841715  , -0.161453411, 0.420250773 , -0.002503848, 0.0394544043, 2.378486    , 3.01        , 3           , 12          , 0.0525613539, 0
0.371983677 , 0.0226625949, -9.81415749 , -0.00349351647, 0.00094108656, -0.0008632859, -0.184104085, -0.161251172, 0.4203182   , -0.00253912341, 0.0394637845, 2.37847733  , 3.02        , 3           , 50          , 0           , 0
0.3884589   , 0.009742963 , -9.786965   , 0.002156577 , 0.0006977216, -0.000554843748, -0.183901846, -0.161251172, 0.4203182   , -0.00251777587, 0.039470762 , 2.37847161  , 3.03        , 3           , 11          , 0.007199577 , 0.00719957938
0.3643771   , 0.004600295 , -9.784008   , 0.000453814981, 0.002375653 , -0.000277604267, -0.184036672, -0.161318585, 0.420115948 , -0.002513349, 0.039494507 , 2.37846875  , 3.04        , 3           , 12          , 0.0525613539, 0
0.384808123 , 0.0391473845, -9.796364   , -0.002634343, -0.00158727216, -0.00199339073, -0.184036672, -0.161318585, 0.420115948 , -0.00254047825, 0.0394785777, 2.37844872  , 3.05        , 3           , 50          , 0           , 0
0.398122728 , 0.04806917  , -9.812044   , -0.00234036357, -0.00355630927, 0.001112801 , -0.184036672, -0.161116362, 0.420250773 , -0.00256344 , 0.03944305  , 2.37846017  , 3.06        , 3           , 11          , 0.007199577 , 0.00719957938
0.380025178 , 0.0193544161, -9.797838   , -0.000942985062, -0.000731112668, -0.0002889622, -0.1841715  , -0.161183774, 0.420520425 , -0.00257298187, 0.0394357257, 2.37845731  , 3.07        , 3           , 12          , 0.0525613539, 0
0.372480124 , 0.0338513851, -9.788795   , 0.00216199  , -0.000428539555, -0.000839117041, -0.1841715  , -0.161386   , 0.420250773 , -0.00255169347, 0.0394314155, 2.37844872  , 3.08        , 3           , 50          , 0           , 0
0.38277927  , 0.0296188779, -9.773819   , 0.000183029682, 0.000121224788, 0.000565219554, -0.1841715  , -0.161386   , 0.420250773 , -0.00254964014, 0.0394326448, 2.37845445  , 3.09        , 3           , 11          , 0.007199577 , 0.00719957938
0.3706406   , -0.00178419531, -9.785794   , 0.000160895026, 9.056137E-05, -0.001130928, -0.184104085, -0.161453411, 0.420183361 , -0.00259191426, 0.0393706523, 2.378441    , 3.1         , 3           , 12          , 0.0535539277, 0
0.3870079   , 0.0279100612, -9.816732   , -0.000673676259, -0.00244925334, -0.000856246741, -0.184104085, -0.161048949, 0.420520425 , -0.0025989844, 0.0393461362, 2.37843251  , 3.11        , 3           , 50          , 0           , 0
0.400468439 , 0.022741057 , -9.80264    , -0.00010661289, -0.00272699469, 0.000558640459, -0.184104085, -0.161251172, 0.420587838 , -0.00259983051, 0.0393188857, 2.37843823  , 3.12        , 3           , 11          , 0.00710637355, 0.007106373
0.36551398  , 0.019953    , -9.791166   , 0.000446347258, -0.0001890859, 0.00169532967, -0.184104085, -0.161251172, 0.420587838 , -0.00259469962, 0.0393170379, 2.3784554   , 3.13        , 3           , 12          , 0.0535539277, 0
0.379156232 , 0.0336779132, -9.760723   , 0.002414645 , 0.00151367276, 0.00114207692, -0.184238911, -0.161251172, 0.420183361 , -0.00257010432, 0.0393322   , 2.37846684  , 3.14        , 3           , 50          , 0           , 0
0.387560844 , 0.0449471921, -9.786374   , 0.000170074782, -0.001598825, 0.000279155618, -0.183901846, -0.161251172, 0.420655251 , -0.00256829383, 0.0393162221, 2.37846971  , 3.15        , 3           , 11          , 0.00710637355, 0.007106373
0.382748067 , 0.0527296625, -9.80265    , -0.00181093183, -0.000767499034, 0.0005537764, -0.183969259, -0.161251172, 0.420655251 , -0.00258618384, 0.0393085666, 2.378475    , 3.16        , 3           , 12          , 0.0535539277, 0
0.3707411   , 0.03303838  , -9.809152   , 0.0010119424, -0.00046683423, 0.0005673797, -0.183969259, -0.161251172, 0.420655251 , -0.002575841, 0.03930391  , 2.37848115  , 3.17        , 3           , 50          , 0           , 0
0.377272278 , 0.0157861728, -9.800586   , 0.00353426742, 0.00349226734, 0.000585307134, -0.1841715  , -0.161251172, 0.420453    , -0.00254027033, 0.0393388458, 2.37848687  , 3.18        , 3           , 11          , 0.00710637355, 0.007106373
0.404773951 , 0.01447344  , -9.774617   , 0.00185355823, 0.000946727348, 0.00283379969, -0.183969259, -0.161453411, 0.420453    , -0.00252062059, 0.0393483825, 2.37851453  , 3.19        , 3           , 12          , 0.0535539277, 0
0.404464364 , 0.026646236 , -9.770502   , -0.00126948312, 0.0009153958, -0.0008542968, -0.184104085, -0.161251172, 0.420453    , -0.00256381952, 0.039335683 , 2.378505    , 3.2         , 3           , 50          , 0           , 0
0.393510818 , 0.0453761071, -9.800339   , 0.001586432 , -0.005259931, 0.0008445507, -0.184104085, -0.161251172, 0.420453    , -0.0025476173, 0.0392831   , 2.37851357  , 3.21        , 3           , 11          , 0.007014306 , 0.007014304
0.382837683 , 0.0278807972, -9.793714   , 0.00466385251, 0.0006739447, 0.0008681496, -0.184036672, -0.161251172, 0.420183361 , -0.00250064023, 0.0392898656, 2.37852216  , 3.22        , 3           , 12          , 0.0545571372, 0
0.406980723 , 0.03262674  , -9.812944   , 0.00211734045, 0.00150144787, 9.986514E-06, -0.184104085, -0.161453411, 0.420587838 , -0.00247946358, 0.03930488  , 2.37852216  , 3.23        , 3           , 50          , 0           , 0
0.3727074   , 0.04117715  , -9.820855   , -0.000124441751, -0.00217418023, -0.000853802252, -0.184373736, -0.161318585, 0.420655251 , -0.00248104124, 0.0392831154, 2.37851357  , 3.24        , 3           , 11          , 0.007014306 , 0.007014304
0.3619435   , 0.024500981 , -9.789368   , 0.0004243364, 0.00120842364, 0.000284188485, -0.184104085, -0.161318585, 0.420453    , -0.00247668638, 0.0392952   , 2.37851644  , 3.25        , 3           , 12          , 0.0545571372, 0
0.392653883 , 0.0155948568, -9.797304   , 0.001270386 , 0.00149571954, 0.000571110751, -0.184104085, -0.161318585, 0.420453    , -0.00246376148, 0.0393101759, 2.37852216  , 3.26        , 3           , 50          , 0           , 0
0.375081182 , 0.02613783  , -9.78519249 , 0.00211659912, 0.00178301625, 0.0011405705, -0.184104085, -0.161386   , 0.420722663 , -0.002442147, 0.03932803  , 2.3785336   , 3.27        , 3           , 11          , 0.007014306 , 0.007014304
0.383668154 , 0.0322728157, -9.761146   , 0.0009963233, -0.000195580884, 0.0005671902, -0.184238911, -0.161453411, 0.420722663 , -0.00243195915, 0.03932609  , 2.37853932  , 3.28        , 3           , 12          , 0.0545571372, 0
0.384263456 , 0.0332756341, -9.792776   , -0.000133873487, -0.0002032231, -0.0002856898, -0.184104085, -0.161453411, 0.420183361 , -0.00243341224, 0.0393240526, 2.37853646  , 3.29        , 3           , 50          , 0           , 0
0.387227118 , 0.0446026549, -9.816662   , 0.00067571667, 0.00148327649, -0.0005628691, -0.184104085, -0.161453411, 0.420183361 , -0.00249069254, 0.0393200368, 2.37852836  , 3.3         , 3           , 11          , 0.00692506833, 0.006925065
0.37368086  , 0.0523802824, -9.801366   , -0.00411610771, -0.0005201502, -0.00115336955, -0.1841715  , -0.161116362, 0.420520425 , -0.002532307, 0.0393148027, 2.37851644  , 3.31        , 3           , 12          , 0.0555701479, 0
0.387657851 , 0.04502581  , -9.809877   , -0.00327161513, 4.8709946E-05, -0.00114855089, -0.184306324, -0.161116362, 0.420520425 , -0.002565475, 0.0393152535, 2.378505    , 3.32        , 3           , 50          , 0           , 0
0.386641681 , 0.0391442552, -9.801774   , -0.00101080642, -0.0002175753, -0.00113844941, -0.183901846, -0.161386   , 0.420183361 , -0.00257603033, 0.0393130481, 2.37849355  , 3.33        , 3           , 11          , 0.00692506833, 0.006925065
0.403477669 , 0.0203422587, -9.77098751 , 0.00123852387, 0.0017686584, -0.00168995128, -0.183901846, -0.161386   , 0.420183361 , -0.00256431149, 0.0393306874, 2.37847686  , 3.34        , 3           , 12          , 0.0555701479, 0
0.4076927   , 0.0279957429, -9.780416   , 0.004349964 , 0.00122654717, 0.00171411689, -0.184104085, -0.161116362, 0.4203856   , -0.00252013956, 0.0393429957, 2.378494    , 3.35        , 3           , 50          , 0           , 0
0.378819555 , 0.0293138325, -9.80323    , 0.0009551037, 0.00232988712, 0.00141751184, -0.184104085, -0.161116362, 0.420587838 , -0.00251003355, 0.03936633  , 2.37850785  , 3.36        , 3           , 11          , 0.00692506833, 0.006925065
0.367320657 , 0.0163572989, -9.801563   , -0.00184382044, -0.00303895446, -0.0005816645, -0.184036672, -0.161116362, 0.420453    , -0.00252869679, 0.03933593  , 2.37850213  , 3.37        , 3           , 12          , 0.0555701479, 0
0.3924958   , 0.0386028439, -9.79540348 , 0.000404768216, -0.00077115267, -2.58279033E-06, -0.184036672, -0.161116362, 0.420453    , -0.00252465 , 0.0393282175, 2.37850213  , 3.38        , 3           , 50          , 0           , 0
0.4128047   , 0.006693071 , -9.770068   , -0.001294716, 0.000343651045, 0.00112140132, -0.184104085, -0.160914123, 0.420453    , -0.00253715576, 0.03933168  , 2.37851357  , 3.39        , 3           , 11          , 0.00692506833, 0.006925065
0.401694834 , 0.02842075  , -9.751984   , 0.00292509  , 0.000960887061, 0.000576498336, -0.184306324, -0.161251172, 0.420655251 , -0.00253809616, 0.03939864  , 2.37851834  , 3.4         , 3           , 12          , 0.0565921851, 0
0.386031926 , 0.0336662158, -9.781009   , 0.0029247636, 0.000960885547, 1.14232826E-05, -0.1841715  , -0.161453411, 0.420520425 , -0.00250884285, 0.0394082479, 2.37851834  , 3.41        , 3           , 50          , 0           , 0
0.399011582 , 0.0155355623, -9.801776   , 0.00151787873, -0.000174926128, -0.000561971858, -0.1841715  , -0.161453411, 0.420520425 , -0.00249388348, 0.0394064859, 2.37851262  , 3.42        , 3           , 11          , 0.006836912 , 0.00683690561
0.385505438 , 0.024684798 , -9.791898   , 0.000946055341, 0.00122907921, -0.000562436064, -0.1841715  , -0.161520824, 0.420587838 , -0.00248464616, 0.0394187532, 2.378507    , 3.43        , 3           , 12          , 0.0565921851, 0
0.392311364 , 0.02863367  , -9.782338   , 0.00151697418, 0.000106641237, 0.0002860743, -0.184238911, -0.161318585, 0.420587838 , -0.002469364, 0.03941983  , 2.37850976  , 3.44        , 3           , 50          , 0           , 0
0.387345    , 0.0278110132, -9.788708   , 0.0009458032, 0.00151064969, 0.00141576014, -0.184104085, -0.161318585, 0.420520425 , -0.00245935 , 0.03943497  , 2.378524    , 3.45        , 3           , 11          , 0.006836912 , 0.00683690561
0.362427831 , 0.0294311177, -9.781207   , 0.0006814983, -0.00215160614, 0.00140880211, -0.184104085, -0.161318585, 0.420520425 , -0.00245197746, 0.03941349  , 2.37853837  , 3.46        , 3           , 12          , 0.0565921851, 0
0.386463344 , 0.0349826068, -9.77151    , -0.0001772604, 9.5183E-05  , 0.0008432477, -0.183969259, -0.161453411, 0.420453    , -0.002453417, 0.03941447  , 2.378547    , 3.47        , 3           , 50          , 0           , 0
0.391909152 , 0.03403617  , -9.777347   , -0.000460918061, 0.000374838884, 0.00112490216, -0.184238911, -0.161386   , 0.420587838 , -0.00245758262, 0.0394182429, 2.378558    , 3.48        , 3           , 11          , 0.006836912 , 0.00683690561
0.374333978 , 0.03609646  , -9.791936   , 0.00122520456, 0.00179411692, -0.00140786369, -0.184104085, -0.161251172, 0.4208575   , -0.00244588754, 0.0394361466, 2.378544    , 3.49        , 3           , 12          , 0.0565921851, 0
0.380090475 , 0.026995264 , -9.789218   , -0.00105117785, -0.000759189, -1.08364038E-05, -0.183901846, -0.161453411, 0.4203856   , -0.002526906, 0.0394193828, 2.37854075  , 3.5         , 3           , 50          , 0           , 0
0.380537152 , 0.03144855  , -9.773376   , -0.00133409421, -0.0007611014, -0.000859765569, -0.183901846, -0.161453411, 0.4203856   , -0.00254058535, 0.03941175  , 2.37853217  , 3.51        , 3           , 11          , 0.00675108936, 0.006751083
0.401921451 , 0.03485328  , -9.786758   , 0.0003621871, -0.001031205, -0.0002872229, -0.184104085, -0.161318585, 0.420790076 , -0.00253707543, 0.0394014344, 2.37852931  , 3.52        , 3           , 12          , 0.0576225333, 0
0.395031929 , 0.0312829837, -9.774623   , -0.000775394845, 0.000650547969, 0.0005577252, -0.184104085, -0.161318585, 0.420790076 , -0.00254460913, 0.03940795  , 2.37853456  , 3.53        , 3           , 50          , 0           , 0
0.366998971 , 0.0298593529, -9.790211   , 0.000637154444, 0.000378528057, -0.00113134878, -0.184036672, -0.161588237, 0.420655251 , -0.00253868336, 0.03941171  , 2.378523    , 3.54        , 3           , 11          , 0.00675108936, 0.006751083
0.3907065   , 0.0404272   , -9.794957   , -0.0005006649, 0.00177870807, -0.003112209, -0.184036672, -0.161588237, 0.420655251 , -0.0025449188, 0.03942941  , 2.37849259  , 3.55        , 3           , 12          , 0.0576225333, 0
0.392010361 , 0.0372426137, -9.791797   , -0.0007770263, 0.000650540169, -0.0022676494, -0.184306324, -0.161318585, 0.420453    , -0.00255358219, 0.039435856 , 2.37846971  , 3.56        , 3           , 50          , 0           , 0
0.390996128 , 0.0264528263, -9.799984   , -0.00190854247, 0.001206035 , -0.0005768244, -0.184238911, -0.161116362, 0.420520425 , -0.00257289666, 0.0394479   , 2.378464    , 3.57        , 3           , 11          , 0.00675108936, 0.006751083
0.411383361 , 0.0271159224, -9.799826   , 5.5810262E-05, 0.00403506169, 0.00169703306, -0.184036672, -0.161588237, 0.420520425 , -0.002571673, 0.0394882932, 2.37848067  , 3.58        , 3           , 12          , 0.0576225333, 0
0.3790726   , 0.0513900071, -9.794096   , -0.00104404462, -0.00216701347, 0.000269531418, -0.184036672, -0.161588237, 0.420520425 , -0.00258200429, 0.03946663  , 2.378483    , 3.59        , 3           , 50          , 0           , 0
0.375490069 , 0.0247578956, -9.778868   , -0.000255491352, 0.00151060685, 0.000277493469, -0.183969259, -0.161251172, 0.4203856   , -0.002681637, 0.0395093   , 2.378482    , 3.6         , 3           , 11          , 0.006667731 , 0.00666772341
0.4127646   , 0.0329211   , -9.786684   , -0.0002510574, 0.00038434114, -0.00170200446, -0.184104085, -0.161251172, 0.420655251 , -0.00268482021, 0.0395131   , 2.378465    , 3.61        , 3           , 12          , 0.05866049  , 0
0.3930377   , 0.0155336084, -9.780579   , -0.00364772766, 0.00205081585, -0.0003025166, -0.184036672, -0.161318585, 0.420520425 , -0.00272141723, 0.0395336039, 2.378462    , 3.62        , 3           , 50          , 0           , 0
0.394139022 , 0.0308575816, -9.779151   , -0.0008208344, 0.00150678458, -0.0005727526, -0.184036672, -0.161318585, 0.420520425 , -0.00272985222, 0.03954865  , 2.37845635  , 3.63        , 3           , 11          , 0.006667731 , 0.00666772341
0.389027    , 0.0245606266, -9.767465   , 0.00172289065, 0.00124241156, 0.000286278053, -0.184306324, -0.161251172, 0.420520425 , -0.002712511, 0.03956108  , 2.37845922  , 3.64        , 3           , 12          , 0.05866049  , 0
0.383825719 , 0.00346185965, -9.781604   , -0.00109678064, 9.70469555E-05, -0.0014238517, -0.184104085, -0.161453411, 0.420722663 , -0.00272404333, 0.0395620167, 2.378445    , 3.65        , 3           , 50          , 0           , 0
0.3565072   , 0.0232234169, -9.793031   , 0.000585071044, 0.002642592 , -0.00169458217, -0.184104085, -0.161520824, 0.420655251 , -0.002718865, 0.0395883881, 2.37842774  , 3.66        , 3           , 11          , 0.006667731 , 0.00666772341
0.389469028 , 0.0200831071, -9.779231   , -0.003643797, 0.00148769119, 0.00167437783, -0.184104085, -0.161520824, 0.420655251 , -0.00275464077, 0.0396033153, 2.37844443  , 3.67        , 3           , 12          , 0.05866049  , 0
0.4026841   , 0.0204436071, -9.798113   , 0.000876514649, 0.0009551143, -0.000565718859, -0.184238911, -0.161318585, 0.420587838 , -0.00274610054, 0.03961285  , 2.37843871  , 3.68        , 3           , 50          , 0           , 0
0.3832488   , 0.0193610564, -9.810921   , -0.000255491352, 0.00151060685, 0.000277493469, -0.184036672, -0.161386   , 0.420587838 , -0.00274854549, 0.03962797  , 2.37844157  , 3.69        , 3           , 11          , 0.006667731 , 0.00666772341
0.377374947 , 0.0261354446, -9.792406   , 0.00203169486, -0.0007293881, 2.64676055E-06, -0.184238911, -0.16165565 , 0.420790076 , -0.0026869073, 0.0396139175, 2.378443    , 3.7         , 3           , 12          , 0.0597054139, 0
0.374544442 , 0.02607511  , -9.764857   , 0.000604967761, 0.00207670964, -0.0011297483, -0.184238911, -0.16165565 , 0.420790076 , -0.00268130959, 0.03963465  , 2.37843156  , 3.71        , 3           , 50          , 0           , 0
0.3756428   , 0.03470137  , -9.784248   , 0.003162959 , -0.00100331253, 0.00029001807, -0.183969259, -0.161251172, 0.420453    , -0.00264956453, 0.039624624 , 2.37843442  , 3.72        , 3           , 11          , 0.006586373 , 0.006586364
0.3688835   , 0.0383782126, -9.780668   , 0.00372994761, -0.00156262564, -0.0008383656, -0.184104085, -0.161453411, 0.420520425 , -0.00261259568, 0.0396089777, 2.37842584  , 3.73        , 3           , 12          , 0.0597054139, 0
0.3655107   , 0.0230747685, -9.780307   , 0.000607014459, 0.00179514778, -3.250898E-08, -0.1841715  , -0.161453411, 0.420655251 , -0.00260652625, 0.0396269262, 2.37842584  , 3.74        , 3           , 50          , 0           , 0
0.3659292   , 0.0221490115, -9.774883   , -0.0007978977, 9.62020058E-05, -0.001986983, -0.184104085, -0.161318585, 0.420587838 , -0.00261529232, 0.0396278352, 2.37840629  , 3.75        , 3           , 11          , 0.006586373 , 0.006586364
0.3809108   , 0.0527297631, -9.796337   , -0.000797660265, 0.0003777749, 0.0008388256, -0.184104085, -0.161318585, 0.420587838 , -0.00262293662, 0.039631635 , 2.37841439  , 3.76        , 3           , 12          , 0.0597054139, 0
0.393118858 , 0.0521260165, -9.793533   , 0.00202834327, -0.000447832368, -0.00338736875, -0.184575975, -0.161386   , 0.420587838 , -0.00260399515, 0.03962707  , 2.378381    , 3.77        , 3           , 50          , 0           , 0
0.3750981   , 0.0212416947, -9.80509949 , -0.00021698304, -0.00271561882, 0.00168429851, -0.184238911, -0.161116362, 0.420722663 , -0.00260549481, 0.0395999551, 2.3783977   , 3.78        , 3           , 11          , 0.006586373 , 0.006586364
0.369393945 , 0.008141963 , -9.781243   , -0.00107442215, -0.00103196676, -0.00142496068, -0.184036672, -0.16165565 , 0.420587838 , -0.00261680479, 0.0395896062, 2.3783834   , 3.79        , 3           , 12          , 0.0597054139, 0
0.3999935   , 0.0204966627, -9.80446    , -0.0005341911, 0.00202764664, -0.000570477, -0.184036672, -0.16165565 , 0.420587838 , -0.00264711119, 0.0395051464, 2.37837625  , 3.8         , 3           , 50          , 0           , 0
0.373542041 , 0.0411090665, -9.803673   , -0.00025562 , 0.00287425355, -2.78349034E-06, -0.184238911, -0.161520824, 0.420453    , -0.00264966977, 0.0395338871, 2.37837625  , 3.81        , 3           , 11          , 0.006506951 , 0.00650694454
0.378194034 , 0.0251620337, -9.774324   , 1.63962832E-05, 0.0048471163, -0.00112857879, -0.184306324, -0.161318585, 0.420587838 , -0.00264995918, 0.03958233  , 2.3783648   , 3.82        , 3           , 12          , 0.06075672  , 0
0.393603563 , 0.0223152172, -9.786422   , 0.00230343919, -0.000487335376, 0.000851474237, -0.183901846, -0.161386   , 0.420655251 , -0.00262658647, 0.03957748  , 2.37837338  , 3.83        , 3           , 50          , 0           , 0
0.393056452 , 0.0458265319, -9.79853249 , -0.00107362634, -0.003044343, -1.584689E-05, -0.183901846, -0.161386   , 0.420655251 , -0.002637326, 0.0395470336, 2.37837338  , 3.84        , 3           , 11          , 0.006506951 , 0.00650694454
0.369923741 , 0.0389230475, -9.811845   , 0.00231073564, -0.00189515913, 0.00141437957, -0.183901846, -0.161453411, 0.420655251 , -0.00261365832, 0.0395281278, 2.37838769  , 3.85        , 3           , 12          , 0.06075672  , 0
0.3956189   , 0.03629627  , -9.791321   , -0.00107969181, -0.001918085, -0.0008617233, -0.184575975, -0.161251172, 0.420722663 , -0.00262479251, 0.03950892  , 2.378379    , 3.86        , 3           , 50          , 0           , 0
0.3913495   , 0.0281523373, -9.77014351 , 0.00146387  , -0.00218245876, -0.000285229937, -0.184643388, -0.161183774, 0.420453    , -0.00261026365, 0.03948708  , 2.37837625  , 3.87        , 3           , 11          , 0.006506951 , 0.00650694454
0.389420927 , 0.005314553 , -9.815001   , 0.00174104725, -0.00105428719, 0.000282897468, -0.184643388, -0.161183774, 0.420453    , -0.00259273988, 0.0394765474, 2.378379    , 3.88        , 3           , 12          , 0.06075672  , 0
0.372297674 , 0.01897398  , -9.792024   , 4.541839E-05, -0.000784180243, 0.0008405047, -0.183834434, -0.161318585, 0.420520425 , -0.00259195338, 0.03946873  , 2.37838769  , 3.89        , 3           , 50          , 0           , 0
0.367372423 , 0.0284506939, -9.775298   , 0.00117014535, -0.0005074099, 0.0002809326, -0.1841715  , -0.161048949, 0.420655251 , -0.00258862181, 0.039431382 , 2.3783896   , 3.9         , 3           , 11          , 0.00642980076, 0.006429793
0.391464829 , 0.0353873819, -9.7750845  , -0.0010809052, -0.00221208017, 0.00026779357, -0.184238911, -0.161116362, 0.420790076 , -0.00259932154, 0.0394092575, 2.37839246  , 3.91        , 3           , 12          , 0.0618138425, 0
0.3775041   , 0.0369524844, -9.789197   , 0.0005945546, 0.001459721 , -0.0014138883, -0.184238911, -0.161116362, 0.420790076 , -0.002593935, 0.0394238159, 2.37837815  , 3.92        , 3           , 50          , 0           , 0
0.377535641 , 0.0316218249, -9.814077   , 0.000318845967, 0.000331556163, 0.00056082115, -0.184036672, -0.161520824, 0.420655251 , -0.00259052566, 0.03942715  , 2.37838387  , 3.93        , 3           , 11          , 0.00642980076, 0.006429793
0.393727183 , 0.0282179769, -9.797696   , -0.000538029359, 0.00229678256, 0.0008424454, -0.183901846, -0.161453411, 0.420722663 , -0.00259557646, 0.0394501425, 2.37839246  , 3.94        , 3           , 12          , 0.0618138425, 0
0.401177138 , 0.0212318357, -9.759251   , -0.00109263556, 0.000322009437, 0.00168438663, -0.1841715  , -0.161048949, 0.4208575   , -0.00260583824, 0.0394534022, 2.37840915  , 3.95        , 3           , 50          , 0           , 0
0.391504467 , 0.030956002 , -9.799058   , -0.005323699, -0.00111447345, -0.001162912, -0.1841715  , -0.161048949, 0.4208575   , -0.00265953247, 0.0394422263, 2.37839723  , 3.96        , 3           , 11          , 0.00642980076, 0.006429793
0.39700374  , 0.0367481075, -9.79628    , -0.00250714272, 0.00059402  , -1.69892737E-05, -0.184441149, -0.161318585, 0.420587838 , -0.00268461183, 0.0394481681, 2.37839723  , 3.97        , 3           , 12          , 0.0618138425, 0
0.3790863   , 0.0171062723, -9.796951   , 0.00143026793, 0.00399954151, 0.0002891925, -0.184104085, -0.161386   , 0.420722663 , -0.0026702  , 0.039488174 , 2.3784      , 3.98        , 3           , 50          , 0           , 0
0.39373982  , 0.03269169  , -9.786379   , -0.00390689354, -0.00194961613, -0.0003100166, -0.184104085, -0.161183774, 0.420790076 , -0.00270939013, 0.03946867  , 2.37839723  , 3.99        , 3           , 11          , 0.00642980076, 0.006429793
0.386972129 , 0.0350226462, -9.785064   , 0.00198246143, 0.00485311542, -0.00111985125, -0.1841715  , -0.161251172, 0.420655251 , -0.00271048257, 0.03953066  , 2.37838483  , 4           , 3           , 12          , 0.06287627  , 0
0.3903128   , 0.014666222 , -9.78150749 , 0.00171232841, 0.00259869  , 0.0008531226, -0.1841715  , -0.161251172, 0.420655251 , -0.00269302423, 0.03955667  , 2.37839341  , 4.01        , 3           , 50          , 0           , 0
0.3685041   , 0.00414817  , -9.797989   , -0.0005407687, 0.00117558171, -0.00028973227, -0.184373736, -0.161116362, 0.420520425 , -0.00269854558, 0.039568428 , 2.37839055  , 4.02        , 3           , 11          , 0.00635456154, 0.00635455269
0.381876945 , 0.0162416268, -9.817724   , 0.000316269754, -0.000789643964, -0.000288819021, -0.184238911, -0.161183774, 0.420520425 , -0.00269549713, 0.03956052  , 2.37838769  , 4.03        , 3           , 12          , 0.06287627  , 0
0.394529432 , 0.0169648472, -9.808584   , -0.000535519, 4.93199041E-05, -0.00085654296, -0.184238911, -0.161386   , 0.420655251 , -0.0027011896, 0.03956099  , 2.378379    , 4.04        , 3           , 50          , 0           , 0
0.381568462 , 0.00751099735, -9.770304   , 0.0008838228, -0.001067383, 0.00197368045, -0.184238911, -0.161386   , 0.420655251 , -0.00269156951, 0.0395503677, 2.37839913  , 4.05        , 3           , 11          , 0.00635456154, 0.00635455269
0.359364927 , 0.0424988   , -9.765357   , -0.000805815, -0.002205106, 0.0008338933, -0.184306324, -0.161318585, 0.420520425 , -0.002699294, 0.0395283364, 2.37840772  , 4.06        , 3           , 12          , 0.06287627  , 0
0.403079033 , 0.02039142  , -9.784099   , 0.00229112222, -0.000213140767, 0.000851417135, -0.184104085, -0.160914123, 0.420655251 , -0.00267604482, 0.03952623  , 2.3784163   , 4.07        , 3           , 50          , 0           , 0
0.3793251   , -3.372412E-05, -9.799731   , 4.26964834E-05, -0.002480942, 0.000554872735, -0.184036672, -0.161183774, 0.420520425 , -0.00267539616, 0.0395014323, 2.37842155  , 4.08        , 3           , 11          , 0.00635456154, 0.00635455269
0.357895434 , 0.0232316554, -9.80025    , 0.000313644879, -0.000226512871, -5.41389454E-06, -0.184036672, -0.161183774, 0.420520425 , -0.00267226156, 0.03949917  , 2.37842155  , 4.09        , 3           , 12          , 0.06287627  , 0
0.388482928 , 0.0471817367, -9.783195   , 6.205239E-05, -0.00194246334, 0.000274035177, -0.183901846, -0.161453411, 0.420655251 , -0.00261037145, 0.0394122936, 2.37842679  , 4.1         , 3           , 50          , 0           , 0
0.378382444 , 0.032902658 , -9.795534   , -0.000784813, -0.00222976319, -0.00142557418, -0.1841715  , -0.161386   , 0.420520425 , -0.002618778, 0.0393899567, 2.37841249  , 4.11        , 3           , 11          , 0.00628235145, 0.00628234353
0.381875247 , 0.0291844085, -9.775636   , -0.00304824649, -0.001400347, -0.00115227047, -0.184104085, -0.161116362, 0.420520425 , -0.00264971121, 0.03937592  , 2.378401    , 4.12        , 3           , 12          , 0.0639435053, 0
0.408138484 , 0.0235212427, -9.793086   , 0.000902199768, -0.0005289089, -2.38185748E-06, -0.184104085, -0.161116362, 0.420520425 , -0.00264069135, 0.03937063  , 2.378401    , 4.13        , 3           , 50          , 0           , 0
0.383147418 , 0.010798255 , -9.813668   , -0.00193150027, 0.00142294844, 0.000552561367, -0.184845626, -0.161453411, 0.420453    , -0.002659788, 0.0393848829, 2.37840676  , 4.14        , 3           , 11          , 0.00628235145, 0.00628234353
0.3705023   , 0.0176690053, -9.800178   , -0.000794986147, 2.27621931E-05, 0.0002731219, -0.1841715  , -0.161251172, 0.420587838 , -0.00266763079, 0.0393851176, 2.37840962  , 4.15        , 3           , 12          , 0.0639435053, 0
0.391067445 , 0.037223    , -9.782764   , -0.001372549, 0.00255302712, -8.144067E-06, -0.1841715  , -0.161318585, 0.420587838 , -0.00268136268, 0.0394106433, 2.37840915  , 4.16        , 3           , 50          , 0           , 0
0.39611724  , 0.00738928467, -9.78465748 , -0.00108905439, 0.00227337051, -0.0005723358, -0.1841715  , -0.161318585, 0.420587838 , -0.00269248174, 0.0394333638, 2.37840343  , 4.17        , 3           , 11          , 0.00628235145, 0.00628234353
0.383341372 , 0.03371928  , -9.787357   , -0.00220737234, 0.0002947829, 0.00224473374, -0.184373736, -0.161116362, 0.420655251 , -0.00271367 , 0.03943637  , 2.37842584  , 4.18        , 3           , 12          , 0.0639435053, 0
0.373661458 , 0.02387232  , -9.777529   , -0.00333641237, -0.00027599727, -0.001434389, -0.184238911, -0.161251172, 0.420655251 , -0.0027475995, 0.03943357  , 2.37841153  , 4.19        , 3           , 50          , 0           , 0
0.359229654 , 0.02587424  , -9.785768   , -0.00164189446, 0.00197948935, 0.000555139151, -0.184104085, -0.161183774, 0.420655251 , -0.0027357738, 0.03942953  , 2.37841821  , 4.2         , 3           , 11          , 0.006211059 , 0.00621105265
0.38159126  , 0.03557539  , -9.796403   , -0.0007909213, 0.00114052149, -0.0002898241, -0.184104085, -0.161183774, 0.420655251 , -0.00274379714, 0.0394409224, 2.37841535  , 4.21        , 3           , 12          , 0.06501507  , 0
0.3924254   , 0.0340822563, -9.79271    , 6.209838E-05, 1.99919741E-05, -5.071779E-06, -0.1841715  , -0.161386   , 0.4203856   , -0.00274317828, 0.0394411236, 2.37841535  , 4.22        , 3           , 50          , 0           , 0
0.382668048 , 0.0152455382, -9.792863   , -0.00333013758, 0.000560200948, -0.000585081871, -0.184508562, -0.161116362, 0.420655251 , -0.00277670939, 0.03944671  , 2.37840962  , 4.23        , 3           , 11          , 0.006211059 , 0.00621105265
0.381968021 , 0.0310449488, -9.792351   , 0.0025978745, 0.00116343959, -0.000839095854, -0.184373736, -0.161251172, 0.4209249   , -0.00275106519, 0.039458327 , 2.378401    , 4.24        , 3           , 12          , 0.06501507  , 0
0.379760653 , 0.03959804  , -9.778772   , 0.002875052 , 0.00229161163, -0.0002709682, -0.184036672, -0.161251172, 0.420520425 , -0.002722424, 0.03948123  , 2.37839818  , 4.25        , 3           , 50          , 0           , 0
0.370029032 , 0.017657686 , -9.795209   , -0.00276446831, 0.0005640248, 0.000830239267, -0.184036672, -0.161251172, 0.420520425 , -0.00274974015, 0.0394868925, 2.37840676  , 4.26        , 3           , 11          , 0.006211059 , 0.00621105265
0.382570863 , 0.03741018  , -9.808592   , 0.00231224461, 0.00200622948, 0.000856113737, -0.1841715  , -0.160914123, 0.420453    , -0.002726282, 0.03950698  , 2.37841535  , 4.27        , 3           , 12          , 0.06501507  , 0
0.393305361 , 0.0322655141, -9.79226    , -0.0007825573, -0.0005488689, -0.0002924277, -0.184373736, -0.161386   , 0.420790076 , -0.00273422524, 0.03950148  , 2.378412    , 4.28        , 3           , 50          , 0           , 0
0.3832051   , 0.0233427938, -9.787401   , -0.00219657482, -0.000276855921, -0.00114619092, -0.184036672, -0.161318585, 0.420722663 , -0.00275664171, 0.0394986831, 2.378401    , 4.29        , 3           , 11          , 0.006211059 , 0.00621105265
0.386912763 , 0.0278329533, -9.793682   , 0.00175041868, 0.00058053527, 3.5064586E-06, -0.184036672, -0.161318585, 0.420722663 , -0.0027490838, 0.0394640677, 2.3784      , 4.3         , 3           , 12          , 0.06609055  , 0
0.372834265 , 0.0239464454, -9.796518   , 4.73303953E-05, 0.00225846516, -0.0002843288, -0.184104085, -0.161116362, 0.420453    , -0.00274872454, 0.0394866429, 2.37839723  , 4.31        , 3           , 50          , 0           , 0
0.38407892  , 0.0233064666, -9.779711   , 0.00259589  , 0.0011493999, 0.00170355  , -0.184104085, -0.161453411, 0.420453    , -0.002722095, 0.0394981839, 2.37841439  , 4.32        , 3           , 11          , 0.006142404 , 0.00614239834
0.380255878 , 0.04409063  , -9.774683   , 0.00230739778, 0.002273748 , 0.0008563563, -0.183901846, -0.161588237, 0.420655251 , -0.00269868458, 0.03952094  , 2.378423    , 4.33        , 3           , 12          , 0.06609055  , 0
0.398523867 , 0.056502685 , -9.772232   , 0.00232626125, -0.0016681659, -0.000279868371, -0.183901846, -0.161588237, 0.420655251 , -0.00267553143, 0.0395042561, 2.37842     , 4.34        , 3           , 50          , 0           , 0
0.381478429 , 0.029235078 , -9.789198   , 0.00173598935, 0.003396184 , -0.0008397664, -0.1841715  , -0.161318585, 0.420453    , -0.00265850686, 0.0395381972, 2.37841153  , 4.35        , 3           , 11          , 0.006142404 , 0.00614239834
0.379814446 , 0.0391952731, -9.793238   , -0.0002166481, -0.00140378939, 0.000273787882, -0.184643388, -0.161183774, 0.4203856   , -0.00266056182, 0.0395241641, 2.37841439  , 4.36        , 3           , 12          , 0.06609055  , 0
0.385145724 , 0.0345852   , -9.782821   , -0.000229030964, 0.00113029708, 0.0005602308, -0.184036672, -0.161116362, 0.420587838 , -0.002662632, 0.03953548  , 2.37842     , 4.37        , 3           , 50          , 0           , 0
0.380516529 , 0.0363416635, -9.752564   , -0.0021936358, -0.0014171591, 0.0002645693, -0.184036672, -0.161116362, 0.420587838 , -0.00268446119, 0.03952131  , 2.378423    , 4.38        , 3           , 11          , 0.006142404 , 0.00614239834
0.390438676 , 0.0210171118, -9.791876   , 0.000318693928, 0.00423132442, -0.002540274, -0.184036672, -0.161386   , 0.420453    , -0.00268228375, 0.0395635553, 2.37839723  , 4.39        , 3           , 12          , 0.06609055  , 0
0.42061612  , 0.0396509171, -9.802416   , -0.000240092937, -0.000286534574, 0.0008398105, -0.184104085, -0.161183774, 0.420520425 , -0.0027380765, 0.03953415  , 2.378403    , 4.4         , 3           , 50          , 0           , 0
0.3832298   , 0.0540868752, -9.805354   , -0.000240908674, -0.000286538474, -0.000572876655, -0.184441149, -0.161116362, 0.420520425 , -0.00274070981, 0.03953127  , 2.3783977   , 4.41        , 3           , 11          , 0.00607525464, 0.00607525045
0.36830917  , 0.0226627737, -9.80153    , -0.00080060144, -0.00113504915, 0.00111841247, -0.184441149, -0.161116362, 0.420520425 , -0.00274827238, 0.039519947 , 2.37840867  , 4.42        , 3           , 12          , 0.06716954  , 0
0.37148118  , 0.0235203132, -9.799242   , -0.000798629248, -0.00169818266, -0.00029514273, -0.184036672, -0.161251172, 0.4203182   , -0.00275637372, 0.03950296  , 2.37840581  , 4.43        , 3           , 50          , 0           , 0
0.380725861 , 0.0369576141, -9.80182648 , 0.00371232536, 2.17692286E-05, 0.0005761441, -0.184036672, -0.161318585, 0.420655251 , -0.0027190228, 0.0395031944, 2.37841153  , 4.44        , 3           , 11          , 0.00607525464, 0.00607525045
0.374508828 , 0.0131020937, -9.797907   , 0.004259472 , 0.00340436562, -0.00111123966, -0.184238911, -0.161116362, 0.420655251 , -0.00267687067, 0.0395372063, 2.37840056  , 4.45        , 3           , 12          , 0.06716954  , 0
0.369627357 , 0.0212752372, -9.796101   , 0.000882896362, 0.0008473601, -0.00113094831, -0.184238911, -0.161116362, 0.420655251 , -0.00266849017, 0.0395456553, 2.37838912  , 4.46        , 3           , 50          , 0           , 0
0.389326274 , 0.0110404333, -9.773394   , 0.000613089767, -0.00140706345, 0.00140710059, -0.184306324, -0.161251172, 0.4203182   , -0.00266180024, 0.0395316221, 2.37840343  , 4.47        , 3           , 11          , 0.00607525464, 0.00607525045
0.379015744 , 0.009907508 , -9.802856   , -0.0007996969, -0.00141661649, 0.0002703659, -0.1841715  , -0.161453411, 0.420722663 , -0.00266968785, 0.0395174623, 2.37840581  , 4.48        , 3           , 12          , 0.06716954  , 0
0.361923665 , 0.0177896563, -9.806118   , 0.00343375374, -0.0008248376, 8.450326E-06, -0.184238911, -0.161048949, 0.420453    , -0.00263534626, 0.03950921  , 2.37840629  , 4.49        , 3           , 50          , 0           , 0
0.37800175  , 0.03966164  , -9.791441   , -0.004747176, -0.00090681063, 0.000253140228, -0.1841715  , -0.161386   , 0.420453    , -0.00265462836, 0.0394198969, 2.37841     , 4.5         , 3           , 11          , 0.00601087743, 0.00601087138
0.401765674 , 0.0182120819, -9.8021965  , -0.00277936738, 0.000795945758, -0.00114772492, -0.1841715  , -0.161386   , 0.420453    , -0.002682878, 0.03942783  , 2.37839866  , 4.51        , 3           , 12          , 0.06825166  , 0
0.3943394   , 0.00699114334, -9.794165   , 0.00174355507, 0.000263381371, 0.00113277789, -0.184306324, -0.160981536, 0.420520425 , -0.002664995, 0.03943049  , 2.37840962  , 4.52        , 3           , 50          , 0           , 0
0.370167017 , 0.03294543  , -9.77977848 , 0.000622864 , -0.00143364584, 0.00225505652, -0.184036672, -0.161183774, 0.420587838 , -0.00265787635, 0.0394162163, 2.37843251  , 4.53        , 3           , 11          , 0.00601087743, 0.00601087138
0.376906127 , 0.0296985656, -9.777027   , -0.00276772585, -0.00145657244, -0.00030358386, -0.184373736, -0.161386   , 0.420520425 , -0.00268567051, 0.03940164  , 2.37842965  , 4.54        , 3           , 12          , 0.06825166  , 0
0.387317359 , 0.0282349456, -9.780569   , -0.004740369, -0.00231463672, -3.156696E-05, -0.184373736, -0.161386   , 0.420520425 , -0.0027330853, 0.039378494 , 2.37842965  , 4.55        , 3           , 50          , 0           , 0
0.383679539 , 0.0197842177, -9.804136   , 5.728356E-05, -0.001719041, -0.00142099836, -0.184104085, -0.161318585, 0.420587838 , -0.002733069, 0.039361272 , 2.37841535  , 4.56        , 3           , 11          , 0.00601087743, 0.00601087138
0.388859749 , 0.0101419268, -9.772949   , 0.00202983757, -0.00057940546, 0.0005677181, -0.183969259, -0.161386   , 0.420722663 , -0.00271254545, 0.03935549  , 2.378421    , 4.57        , 3           , 12          , 0.06825166  , 0
0.4017616   , 0.0253503732, -9.778212   , -0.00108833611, 0.00165210385, -8.371746E-06, -0.183969259, -0.161048949, 0.420587838 , -0.00272343331, 0.0393720046, 2.378421    , 4.58        , 3           , 50          , 0           , 0
0.415685028 , 0.0161671061, -9.779499   , 0.002020821 , 0.00110998179, -0.00055982807, -0.183969259, -0.161048949, 0.420587838 , -0.00270344573, 0.0393830873, 2.37841535  , 4.59        , 3           , 11          , 0.00601087743, 0.00601087138
0.3916651   , 0.01152094  , -9.790098   , 0.00203905813, 0.0002795628, 4.539703E-06, -0.184104085, -0.161116362, 0.420520425 , -0.00264056982, 0.0394299924, 2.37841725  , 4.6         , 3           , 12          , 0.0693365559, 0
0.3914539   , 0.0255588163, -9.804053   , -0.000218221292, -0.00029885018, -0.00113701343, -0.183969259, -0.161453411, 0.420722663 , -0.00264320057, 0.0394269824, 2.37840581  , 4.61        , 3           , 50          , 0           , 0
0.402278    , 0.0231649019, -9.800816   , 0.00203406019, 0.001124254 , -0.00140684564, -0.183969259, -0.161386   , 0.420722663 , -0.00262341439, 0.0394381844, 2.3783915   , 4.62        , 3           , 11          , 0.00594755029, 0.00594754331
0.387711346 , 0.0192549825, -9.795068   , -0.000793084968, 0.00194985594, 0.0008415865, -0.183969259, -0.161386   , 0.420722663 , -0.00263101631, 0.03945771  , 2.3784      , 4.63        , 3           , 12          , 0.0693365559, 0
0.371422052 , 0.0216869861, -9.790663   , -0.00107042515, 0.000821683265, -9.078707E-06, -0.184036672, -0.161453411, 0.420587838 , -0.00264172559, 0.0394659229, 2.3784      , 4.64        , 3           , 50          , 0           , 0
0.3817968   , 0.0188547932, -9.789691   , 0.0006177438, 0.00195939955, -0.00141212856, -0.183969259, -0.161048949, 0.420790076 , -0.00263610738, 0.03948548  , 2.37838578  , 4.65        , 3           , 11          , 0.00594755029, 0.00594754331
0.366130739 , 0.0299002249, -9.799257   , 0.000340314873, 0.00111279823, -2.06011464E-06, -0.184104085, -0.161386   , 0.420722663 , -0.00263270666, 0.0394966081, 2.37838578  , 4.66        , 3           , 12          , 0.0693365559, 0
0.3766115   , 0.03429552  , -9.800966   , 0.00105966209, -0.00141650892, 0.00126874563, -0.184104085, -0.161386   , 0.420722663 , -0.0026216046, 0.0394824855, 2.37839818  , 4.67        , 3           , 50          , 0           , 0
0.359845936 , 0.03269666  , -9.803812   , 0.000497025438, -0.00198346167, 0.000276362582, -0.1841715  , -0.161116362, 0.420250773 , -0.00261652144, 0.0394626521, 2.378401    , 4.68        , 3           , 11          , 0.00594755029, 0.00594754331
0.381026536 , 0.02790205  , -9.793727   , 0.0007778137, -0.00169998792, -0.000145692669, -0.183834434, -0.161251172, 0.420655251 , -0.00260879775, 0.0394456424, 2.3784      , 4.69        , 3           , 12          , 0.0693365559, 0
0.3883149   , 0.0265134424, -9.808592   , 0.00218852586, -0.0015678748, -0.00028027143, -0.184104085, -0.161318585, 0.420587838 , -0.002589057, 0.03937237  , 2.37839723  , 4.7         , 3           , 50          , 0           , 0
0.378647834 , 0.0189086329, -9.794687   , 0.00134075608, -0.00157360721, -0.0011318347, -0.184104085, -0.161318585, 0.420587838 , -0.00257609319, 0.0393566154, 2.37838578  , 4.71        , 3           , 11          , 0.00588560058, 0.005885595
0.3693795   , 0.0112546664, -9.76767    , -0.0006369288, -0.00144619436, -0.00114083628, -0.1841715  , -0.161588237, 0.420250773 , -0.0025829107, 0.03934212  , 2.37837434  , 4.72        , 3           , 12          , 0.07042391  , 0
0.3863997   , 0.0295748413, -9.773339   , -0.003035918, -0.00174399267, -0.0007286579, -0.1841715  , -0.161183774, 0.420520425 , -0.00261355354, 0.03932466  , 2.37836671  , 4.73        , 3           , 50          , 0           , 0
0.380447537 , 0.0211098716, -9.784719   , -0.004590088, -0.00147292984, 0.000253413978, -0.1841715  , -0.161386   , 0.420520425 , -0.002659354, 0.0393099338, 2.37836957  , 4.74        , 3           , 11          , 0.00588560058, 0.005885595
0.376184136 , 0.0410166979, -9.785575   , -0.00248287618, 0.0007939161, 0.0005493   , -0.184104085, -0.161116362, 0.4203856   , -0.00268396526, 0.0393178836, 2.37837529  , 4.75        , 3           , 12          , 0.07042391  , 0
0.4054411   , 0.0244614873, -9.79491    , -0.000364919717, 0.000808239565, 0.000135370734, -0.184104085, -0.161116362, 0.4203856   , -0.00268756319, 0.0393259749, 2.37837625  , 4.76        , 3           , 50          , 0           , 0
0.406308353 , 0.02308077  , -9.789938   , 0.00105262734, -0.000308471674, -0.000142317876, -0.184036672, -0.161048949, 0.420587838 , -0.00267709023, 0.0393228829, 2.37837529  , 4.77        , 3           , 11          , 0.00588560058, 0.005885595
0.393975824 , 0.0142103424, -9.79278    , 0.00147049129, 0.00067986676, -0.0016927796, -0.184104085, -0.161183774, 0.420655251 , -0.00266305357, 0.0393296368, 2.37835813  , 4.78        , 3           , 12          , 0.07042391  , 0
0.378184    , 0.0139951268, -9.807818   , -0.0006479992, 0.00080632657, -0.0009960961, -0.183834434, -0.161251172, 0.420115948 , -0.0026699244, 0.03933767  , 2.378348    , 4.79        , 3           , 50          , 0           , 0
0.376863062 , 0.0167195015, -9.8082695  , -0.0006319863, -0.000316808524, -0.0004323742, -0.183834434, -0.161251172, 0.420115948 , -0.00264369627, 0.0393446051, 2.37834477  , 4.8         , 3           , 11          , 0.00582524  , 0.005825234
0.3849809   , 0.0259709861, -9.770202   , -0.0009104387, -0.001022629, 0.000412836467, -0.183969259, -0.161318585, 0.420453    , -0.002652636, 0.039334394 , 2.378349    , 4.81        , 3           , 12          , 0.07151336  , 0
0.4036139   , 0.0280405581, -9.779542   , -0.00246825744, -4.76539753E-05, 0.00111345574, -0.184036672, -0.161183774, 0.420453    , -0.00267688069, 0.03933394  , 2.37836     , 4.82        , 3           , 50          , 0           , 0
0.387710869 , 0.0237181224, -9.780586   , -0.00119487487, -0.000602190732, 0.0005534391, -0.184036672, -0.161251172, 0.4203182   , -0.00268861139, 0.0393279344, 2.37836576  , 4.83        , 3           , 11          , 0.00582524  , 0.005825234
0.377040118 , 0.036948733 , -9.786488   , 0.000218779212, -0.00101499131, -0.000429508247, -0.184036672, -0.161251172, 0.4203182   , -0.00268659065, 0.0393177755, 2.378361    , 4.84        , 3           , 12          , 0.07151336  , 0
0.393074751 , 0.0177954156, -9.782377   , 0.00120219367, -0.000163615434, -0.00197755313, -0.183969259, -0.161183774, 0.420453    , -0.00267534447, 0.03931608  , 2.378342    , 4.85        , 3           , 50          , 0           , 0
0.389962137 , 0.01653964  , -9.800486   , -0.0006258766, -0.001583852, -0.0007168643, -0.183969259, -0.160914123, 0.420453    , -0.00268188585, 0.0393002257, 2.37833428  , 4.86        , 3           , 11          , 0.00582524  , 0.005825234
0.372587651 , 0.0406337753, -9.793287   , -0.00119069288, -0.0014468861, 0.0005521373, -0.183901846, -0.161251172, 0.420587838 , -0.002693573, 0.0392857678, 2.37834     , 4.87        , 3           , 12          , 0.07151336  , 0
0.384650469 , 0.0300926082, -9.786911   , 0.000355684577, -2.85557689E-05, 0.00056155  , -0.183901846, -0.161251172, 0.420587838 , -0.00268979673, 0.0392855   , 2.37834573  , 4.88        , 3           , 50          , 0           , 0
0.383793741 , 0.0305891633, -9.79731    , 0.000493086642, 0.0006763104, -1.78151822E-06, -0.184575975, -0.161183774, 0.420183361 , -0.00268486654, 0.0392922647, 2.37834573  , 4.89        , 3           , 11          , 0.00582524  , 0.005825234
0.407909423 , 0.03620566  , -9.807047   , 0.0002039129, 0.001660159 , -1.57519935E-06, -0.184104085, -0.161116362, 0.420453    , -0.00268899766, 0.03930979  , 2.37834573  , 4.9         , 3           , 12          , 0.07260463  , 0
0.3869352   , 0.03052928  , -9.790507   , -0.002191673, 0.000658447156, 0.000268249569, -0.183969259, -0.161116362, 0.420587838 , -0.0027108097, 0.0393163934, 2.37834859  , 4.91        , 3           , 50          , 0           , 0
0.368803769 , 0.026262138 , -9.800155   , -0.00515678432, 0.0004976085, -0.000310870062, -0.183969259, -0.161116362, 0.420587838 , -0.0027624988, 0.03932136  , 2.37834573  , 4.92        , 3           , 11          , 0.00576642  , 0.005766414
0.388433844 , 0.0386612639, -9.798598   , -0.00204672944, -4.45092628E-05, 0.0006916294, -0.184104085, -0.161048949, 0.420183361 , -0.00278269453, 0.0393209271, 2.3783524   , 4.93        , 3           , 12          , 0.07260463  , 0
0.374522328 , 0.0514250249, -9.788708   , 0.00190888485, -0.0002993336, 0.00113343867, -0.184036672, -0.161116362, 0.420453    , -0.00276315771, 0.0393179655, 2.37836385  , 4.94        , 3           , 50          , 0           , 0
0.371132821 , 0.038786158 , -9.775679   , 0.00162887527, -0.000723589561, 0.00169654563, -0.184036672, -0.161251172, 0.420453    , -0.00274620182, 0.0393107757, 2.378381    , 4.95        , 3           , 11          , 0.00576642  , 0.005766414
0.3918638   , 0.0281969067, -9.785055   , 0.00121437735, -0.00255662738, 0.00183301838, -0.184036672, -0.161251172, 0.420453    , -0.002733334, 0.0392852537, 2.37839913  , 4.96        , 3           , 12          , 0.07260463  , 0
0.383955121 , 0.05482282  , -9.75879    , 0.000647395558, -0.00227888557, 0.0005593999, -0.183901846, -0.161251172, 0.4203856   , -0.00272663846, 0.0392624848, 2.37840486  , 4.97        , 3           , 50          , 0           , 0
0.379655    , 0.0328171663, -9.774734   , 0.00106558588, -0.00129054557, -0.000425987, -0.184306324, -0.161183774, 0.4203182   , -0.002716147, 0.0392495655, 2.37840056  , 4.98        , 3           , 11          , 0.00576642  , 0.005766414
0.372685045 , 0.051425118 , -9.782393   , 0.0009158453, 0.000397889118, -0.0007065792, -0.183834434, -0.161251172, 0.420587838 , -0.002707266, 0.0392535254, 2.37839341  , 4.99        , 3           , 12          , 0.07260463  , 0
0.385589063 , 0.03189414  , -9.789156   , 0.0006110051, -0.0005961635, 0.0002783168, -0.183901846, -0.161251172, 0.4203856   , -0.002795218, 0.039225053 , 2.37839246  , 5           , 3           , 50          , 0           , 0
0.396900922 , 0.023720663 , -9.813059   , 0.0009011805, -0.00214286125, 0.000418515672, -0.183901846, -0.161251172, 0.4203856   , -0.00278603961, 0.0392036326, 2.37839627  , 5.01        , 3           , 11          , 0.005709121 , 0.005709115
0.395983458 , 0.0304169171, -9.78863049 , 0.00117167679, 0.000252351485, 0.0002822524, -0.184104085, -0.160981536, 0.4203856   , -0.00277421158, 0.0392061621, 2.37839913  , 5.02        , 3           , 12          , 0.07369743  , 0
0.3817172   , 0.0446044542, -9.798172   , 0.000182241187, 0.000386447937, -0.00014594596, -0.184036672, -0.160981536, 0.420587838 , -0.00277244765, 0.0392100252, 2.37839818  , 5.03        , 3           , 50          , 0           , 0
0.355356157 , 0.0363514721, -9.801571   , -0.000941682665, -0.0008882372, -0.00100077875, -0.1841715  , -0.161251172, 0.4203182   , -0.00278225541, 0.0392011143, 2.37838769  , 5.04        , 3           , 11          , 0.005709121 , 0.005709115
0.393145949 , 0.0182994753, -9.798194   , -0.000378593744, -0.000462067925, -0.0004324192, -0.1841715  , -0.161251172, 0.4203182   , -0.00278620957, 0.03919648  , 2.37838387  , 5.05        , 3           , 12          , 0.07369743  , 0
0.3931726   , 0.0490450673, -9.816598   , -0.0005191102, -0.0006038055, -0.000433294656, -0.184104085, -0.161251172, 0.420183361 , -0.00279157 , 0.03919043  , 2.378379    , 5.06        , 3           , 50          , 0           , 0
0.369418859 , 0.009054849 , -9.784402   , -0.000371379, -0.00186989224, -1.07826054E-05, -0.184104085, -0.161116362, 0.420453    , -0.00279528485, 0.03917173  , 2.378379    , 5.07        , 3           , 11          , 0.005709121 , 0.005709115
