Acc X       , Acc Y       , Acc Z       , Gyro X      , Gyro Y      , Gyro Z      , Magn X      , Magn Y      , Magn Z      , Euler X     , Euler Y     , Euler Z     , Time        , Status      , LowRate X   , LowRate Y   , LowRate Z    
-0.000275704078, -0.006873114, -9.798143   , 0.00181434467, 0.00157606381, 0.00137414585, -0.514763355, -0.0663341  , 0.325670749 , 0.00165348663, 0.0006465426, 3.01238084  , 0           , 3           , 11          , 0.0346410163, 0.0346410163
0.0008935109, -0.0257890336, -9.812675   , 0.00266204076, 0.00130022352, -0.000317562022, -0.5166509  , -0.06592962 , 0.3259404   , 0.00168010476, 0.00065955  , 3.012378    , 0.01        , 3           , 12          , 0.0346410163, 0
0.03140814  , -0.0397636443, -9.788998   , 0.00266703824, 0.0004555321, 0.00109382335, -0.5166509  , -0.06592962 , 0.3259404   , 0.0017067825, 0.000664086838, 3.01238847  , 0.02        , 3           , 14          , 0.000230177058, 0.000571189
0.0169907641, -0.0332865044, -9.786369   , 0.0007019438, -0.00209192652, -4.94502638E-05, -0.5156397  , -0.06619927 , 0.324592143 , 0.00171380164, 0.0006431684, 3.01238847  , 0.03        , 3           , 15          , 0           , 3.34827564E-05
-0.01000158 , -0.0158646367, -9.7743     , -0.0004407246, 0.000716089155, 0.00164484617, -0.515033   , -0.06606445 , 0.3259404   , 0.0017094051, 0.000650301052, 3.01240468  , 0.04        , 3           , 50          , 0           , 0
0.0135006951, -0.0233171359, -9.786806   , -0.00045097206, 0.00268704258, 0.0008002711, -0.5165161  , -0.06619927 , 0.3260078   , 0.00170490076, 0.0006771577, 3.01241279  , 0.05        , 3           , 11          , 0.0346410163, 0.0346410163
0.008371051 , -0.0331991166, -9.782367   , 0.002945209 , 0.00102056528, -0.00144682906, -0.5165161  , -0.06619927 , 0.3260078   , 0.00173434289, 0.000687388238, 3.01239848  , 0.06        , 3           , 12          , 0.0346410163, 0
-0.006757354, -0.0131631959, -9.783755   , -0.00184719393, -0.0007012923, -0.000624207954, -0.515841961, -0.0663341  , 0.32452473  , 0.00171586673, 0.000680386031, 3.01239228  , 0.07        , 3           , 14          , 0.000230177058, 0.000571189
0.0109005179, -0.0169419125, -9.794935   , 0.0012508108, 0.00100910617, -0.00117219309, -0.515033   , -0.06606445 , 0.325670749 , 0.00172836671, 0.0006904973, 3.01238036  , 0.08        , 3           , 15          , 0           , 3.34827564E-05
-0.0108591961, -0.0140297422, -9.780174   , 0.001817548 , 0.000731363543, -0.000322380685, -0.5166509  , -0.06640151 , 0.3260078   , 0.00174653984, 0.0006978165, 3.012377    , 0.09        , 3           , 50          , 0           , 0
-0.009737051, -0.0361082628, -9.793365   , 0.00181754807, 0.0007313634, -0.0003223805, -0.5166509  , -0.06640151 , 0.3260078   , 0.00176472182, 0.0007051271, 3.01237416  , 0.1         , 3           , 11          , 0.0346410163, 0.0346410163
0.00564248953, -0.0340695158, -9.782392   , -0.00157387229, 0.00127157615, 0.0005102963, -0.5159768  , -0.0663341  , 0.3243225   , 0.00174898689, 0.0007178338, 3.012379    , 0.11        , 3           , 12          , 0.0346410163, 0
0.0168469567, -0.0111596556, -9.790798   , 0.00237322226, 0.00242457027, -0.00172983063, -0.5149656  , -0.0659970343, 0.325805575 , 0.0017727064, 0.000742109958, 3.01236176  , 0.12        , 3           , 14          , 0.000230176913, 0.0005711891
0.025051957 , -0.007640088, -9.792528   , 0.00153512135, 0.0007294534, -0.000323697459, -0.516785741, -0.06586221 , 0.3260078   , 0.00178805529, 0.0007494103, 3.012359    , 0.13        , 3           , 15          , 0           , 3.34825927E-05
0.0331723653, -0.0126696955, -9.801075   , -0.00156214193, -0.00126251334, -0.0009062963, -0.516785741, -0.06586221 , 0.3260078   , 0.00177242723, 0.000736801361, 3.01234937  , 0.14        , 3           , 50          , 0           , 0
0.013617754 , -0.011170825, -9.77636    , 0.00182435487, -0.000676462834, -0.0006070877, -0.5156397  , -0.0663341  , 0.324457318 , 0.00179066614, 0.0007300476, 3.01234365  , 0.15        , 3           , 11          , 0.0346410163, 0.0346410163
0.0009869374, -0.00518121757, -9.769198   , -0.00212167157, -0.00211102329, 0.00106753025, -0.514763355, -0.0662666857, 0.325738162 , 0.00176945713, 0.0007089184, 3.01235414  , 0.16        , 3           , 12          , 0.0346410163, 0
-0.00183367182, -0.0146068623, -9.774231   , -0.00212404458, -0.00182946282, -0.0006272605, -0.5167183  , -0.0659970343, 0.326142639 , 0.00174821215, 0.0006906349, 3.012348    , 0.17        , 3           , 14          , 0.000230176913, 0.0005711891
0.0196204633, -0.0400841571, -9.786829   , -0.00185251783, 0.00014339725, -0.0026006687, -0.5167183  , -0.0659970343, 0.326142639 , 0.001729669 , 0.0006921141, 3.01232171  , 0.18        , 3           , 15          , 0           , 3.34825927E-05
0.015991535 , -0.008876641, -9.795767   , -0.00128029357, -0.0009790345, 0.0005081418, -0.5155723  , -0.06613186 , 0.32452473  , 0.00171686953, 0.000682315032, 3.012327    , 0.19        , 3           , 50          , 0           , 0
0.004102716 , -0.0199915133, -9.803588   , 0.0006830806, 0.00184998824, 0.00108677545, -0.5149656  , -0.0663341  , 0.325805575 , 0.00172371068, 0.0007008093, 3.012338    , 0.2         , 3           , 11          , 0.0346694328, 0.0346694328
-0.00498833973, -0.017235741, -9.786471   , -0.00157919619, 0.00211626664, -0.00146616332, -0.516381264, -0.06606445 , 0.325873    , 0.00170790823, 0.000721997058, 3.01232314  , 0.21        , 3           , 12          , 0.0346692465, 0
-0.0156649612, -0.0369656533, -9.786182   , -0.000167714781, 0.00212581339, -0.00258972868, -0.516381264, -0.06606445 , 0.325873    , 0.00170621206, 0.000743299432, 3.01229739  , 0.22        , 3           , 14          , 0.000230176825, 0.0005711887
-0.0122861965, -0.0287989825, -9.810982   , -0.00102312176, 0.004091047 , 0.000234732841, -0.515841961, -0.0662666857, 0.324726969 , 0.00169598265, 0.000784205855, 3.01229978  , 0.23        , 3           , 15          , 0           , 3.3481836E-05
-0.00276533421, -0.0222053323, -9.79235    , -0.00156739156, -0.000136251125, -0.000339484774, -0.515033   , -0.0659970343, 0.325738162 , 0.001680306 , 0.000782849034, 3.012296    , 0.24        , 3           , 50          , 0           , 0
-0.0142095545, -0.00171542913, -9.807267   , 0.00492473226, 0.000752375752, 0.0005397187, -0.5165835  , -0.06592962 , 0.325805575 , 0.00172955752, 0.0007903636, 3.01230168  , 0.25        , 3           , 11          , 0.0346694328, 0.0346694328
0.0129691809, 0.0010995036, -9.799816   , 0.00210087979, 0.0004517063, -0.00116910925, -0.5165835  , -0.06592962 , 0.325805575 , 0.00175055733, 0.000794901 , 3.01229024  , 0.26        , 3           , 12          , 0.0346692465, 0
0.00767880864, -0.0245349668, -9.806744   , 0.0015471779, -0.00180463411, -0.00117521454, -0.515707135, -0.0663341  , 0.324659556 , 0.00176601973, 0.000776875357, 3.01227832  , 0.27        , 3           , 14          , 0.000230176825, 0.0005711887
-0.008637469, -0.0283737257, -9.815924   , 0.00040943292, -0.000122882077, -0.000612803735, -0.514830768, -0.0659970343, 0.325670749 , 0.0017701094, 0.0007756573, 3.01227212  , 0.28        , 3           , 15          , 0           , 3.3481836E-05
0.00773311546, -0.01913476 , -9.802652   , 0.00210882863, -0.00095611444, 0.0005239458, -0.5165161  , -0.06606445 , 0.325805575 , 0.00179120165, 0.000766086858, 3.01227736  , 0.29        , 3           , 50          , 0           , 0
-0.00422035251, -0.02940931 , -9.79194    , 0.00154192839, -0.000678373268, -0.000608402, -0.5165161  , -0.06606445 , 0.325805575 , 0.00180662051, 0.0007592956, 3.01227117  , 0.3         , 3           , 11          , 0.0347551219, 0.0347551219
-0.0009534387, -0.01865518 , -9.781022   , -0.001573709, 0.0012715765, 0.0007928365, -0.5155049  , -0.0663341  , 0.324457318 , 0.00179088966, 0.000771997147, 3.01227927  , 0.31        , 3           , 12          , 0.03475475  , 0
-0.00220920332, -0.0109681468, -9.781452   , -0.002997974, 0.00351454271, -0.0009055015, -0.514695942, -0.06592962 , 0.325738162 , 0.00176090281, 0.0008071586, 3.01227021  , 0.32        , 3           , 14          , 0.000230176622, 0.000571189565
-0.0009397217, -0.0177513622, -9.78147    , -0.00158460881, 0.00324252667, -0.00118188816, -0.516785741, -0.0659970343, 0.325873    , 0.00174504716, 0.0008396046, 3.01225877  , 0.33        , 3           , 15          , 0           , 3.3480017E-05
-0.0126113845, -0.0175315179, -9.805965   , 0.002097677 , 0.00129640533, 0.0005274191, -0.516785741, -0.0659970343, 0.325873    , 0.00176602846, 0.0008525594, 3.01226354  , 0.34        , 3           , 50          , 0           , 0
7.645879E-05, -0.0118698208, -9.789574   , 0.0007007134, -0.00181036128, 0.000233523635, -0.5155723  , -0.06619927 , 0.3243899   , 0.00177303737, 0.0008344517, 3.0122664   , 0.35        , 3           , 11          , 0.0347551219, 0.0347551219
0.0135983415, -0.0147573594, -9.783154   , 0.000694974267, -0.0006841016, -4.72778556E-05, -0.5149656  , -0.0663341  , 0.325805575 , 0.00177998666, 0.0008276115, 3.01226544  , 0.36        , 3           , 12          , 0.03475475  , 0
-0.008214992, -0.0239400975, -9.794207   , 0.000411316636, -0.000404445716, 0.000234376377, -0.5166509  , -0.06606445 , 0.3259404   , 0.00178410171, 0.0008235629, 3.0122683   , 0.37        , 3           , 14          , 0.000230176622, 0.000571189565
-7.03549E-05, -0.021362137, -9.78419    , 0.00124261051, 0.002698497 , -0.0008870492, -0.5166509  , -0.06606445 , 0.3259404   , 0.00179652043, 0.0008505637, 3.01225924  , 0.38        , 3           , 15          , 0           , 3.3480017E-05
-0.003977759, -0.0113587305, -9.793219   , 0.00548417354, 0.00188245613, 0.0008266278, -0.515707135, -0.0663341  , 0.3243899   , 0.00185136939, 0.0008693731, 3.01226735  , 0.39        , 3           , 50          , 0           , 0
-0.0004434697, -0.0195068568, -9.797744   , 0.00295397383, -0.000387253938, 0.00165891671, -0.5149656  , -0.0659970343, 0.325805575 , 0.00188092154, 0.0008654403, 3.012284    , 0.4         , 3           , 11          , 0.034897238 , 0.03489724
-0.02359103 , -0.0237442479, -9.798843   , -0.00183882948, -0.00239068526, -0.0006268084, -0.5166509  , -0.06613186 , 0.3260078   , 0.00186252769, 0.0008415453, 3.01227784  , 0.41        , 3           , 12          , 0.03489667  , 0
0.00405463  , -0.0169060249, -9.78188    , 0.00352727948, -0.00235439581, -0.0006017866, -0.5166509  , -0.06613186 , 0.3260078   , 0.00189779559, 0.0008180126, 3.01227164  , 0.42        , 3           , 14          , 0.000230176753, 0.0005711914
0.0216177348, 0.007284384 , -9.790685   , -0.001001144, -0.000413999, -0.000337282516, -0.5154375  , -0.06586221 , 0.324457318 , 0.00188778155, 0.000813878956, 3.0122683   , 0.43        , 3           , 15          , 0           , 3.3479515E-05
0.00199133018, 0.0273976531, -9.799339   , 0.002106204 , -0.0003929862, 0.0008073535, -0.514830768, -0.06619927 , 0.3260078   , 0.00190885  , 0.0008099338, 3.01227641  , 0.44        , 3           , 50          , 0           , 0
0.00544284  , -0.016897779, -9.789102   , 0.00182795885, -0.00123959139, 0.000804734766, -0.5164487  , -0.0657947958, 0.325805575 , 0.00192713609, 0.0007975226, 3.01228452  , 0.45        , 3           , 11          , 0.034897238 , 0.03489724
0.02384827  , -0.0301885288, -9.792179   , -0.00155607634, -0.00238877372, -6.04164343E-05, -0.5164487  , -0.0657947958, 0.325805575 , 0.00191157474, 0.0007736359, 3.01228356  , 0.46        , 3           , 12          , 0.03489667  , 0
0.0061686947, -0.0331226438, -9.797298   , 0.00126589322, -0.00180654158, 0.000801233 , -0.515707135, -0.06619927 , 0.324592143 , 0.00192423968, 0.0007555552, 3.01229167  , 0.47        , 3           , 14          , 0.000230176753, 0.0005711914
-0.0114711691, -0.0302220285, -9.793354   , 0.00041336313, -0.000686009531, 0.00136409292, -0.5149656  , -0.06592962 , 0.325670749 , 0.00192838372, 0.000748668739, 3.0123055   , 0.48        , 3           , 15          , 0           , 3.3479515E-05
0.00322268065, -0.0105868336, -9.779601   , -0.000161322954, 0.0009995539, -0.00117877452, -0.5165835  , -0.0662666857, 0.326142639 , 0.00192676182, 0.000758687 , 3.01229358  , 0.49        , 3           , 50          , 0           , 0
-0.006682846, -0.008192966, -9.785995   , 0.0009768221, -0.000400625635, 0.00136716221, -0.5165835  , -0.0662666857, 0.326142639 , 0.0019365343, 0.0007546399, 3.01230741  , 0.5         , 3           , 11          , 0.0350946635, 0.03509467
0.00396038964, -0.0259093978, -9.787794   , -0.00155935413, -0.00182564708, -0.0009071597, -0.5155049  , -0.06619927 , 0.32452473  , 0.00192093418, 0.0007364009, 3.01229787  , 0.51        , 3           , 12          , 0.0350939   , 0
-0.00606527738, -0.0347716324, -9.801014   , 0.00153372693, 0.00101101492, -0.000323259, -0.5148982  , -0.0662666857, 0.325738162 , 0.00193626911, 0.0007465174, 3.012295    , 0.52        , 3           , 14          , 0.000230177233, 0.000571192533
-0.0100234179, -0.0176677257, -9.774759   , -0.000149355663, -0.00125296379, 0.00023044266, -0.516381264, -0.06592962 , 0.325670749 , 0.0019347769, 0.000733983237, 3.01229739  , 0.53        , 3           , 15          , 0           , 3.34780671E-05
-0.0174164623, -0.00438663363, -9.806852   , -0.00327171129, 0.001823241 , -0.000344345084, -0.516381264, -0.06592962 , 0.325670749 , 0.00190205732, 0.0007522222, 3.012294    , 0.54        , 3           , 50          , 0           , 0
-0.004100643, -0.0212780125, -9.795068   , 0.00349710067, 0.00384003762, 0.0002553736, -0.5153701  , -0.0662666857, 0.324457318 , 0.00193703023, 0.0007906176, 3.01229644  , 0.55        , 3           , 11          , 0.0350946635, 0.03509467
0.0106514422, -0.0336587019, -9.787775   , -0.00410628226, -0.000716574, -6.966379E-05, -0.515167832, -0.0662666857, 0.325873    , 0.00189596694, 0.0007834533, 3.012296    , 0.56        , 3           , 12          , 0.0350939   , 0
0.00668806536, -0.02370065 , -9.783244   , 0.00124613929, 0.00185379584, -0.002018499, -0.5167183  , -0.06613186 , 0.325873    , 0.00190841209, 0.000802029565, 3.012276    , 0.57        , 3           , 14          , 0.000230177233, 0.000571192533
0.02713548  , -0.0171861947, -9.778993   , 0.00323755667, -0.000948483, -0.00116600737, -0.5167183  , -0.06613186 , 0.325873    , 0.00194077846, 0.0007925673, 3.012264    , 0.58        , 3           , 15          , 0           , 3.34780671E-05
0.00329250144, -0.0145474151, -9.809447   , 0.000400905352, 0.0015665039, -0.0008927338, -0.515302658, -0.0663341  , 0.324659556 , 0.00194478047, 0.0008082496, 3.012255    , 0.59        , 3           , 50          , 0           , 0
0.0152918678, -0.0251399819, -9.787704   , -0.0001553467, 0.000154864974, 0.00192783738, -0.5148982  , -0.0663341  , 0.325738162 , 0.00194324367, 0.0008097484, 3.012274    , 0.6         , 3           , 11          , 0.0353460535, 0.0353460535
0.00139183132, -0.0221866518, -9.812205   , 0.00153988111, -0.000396815449, -0.001738116, -0.516785741, -0.06592962 , 0.325873    , 0.00195862819, 0.0008058142, 3.01225686  , 0.61        , 3           , 12          , 0.0353450924, 0
-0.00511620473, -0.00134488754, -9.814879   , 0.000419101852, -0.00181227142, 0.00164489634, -0.516785741, -0.06592962 , 0.325873    , 0.00196283241, 0.000787659141, 3.012273    , 0.62        , 3           , 14          , 0.000230177146, 0.0005711937
0.0139405811, 0.006944765 , -9.797072   , -0.00156567164, -0.000417819654, 0.000225159922, -0.5156397  , -0.0662666857, 0.3243899   , 0.00194717734, 0.000783476455, 3.012276    , 0.63        , 3           , 15          , 0           , 3.34779324E-05
0.025262503 , -0.032837294, -9.814327   , -0.0007143723, -0.0012567857, -5.47283053E-05, -0.515033   , -0.06606445 , 0.325603336 , 0.00194003317, 0.0007709097, 3.012275    , 0.64        , 3           , 50          , 0           , 0
0.009173666 , -0.016406   , -9.81393    , -0.0009999136, -0.0006955671, -0.000620252336, -0.5167183  , -0.06613186 , 0.325738162 , 0.00193002913, 0.000763966062, 3.01226878  , 0.65        , 3           , 11          , 0.0353460535, 0.0353460535
0.0167673118, -0.0205975473, -9.801685   , -0.00100172265, -0.000132432266, 0.00107584021, -0.5167183  , -0.06613186 , 0.325738162 , 0.00192001986, 0.000762621057, 3.01227975  , 0.66        , 3           , 12          , 0.0353450924, 0
0.0113267545, -0.0200931914, -9.798561   , -0.00212322921, -0.00182946352, 0.0007854315, -0.515302658, -0.06606445 , 0.32452473  , 0.00189879362, 0.0007443114, 3.01228738  , 0.67        , 3           , 14          , 0.000230177146, 0.0005711937
0.008169109 , -0.0191536844, -9.798582   , -0.00438747834, -0.001000051, -0.000353952, -0.514763355, -0.06613186 , 0.325805575 , 0.00185491645, 0.0007343175, 3.01228356  , 0.68        , 3           , 15          , 0           , 3.34779324E-05
0.0186171811, -0.0161239281, -9.796681   , -0.000150749576, -0.000971399946, 0.000230876729, -0.5165835  , -0.06613186 , 0.325805575 , 0.00185341062, 0.000724599231, 3.01228642  , 0.69        , 3           , 50          , 0           , 0
-0.00124588888, -0.0136100939, -9.804054   , 0.00125629792, 0.000164413825, 0.00108681316, -0.5165835  , -0.06613186 , 0.325805575 , 0.00186597975, 0.00072623603, 3.012297    , 0.7         , 3           , 11          , 0.0356498435, 0.0356498472
-0.00328008737, -0.03296264 , -9.811833   , -0.00241901772, 0.0007027098, -0.0006246639, -0.5154375  , -0.06606445 , 0.324592143 , 0.001841785 , 0.0007332747, 3.01229072  , 0.71        , 3           , 12          , 0.0356486849, 0
-0.00380213652, -0.03078169 , -9.787874   , -0.0012763493, -0.002105306, -0.00231896038, -0.5145611  , -0.06592962 , 0.325738162 , 0.00182900485, 0.0007122643, 3.01226735  , 0.72        , 3           , 14          , 0.0002301773, 0.000571192359
0.00181728229, -0.0213214122, -9.802706   , -0.00212666974, -0.0012663349, -0.000343847, -0.516785741, -0.06586221 , 0.325738162 , 0.00180773565, 0.0006996072, 3.012264    , 0.73        , 3           , 15          , 0           , 3.347446E-05
-0.0131003726, -0.0211263448, -9.808696   , -0.00382590224, -0.000433102, -0.00119805918, -0.516785741, -0.06586221 , 0.325738162 , 0.0017694683, 0.0006952975, 3.012252    , 0.74        , 3           , 50          , 0           , 0
-0.00322564784, 0.0103033027, -9.796739   , -0.00241155829, -0.0007051133, 0.00022077866, -0.515167832, -0.0659970343, 0.3243225   , 0.00174535427, 0.000688242551, 3.012254    , 0.75        , 3           , 11          , 0.0356498435, 0.0356498472
0.00587588362, -0.0209362414, -9.797251   , -0.0012843872, -0.0004159138, -0.0017512819, -0.5144937  , -0.06619927 , 0.325603336 , 0.00173249841, 0.0006841139, 3.01223683  , 0.76        , 3           , 12          , 0.0356486849, 0
-0.0123839434, 0.00273853913, -9.796388   , 0.000116431853, 0.00184615608, -0.00202376326, -0.5165835  , -0.06613186 , 0.325535923 , 0.00173364871, 0.00070261053, 3.01221681  , 0.77        , 3           , 14          , 0.0002301773, 0.000571192359
0.0155360037, -0.00753449369, -9.790793   , -0.001566977, -0.000417824573, -0.00203513633, -0.5165835  , -0.06613186 , 0.325535923 , 0.00171796454, 0.0006984673, 3.0121963   , 0.78        , 3           , 15          , 0           , 3.347446E-05
0.0004626587, -0.021302443, -9.803621   , -0.000992291, -0.00210338831, 0.000507731165, -0.5154375  , -0.06606445 , 0.324592143 , 0.00170804514, 0.0006774248, 3.01220155  , 0.79        , 3           , 50          , 0           , 0
0.0116218608, -0.0291532837, -9.789104   , -0.0009949169, -0.001540259, 0.0007911406, -0.5149656  , -0.06619927 , 0.325603336 , 0.001698093 , 0.000661993341, 3.01220918  , 0.8         , 3           , 11          , 0.0360043049, 0.0360043123
0.00354996044, -0.024084352, -9.79231    , 0.00266761542, 0.00017395796, -0.000319285318, -0.5165835  , -0.06606445 , 0.3259404   , 0.00172476692, 0.0006637384, 3.01220632  , 0.81        , 3           , 12          , 0.03600294  , 0
0.00392719265, 0.00210962538, -9.800333   , -0.00155607786, -0.00238877651, -6.040726E-05, -0.5165835  , -0.06606445 , 0.3259404   , 0.0017092058, 0.0006398517, 3.01220536  , 0.82        , 3           , 14          , 0.000230178266, 0.000571194163
-0.005422268, -0.0118589466, -9.773795   , 0.000124542945, 0.000438334129, -4.81663046E-05, -0.515302658, -0.06613186 , 0.324457318 , 0.00171045086, 0.0006442359, 3.012205    , 0.83        , 3           , 15          , 0           , 3.347034E-05
0.004522899 , -0.0186841972, -9.791374   , 0.00238739839, -0.000109513086, 0.001091651 , -0.514763355, -0.06606445 , 0.325535923 , 0.001734332 , 0.000643121952, 3.01221585  , 0.84        , 3           , 50          , 0           , 0
0.00624768762, -0.02457798 , -9.789127   , -0.00185409083, 0.0009881   , 0.00192124525, -0.5164487  , -0.06586221 , 0.3260078   , 0.00171580364, 0.0006529698, 3.012235    , 0.85        , 3           , 11          , 0.0360043049, 0.0360043123
0.019463174 , -0.0210926868, -9.798051   , -0.00297764363, -0.000427369174, 0.000501120347, -0.5164487  , -0.06586221 , 0.3260078   , 0.00168603007, 0.0006486876, 3.01224017  , 0.86        , 3           , 12          , 0.03600294  , 0
0.008756075 , -0.006552467, -9.790841   , -0.000171245643, 0.002970506 , -0.00145826535, -0.5154375  , -0.0662666857, 0.32452473  , 0.00168430794, 0.000678417156, 3.01222539  , 0.87        , 3           , 14          , 0.000230178266, 0.000571194163
-0.000275800936, -0.009551295, -9.806742   , 0.000974285 , -0.000119067612, -0.0006101584, -0.515033   , -0.06613186 , 0.325670749 , 0.00169404678, 0.0006772367, 3.01221967  , 0.88        , 3           , 15          , 0           , 3.347034E-05
0.00140181463, -0.0212858617, -9.8117485  , 0.00408212235, -9.805249E-05, 0.00138209015, -0.5165161  , -0.06613186 , 0.325805575 , 0.00173487735, 0.000676232448, 3.012233    , 0.89        , 3           , 50          , 0           , 0
0.003300717 , -0.0109699517, -9.79994    , 0.001825169 , -0.0006764649, 0.000805616961, -0.5165161  , -0.06613186 , 0.325805575 , 0.00175312988, 0.0006694469, 3.0122416   , 0.9         , 3           , 11          , 0.03640755  , 0.03640756
-0.032290455, -0.0005853763, -9.811921   , 0.0009760047, -0.000400632, -4.55121553E-05, -0.5155049  , -0.0662666857, 0.32452473  , 0.00176288967, 0.00066544133, 3.01224065  , 0.91        , 3           , 12          , 0.0364059769, 0
-0.0122708492, -0.0256620944, -9.80464    , 0.0006728311, 0.0038209355, 0.000242217153, -0.514763355, -0.06619927 , 0.325535923 , 0.00176961988, 0.0007036464, 3.01224351  , 0.92        , 3           , 14          , 0.000230178863, 0.000571195036
0.00316762179, -0.0195584558, -9.795006   , 0.000139550117, -0.002658884, -0.0006180094, -0.5164487  , -0.06606445 , 0.325805575 , 0.00177101092, 0.000677068543, 3.01223683  , 0.93        , 3           , 15          , 0           , 3.346519E-05
0.0123399561, -0.01064326 , -9.794446   , 0.002961357 , -0.00207665283, -3.88972221E-05, -0.5164487  , -0.06606445 , 0.325805575 , 0.00180062419, 0.0006563028, 3.01223683  , 0.94        , 3           , 50          , 0           , 0
0.0298684612, -0.0230074581, -9.801596   , 0.000697344833, -0.000965667365, 0.00164752791, -0.5155723  , -0.06606445 , 0.3243899   , 0.00180760841, 0.0006466165, 3.012253    , 0.95        , 3           , 11          , 0.03640755  , 0.03640756
-0.003796963, -0.03390196 , -9.799186   , 0.0009624798, 0.00213344931, -0.00173683185, -0.5148982  , -0.06619927 , 0.325603336 , 0.00181722187, 0.0006679824, 3.01223588  , 0.96        , 3           , 12          , 0.0364059769, 0
-0.005273395, -0.03978423 , -9.789278   , 0.00152626587, 0.00241883565, -0.00116868888, -0.5164487  , -0.06619927 , 0.325873    , 0.00183247682, 0.000692191941, 3.01222444  , 0.97        , 3           , 14          , 0.000230178863, 0.000571195036
0.0178433359, -0.0369108841, -9.785022   , 0.000118476913, 0.00156459142, -0.000894037948, -0.5164487  , -0.06619927 , 0.325873    , 0.00183365529, 0.0007078542, 3.01221538  , 0.98        , 3           , 15          , 0           , 3.346519E-05
0.002022135 , -0.00642586267, -9.804903   , 0.000408036838, 0.000158676528, -0.000612353149, -0.5155723  , -0.06619927 , 0.324457318 , 0.00183773134, 0.000709452142, 3.01220918  , 0.99        , 3           , 50          , 0           , 0
0.00238375459, -0.0163247567, -9.814433   , -0.00156197918, -0.00126251974, -0.0006237383, -0.5148982  , -0.06619927 , 0.325738162 , 0.0018221197, 0.000696828938, 3.012203    , 1           , 3           , 11          , 0.0368575938, 0.03685761
0.0134179723, -0.03186482 , -9.794074   , 0.00154315878, -0.000959945843, -0.0008913557, -0.5165161  , -0.06613186 , 0.325805575 , 0.00183754484, 0.0006872458, 3.012194    , 1.01        , 3           , 12          , 0.0368557945, 0
0.005014309 , -0.01687282 , -9.794979   , 0.00209644553, 0.00157796463, 0.000810408441, -0.5165161  , -0.06613186 , 0.325805575 , 0.001858515 , 0.0007030104, 3.0122025   , 1.02        , 3           , 14          , 0.00023017716, 0.0005711963
-0.00077412 , -0.0131536787, -9.807213   , -0.000721920631, 0.000432605972, 0.00136057823, -0.5156397  , -0.06613186 , 0.324457318 , 0.00185130537, 0.000707311265, 3.01221585  , 1.03        , 3           , 15          , 0           , 3.34621363E-05
0.009976944 , -0.0160531662, -9.787706   , -0.00015132784, -0.0006898336, 0.00164401392, -0.514695942, -0.06606445 , 0.325603336 , 0.00184980372, 0.0007003826, 3.012232    , 1.04        , 3           , 50          , 0           , 0
0.0123894205, -0.00167616934, -9.777686   , 0.00155677251, -0.00377559825, -0.00146077 , -0.5166509  , -0.0659970343, 0.325805575 , 0.00186536135, 0.000662653765, 3.01221776  , 1.05        , 3           , 11          , 0.0368575938, 0.03685761
0.0104781426, -0.0186973587, -9.808053   , 0.0018282847, -0.00123959477, 0.00136982708, -0.5166509  , -0.0659970343, 0.325805575 , 0.00188365323, 0.0006502323, 3.012231    , 1.06        , 3           , 12          , 0.0368557945, 0
-0.004950599, -0.0140807061, -9.785553   , -0.00156255742, -0.0009809509, 0.000789382961, -0.515707135, -0.06640151 , 0.324457318 , 0.00186803273, 0.000640407961, 3.01223874  , 1.07        , 3           , 14          , 0.00023017716, 0.0005711963
-0.0140877105, -0.0207356159, -9.787458   , -0.00156952743, 0.0004268745, 0.000791552535, -0.514763355, -0.06613186 , 0.325738162 , 0.00185234263, 0.000644662 , 3.01224732  , 1.08        , 3           , 15          , 0           , 3.34621363E-05
-0.003289872, -0.02850706 , -9.795093   , -0.000152143592, -0.0006898375, 0.000231326485, -0.5164487  , -0.06592962 , 0.325805575 , 0.00185082282, 0.000637759338, 3.01224923  , 1.09        , 3           , 50          , 0           , 0
-0.00116516743, -0.00015417533, -9.780494   , 0.00126089551, -0.0009618576, -0.0006101269, -0.5164487  , -0.06592962 , 0.325805575 , 0.001863431 , 0.0006281345, 3.01224351  , 1.1         , 3           , 11          , 0.0373523533, 0.0373523645
0.0112465555, -0.0277461354, -9.803566   , -0.000155835689, 0.000154857466, 0.00108024885, -0.515707135, -0.0659970343, 0.3243899   , 0.0018618796, 0.00062966306, 3.012254    , 1.11        , 3           , 12          , 0.03735032  , 0
0.01991193  , -0.0291355755, -9.822941   , -0.0004203036, -0.003507399, 0.000790753344, -0.514830768, -0.06606445 , 0.325535923 , 0.0018576812, 0.000594574434, 3.01226163  , 1.12        , 3           , 14          , 0.0002301767, 0.0005711989
-0.016753424, -0.012181743, -9.772528   , -0.001001307, -0.000414007227, -0.0006197945, -0.5165161  , -0.06606445 , 0.325873    , 0.00184766448, 0.0005904458, 3.012256    , 1.13        , 3           , 15          , 0           , 3.3454E-05
-0.00109278969, -0.0281414483, -9.777446   , 0.0015335643, 0.00101100781, -0.000605772366, -0.5165161  , -0.06606445 , 0.325873    , 0.00186299649, 0.0006005671, 3.01224971  , 1.14        , 3           , 50          , 0           , 0
0.0183152035, -0.0337762758, -9.779581   , 0.00180746394, 0.002702308 , -0.0008843894, -0.5155723  , -0.06613186 , 0.324255079 , 0.00188106566, 0.0006276067, 3.01224065  , 1.15        , 3           , 11          , 0.0373523533, 0.0373523645
0.0167317316, -0.0157165248, -9.777258   , -0.00326941162, 0.00126010191, -0.0011928014, -0.514695942, -0.06606445 , 0.325670749 , 0.0018483639, 0.000640229729, 3.0122292   , 1.16        , 3           , 12          , 0.03735032  , 0
0.0163809136, -0.0165212937, -9.804835   , 0.00182263483, -0.000394909119, -0.00117170019, -0.516246438, -0.0657947958, 0.325873    , 0.00186658278, 0.0006363024, 3.01221728  , 1.17        , 3           , 14          , 0.0002301767, 0.0005711989
0.01324641  , -0.0119922236, -9.7989645  , 0.000410990266, -0.000404456572, -0.000330672337, -0.516246438, -0.0657947958, 0.325873    , 0.00187069061, 0.000632264 , 3.012214    , 1.18        , 3           , 15          , 0           , 3.3454E-05
0.0182194877, -0.0147349192, -9.805717   , 0.001250233 , 0.00129066524, 0.000240956826, -0.515774548, -0.06592962 , 0.3243225   , 0.00188319455, 0.0006451662, 3.01221633  , 1.19        , 3           , 50          , 0           , 0
0.015003344 , -0.0147355124, -9.794443   , -0.00016009208, 0.000717982766, -0.00146171264, -0.5146285  , -0.06613186 , 0.3254011   , 0.00188158429, 0.0006523871, 3.01220155  , 1.2         , 3           , 11          , 0.03788969  , 0.0378896967
0.0104337214, -0.0258749556, -9.820287   , -0.0007311  , 0.00212199241, -4.94894375E-05, -0.5164487  , -0.06613186 , 0.325738162 , 0.00187427271, 0.0006736079, 3.01220155  , 1.21        , 3           , 12          , 0.0378874056, 0
-0.0108173611, -0.018013   , -9.803242   , 0.000109047316, 0.0035355466, -0.00032590644, -0.5164487  , -0.06613186 , 0.325738162 , 0.001875361 , 0.0007089694, 3.01219821  , 1.22        , 3           , 14          , 0.000230176724, 0.0005711968
-0.0077084545, -0.01676026 , -9.784229   , 0.004070645 , 0.00215446437, 0.0008205107, -0.5156397  , -0.06613186 , 0.3243899   , 0.0019160735, 0.0007304985, 3.01220632  , 1.23        , 3           , 15          , 0           , 3.34462748E-05
0.0106474794, -0.031430155, -9.77963    , 0.000414593931, -0.0009675807, 0.0010811548, -0.514830768, -0.0663341  , 0.3254685   , 0.00192022708, 0.000720802 , 3.01221681  , 1.24        , 3           , 50          , 0           , 0
0.004639204 , -0.0101092989, -9.792244   , -0.00127364963, -0.002386869, -5.9066253E-05, -0.516381264, -0.0662666857, 0.325805575 , 0.00190749  , 0.0006969345, 3.01221681  , 1.25        , 3           , 11          , 0.03788969  , 0.0378896967
-0.008584044, -0.0216351878, -9.807307   , 0.00182623847, -0.000958033255, 0.00024012693, -0.516381264, -0.0662666857, 0.325805575 , 0.00192575424, 0.0006873496, 3.01221871  , 1.26        , 3           , 12          , 0.0378874056, 0
-0.003511684, -0.0135850292, -9.803619   , 0.000148983963, -0.004629843, -0.001186103, -0.515707135, -0.06606445 , 0.3243225   , 0.001927236 , 0.000641074032, 3.01220727  , 1.27        , 3           , 14          , 0.000230176724, 0.0005711968
0.007282164 , -0.0115399985, -9.778669   , 0.00097149855, 0.000444059842, -0.000609266455, -0.5149656  , -0.0657947958, 0.3254685   , 0.00193694676, 0.0006455263, 3.01220059  , 1.28        , 3           , 15          , 0           , 3.34462748E-05
-0.009979715, -0.0216494743, -9.798279   , -0.00381474965, -0.002685627, -0.00120150251, -0.516313851, -0.06592962 , 0.3259404   , 0.00189879141, 0.0006186931, 3.01218915  , 1.29        , 3           , 50          , 0           , 0
0.0133311944, 0.00191333611, -9.774951   , -0.000427437131, -0.00209957571, 0.0005104026, -0.516313851, -0.06592962 , 0.3259404   , 0.00189451827, 0.00059766887, 3.012194    , 1.3         , 3           , 11          , 0.03846745  , 0.0384674557
0.0269138981, -0.004495729, -9.794762   , 0.000689397741, 0.0004421484, -4.549895E-05, -0.5154375  , -0.06619927 , 0.3243225   , 0.0019014118, 0.000602091255, 3.01219344  , 1.31        , 3           , 12          , 0.0384649038, 0
-0.0007020384, -0.006400014, -9.803116   , 0.00153421669, 0.00101101  , 0.000524394447, -0.515033   , -0.06606445 , 0.325535923 , 0.0019167572, 0.000612191332, 3.01219869  , 1.32        , 3           , 14          , 0.000230177058, 0.0005711998
-0.0006184345, 0.0008093332, -9.800373   , 0.0006980881, -0.00124724046, 0.000516972155, -0.5165161  , -0.06606445 , 0.3259404   , 0.00192374107, 0.000599708932, 3.012204    , 1.33        , 3           , 15          , 0           , 3.343685E-05
0.02837056  , 0.00494133728, -9.788384   , 0.002963405 , -0.00235821959, 0.001090847 , -0.5165161  , -0.06606445 , 0.3259404   , 0.00195338158, 0.0005761056, 3.012215    , 1.34        , 3           , 50          , 0           , 0
0.007312673 , -0.0106225768, -9.783185   , -0.0009926171, -0.00210339716, -5.73059624E-05, -0.515774548, -0.06619927 , 0.324457318 , 0.00194345484, 0.000555072736, 3.012214    , 1.35        , 3           , 11          , 0.03846745  , 0.0384674557
-8.043926E-05, -0.024941111, -9.793244   , -0.000718228, -0.000412095047, 0.0005116893, -0.514695942, -0.06606445 , 0.325670749 , 0.0019362754, 0.000550941855, 3.01221967  , 1.36        , 3           , 12          , 0.0384649038, 0
0.00341558736, 0.0007282337, -9.790399   , -0.00156583462, -0.000417826523, -5.73362231E-05, -0.5164487  , -0.0659970343, 0.3259404   , 0.0019206166, 0.0005467647, 3.01221871  , 1.37        , 3           , 14          , 0.000230177058, 0.0005711998
0.00544234738, 0.0124867931, -9.80525    , -0.000722158, 0.000151029555, -0.001465205, -0.5164487  , -0.0659970343, 0.3259404   , 0.0019133871, 0.000548303069, 3.01220441  , 1.38        , 3           , 15          , 0           , 3.343685E-05
0.0203266125, -0.02515461 , -9.800773   , -0.00298649585, 0.00126201333, -0.000343854772, -0.5155049  , -0.06613186 , 0.3243899   , 0.00188352028, 0.0005609297, 3.01220059  , 1.39        , 3           , 50          , 0           , 0
-0.0151828183, -0.00756219774, -9.809559   , -0.0012832511, -0.0004159139, 0.000226523072, -0.514695942, -0.06606445 , 0.325535923 , 0.00187065126, 0.0005567776, 3.012203    , 1.4         , 3           , 11          , 0.0390834659, 0.0390834734
-0.0214510057, -0.027442025, -9.780311   , -0.00325868186, -0.000710847962, 0.0004994081, -0.5164487  , -0.06592962 , 0.3260078   , 0.0018380672, 0.000549659948, 3.01220822  , 1.41        , 3           , 12          , 0.0390806459, 0
0.0205474757, -0.00622893451, -9.793913   , -0.000160098745, 0.00071798166, -0.00146169809, -0.5164487  , -0.06592962 , 0.3260078   , 0.0018364581, 0.0005568666, 3.01219344  , 1.42        , 3           , 14          , 0.0002301834, 0.0005711979
-0.00395003147, -0.0015165545, -9.768317   , 0.000412377558, -0.0006860207, -0.000331083982, -0.5155049  , -0.0662666857, 0.324726969 , 0.00184058  , 0.000550012453, 3.01219     , 1.43        , 3           , 15          , 0           , 3.34317156E-05
0.00502766669, -0.008827685, -9.7723465  , -0.00127251423, -0.00238686474, 0.00191871042, -0.514695942, -0.06613186 , 0.325670749 , 0.00182786526, 0.000526108663, 3.01220918  , 1.44        , 3           , 50          , 0           , 0
0.0061999904, 0.00655374024, -9.788094   , 0.00378846377, 0.00187098258, -0.00115898775, -0.5165835  , -0.06586221 , 0.325873    , 0.00186574389, 0.0005448399, 3.01219773  , 1.45        , 3           , 11          , 0.0390834659, 0.0390834734
-0.0298475325, -0.012890582, -9.784383   , 0.003234837 , -0.000103786129, 0.001378178 , -0.5165835  , -0.06586221 , 0.325873    , 0.0018980999, 0.0005437761, 3.012211    , 1.46        , 3           , 12          , 0.0390806459, 0
0.004432356 , -0.0200966112, -9.773755   , 0.00012683637, -0.000124802027, -0.0008966081, -0.515707135, -0.0659970343, 0.3243899   , 0.00189936324, 0.0005425451, 3.0122025   , 1.47        , 3           , 14          , 0.0002301834, 0.0005711979
-0.000376132317, -0.006508136, -9.772379   , 0.001820819 , 0.000168226659, 0.0005244147, -0.514830768, -0.06586221 , 0.325535923 , 0.00191757444, 0.000544217357, 3.01220775  , 1.48        , 3           , 15          , 0           , 3.34317156E-05
0.01378244  , 0.002353129 , -9.773138   , -0.000154448382, -0.000126706524, 0.00107983721, -0.516313851, -0.0662666857, 0.3259404   , 0.00191603578, 0.000542929571, 3.01221871  , 1.49        , 3           , 50          , 0           , 0
0.0194616336, -0.0206475854, -9.796241   , -0.004113593, 0.0006912418, -0.000632518029, -0.516313851, -0.0662666857, 0.3259404   , 0.0018748506, 0.0005498389, 3.012212    , 1.5         , 3           , 11          , 0.0397356078, 0.0397356153
0.009620825 , -0.008827919, -9.788131   , -0.0007119248, -0.00181992445, -0.000620620267, -0.5156397  , -0.06613186 , 0.32452473  , 0.00186772808, 0.0005316513, 3.01220584  , 1.51        , 3           , 12          , 0.0397325046, 0
0.00667742733, -0.0254946742, -9.786416   , 0.00351611362, -0.000101884245, -0.000598262646, -0.515033   , -0.0659970343, 0.325670749 , 0.00190288608, 0.0005306437, 3.01219964  , 1.52        , 3           , 14          , 0.000230191334, 0.0005712005
0.008386336 , 0.00244714972, -9.782218   , 0.000137239054, -0.00209575729, 0.000230508827, -0.5164487  , -0.0659970343, 0.326075226 , 0.00190425979, 0.000509681762, 3.0122025   , 1.53        , 3           , 15          , 0           , 3.34270262E-05
-0.0003977055, -0.01813073 , -9.804519   , 0.00126538915, -0.001806553, -4.632673E-05, -0.5164487  , -0.0659970343, 0.326075226 , 0.00191691343, 0.000491617131, 3.01220155  , 1.54        , 3           , 50          , 0           , 0
0.012313637 , -0.0160207842, -9.805316   , 0.002112507 , -0.001800824, -0.000324913417, -0.5159094  , -0.06619927 , 0.32452473  , 0.00193803676, 0.0004736152, 3.01219869  , 1.55        , 3           , 11          , 0.0397356078, 0.0397356153
0.0119018983, -0.01598221 , -9.815263   , 0.000960331934, 0.002696577 , -0.0006057757, -0.514763355, -0.06592962 , 0.325670749 , 0.00194763718, 0.000500592636, 3.01219249  , 1.56        , 3           , 12          , 0.0397325046, 0
0.0178634655, -0.004831492, -9.797544   , 0.00123980781, 0.00326161622, -0.000886128459, -0.516313851, -0.0659970343, 0.3260078   , 0.00196003052, 0.000533226063, 3.01218343  , 1.57        , 3           , 14          , 0.000230191334, 0.0005712005
-0.00202389248, 0.00525061227, -9.774604   , -0.0007089736, -0.00238305377, -0.000338950631, -0.516313851, -0.0659970343, 0.3260078   , 0.00195293932, 0.0005094022, 3.01218057  , 1.58        , 3           , 15          , 0           , 3.34270262E-05
0.000331200659, -0.0276578721, -9.791897   , -0.000148628358, -0.00153454009, -0.00090009 , -0.515841961, -0.0663341  , 0.324457318 , 0.00195144862, 0.0004940744, 3.012171    , 1.59        , 3           , 50          , 0           , 0
0.00372345466, -0.01635582 , -9.809903   , 0.0004038369, 0.00100336713, -0.0006110104, -0.514695942, -0.06592962 , 0.3254685   , 0.00195545261, 0.0005041246, 3.01216531  , 1.6         , 3           , 11          , 0.0404217765, 0.0404217839
0.000478340284, -0.0177189372, -9.795922   , -0.00100625062, 0.000712255365, 0.000512120663, -0.516246438, -0.0662666857, 0.3260078   , 0.00194539258, 0.0005112372, 3.01217     , 1.61        , 3           , 12          , 0.04041837  , 0
-0.020930361, 0.00868787  , -9.791456   , -0.00214088126, 0.00183087913, 0.00163873867, -0.516246438, -0.0662666857, 0.3260078   , 0.00192399241, 0.0005295143, 3.01218629  , 1.62        , 3           , 14          , 0.000230196849, 0.0005711997
0.009073469 , -0.01827259 , -9.795407   , 0.00124791428, 0.00185379712, 0.00108946674, -0.5159094  , -0.0662666857, 0.3243899   , 0.00193647738, 0.0005480312, 3.01219773  , 1.63        , 3           , 15          , 0           , 3.342432E-05
0.0400007442, -0.0412120558, -9.790746   , -0.00159324519, 0.00521347765, 0.000798967259, -0.514830768, -0.06606445 , 0.325603336 , 0.00192054955, 0.0006001505, 3.01220536  , 1.64        , 3           , 50          , 0           , 0
-0.004158811, -0.0217714943, -9.782415   , 0.0009800057, -0.00124533265, -0.0003293106, -0.5165161  , -0.06586221 , 0.3259404   , 0.00193034788, 0.000587703544, 3.0122025   , 1.65        , 3           , 11          , 0.0404217765, 0.0404217839
-0.00770875346, -0.0247948058, -9.810025   , 0.005772156 , 0.0007580955, 0.0008262646, -0.5165161  , -0.06586221 , 0.3259404   , 0.00198807428, 0.0005952683, 3.01221061  , 1.66        , 3           , 12          , 0.04041837  , 0
0.0231413   , -0.0161801055, -9.795743   , -0.001858692, 0.001551216 , -0.001185753, -0.515841961, -0.06613186 , 0.324592143 , 0.00196948019, 0.000610803952, 3.01219869  , 1.67        , 3           , 14          , 0.000230196849, 0.0005711997
-0.000187809579, -0.001445693, -9.802188   , -0.004660167, -0.00297292252, -0.000358252873, -0.514763355, -0.0659970343, 0.325738162 , 0.00192287611, 0.0005810817, 3.01219487  , 1.68        , 3           , 15          , 0           , 3.342432E-05
-0.00292033236, -8.756202E-05, -9.794067   , 0.00239968835, -0.002925177, -0.00173801708, -0.516381264, -0.06586221 , 0.326210052 , 0.0019468629, 0.0005518636, 3.01217771  , 1.69        , 3           , 50          , 0           , 0
-0.00487246 , -0.0117856469, -9.797294   , 0.0009865556, -0.00237158919, 0.00136419188, -0.516381264, -0.06586221 , 0.326210052 , 0.00195670919, 0.000528116943, 3.012191    , 1.7         , 3           , 11          , 0.0411399268, 0.04113993
0.007015018 , 0.005130692 , -9.770466   , -0.001290729, 0.0009919065, -0.000618898659, -0.515841961, -0.0662666857, 0.324659556 , 0.0019437985, 0.0005380481, 3.01218534  , 1.71        , 3           , 12          , 0.041136194 , 0
0.0221825056, -0.0175516568, -9.787168   , -0.00241109333, -0.000705119, 0.0010684547, -0.514830768, -0.0662666857, 0.325738162 , 0.00191969331, 0.0005309762, 3.01219583  , 1.72        , 3           , 14          , 0.000230201767, 0.000571200449
0.0108232945, -0.0281632412, -9.812158   , -0.0009977284, -0.000977135, 0.000792067964, -0.516313851, -0.06586221 , 0.326075226 , 0.00190972  , 0.000521189766, 3.01220345  , 1.73        , 3           , 15          , 0           , 3.341088E-05
-0.0211131237, -0.0142240832, -9.820479   , 0.00210290146, 0.0001701325, -3.93222435E-05, -0.516313851, -0.06586221 , 0.326075226 , 0.001930749 , 0.0005228919, 3.01220345  , 1.74        , 3           , 50          , 0           , 0
-0.002551251, -0.009980406, -9.805405   , -0.0007190684, -0.000412099616, -0.000900972052, -0.515841961, -0.06619927 , 0.3243899   , 0.00192355353, 0.0005187882, 3.0121944   , 1.75        , 3           , 11          , 0.0411399268, 0.04113993
0.0102852723, 0.005175126 , -9.794848   , -0.00184714433, -0.0004197317, 0.001919135 , -0.514695942, -0.0663341  , 0.3254685   , 0.001905092 , 0.000514554151, 3.01221347  , 1.76        , 3           , 12          , 0.041136194 , 0
0.00257482938, -0.0299326442, -9.794148   , 0.00125094934, 0.00100909546, -0.0008895838, -0.516381264, -0.06606445 , 0.326075226 , 0.00191759691, 0.0005246621, 3.01220441  , 1.77        , 3           , 14          , 0.000230201767, 0.000571200449
-0.0167473666, -0.0166403428, -9.788366   , -0.000723739853, 0.0004325932, -0.00174728269, -0.516381264, -0.06606445 , 0.326075226 , 0.00191035017, 0.0005290215, 3.01218724  , 1.78        , 3           , 15          , 0           , 3.341088E-05
-0.00666121161, -0.0117462389, -9.80273151 , -0.0009983067, -0.000695566065, 0.00220518932, -0.5156397  , -0.0663341  , 0.324726969 , 0.00190037873, 0.0005220238, 3.01220918  , 1.79        , 3           , 50          , 0           , 0
-0.0115841376, -0.006731145, -9.80094051 , -0.0007175154, -0.000693669, -0.000618865655, -0.514763355, -0.06592962 , 0.325670749 , 0.001893178 , 0.000515071268, 3.01220345  , 1.8         , 3           , 11          , 0.0418880731, 0.04188808
-0.0146837458, -0.000388408545, -9.797774   , 0.000694944931, -0.0006841176, -4.72060055E-05, -0.516381264, -0.06592962 , 0.3264123   , 0.00190012692, 0.000508231 , 3.0122025   , 1.81        , 3           , 12          , 0.0418839976, 0
0.0192293823, -0.002163211, -9.790742   , 0.00520524662, 0.00103583164, -0.000306068949, -0.516381264, -0.06592962 , 0.3264123   , 0.00195217784, 0.0005185952, 3.01219964  , 1.82        , 3           , 14          , 0.000230205929, 0.0005712056
0.01629325  , 0.0185952   , -9.781187   , 0.000399645767, 0.00184805668, -0.000609692535, -0.515841961, -0.06606445 , 0.324592143 , 0.001956171 , 0.0005370877, 3.01219344  , 1.83        , 3           , 15          , 0           , 3.34081669E-05
0.00154725846, 0.001595859 , -9.773687   , 0.00124667434, 0.00213535735, 0.00137245446, -0.514695942, -0.06606445 , 0.325603336 , 0.00196864526, 0.000558414264, 3.01220727  , 1.84        , 3           , 50          , 0           , 0
0.00114773028, -0.00460458174, -9.806709   , -0.00269868528, 0.000137656345, -0.000626782363, -0.516179   , -0.0659970343, 0.3260078   , 0.00194165483, 0.000559803157, 3.012201    , 1.85        , 3           , 11          , 0.0418880731, 0.04188808
0.0147310551, -0.00253247935, -9.799366   , -0.00240617385, -0.00183138764, -6.3428015E-05, -0.516179   , -0.0659970343, 0.3260078   , 0.00191759283, 0.000541490444, 3.01220059  , 1.86        , 3           , 12          , 0.0418839976, 0
0.017499784 , -0.000290473, -9.804759   , -0.000457140733, 0.00353171164, -0.00258880225, -0.515841961, -0.0662666857, 0.324726969 , 0.00191300677, 0.0005768571, 3.01217484  , 1.87        , 3           , 14          , 0.000230205929, 0.0005712056
-0.00290632062, 0.008850801 , -9.768719   , -0.00212850748, -0.0007032134, 0.00135231193, -0.5149656  , -0.06619927 , 0.3254685   , 0.00189172954, 0.0005697993, 3.0121882   , 1.88        , 3           , 15          , 0           , 3.34081669E-05
-0.0170499645, 1.63540244E-06, -9.771576   , 0.0009767934, -0.000400638644, 0.00136723206, -0.516179   , -0.0659970343, 0.326210052 , 0.001901505 , 0.000565766939, 3.01220155  , 1.89        , 3           , 50          , 0           , 0
0.009587794 , -0.0106400894, -9.78588    , -0.00127918122, -0.00154219277, -0.00231801462, -0.516179   , -0.0659970343, 0.326210052 , 0.00188861915, 0.0005503685, 3.01217866  , 1.9         , 3           , 11          , 0.0426643081, 0.04266432
0.0297716688, -0.0253176447, -9.785334   , 0.002391048 , -0.00095422595, 0.000242810653, -0.515841961, -0.0659970343, 0.324794382 , 0.001912531 , 0.000540821638, 3.012181    , 1.91        , 3           , 12          , 0.04265987  , 0
0.0160534065, -0.000792199746, -9.784885   , 0.00380564341, -0.00150780776, -0.000316547259, -0.5146285  , -0.0662666857, 0.325670749 , 0.00195058563, 0.0005257497, 3.01217771  , 1.92        , 3           , 14          , 0.000230221151, 0.0005712094
0.00795879  , 0.00381196663, -9.784025   , 0.00183332723, -0.0023658704, 0.0005205446, -0.516313851, -0.06586221 , 0.326344877 , 0.0019689214, 0.0005020808, 3.012183    , 1.93        , 3           , 15          , 0           , 3.33964235E-05
-0.002516809, -0.00370359421, -9.793627   , 0.0009830956, -0.00180847093, 0.0002349242, -0.516313851, -0.06586221 , 0.326344877 , 0.0019787536, 0.0004839915, 3.01218534  , 1.94        , 3           , 50          , 0           , 0
-0.0009564171, -0.0150867905, -9.768804   , 0.00183046469, -0.00208431249, -0.0020218587, -0.5159094  , -0.0662666857, 0.324592143 , 0.0019970485, 0.0004631886, 3.01216531  , 1.95        , 3           , 11          , 0.0426643081, 0.04266432
0.004947046 , -0.01960542 , -9.787308   , 0.00068598747, 0.001286838 , 0.00136853056, -0.5144937  , -0.06592962 , 0.325670749 , 0.00200391468, 0.000476029556, 3.01217866  , 1.96        , 3           , 12          , 0.04265987  , 0
0.0103116557, -0.021956712, -9.777785   , -0.0009982373, -0.0009771464, -5.55297956E-05, -0.5160442  , -0.06606445 , 0.326277465 , 0.0019939323, 0.000466259226, 3.01217818  , 1.97        , 3           , 14          , 0.000230221151, 0.0005712094
-0.0191259626, -0.0229555778, -9.780726   , 0.00296647567, -0.00292135752, 0.00165509444, -0.5160442  , -0.06606445 , 0.326277465 , 0.0020236047, 0.000437012466, 3.01219487  , 1.98        , 3           , 15          , 0           , 3.33964235E-05
9.550806E-05, -0.00114197284, -9.759697   , -0.00240233354, -0.00267608813, -0.000629793038, -0.5160442  , -0.06592962 , 0.324659556 , 0.00199957844, 0.000410264358, 3.0121882   , 1.99        , 3           , 50          , 0           , 0
0.00378420879, -0.004701486, -9.787255   , 0.000400437973, 0.0018480547, 0.0008030193, -0.514763355, -0.06586221 , 0.325670749 , 0.00200354215, 0.000428718078, 3.0121963   , 2           , 3           , 11          , 0.0434668176, 0.043466825
-0.00938594248, -0.009935442, -9.795061   , -0.00128682679, 0.000428770931, 0.00135802315, -0.5164487  , -0.06592962 , 0.326210052 , 0.00199068  , 0.0004329786, 3.01221013  , 2.01        , 3           , 12          , 0.04346199  , 0
0.0126057267, 0.00340895914, -9.814273   , -0.0004353642, -0.0004101944, 0.00136067206, -0.5164487  , -0.06592962 , 0.326210052 , 0.00198633177, 0.00042884954, 3.01222348  , 2.02        , 3           , 14          , 0.000230229518, 0.000571211451
0.0169803835, -0.00212453958, -9.794375   , -0.00100398483, 0.000149111089, -0.000336318684, -0.516179   , -0.06640151 , 0.324794382 , 0.00197629072, 0.0004303474, 3.01222014  , 2.03        , 3           , 15          , 0           , 3.338354E-05
-0.0168210864, -0.0256270766, -9.799252   , -0.00185667817, 0.00126964238, -5.599625E-05, -0.514695942, -0.06613186 , 0.3254685   , 0.00195772364, 0.000443044817, 3.01221967  , 2.04        , 3           , 50          , 0           , 0
-0.009311995, -0.00318026729, -9.791416   , -0.000423470745, -0.00294428319, 0.000226616656, -0.516313851, -0.06619927 , 0.326210052 , 0.00195348961, 0.00041359762, 3.01222157  , 2.05        , 3           , 11          , 0.0434668176, 0.043466825
-0.006638624, -0.00637173 , -9.790957   , 0.000701075653, -0.002091953, -0.00146203849, -0.516313851, -0.06619927 , 0.326210052 , 0.00196049432, 0.000392706716, 3.01220727  , 2.06        , 3           , 12          , 0.04346199  , 0
0.0226397775, -0.0139825409, -9.776753   , 0.0008356009, -0.000542385154, 0.000236231426, -0.515774548, -0.0662666857, 0.324659556 , 0.00196885155, 0.0003872782, 3.01220965  , 2.07        , 3           , 14          , 0.000230229518, 0.000571211451
0.0009647747, -0.00743091945, -9.771017   , 0.0004076971, 0.000299444684, 9.428908E-05, -0.514830768, -0.0659970343, 0.325603336 , 0.00197292888, 0.0003902709, 3.01221061  , 2.08        , 3           , 15          , 0           , 3.338354E-05
-0.004181628, -0.0249144342, -9.786948   , -0.000155147151, -0.000126723331, -5.02644762E-05, -0.516179   , -0.06613186 , 0.326075226 , 0.001971377 , 0.000389004563, 3.01221013  , 2.09        , 3           , 50          , 0           , 0
-0.0151387593, -0.03601877 , -9.801089   , -1.25472525E-05, -0.000407336047, -5.00309652E-05, -0.516179   , -0.06613186 , 0.326075226 , 0.00197121222, 0.00038491888, 3.01220965  , 2.1         , 3           , 11          , 0.04429385  , 0.0442938544
-0.014256686, -0.0324776471, -9.783893   , 0.0006933567, -0.000402561767, -0.000329275965, -0.5159768  , -0.0659970343, 0.324726969 , 0.00197814428, 0.000380899757, 3.01220632  , 2.11        , 3           , 12          , 0.04428861  , 0
0.0237728842, -0.0338204168, -9.785416   , -4.96172561E-06, -0.00195594435, -0.0001936862, -0.514695942, -0.0662666857, 0.325535923 , 0.00197809376, 0.0003613442, 3.01220441  , 2.12        , 3           , 14          , 0.000230237 , 0.000571214
0.0140226148, -0.0205883328, -9.794927   , -0.00141701428, -0.00196549366, -5.90022537E-05, -0.516381264, -0.06619927 , 0.326142639 , 0.00196392322, 0.000341690436, 3.01220345  , 2.13        , 3           , 15          , 0           , 3.337459E-05
-0.00709304726, -0.008599497, -9.79775    , -0.0007132014, -0.0015383719, -0.000337596517, -0.516381264, -0.06619927 , 0.326142639 , 0.00195679  , 0.0003263133, 3.01220059  , 2.14        , 3           , 50          , 0           , 0
0.00172850851, -0.0254104976, -9.794136   , 0.000561819761, -0.00237447233, -0.000474240747, -0.5159768  , -0.0662666857, 0.324726969 , 0.00196240679, 0.000302578 , 3.01219583  , 2.15        , 3           , 11          , 0.04429385  , 0.0442938544
0.01506688  , -0.0120059261, -9.80121    , 0.0009830799, -0.00180847535, 0.000234946128, -0.514763355, -0.06613186 , 0.325603336 , 0.001972238 , 0.0002844886, 3.01219773  , 2.16        , 3           , 12          , 0.04428861  , 0
0.0283983871, -0.02531379 , -9.781729   , -0.000422944344, -0.00308506866, -5.61287161E-05, -0.516381264, -0.0662666857, 0.326277465 , 0.0019680087, 0.000253639068, 3.01219726  , 2.17        , 3           , 14          , 0.000230237 , 0.000571214
0.007111647 , -0.0228369273, -9.773293   , -0.002680186, -0.003522696, 7.395368E-05, -0.516381264, -0.0662666857, 0.326277465 , 0.00194120687, 0.0002184108, 3.01219773  , 2.18        , 3           , 15          , 0           , 3.337459E-05
0.0141529627, -0.0106630055, -9.794884   , -0.002126974, -0.00126635784, -0.0007675535, -0.5159094  , -0.06586221 , 0.324726969 , 0.00191993546, 0.000205761957, 3.01219     , 2.19        , 3           , 50          , 0           , 0
-0.00540436339, -0.0154152373, -9.78963    , -0.00128916278, 0.0005695496, -0.00146710954, -0.5144937  , -0.0662666857, 0.3254011   , 0.00190703978, 0.000211519073, 3.0121758   , 2.2         , 3           , 11          , 0.04514375  , 0.0451437533
0.008243253 , -0.00704214629, -9.777739   , -0.00157003256, 0.000286075461, -0.00118632312, -0.516179   , -0.06606445 , 0.326277465 , 0.001891337 , 0.000214402375, 3.0121634   , 2.21        , 3           , 12          , 0.04513807  , 0
-0.000500423834, -0.0208920632, -9.788259   , -0.00156761508, -0.0001362708, -0.000621899148, -0.516179   , -0.06606445 , 0.326277465 , 0.00187565957, 0.000213051419, 3.01215768  , 2.22        , 3           , 14          , 0.000230237216, 0.000571207551
-0.01111842 , -0.00181613676, -9.78826    , 0.000117061791, 0.00198692968, 0.0003781382, -0.515774548, -0.06640151 , 0.3248618   , 0.001876831 , 0.0002329136, 3.01216149  , 2.23        , 3           , 15          , 0           , 3.3358443E-05
0.0105223358, -0.009288192, -9.788578   , -0.000311249954, 0.00282875774, -0.0004701477, -0.514763355, -0.06613186 , 0.325603336 , 0.00187371729, 0.000261209963, 3.01215672  , 2.24        , 3           , 50          , 0           , 0
0.0426092   , -0.01641019 , -9.795143   , -2.25059011E-05, 0.00142283924, -0.00160115014, -0.5161116  , -0.0659970343, 0.326277465 , 0.00187348807, 0.000275468221, 3.01214051  , 2.25        , 3           , 11          , 0.04514375  , 0.0451437533
-0.0278084  , -0.0372022279, -9.80752    , 0.000130267479, -0.0008287246, -0.0008976197, -0.5161116  , -0.0659970343, 0.326277465 , 0.0018747882, 0.000267197844, 3.012132    , 2.26        , 3           , 12          , 0.04513807  , 0
-0.0162074454, -0.0147896418, -9.803721   , -0.000714884663, -0.001116016, 0.0003694141, -0.5159768  , -0.06619927 , 0.324659556 , 0.0018676403, 0.00025603082, 3.01213527  , 2.27        , 3           , 14          , 0.000230237216, 0.000571207551
0.009786852 , -0.0011054324, -9.803917   , -0.000145233644, -0.00209767418, 0.0002292606, -0.514830768, -0.06592962 , 0.325535923 , 0.00186618848, 0.0002350499, 3.01213765  , 2.28        , 3           , 15          , 0           , 3.3358443E-05
0.0118719162, -0.0110966545, -9.79219151 , -0.000284726731, -0.00238019275, 0.0007932433, -0.516179   , -0.06613186 , 0.326277465 , 0.00186334306, 0.000211233229, 3.01214528  , 2.29        , 3           , 50          , 0           , 0
0.0189482588, -0.0193523131, -9.777256   , -8.821831E-06, -0.001111239, 0.0003727184, -0.516179   , -0.06613186 , 0.326277465 , 0.00186323375, 0.000200123483, 3.012149    , 2.3         , 3           , 11          , 0.0460149534, 0.0460149571
0.0185628124, -0.00634827837, -9.751895   , -0.0008581489, -0.000835407, -0.0007609483, -0.5159094  , -0.06613186 , 0.3249292   , 0.00185465091, 0.00019178362, 3.01214147  , 2.31        , 3           , 12          , 0.046008803 , 0
0.0184977651, -0.0162206888, -9.76775551 , -0.00086680206, 0.000994768 , -5.178406E-05, -0.514763355, -0.06613186 , 0.325805575 , 0.00184598239, 0.000201732211, 3.01214147  , 2.32        , 3           , 14          , 0.000230241392, 0.0005712057
-0.028693147, -0.0291404109, -9.786701   , 0.00110739784, 0.001571268 , -4.16976727E-05, -0.5161116  , -0.06606445 , 0.326344877 , 0.00185705652, 0.000217445646, 3.01214051  , 2.33        , 3           , 15          , 0           , 3.334659E-05
0.0114304563, -0.0159920156, -9.810746   , -0.00157045177, 0.0005676469, 0.0005093477, -0.5161116  , -0.06606445 , 0.326344877 , 0.00184135279, 0.000223112685, 3.01214576  , 2.34        , 3           , 50          , 0           , 0
0.0219436027, -0.0106777772, -9.817424   , -0.00368734053, 0.0002717566, 0.000357768 , -0.515774548, -0.06613186 , 0.3248618   , 0.00180448033, 0.00022582362, 3.01214957  , 2.35        , 3           , 11          , 0.0460149534, 0.0460149571
0.0130495783, -0.0286666714, -9.804459   , -0.002554267, -0.0005653026, -0.0010509534, -0.5148982  , -0.06613186 , 0.325603336 , 0.00177893543, 0.000220189424, 3.01213861  , 2.36        , 3           , 12          , 0.046008803 , 0
0.00195683166, -0.006478776, -9.78908348 , -0.003263574, 0.000133836424, -0.0006293546, -0.5160442  , -0.06586221 , 0.326344877 , 0.00174629828, 0.000221538925, 3.012133    , 2.37        , 3           , 14          , 0.000230241392, 0.0005712057
-0.009102459, -0.0221294016, -9.79285049 , -0.00256562629, 0.00182800309, -0.00019965251, -0.5160442  , -0.06586221 , 0.326344877 , 0.00172064162, 0.000239822388, 3.012131    , 2.38        , 3           , 15          , 0           , 3.334659E-05
-0.000453324057, -0.025317397, -9.814039   , 0.000829523837, 0.00058387866, -0.0006096083, -0.5160442  , -0.06619927 , 0.324659556 , 0.00172893528, 0.000245671661, 3.0121243   , 2.39        , 3           , 50          , 0           , 0
0.00227619056, -0.0155192129, -9.785503   , 0.00294067455, 0.00200603041, -0.000738818955, -0.5146285  , -0.06606445 , 0.325535923 , 0.00175834668, 0.0002657537, 3.01211762  , 2.4         , 3           , 11          , 0.04690598  , 0.0469059832
0.007147758 , -0.0219149645, -9.779165   , 0.00152554479, 0.00270039565, 0.000103293612, -0.516246438, -0.06586221 , 0.326547116 , 0.00177360268, 0.00029275578, 3.01211858  , 2.41        , 3           , 12          , 0.04689933  , 0
-0.000755592249, -0.008228808, -9.795892   , -0.000299529842, 0.000576243445, 0.0005152851, -0.516246438, -0.06586221 , 0.326547116 , 0.00177060883, 0.000298509083, 3.01212335  , 2.42        , 3           , 14          , 0.0002302401, 0.000571204
-0.009931205, -0.0216101632, -9.810029   , -0.00227458961, 0.000140525255, 0.000222878138, -0.5161116  , -0.06592962 , 0.3248618   , 0.00174786372, 0.000299910374, 3.01212573  , 2.43        , 3           , 15          , 0           , 3.33352546E-05
0.00204979628, -0.0068498007, -9.81304    , -0.00226909528, -0.0009857354, 7.987378E-05, -0.514695942, -0.06606445 , 0.325670749 , 0.001725173 , 0.000290051685, 3.01212621  , 2.44        , 3           , 50          , 0           , 0
0.01865109  , -0.015650101, -9.803458   , -0.000861143053, -0.000131490378, 8.776026E-05, -0.5161116  , -0.06613186 , 0.326210052 , 0.00171656185, 0.00028873526, 3.01212716  , 2.45        , 3           , 11          , 0.04690598  , 0.0469059832
0.02518813  , 5.821604E-05, -9.801083   , -0.000295510923, -0.000268452655, 0.000231445767, -0.5161116  , -0.06613186 , 0.326210052 , 0.00171360746, 0.000286046765, 3.01213     , 2.46        , 3           , 12          , 0.04689933  , 0
-0.003125812, -0.0234642662, -9.819025   , -0.000429509615, -0.00167723175, 0.0006524239, -0.515841961, -0.06586221 , 0.3248618   , 0.00170931406, 0.0002692633, 3.01213622  , 2.47        , 3           , 14          , 0.0002302401, 0.000571204
0.0180311985, -0.0273853  , -9.800348   , -0.0005831431, 0.0007151137, -0.000333427364, -0.514695942, -0.06613186 , 0.325535923 , 0.00170348154, 0.0002764201, 3.012133    , 2.48        , 3           , 15          , 0           , 3.33352546E-05
0.02539148  , -0.009522572, -9.770839   , -0.00199621916, 0.0008463452, -0.000763601332, -0.5160442  , -0.06613186 , 0.326210052 , 0.00168351724, 0.000284896523, 3.01212525  , 2.49        , 3           , 50          , 0           , 0
0.00121542253, 0.0012528291, -9.804425   , -0.003399827, -0.000852585654, -0.000490238, -0.5160442  , -0.06613186 , 0.326210052 , 0.00164951314, 0.000276423845, 3.01212049  , 2.5         , 3           , 11          , 0.0478154346, 0.04781544
0.0167314373, -0.0237510726, -9.803055   , -0.00255463715, -0.0004245082, -0.0004856363, -0.5159094  , -0.0659970343, 0.324794382 , 0.00162396533, 0.000272186764, 3.01211572  , 2.51        , 3           , 12          , 0.04780825  , 0
0.0271520466, -0.0149410162, -9.775819   , -0.00100444851, 0.000289910851, 8.776663E-05, -0.5146285  , -0.0662666857, 0.3254685   , 0.00161392114, 0.000275084458, 3.01211667  , 2.52        , 3           , 14          , 0.00023024097, 0.0005711954
0.010086013 , -0.00971589051, -9.794007   , -0.0007254622, 0.0008549479, -0.00104019837, -0.5160442  , -0.06592962 , 0.326210052 , 0.00160666369, 0.0002836507, 3.01210618  , 2.53        , 3           , 15          , 0           , 3.332131E-05
-0.008045691, -0.0117514608, -9.796414   , -0.000159955933, 0.0008587709, 9.258529E-05, -0.5160442  , -0.06592962 , 0.326210052 , 0.00160506426, 0.000292236859, 3.01210713  , 2.54        , 3           , 50          , 0           , 0
-0.0170850232, -0.0147563377, -9.810508   , 0.00196074438, 0.00045075  , 0.0008081551, -0.516313851, -0.06592962 , 0.3248618   , 0.00162467419, 0.0002967314, 3.01211476  , 2.55        , 3           , 11          , 0.0478154346, 0.04781544
0.0138561232, -0.00651417533, -9.819729   , 0.00209749374, 0.00115561311, -0.000885326357, -0.514695942, -0.06619927 , 0.325670749 , 0.00164564652, 0.000308302 , 3.01210618  , 2.56        , 3           , 12          , 0.04780825  , 0
0.0086109275, -0.021399634, -9.803106   , 0.000677076867, 0.002835454 , -0.0007480387, -0.5160442  , -0.0659970343, 0.326344877 , 0.001652415 , 0.000336668832, 3.01209855  , 2.57        , 3           , 14          , 0.00023024097, 0.0005711954
-0.0249795653, -0.0241991058, -9.79298    , -0.0005861767, 0.00127825118, -0.000756351568, -0.5160442  , -0.0659970343, 0.326344877 , 0.00164655061, 0.000349463837, 3.0120914   , 2.58        , 3           , 15          , 0           , 3.332131E-05
-0.00274130329, -0.0199541114, -9.790984   , -0.00142645 , 5.48204753E-06, 0.000509163539, -0.5159768  , -0.0659970343, 0.324794382 , 0.001632288 , 0.000349510374, 3.01209664  , 2.59        , 3           , 50          , 0           , 0
0.004599726 , -0.0181755945, -9.808548   , 0.0006834693, 0.00170919509, 0.000662932231, -0.514695942, -0.0659970343, 0.325670749 , 0.00163912692, 0.000366577267, 3.01210332  , 2.6         , 3           , 11          , 0.0487420075, 0.0487420224
0.01579359  , -0.0219811928, -9.78949451 , 0.001956073 , 0.00129544036, -3.81362042E-05, -0.5159768  , -0.0663341  , 0.326344877 , 0.00165868748, 0.000379532285, 3.01210284  , 2.61        , 3           , 12          , 0.04873425  , 0
-0.00643799454, -0.0222036261, -9.780174   , 0.000271225639, -0.000546189432, 0.00108129147, -0.5159768  , -0.0663341  , 0.326344877 , 0.0016614038, 0.000374052324, 3.01211381  , 2.62        , 3           , 14          , 0.0002302406, 0.000571198063
-0.0233127177, -0.03281795 , -9.785319   , -1.45602144E-05, 1.502799E-05, 9.196131E-05, -0.5161116  , -0.06592962 , 0.3248618   , 0.00166125852, 0.0003742011, 3.01211476  , 2.63        , 3           , 15          , 0           , 3.33019962E-05
-0.009910285, -0.0108808074, -9.780606   , 0.0009686468, 0.00100718869, -0.0006082543, -0.514695942, -0.06613186 , 0.325535923 , 0.00167094276, 0.000384283048, 3.01210856  , 2.64        , 3           , 50          , 0           , 0
0.00462031644, -0.007892848, -9.780482   , 0.000120172721, 0.00142381084, 0.0009424019, -0.5160442  , -0.0659970343, 0.326344877 , 0.00167214824, 0.000398505334, 3.01211762  , 2.65        , 3           , 11          , 0.0487420075, 0.0487420224
0.0182610285, -0.00131074712, -9.772667   , -0.000440254284, 0.0005752969, 0.00136227242, -0.5160442  , -0.0659970343, 0.326344877 , 0.00166775135, 0.000404235674, 3.01213145  , 2.66        , 3           , 12          , 0.04873425  , 0
0.02537593  , -0.018015828, -9.794376   , -0.000433936861, -0.000832531834, 0.000229952871, -0.5159094  , -0.0659970343, 0.3249292   , 0.00166341278, 0.000395906449, 3.01213384  , 2.67        , 3           , 14          , 0.0002302406, 0.000571198063
0.0200763587, -0.00579212233, -9.788039   , 0.00167495862, 0.00101196475, -0.0001811557, -0.514763355, -0.06606445 , 0.3254685   , 0.00168016169, 0.000406029052, 3.012132    , 2.68        , 3           , 15          , 0           , 3.33019962E-05
0.00154561736, -0.0006372174, -9.780476   , 0.00237671752, 0.00200222037, 0.0008125366, -0.5159094  , -0.06586221 , 0.3264123   , 0.00170393242, 0.000426037353, 3.01214051  , 2.69        , 3           , 50          , 0           , 0
0.0110762706, 0.00150085613, -9.778586   , -0.0005820891, 0.0007151275, 0.00150312169, -0.5159094  , -0.06586221 , 0.3264123   , 0.0016980865, 0.00043317792, 3.01215529  , 2.7         , 3           , 11          , 0.0496844649, 0.04968448
0.0113490773, 0.0124343252, -9.810178   , -0.0007204701, 1.02567583E-05, 0.000371228729, -0.5160442  , -0.06613186 , 0.3248618   , 0.00169088342, 0.000433274166, 3.012159    , 2.71        , 3           , 12          , 0.0496761   , 0
0.0132503714, -0.014220763, -9.80711    , -0.00114443654, 7.390281E-06, -0.000195821674, -0.514763355, -0.06606445 , 0.3254685   , 0.00167943817, 0.0004333514, 3.0121572   , 2.72        , 3           , 14          , 0.000230246587, 0.000571195153
0.00687098363, -0.0132863736, -9.794499   , -0.00213043182, -0.0004216402, 0.000505261763, -0.5160442  , -0.06613186 , 0.3264123   , 0.00165813614, 0.00042912655, 3.01216245  , 2.73        , 3           , 15          , 0           , 3.32797172E-05
0.0027247183, -0.0213305317, -9.803151   , -0.000855781254, -0.00111695682, 0.0009339094, -0.5160442  , -0.06613186 , 0.3264123   , 0.00164958229, 0.0004179416, 3.01217151  , 2.74        , 3           , 50          , 0           , 0
0.0122764213, -0.0133728376, -9.787679   , 0.000840625959, -0.001527846, 0.0005173539, -0.5159094  , -0.0659970343, 0.325064033 , 0.00165799062, 0.000402654638, 3.01217675  , 2.75        , 3           , 11          , 0.0496844649, 0.04968448
0.00716553349, -0.02056151 , -9.77916    , 0.0008331665, -0.000120022742, -0.0003280887, -0.514830768, -0.06606445 , 0.3254685   , 0.001666321 , 0.0004014599, 3.01217341  , 2.76        , 3           , 12          , 0.0496761   , 0
0.002647467 , -0.02496393 , -9.795937   , 0.000122057296, 0.0008606793, -0.0006123997, -0.515841961, -0.06606445 , 0.3264123   , 0.00166753912, 0.000410076871, 3.01216722  , 2.77        , 3           , 14          , 0.000230246587, 0.000571195153
0.0007535098, 0.0066069453, -9.784972   , 0.00139777549, -0.000116204035, -0.00074926106, -0.515841961, -0.06606445 , 0.3264123   , 0.00168151385, 0.0004089274, 3.01215959  , 2.78        , 3           , 15          , 0           , 3.32797172E-05
0.0204707477, -0.004059359, -9.768142   , 0.0005565605, -0.001248192, 9.266469E-05, -0.5159768  , -0.06619927 , 0.32499662  , 0.00168707967, 0.000396443938, 3.01216054  , 2.79        , 3           , 50          , 0           , 0
0.02811392  , -0.0144596808, -9.788013   , -0.00127217034, -0.00266842614, 0.0002232162, -0.5146285  , -0.0662666857, 0.325535923 , 0.00167431647, 0.000369786 , 3.012163    , 2.8         , 3           , 11          , 0.0506416522, 0.0506416745
0.0116211362, 0.00246285973, -9.798014   , -0.00170503464, -0.0008411188, -5.84761219E-05, -0.5160442  , -0.0659970343, 0.326614529 , 0.0016572657, 0.000361375773, 3.01216245  , 2.81        , 3           , 12          , 0.0506326444, 0
-0.009493248, -0.0189493969, -9.79781151 , -0.00354298181, -0.0004311865, -0.00020765404, -0.5160442  , -0.0659970343, 0.326614529 , 0.001621835 , 0.000357067271, 3.01216054  , 2.82        , 3           , 14          , 0.000230254693, 0.0005711895
-0.00235850736, -0.02894314 , -9.802771   , -0.00226156157, -0.00267511513, -0.00133534917, -0.5161116  , -0.0659970343, 0.32499662  , 0.00159921474, 0.000330337585, 3.01214671  , 2.83        , 3           , 15          , 0           , 3.32672462E-05
0.009069637 , -0.0209537968, -9.803101   , 0.0004178006, -0.001812273, -0.000473924069, -0.5149656  , -0.06592962 , 0.3254685   , 0.00160339137, 0.00031222243, 3.012142    , 2.84        , 3           , 50          , 0           , 0
0.0358185023, -0.0123124328, -9.782522   , 0.000405499275, 0.0007218141, -4.62124735E-05, -0.5159768  , -0.06592962 , 0.3264123   , 0.00160744623, 0.000319441315, 3.01214147  , 2.85        , 3           , 11          , 0.0506416522, 0.0506416745
0.0305774622, -0.0240700673, -9.756847   , -0.001571978, 0.000708441949, -0.00090304343, -0.5159768  , -0.06592962 , 0.3264123   , 0.00159172353, 0.0003265402, 3.012133    , 2.86        , 3           , 12          , 0.0506326444, 0
0.0149361752, -0.0147899352, -9.77817249 , -0.00171224971, 0.0005667054, -0.0004801126, -0.516179   , -0.06606445 , 0.32499662  , 0.00157459953, 0.0003322149, 3.012128    , 2.87        , 3           , 14          , 0.000230254693, 0.0005711895
0.03508819  , -0.00724994 , -9.809174   , -0.00100036175, -0.0005547786, -5.474972E-05, -0.514695942, -0.06592962 , 0.325603336 , 0.00156459573, 0.000326668 , 3.01212716  , 2.88        , 3           , 15          , 0           , 3.32672462E-05
0.0103028491, 0.00117221661, -9.81204    , -0.000288392359, -0.00167626259, 0.0005118817, -0.5160442  , -0.06613186 , 0.326277465 , 0.0015617134, 0.000309897354, 3.012132    , 2.89        , 3           , 50          , 0           , 0
-0.0218980312, 0.00284563  , -9.795104   , 0.000553062942, -0.0005442562, 9.377923E-05, -0.5160442  , -0.06613186 , 0.326277465 , 0.00156722055, 0.000304545567, 3.01213336  , 2.9         , 3           , 11          , 0.0516124927, 0.05161251
-0.0113027487, -0.01669506 , -9.791037   , -0.000150297681, -0.00111216167, -5.164966E-05, -0.515841961, -0.06606445 , 0.325064033 , 0.00156571728, 0.000293424819, 3.012133    , 2.91        , 3           , 12          , 0.051602792 , 0
-0.009623167, -0.0257499237, -9.787897   , -0.000860420871, -0.000413026748, -0.00104273844, -0.514763355, -0.06613186 , 0.325535923 , 0.00155711011, 0.000289310847, 3.01212239  , 2.92        , 3           , 14          , 0.000230259175, 0.0005711721
-0.009408104, -0.0121851526, -9.796879   , -0.001145836, 7.406652E-06, -0.00259736041, -0.5160442  , -0.0662666857, 0.3264123   , 0.00154564425, 0.000289425167, 3.01209664  , 2.93        , 3           , 15          , 0           , 3.3249984E-05
0.000295942649, -0.0049967207, -9.821182   , 0.000135495342, -0.00195495086, -0.00146432186, -0.5160442  , -0.0662666857, 0.3264123   , 0.001546995 , 0.000269898272, 3.01208138  , 2.94        , 3           , 50          , 0           , 0
-0.0152846249, -0.0192498062, -9.822265   , 0.00140009879, -0.0005385274, -0.000326075969, -0.5159094  , -0.06619927 , 0.32499662  , 0.00156099524, 0.000264518079, 3.01207852  , 2.95        , 3           , 11          , 0.0516124927, 0.05161251
0.0108227413, -0.0263782945, -9.806274   , 0.000967315747, 0.00128878024, -0.000466499623, -0.5146285  , -0.0662666857, 0.3254685   , 0.00157066714, 0.000277413143, 3.01207376  , 2.96        , 3           , 12          , 0.051602792 , 0
0.0114789382, -0.008364773, -9.79806    , 0.000119382741, 0.00128304714, -0.00160060031, -0.5159768  , -0.06592962 , 0.326547116 , 0.00157185656, 0.000290268857, 3.01205754  , 2.97        , 3           , 14          , 0.000230259175, 0.0005711721
-0.0131087871, 0.0127153164, -9.808555   , -0.00171159417, 0.000285154325, -0.00175194792, -0.5159768  , -0.06592962 , 0.326547116 , 0.00155473524, 0.0002931478, 3.01204038  , 2.98        , 3           , 15          , 0           , 3.3249984E-05
0.00266484637, 0.008452279 , -9.803481   , -0.00185502449, 0.000847331947, -0.000762857264, -0.5160442  , -0.0659970343, 0.325131446 , 0.00153618271, 0.0003016329, 3.01203275  , 2.99        , 3           , 50          , 0           , 0
0.001651912 , -0.0281506665, -9.784205   , 0.0008212942, 0.00227330043, -0.0003243463, -0.5146285  , -0.0662666857, 0.325333685 , 0.0015443369, 0.000324354274, 3.01203     , 3           , 3           , 11          , 0.0525959656, 0.0525959842
0.009515813 , -0.0147155654, -9.781377   , -0.000159369491, 0.0007180083, -4.880484E-05, -0.5159094  , -0.0663341  , 0.3264797   , 0.00154274306, 0.00033153512, 3.012029    , 3.01        , 3           , 12          , 0.0525855273, 0
0.0162564591, -0.0184075348, -9.78043652 , -0.00157383934, 0.00113080512, -0.000478544825, -0.5159094  , -0.0663341  , 0.3264797   , 0.001527003 , 0.000342850457, 3.01202416  , 3.02        , 3           , 14          , 0.000230269972, 0.000571175129
0.0197928455, -0.02878572 , -9.792656   , 0.0006800807, 0.00227234582, -0.000325004861, -0.515841961, -0.06592962 , 0.32499662  , 0.00153380272, 0.000365578831, 3.0120213   , 3.03        , 3           , 15          , 0           , 3.322575E-05
0.0219607614, -0.035139   , -9.789502   , 0.00194788724, 0.00284406939, -0.000883285829, -0.514695942, -0.06606445 , 0.325535923 , 0.00155327807, 0.000394033239, 3.01201224  , 3.04        , 3           , 50          , 0           , 0
0.01459007  , -0.0142518263, -9.80258    , 0.000821664929, 0.00213251635, -0.0008896384, -0.5161116  , -0.06619927 , 0.326277465 , 0.00156149128, 0.0004153722, 3.01200318  , 3.05        , 3           , 11          , 0.0525959656, 0.0525959842
0.0124998624, -0.008728287, -9.827432   , 0.000826418 , 0.00128782378, 9.794101E-05, -0.5161116  , -0.06619927 , 0.326277465 , 0.001569756 , 0.0004282489, 3.01200414  , 3.06        , 3           , 12          , 0.0525855273, 0
0.008660294 , -0.0151107283, -9.794945   , 0.000263039983, 0.00100243918, 0.000236141976, -0.5160442  , -0.0659970343, 0.325064033 , 0.00157238753, 0.000438269635, 3.012007    , 3.07        , 3           , 14          , 0.000230269972, 0.000571175129
0.0171852037, -0.02241654 , -9.798978   , -0.000291647884, -0.0009723345, 0.0009368141, -0.514763355, -0.06592962 , 0.325333685 , 0.00156947516, 0.000428531552, 3.01201653  , 3.08        , 3           , 15          , 0           , 3.322575E-05
0.00127473939, -0.0267450288, -9.798213   , -0.0005733779, -0.00111502688, 0.0009352803, -0.5159094  , -0.06619927 , 0.3264797   , 0.0015637452, 0.0004173666, 3.01202559  , 3.09        , 3           , 50          , 0           , 0
0.00290201232, -0.00333286263, -9.788612   , -9.298401E-06, -0.0009704171, 0.000796879642, -0.5159094  , -0.06619927 , 0.3264797   , 0.00156367838, 0.000407690939, 3.0120337   , 3.1         , 3           , 11          , 0.0535911247, 0.05359115
-0.0085556265, -0.0184877068, -9.804131   , 0.00168550725, -0.000958956138, 0.00122858747, -0.515774548, -0.0662666857, 0.32499662  , 0.00158053846, 0.000398082018, 3.012046    , 3.11        , 3           , 12          , 0.0535799041, 0
0.0127897961, -0.014668107, -9.80666351 , 0.00195940677, 0.0007323435, 0.000949970447, -0.5145611  , -0.0662666857, 0.325333685 , 0.00160013617, 0.0004053904, 3.01205564  , 3.12        , 3           , 14          , 0.000230265752, 0.0005711675
-0.004058514, -0.01722672 , -9.792339   , 0.00223785941, 0.0014381638, 0.0001047599, -0.515707135, -0.06613186 , 0.326547116 , 0.00162251526, 0.0004197703, 3.01205659  , 3.13        , 3           , 15          , 0           , 3.32085256E-05
0.01257064  , -0.0210945942, -9.773697   , 0.000406392879, 0.0004402685, -0.0008942001, -0.515707135, -0.06613186 , 0.326547116 , 0.00162657537, 0.000424187543, 3.01204753  , 3.14        , 3           , 50          , 0           , 0
0.0103838369, -0.0125248684, -9.765089   , -0.00198595272, -0.00126535713, -0.00104926643, -0.5159768  , -0.06606445 , 0.325064033 , 0.0016067113, 0.000411551126, 3.012037    , 3.15        , 3           , 11          , 0.0535911247, 0.05359115
0.001020981 , -0.00961714 , -9.791817   , -0.00241566566, 0.000139607713, 0.000504884054, -0.514695942, -0.06613186 , 0.3254011   , 0.00158255687, 0.000412939145, 3.01204228  , 3.16        , 3           , 12          , 0.0535799041, 0
8.14981759E-05, -0.0100803282, -9.785046   , -0.00213725772, 0.0009862137, 0.0007900401, -0.5159094  , -0.06613186 , 0.326210052 , 0.00156118756, 0.000422788784, 3.01205     , 3.17        , 3           , 14          , 0.000230265752, 0.0005711675
0.008431055 , -0.0251161866, -9.771031   , -0.0015749844, 0.00141237874, -5.4287455E-05, -0.5159094  , -0.06613186 , 0.326210052 , 0.00154543738, 0.000436913368, 3.01204944  , 3.18        , 3           , 15          , 0           , 3.32085256E-05
0.009540952 , -0.0160342455, -9.791778   , 0.000115231254, 0.002268533 , -0.0003276214, -0.516179   , -0.0662666857, 0.32499662  , 0.00154658814, 0.000459603732, 3.012046    , 3.19        , 3           , 50          , 0           , 0
-0.0121772578, -0.017551953, -9.801442   , 0.000403724931, 0.00114418752, 0.000519588357, -0.5145611  , -0.06613186 , 0.325333685 , 0.00155063532, 0.000471050938, 3.01205182  , 3.2         , 3           , 11          , 0.0545971   , 0.05459713
0.0103622638, -0.0241474584, -9.797229   , 0.0008288408, 0.000865487847, 0.0006623985, -0.515841961, -0.06619927 , 0.326277465 , 0.001558927 , 0.000479695533, 3.012058    , 3.21        , 3           , 12          , 0.0545850471, 0
0.007613376 , -0.0196781345, -9.7750845  , 0.00166919571, 0.00213825749, -0.000461847871, -0.515841961, -0.06619927 , 0.326277465 , 0.00157561665, 0.0005010853, 3.01205373  , 3.22        , 3           , 14          , 0.00023026437, 0.000571165
-1.48369E-05, -0.01685365 , -9.783267   , -0.000166044818, 0.00198505912, -0.0007531623, -0.5159768  , -0.06613186 , 0.3248618   , 0.0015739525, 0.0005209478, 3.012046    , 3.23        , 3           , 15          , 0           , 3.31923547E-05
0.014865173 , -0.0175255723, -9.769596   , 0.00153011433, 0.0017149552, -0.000392522838, -0.5146285  , -0.06613186 , 0.325266272 , 0.00158925157, 0.0005381035, 3.01204228  , 3.24        , 3           , 50          , 0           , 0
-0.00260395 , -0.00555960368, -9.778269   , 0.00309186662, 3.60696977E-05, -0.000317248923, -0.5159094  , -0.06606445 , 0.326344877 , 0.00162016845, 0.000538469234, 3.012039    , 3.25        , 3           , 11          , 0.0545971   , 0.05459713
0.0199579559, -0.0121369623, -9.779478   , 0.000481057 , -0.000263161521, 9.3941555E-05, -0.5159094  , -0.06606445 , 0.326344877 , 0.00162497966, 0.0005358361, 3.01204     , 3.26        , 3           , 12          , 0.0545850471, 0
0.0186176077, -0.0129991313, -9.786724   , 0.000196602108, 8.688343E-05, -0.0004012734, -0.5160442  , -0.0663341  , 0.32499662  , 0.00162694359, 0.0005367115, 3.01203561  , 3.27        , 3           , 14          , 0.00023026437, 0.000571165
0.00766168954, -0.0249951873, -9.804033   , -0.00128446287, -6.39217251E-05, 0.00128682062, -0.514695942, -0.0663341  , 0.325266272 , 0.00161410577, 0.0005360514, 3.012049    , 3.28        , 3           , 15          , 0           , 3.31923547E-05
0.0159450173, -0.01382419 , -9.800307   , 0.0008955287, 0.001781055 , 0.00172365352, -0.515841961, -0.0659970343, 0.3264123   , 0.00162307057, 0.000553834136, 3.01206613  , 3.29        , 3           , 50          , 0           , 0
0.00629115524, -0.0263281614, -9.805405   , 0.00139668654, 0.000306185 , 0.00101736  , -0.515841961, -0.0659970343, 0.3264123   , 0.00163704436, 0.0005569137, 3.01207662  , 3.3         , 3           , 11          , 0.05561304  , 0.0556130745
0.009926697 , -0.021003738, -9.791344   , 0.00211435813, -0.00208234414, 0.00059315766, -0.5159094  , -0.06619927 , 0.32499662  , 0.00165819121, 0.0005360805, 3.01208234  , 3.31        , 3           , 12          , 0.0556001142, 0
0.00445235427, -0.02588296 , -9.797281   , 0.00344338384, 0.000320027873, -0.0005270483, -0.5146285  , -0.0662666857, 0.3254011   , 0.00169262209, 0.0005392897, 3.012077    , 3.32        , 3           , 14          , 0.000230264151, 0.0005711587
0.004221445 , -0.0132000512, -9.81079    , 0.00295026042, 0.0002462979, 0.0008125916, -0.5159094  , -0.06613186 , 0.326547116 , 0.00172212906, 0.0005417387, 3.0120852   , 3.33        , 3           , 15          , 0           , 3.31686169E-05
0.002708482 , -0.0231290869, -9.804967   , 0.0005477081, 0.000511625665, -0.000116415133, -0.5159094  , -0.06613186 , 0.326547116 , 0.0017276057, 0.0005468569, 3.01208425  , 3.34        , 3           , 50          , 0           , 0
-0.0215395875, -0.008841235, -9.809613   , 0.0004867148, -0.00138941524, 0.000233498315, -0.5159768  , -0.06606445 , 0.325198859 , 0.00173247408, 0.0005329587, 3.01208615  , 3.35        , 3           , 11          , 0.05561304  , 0.0556130745
-0.009958338, -0.0153832464, -9.783338   , 0.0009107443, -0.00145694125, 0.000305999536, -0.5145611  , -0.06606445 , 0.3254685   , 0.001741583 , 0.000518384 , 3.012089    , 3.36        , 3           , 12          , 0.0556001142, 0
-0.010389355, 0.01893453  , -9.789074   , -0.00071792223, -0.0006232308, -0.0006185177, -0.5159768  , -0.0659970343, 0.326547116 , 0.00173440052, 0.000512162456, 3.01208329  , 3.37        , 3           , 14          , 0.000230264151, 0.0005711587
0.0158953946, -0.0102935955, -9.776791   , 0.000415125483, -0.00124911149, -0.000261054374, -0.5159768  , -0.0659970343, 0.326547116 , 0.00173855026, 0.000499675865, 3.01208043  , 3.38        , 3           , 15          , 0           , 3.31686169E-05
0.00603543129, -0.0118799591, -9.807155   , 0.00161941408, -0.00194490422, 0.000591070042, -0.516179   , -0.0659970343, 0.3248618   , 0.00175474735, 0.0004802166, 3.01208615  , 3.39        , 3           , 50          , 0           , 0
-0.00525676459, -0.009939433, -9.808137   , 0.00118853187, -0.0006103418, -0.000468335667, -0.514763355, -0.06606445 , 0.325266272 , 0.00176658318, 0.0004741014, 3.01208186  , 3.4         , 3           , 11          , 0.0566381961, 0.0566382334
0.0003487449, -0.0240728445, -9.784651   , 0.00118307839, 0.0005159192, -0.00025469673, -0.515707135, -0.06613186 , 0.3264123   , 0.00177841284, 0.0004792651, 3.01207948  , 3.41        , 3           , 12          , 0.05662433  , 0
-0.0113165639, -0.0202770513, -9.799187   , 0.00336665846, 0.00158659066, -0.000242863243, -0.515707135, -0.06613186 , 0.3264123   , 0.00181207829, 0.00049513526, 3.01207662  , 3.42        , 3           , 14          , 0.000230272664, 0.000571162265
8.41813162E-05, -0.0216832645, -9.82306    , 0.00132789544, -4.62521057E-05, 0.00115778123, -0.5161116  , -0.06613186 , 0.325131446 , 0.001825363 , 0.0004946516, 3.01208854  , 3.43        , 3           , 15          , 0           , 3.314462E-05
0.0116378656, -0.0251231566, -9.780048   , 0.00190066465, -0.001731825, 0.0003808335, -0.5144937  , -0.06653634 , 0.3254011   , 0.00184437155, 0.0004773265, 3.01209188  , 3.44        , 3           , 50          , 0           , 0
-0.0112393433, -0.00905572 , -9.781965   , 5.624429E-05, -0.000195636458, -0.00132056489, -0.515841961, -0.0659970343, 0.3264123   , 0.00184492778, 0.0004753945, 3.012079    , 3.45        , 3           , 11          , 0.0566381961, 0.0566382334
-0.0148709547, -0.009020754, -9.779732   , -0.0009458412, 0.002542938 , -0.00132094324, -0.515841961, -0.0659970343, 0.3264123   , 0.001835463 , 0.000500848168, 3.01206613  , 3.46        , 3           , 12          , 0.05662433  , 0
0.0100960005, -0.0088151  , -9.793552   , 0.00153551507, 0.0007294825, 0.0005242529, -0.5161116  , -0.0663341  , 0.3249292   , 0.00185082073, 0.0005081333, 3.012071    , 3.47        , 3           , 14          , 0.000230272664, 0.000571162265
-0.00676491251, -0.0158474259, -9.790546   , 0.00133343064, -0.00117251265, 0.001085411 , -0.514763355, -0.06613186 , 0.325198859 , 0.00186416053, 0.000496388 , 3.01208186  , 3.48        , 3           , 15          , 0           , 3.314462E-05
-9.48105E-05, -0.0267381519, -9.795511   , 0.00118602952, -4.7210302E-05, 2.69728225E-05, -0.515774548, -0.06613186 , 0.326547116 , 0.001876021 , 0.0004959154, 3.01208234  , 3.49        , 3           , 50          , 0           , 0
0.016975373 , -0.0115019539, -9.823341   , 0.00124445744, 0.00234655919, -0.000534068735, -0.515774548, -0.06613186 , 0.326547116 , 0.00188844372, 0.00051933655, 3.012077    , 3.5         , 3           , 11          , 0.05767184  , 0.0576718673
-0.00209695753, -0.00284289662, -9.782772   , 0.0018803667, 0.002350859 , 0.0002458723, -0.5159094  , -0.06606445 , 0.325064033 , 0.00190724886, 0.0005428404, 3.01207948  , 3.51        , 3           , 12          , 0.0576569773, 0
-0.00725818751, -0.0176603179, -9.78648949 , 0.000841415953, -0.00166860444, 0.0007291909, -0.514763355, -0.06640151 , 0.3254011   , 0.00191566686, 0.000526140444, 3.012087    , 3.52        , 3           , 14          , 0.000230276113, 0.000571172
0.021186322 , -0.0292195566, -9.802591   , -0.00105901842, -0.00294854143, 0.000153274028, -0.515707135, -0.06613186 , 0.326277465 , 0.00190507749, 0.000496652152, 3.012088    , 3.53        , 3           , 15          , 0           , 3.312889E-05
0.007482601 , -0.0327282622, -9.785084   , -0.00156015018, -0.00168484391, -0.000906593457, -0.515707135, -0.06613186 , 0.326277465 , 0.00188947155, 0.000479820941, 3.01207948  , 3.54        , 3           , 50          , 0           , 0
0.0055904733, -0.03634342 , -9.776977   , -0.00219294848, -0.002111486, 7.867357E-05, -0.5159094  , -0.06613186 , 0.325131446 , 0.00186754239, 0.0004587046, 3.01208     , 3.55        , 3           , 11          , 0.05767184  , 0.0576718673
0.0179859884, -0.0305463821, -9.799458   , 0.0005451899, 0.00121552986, 0.00157993427, -0.5144937  , -0.0663341  , 0.3254685   , 0.00187300169, 0.0004708304, 3.01209569  , 3.56        , 3           , 12          , 0.0576569773, 0
0.0123672877, -0.0115138059, -9.803941   , 0.00153719471, 0.000307123235, -0.000182726, -0.515707135, -0.06619927 , 0.3264797   , 0.00188837259, 0.0004739051, 3.01209378  , 3.57        , 3           , 14          , 0.000230276113, 0.000571172
-0.00534587167, -0.0144751444, -9.800925   , 0.00027494572, -0.00146125362, -0.0002619986, -0.515707135, -0.06619927 , 0.3264797   , 0.0018911208, 0.000459297473, 3.0120914   , 3.58        , 3           , 15          , 0           , 3.312889E-05
-0.0181111917, -0.0215386748, -9.802859   , 0.00173243519, 0.00347615872, -0.00173081271, -0.5159768  , -0.0662666857, 0.3249292   , 0.001908437 , 0.0004940918, 3.01207376  , 3.59        , 3           , 50          , 0           , 0
-0.002690372, -0.0216982439, -9.809071   , 0.00194640819, 0.00312563148, -0.00102401234, -0.5144937  , -0.06619927 , 0.325333685 , 0.00192791119, 0.0005253386, 3.01206422  , 3.6         , 3           , 11          , 0.05871329  , 0.0587133169
-0.0155681381, 0.0005320851, -9.800037   , 0.0013989982, -0.000327358779, -0.0003962525, -0.515841961, -0.06592962 , 0.326547116 , 0.00194189884, 0.000522072543, 3.01206     , 3.61        , 3           , 12          , 0.0586973727, 0
-0.009871104, -0.010849054, -9.790097   , 0.0006145943, 0.00128638931, 9.706149E-05, -0.515841961, -0.06592962 , 0.326547116 , 0.00194804545, 0.0005349346, 3.01206088  , 3.62        , 3           , 14          , 0.000230273421, 0.0005711771
0.0137336347, -0.00572073273, -9.787184   , 0.002305611 , 0.00193136884, -0.0006004042, -0.5161116  , -0.06606445 , 0.32499662  , 0.00197109813, 0.00055426  , 3.01205468  , 3.63        , 3           , 15          , 0           , 3.31175361E-05
0.00519339927, -0.009139745, -9.81393    , 0.00357917487, 0.00144722557, -0.000242065449, -0.514763355, -0.06619927 , 0.3254685   , 0.00200688816, 0.000568737 , 3.01205277  , 3.64        , 3           , 50          , 0           , 0
0.008406533 , 0.00201716367, -9.78854752 , 0.00019646711, 0.0002276567, 0.0005878994, -0.515774548, -0.0663341  , 0.326277465 , 0.00200885627, 0.0005710017, 3.0120585   , 3.65        , 3           , 11          , 0.05871329  , 0.0587133169
-0.008789095, 0.000888385344, -9.795464   , 5.662911E-05, -0.000125256425, -4.901067E-05, -0.515774548, -0.0663341  , 0.326277465 , 0.00200942229, 0.000569750147, 3.012058    , 3.66        , 3           , 12          , 0.0586973727, 0
-0.00211987179, -0.008664012, -9.795904   , -0.001075021, 7.827315E-05, -0.00160790922, -0.516179   , -0.0662666857, 0.325064033 , 0.001998663 , 0.0005705651, 3.01204181  , 3.67        , 3           , 14          , 0.000230273421, 0.0005711771
0.009716997 , -0.0323324129, -9.776477   , -0.00220157322, -0.0004924951, -0.0009783354, -0.514763355, -0.0663341  , 0.325266272 , 0.00197664136, 0.000565659662, 3.01203179  , 3.68        , 3           , 15          , 0           , 3.31175361E-05
0.00205939077, -0.03399525 , -9.791909   , 0.00139427884, 0.0007989055, 0.00108880491, -0.515841961, -0.06606445 , 0.326344877 , 0.00199059048, 0.0005736271, 3.01204324  , 3.69        , 3           , 50          , 0           , 0
0.0131388782, -0.0187746119, -9.794474   , 0.000119704731, 0.00149421627, 0.0008014449, -0.515841961, -0.06606445 , 0.326344877 , 0.001991762 , 0.0005885153, 3.01205087  , 3.7         , 3           , 11          , 0.0597619228, 0.0597619526
0.0159498341, -0.009803135, -9.78854    , 0.002447857 , 0.00200271513, 0.00180195027, -0.5160442  , -0.0662666857, 0.32499662  , 0.00201625167, 0.0006085063, 3.012069    , 3.71        , 3           , 12          , 0.0597448871, 0
0.0137175266, -0.0124290381, -9.804839   , 0.001185282 , 0.000234336592, 0.00115760264, -0.514763355, -0.06613186 , 0.325198859 , 0.00202811137, 0.0006108263, 3.012081    , 3.72        , 3           , 14          , 0.000230278616, 0.0005711837
-0.00372092519, -0.0293768346, -9.803233   , -0.00128092908, -0.000838245731, 0.0007912803, -0.5154375  , -0.0663341  , 0.3264797   , 0.00201530685, 0.0006024278, 3.012089    , 3.73        , 3           , 15          , 0           , 3.309854E-05
-0.00294556934, -0.00144705921, -9.792265   , -0.00354407355, -0.000149614018, 0.000358023477, -0.5154375  , -0.0663341  , 0.3264797   , 0.00197986839, 0.0006009245, 3.01209235  , 3.74        , 3           , 50          , 0           , 0
-0.00111711212, 0.00434826873, -9.777763   , -0.000933412346, 0.000360795239, 0.00150111434, -0.5160442  , -0.0663341  , 0.325064033 , 0.001970543 , 0.000604503031, 3.01210713  , 3.75        , 3           , 11          , 0.0597619228, 0.0597619526
-0.0102820834, -0.00723907165, -9.78873    , 0.00246501574, -0.00144645688, 0.00193790346, -0.514763355, -0.06613186 , 0.325198859 , 0.001995205 , 0.00059     , 3.01212668  , 3.76        , 3           , 12          , 0.0597448871, 0
0.004239645 , -0.00872180052, -9.800827   , 0.003226752 , 0.00130404881, -0.000385178282, -0.5154375  , -0.06586221 , 0.3264123   , 0.00202747  , 0.0006030483, 3.01212287  , 3.77        , 3           , 14          , 0.000230278616, 0.0005711837
0.0117627485, -0.0201121159, -9.79449    , 0.00301647047, 0.0009506588, -0.000739880255, -0.5154375  , -0.06586221 , 0.3264123   , 0.00205763  , 0.0006125699, 3.01211572  , 3.78        , 3           , 15          , 0           , 3.309854E-05
-0.003144268, -0.0181230269, -9.797307   , 0.001047231 , -0.000611318566, -0.000610216754, -0.5161116  , -0.06613186 , 0.32499662  , 0.0020680984, 0.0006064693, 3.012109    , 3.79        , 3           , 50          , 0           , 0
0.0006587086, -0.000611471944, -9.785003   , 0.000618804 , 0.000300895539, -0.00103457272, -0.5144263  , -0.06613186 , 0.325266272 , 0.00207421347, 0.000609463255, 3.0120995   , 3.8         , 3           , 11          , 0.0608171523, 0.0608171821
0.03987985  , -0.0132640889, -9.7820425  , 0.00132841547, -0.000327849033, -0.000325913017, -0.5155049  , -0.06640151 , 0.326547116 , 0.00208749552, 0.0006061915, 3.01209569  , 3.81        , 3           , 12          , 0.06079893  , 0
0.03236592  , -0.03214402 , -9.777207   , -0.00142881274, 0.00035744108, -0.000478937058, -0.5155049  , -0.06640151 , 0.326547116 , 0.00207320438, 0.000609775947, 3.012091    , 3.82        , 3           , 14          , 0.000230290156, 0.00057119
0.0150903193, -0.04315731 , -9.796368   , -0.002628493, 0.0002789338, 9.797907E-06, -0.516246438, -0.06586221 , 0.325266272 , 0.00204692  , 0.0006125651, 3.012091    , 3.83        , 3           , 15          , 0           , 3.30832336E-05
0.0145990066, -0.04229051 , -9.784164   , -0.00355269015, 0.00139898341, -0.001264165, -0.5146285  , -0.06619927 , 0.325266272 , 0.002011385 , 0.0006265806, 3.01207852  , 3.84        , 3           , 50          , 0           , 0
0.0334156826, -0.0262352582, -9.793446   , 0.00104174367, 0.0005853289, 0.000168620754, -0.5155049  , -0.0659970343, 0.3264123   , 0.00202180352, 0.000632430369, 3.01208043  , 3.85        , 3           , 11          , 0.0608171523, 0.0608171821
0.0265649855, -0.03022042 , -9.792158   , 0.0007538445, 0.001639287 , -0.000254875049, -0.5155049  , -0.0659970343, 0.3264123   , 0.00202934  , 0.0006488282, 3.01207757  , 3.86        , 3           , 12          , 0.06079893  , 0
-0.00124994945, -0.0140597364, -9.804508   , 0.00138352485, 0.00276984368, -0.0006033481, -0.5159768  , -0.0662666857, 0.325064033 , 0.00204317132, 0.00067653897, 3.01207185  , 3.87        , 3           , 14          , 0.000230290156, 0.00057119
-0.007495584, -0.00364361051, -9.794116   , -0.0005112998, 0.0006452184, 0.001291636 , -0.5144937  , -0.0662666857, 0.325064033 , 0.002038067 , 0.0006829648, 3.01208472  , 3.88        , 3           , 15          , 0           , 3.30832336E-05
0.0165131278, -0.00659445 , -9.805245   , -0.00149097724, -0.00119164051, 0.0008603999, -0.5155723  , -0.06592962 , 0.326344877 , 0.00202316279, 0.000671030837, 3.01209331  , 3.89        , 3           , 50          , 0           , 0
0.0138789751, -0.0282926783, -9.784564   , -0.000721377262, 0.000151052751, 8.912702E-05, -0.5155723  , -0.06592962 , 0.326344877 , 0.002015929 , 0.0006725918, 3.01209426  , 3.9         , 3           , 11          , 0.06187842  , 0.0618784465
-0.00337864924, -0.03259615 , -9.786522   , -0.000227297147, 0.000295180216, 0.00100989535, -0.516313851, -0.0662666857, 0.32499662  , 0.002013663 , 0.000675523246, 3.01210427  , 3.91        , 3           , 12          , 0.0618589446, 0
-0.0068041957, -0.0185573548, -9.789653   , -0.000366008055, -0.0002689063, 0.00051392836, -0.5146285  , -0.06606445 , 0.325198859 , 0.00201000669, 0.0006728238, 3.01210952  , 3.92        , 3           , 14          , 0.000230293634, 0.000571181
0.019930657 , -0.0188543424, -9.794422   , 0.000412734575, -0.000615608646, 0.0010820824, -0.5154375  , -0.06606445 , 0.326277465 , 0.00201414083, 0.000666646 , 3.01212049  , 3.93        , 3           , 15          , 0           , 3.306096E-05
0.0187785942, -0.00706613436, -9.807037   , 0.00027363433, -0.001109304, 0.000515589665, -0.5154375  , -0.06606445 , 0.326277465 , 0.00201688078, 0.000655542652, 3.01212525  , 3.94        , 3           , 50          , 0           , 0
0.0006354321, 0.0007087197, -9.775053   , 0.000130863744, -0.0008286948, 0.0002328276, -0.5160442  , -0.06619927 , 0.325266272 , 0.002018191 , 0.000647251 , 3.012128    , 3.95        , 3           , 11          , 0.06187842  , 0.0618784465
0.01770087  , -0.0205855034, -9.808458   , -0.001565562, -0.00048819877, 1.35654973E-05, -0.5145611  , -0.06619927 , 0.325266272 , 0.00200253562, 0.0006423688, 3.012128    , 3.96        , 3           , 12          , 0.0618589446, 0
0.01158775  , -0.0349834748, -9.799524   , -0.000655138, 0.00106661778, 0.0003734039, -0.5156397  , -0.06613186 , 0.3264797   , 0.00199598656, 0.000653027557, 3.012132    , 3.97        , 3           , 14          , 0.000230293634, 0.000571181
0.00186105061, -0.0150370412, -9.793189   , -0.0007931704, 0.0002913555, -0.0007585977, -0.5156397  , -0.06613186 , 0.3264797   , 0.00198804983, 0.0006559563, 3.0121243   , 3.98        , 3           , 15          , 0           , 3.306096E-05
0.000686138868, 0.00119615532, -9.785898   , -0.00206482527, 0.000282757042, -0.00203594239, -0.516179   , -0.06619927 , 0.325064033 , 0.00196738821, 0.0006588243, 3.0121038   , 3.99        , 3           , 50          , 0           , 0
0.0115449643, 0.00284748571, -9.778126   , -0.002201622, -0.00042210368, -0.000413080852, -0.514695942, -0.06613186 , 0.325064033 , 0.001945331 , 0.0006546258, 3.0120995   , 4           , 3           , 11          , 0.06294522  , 0.06294524
0.0175974946, -0.0242400672, -9.794914   , -0.0004359836, -0.000480557035, -0.000193055326, -0.5155049  , -0.0659970343, 0.3264123   , 0.00194096984, 0.000649824 , 3.0120976   , 4.01        , 3           , 12          , 0.06292442  , 0
0.0230934452, -0.0153261879, -9.781276   , -0.000509545, 0.000222880612, 0.000725947029, -0.5155049  , -0.0659970343, 0.3264123   , 0.00193587912, 0.0006520388, 3.01210523  , 4.02        , 3           , 14          , 0.00023030008, 0.000571178563
0.0162555762, -0.0170692019, -9.775911   , -0.00114055292, -0.0008372895, -0.0006206962, -0.516381264, -0.06606445 , 0.325131446 , 0.00192446948, 0.000643677835, 3.01209855  , 4.03        , 3           , 15          , 0           , 3.304639E-05
0.02864769  , -0.0108285714, -9.79613    , -0.00149914029, 0.000216190529, -0.00118579017, -0.5144263  , -0.0662666857, 0.325266272 , 0.00190947042, 0.000645862368, 3.012087    , 4.04        , 3           , 50          , 0           , 0
0.02224768  , -0.0125889927, -9.78714752 , -0.0003007763, 0.0007170491, -0.000331821328, -0.5155049  , -0.06606445 , 0.326210052 , 0.00190646062, 0.000653039257, 3.01208377  , 4.05        , 3           , 11          , 0.06294522  , 0.06294524
0.01288502  , -0.004324898, -9.796676   , 0.00139511563, 0.0005173364, 0.000170195257, -0.5155049  , -0.06606445 , 0.326210052 , 0.00192041288, 0.0006582093, 3.0120852   , 4.06        , 3           , 12          , 0.06292442  , 0
0.000142972916, -0.0127086248, -9.80856    , -0.0009323695, 0.0002200196, 0.00213665888, -0.516246438, -0.06592962 , 0.325131446 , 0.00191110326, 0.0006603685, 3.01210666  , 4.07        , 3           , 14          , 0.00023030008, 0.000571178563
0.0151921241, -0.0314697064, -9.783664   , 0.00152882573, 0.00206690026, 0.000455777918, -0.514695942, -0.0662666857, 0.325198859 , 0.00192639465, 0.0006810288, 3.01211143  , 4.08        , 3           , 15          , 0           , 3.304639E-05
0.0076380875, -0.0241216123, -9.795443   , 0.000544309558, 0.00121551915, 9.669491E-05, -0.5155049  , -0.06592962 , 0.326344877 , 0.00193183834, 0.0006931821, 3.01211238  , 4.09        , 3           , 50          , 0           , 0
0.0131713524, -0.0151774911, -9.790842   , -0.000381759921, 0.00282832026, -0.000187603859, -0.5155049  , -0.06592962 , 0.326344877 , 0.0019279985, 0.0007215298, 3.012111    , 4.1         , 3           , 11          , 0.06401705  , 0.06401708
-0.01696024 , -0.0297569856, -9.778478   , -0.00109003671, 0.0031051063, -0.00160314958, -0.516246438, -0.0659970343, 0.325266272 , 0.00191708666, 0.000752611842, 3.01209474  , 4.11        , 3           , 12          , 0.06399488  , 0
0.0191530157, -0.007134949, -9.788052   , 0.00146498159, 0.00065860647, 0.000100130615, -0.5145611  , -0.06619927 , 0.3248618   , 0.00193173729, 0.0007591958, 3.01209569  , 4.12        , 3           , 14          , 0.0002303036, 0.0005711684
-0.002895848, -0.002299469, -9.807184   , 0.00111969258, -0.0007516026, 0.00143836788, -0.5154375  , -0.0659970343, 0.326277465 , 0.0019429453, 0.0007516518, 3.01211     , 4.13        , 3           , 15          , 0           , 3.30228868E-05
-0.000592966564, -6.272737E-05, -9.809417   , -0.0005925753, 0.00261571421, -0.000259551365, -0.5154375  , -0.0659970343, 0.326277465 , 0.00193701731, 0.0007778139, 3.01210761  , 4.14        , 3           , 50          , 0           , 0
0.0215185471, -0.000830288, -9.792528   , 0.00131507777, 0.00234704069, -0.000462999073, -0.516179   , -0.06606445 , 0.325266272 , 0.00195016467, 0.0008012932, 3.01210284  , 4.15        , 3           , 11          , 0.06401705  , 0.06401708
0.00081108883, -0.0263021719, -9.79414749 , -0.0006408815, -0.00174901914, 0.00093417766, -0.514695942, -0.06606445 , 0.325266272 , 0.00194376311, 0.000783784839, 3.012112    , 4.16        , 3           , 12          , 0.06399488  , 0
-0.013414165, -0.0044934405, -9.789194   , 0.0007582357, 0.000865007634, 0.000732873043, -0.5153701  , -0.0659970343, 0.326547116 , 0.0019513513, 0.0007924207, 3.01211953  , 4.17        , 3           , 14          , 0.0002303036, 0.0005711684
0.006724006 , 0.007052494 , -9.803906   , 0.00110881089, 0.00128974055, 9.94608854E-05, -0.5153701  , -0.0659970343, 0.326547116 , 0.00196244032, 0.000805316144, 3.01212049  , 4.18        , 3           , 15          , 0           , 3.30228868E-05
-0.00108647533, 0.0003559366, -9.79812    , 0.000969343644, 0.000796043256, -0.00110274123, -0.5160442  , -0.0659970343, 0.325131446 , 0.001972125 , 0.000813298335, 3.01210952  , 4.19        , 3           , 50          , 0           , 0
-0.00261436123, -0.009585185, -9.78868    , 0.00182110781, 9.785801E-05, 0.00066600705, -0.514830768, -0.06619927 , 0.32499662  , 0.00199021213, 0.0008142184, 3.01211667  , 4.2         , 3           , 11          , 0.06509349  , 0.06509351
0.0117322411, -0.0210295338, -9.789974   , -0.000238747234, 0.00261809817, 0.0011548053, -0.5156397  , -0.0662666857, 0.3264797   , 0.00198783376, 0.000840376248, 3.012128    , 4.21        , 3           , 12          , 0.06506985  , 0
0.0134619046, 0.004697348 , -9.79799    , 0.0006710651, 0.004172912 , 0.000455128175, -0.5156397  , -0.0662666857, 0.3264797   , 0.00199454837, 0.0008820962, 3.012133    , 4.22        , 3           , 14          , 0.000230324833, 0.000571175769
0.000588065945, -0.0104884226, -9.799507   , -0.0004579638, 0.003954096 , -0.000186174177, -0.516381264, -0.06606445 , 0.325131446 , 0.00198996719, 0.0009216407, 3.012131    , 4.23        , 3           , 15          , 0           , 3.299969E-05
-0.008312213, -0.0293750819, -9.787902   , -0.00100793212, 0.000853057834, -0.000970559369, -0.514830768, -0.0659970343, 0.32499662  , 0.00197987887, 0.000930190552, 3.01212144  , 4.24        , 3           , 50          , 0           , 0
-0.00754419249, -0.0063611  , -9.790964   , -0.000358060875, -0.00202868623, -0.0007601409, -0.5153701  , -0.0659970343, 0.326277465 , 0.00197629072, 0.0009099188, 3.01211381  , 4.25        , 3           , 11          , 0.06509349  , 0.06509351
0.008173397 , -0.0209356062, -9.805368   , -0.00185382215, 0.000706549035, 0.000226057076, -0.5153701  , -0.0659970343, 0.326277465 , 0.00195775484, 0.000916979858, 3.01211572  , 4.26        , 3           , 12          , 0.06506985  , 0
0.0185991749, -0.0152458167, -9.789445   , 0.00224628649, -0.000251234334, 0.000314268138, -0.516179   , -0.0659970343, 0.325064033 , 0.00198022043, 0.0009144614, 3.012119    , 4.27        , 3           , 14          , 0.000230324833, 0.000571175769
0.003415159 , -0.00239656866, -9.800355   , 0.001049172 , -0.0009632659, -0.0001868541, -0.515033   , -0.06619927 , 0.325198859 , 0.00199071039, 0.000904832443, 3.01211715  , 4.28        , 3           , 15          , 0           , 3.299969E-05
-0.005184126, -0.00497072749, -9.809924   , -0.00135338376, -0.0005571522, 8.514022E-05, -0.515302658, -0.06592962 , 0.326210052 , 0.001977177 , 0.0008992593, 3.01211762  , 4.29        , 3           , 50          , 0           , 0
0.013417122 , 0.00466106646, -9.787143   , -0.00121655082, 0.000218093963, -0.0008312325, -0.515302658, -0.06592962 , 0.326210052 , 0.00196490088, 0.000901392661, 3.01211     , 4.3         , 3           , 11          , 0.0661741048, 0.06617413
0.027708564 , -0.0184330866, -9.81244    , -0.00206508068, 0.000423536956, -0.00118802965, -0.516179   , -0.0659970343, 0.325064033 , 0.00194423937, 0.0009056513, 3.0120976   , 4.31        , 3           , 12          , 0.0661489144, 0
0.00543527771, -0.01958201 , -9.795892   , -0.00261979061, -0.00148084387, 7.782585E-05, -0.514695942, -0.06613186 , 0.325131446 , 0.001918042 , 0.0008908414, 3.01209855  , 4.32        , 3           , 14          , 0.000230341509, 0.000571186
0.0205315   , -0.03518051 , -9.772338   , -0.00481093442, -0.00107329967, -0.000355535623, -0.5153701  , -0.0662666857, 0.3264123   , 0.00186992949, 0.000880114967, 3.01209474  , 4.33        , 3           , 15          , 0           , 3.29775939E-05
0.0118084121, -0.0214141645, -9.809862   , -0.00256523746, 0.0018280251, 0.000648328743, -0.5153701  , -0.0662666857, 0.3264123   , 0.001844283 , 0.000898383267, 3.01210141  , 4.34        , 3           , 50          , 0           , 0
0.002823349 , -0.0114308977, -9.795426   , 0.0005377095, 0.00248255325, -0.0003957241, -0.516313851, -0.06606445 , 0.325198859 , 0.00184965634, 0.0009232161, 3.0120976   , 4.35        , 3           , 11          , 0.0661741048, 0.06617413
0.000738973729, -0.0254679  , -9.773805   , 0.0010374916, 0.00135963527, -0.000465789548, -0.514763355, -0.0662666857, 0.325131446 , 0.00186002709, 0.000936821 , 3.01209283  , 4.36        , 3           , 12          , 0.0661489144, 0
-0.00396109559, -0.00643537659, -9.781446   , 0.000542733062, 0.00142668327, -0.0007505232, -0.5153701  , -0.06606445 , 0.3264123   , 0.00186544727, 0.0009511018, 3.0120852   , 4.37        , 3           , 14          , 0.000230341509, 0.000571186
-0.010764922, -0.0126143061, -9.798698   , -0.00234806025, 0.000492017251, -0.00154240988, -0.5153701  , -0.06606445 , 0.3264123   , 0.001841952 , 0.0009560507, 3.01207     , 4.38        , 3           , 15          , 0           , 3.29775939E-05
-0.0197857339, -0.0106943222, -9.801472   , -0.00114526937, 0.00014818176, -0.000265937037, -0.516381264, -0.0662666857, 0.325131446 , 0.00183049671, 0.0009575372, 3.01206756  , 4.39        , 3           , 50          , 0           , 0
-0.0213375483, -0.02020849 , -9.7848     , 0.0004111261, -0.000474853, -0.000400922145, -0.5146285  , -0.06619927 , 0.325064033 , 0.00183456053, 0.000952684146, 3.01206326  , 4.4         , 3           , 11          , 0.06725849  , 0.06725851
0.017711807 , -0.0107569378, -9.77948952 , -0.00128620409, 0.000147210318, 0.00022786179, -0.515235245, -0.06565997 , 0.326277465 , 0.00182170107, 0.0009541521, 3.01206613  , 4.41        , 3           , 12          , 0.06723168  , 0
0.02322019  , -0.0103136348, -9.796169   , 0.002649976 , 0.003834298 , 0.000817015 , -0.515235245, -0.06565997 , 0.326277465 , 0.00184820872, 0.00099248  , 3.01207376  , 4.42        , 3           , 14          , 0.00023034848, 0.0005712038
0.009903584 , -0.032181222, -9.821672   , 0.00124662067, 0.00185378757, -0.0008878319, -0.516179   , -0.06619927 , 0.325266272 , 0.00186066586, 0.00101103436, 3.01206517  , 4.43        , 3           , 15          , 0           , 3.29609029E-05
-0.0236904435, -0.0296273567, -9.793445   , -0.0007329921, 0.00240354869, -0.0006136451, -0.514763355, -0.06619927 , 0.325198859 , 0.00185332983, 0.00103508134, 3.01205945  , 4.44        , 3           , 50          , 0           , 0
0.00958036352, -0.0182340667, -9.80851    , 0.000118796721, 0.00156458491, -4.59211333E-05, -0.515302658, -0.06606445 , 0.3264797   , 0.00185451738, 0.001050728 , 3.0120585   , 4.45        , 3           , 11          , 0.06725849  , 0.06725851
0.0149845872, -0.0174288079, -9.798522   , -0.00185179932, 0.0004249586, 0.00135581184, -0.515302658, -0.06606445 , 0.3264797   , 0.00183601363, 0.0010549525, 3.01207232  , 4.46        , 3           , 12          , 0.06723168  , 0
-0.004415189, -0.008216523, -9.78688049 , -0.0009944345, -0.00154026551, 0.0019218   , -0.516381264, -0.06606445 , 0.325131446 , 0.00182608957, 0.00103951478, 3.0120914   , 4.47        , 3           , 14          , 0.00023034848, 0.0005712038
0.00616297126, -0.0282174312, -9.780103   , -0.00325966254, -0.0007108578, -0.000912808347, -0.5145611  , -0.06606445 , 0.32499662  , 0.00179348339, 0.00103242265, 3.01208234  , 4.48        , 3           , 15          , 0           , 3.29609029E-05
0.00175964  , -0.0160119161, -9.771498   , 0.000420902739, -0.00237541553, 0.000231857965, -0.5153701  , -0.06606445 , 0.326547116 , 0.00179769448, 0.00100866426, 3.01208472  , 4.49        , 3           , 50          , 0           , 0
0.0157307088, -0.0238175485, -9.780012   , -0.000436950359, -0.000410207052, -0.00118172215, -0.5153701  , -0.06606445 , 0.326547116 , 0.00179332064, 0.00100449962, 3.0120728   , 4.5         , 3           , 11          , 0.0683462843, 0.06834632
-0.0170196537, -0.00443730876, -9.793289   , -0.00128595124, -0.0001343734, -0.001750314, -0.516246438, -0.0659970343, 0.325198859 , 0.00178044348, 0.00100318715, 3.01205564  , 4.51        , 3           , 12          , 0.06831776  , 0
0.008803572 , -0.0002650721, -9.782227   , 0.00266916677, -0.000107628352, 0.000245885283, -0.5149656  , -0.06613186 , 0.32499662  , 0.00180713763, 0.00100210647, 3.01205754  , 4.52        , 3           , 14          , 0.000230347345, 0.000571217039
-0.00195770524, 0.00396519061, -9.794947   , -0.0007138011, -0.00153837726, -0.0011847748, -0.515302658, -0.06592962 , 0.326142639 , 0.00179998775, 0.0009867441, 3.012046    , 4.53        , 3           , 15          , 0           , 3.29405375E-05
-0.0174997747, -0.003561444, -9.783797   , -0.0021327422, -0.00014010095, -0.000906652363, -0.515302658, -0.06592962 , 0.326142639 , 0.00177865149, 0.0009853592, 3.012037    , 4.54        , 3           , 50          , 0           , 0
-0.002232545, -0.0199140683, -9.80454    , 0.00322131137, 0.002430277 , -3.01126911E-05, -0.516246438, -0.0659970343, 0.325064033 , 0.00181086431, 0.00100966252, 3.01203656  , 4.55        , 3           , 11          , 0.0683462843, 0.06834632
0.0160313714, -0.007951658, -9.802542   , 0.00154117937, -0.000396831747, 0.000805258635, -0.514830768, -0.0659970343, 0.325131446 , 0.00182628445, 0.00100567949, 3.01204467  , 4.56        , 3           , 12          , 0.06831776  , 0
0.0219068136, -0.00490504038, -9.789829   , -0.0004404798, 0.000434491318, -5.027037E-05, -0.5154375  , -0.06613186 , 0.326277465 , 0.001821879 , 0.00101002527, 3.01204419  , 4.57        , 3           , 14          , 0.000230347345, 0.000571217039
0.0253870282, -0.0206849389, -9.805687   , -0.0007097823, -0.00238307333, -0.00146861409, -0.5154375  , -0.06613186 , 0.326277465 , 0.00181476644, 0.0009862214, 3.01202941  , 4.58        , 3           , 15          , 0           , 3.29405375E-05
0.0127042243, -0.0245571528, -9.817552   , -0.00155870884, -0.00182566768, 0.000506065146, -0.516313851, -0.0662666857, 0.325198859 , 0.00179918413, 0.0009679557, 3.01203465  , 4.59        , 3           , 50          , 0           , 0
0.0239842162, -0.0202586651, -9.793493   , -0.00213070284, -0.000421664445, 0.000223081821, -0.515033   , -0.06613186 , 0.324794382 , 0.0017778324, 0.00096372515, 3.01203656  , 4.6         , 3           , 11          , 0.0694371462, 0.06943719
0.0178539362, -0.0101954192, -9.812481   , -0.00353914453, -0.00127591181, -0.000632416864, -0.5151004  , -0.06606445 , 0.326344877 , 0.00174243492, 0.0009509771, 3.01203084  , 4.61        , 3           , 12          , 0.06940684  , 0
0.009039519 , 0.006175019 , -9.819261   , -0.000436216273, -0.000691776746, -0.00231228769, -0.5151004  , -0.06606445 , 0.326344877 , 0.00173805072, 0.000944099564, 3.01200747  , 4.62        , 3           , 14          , 0.000230354664, 0.000571218552
0.00462604454, -0.0127980616, -9.797678   , -0.00184876553, -0.000419756834, -0.0006232135, -0.516179   , -0.06619927 , 0.325266272 , 0.00171955721, 0.0009399127, 3.01200128  , 4.63        , 3           , 15          , 0           , 3.2922173E-05
-0.0126680126, -0.0184701048, -9.795122   , -0.00155625422, -0.002388801, -5.985908E-05, -0.514830768, -0.0657947958, 0.3249292   , 0.00170399412, 0.0009160257, 3.01200032  , 4.64        , 3           , 50          , 0           , 0
-0.00143228192, 0.00892858952, -9.79673    , 0.00237918412, 0.00157985475, 0.001659878 , -0.5151004  , -0.06592962 , 0.326344877 , 0.00172780117, 0.0009317958, 3.01201749  , 4.65        , 3           , 11          , 0.0694371462, 0.06943719
0.009936287 , 0.011959807 , -9.798438   , -0.003561122, 0.00322913076, -6.03989429E-05, -0.5151004  , -0.06592962 , 0.326344877 , 0.00169218949, 0.0009640881, 3.01201653  , 4.66        , 3           , 12          , 0.06940684  , 0
0.0146203488, -0.011102844, -9.799854   , -0.002973312, -0.00127208722, 0.00106544176, -0.5165161  , -0.06592962 , 0.325266272 , 0.00166246644, 0.00095134927, 3.012027    , 4.67        , 3           , 14          , 0.000230354664, 0.000571218552
0.004081109 , -0.0240261741, -9.811288   , -0.0007261913, 0.0009957076, -0.0008983136, -0.514830768, -0.0659970343, 0.325064033 , 0.001655196 , 0.0009613213, 3.01201844  , 4.68        , 3           , 15          , 0           , 3.2922173E-05
0.00117752049, -0.03218001 , -9.791908   , -0.0032593424, -0.000710870954, -0.0003476946, -0.515167832, -0.06606445 , 0.3264123   , 0.00162259943, 0.0009542182, 3.01201463  , 4.69        , 3           , 50          , 0           , 0
0.0156368241, 0.002813249 , -9.782162   , -0.00154338765, -0.0049228915, 0.000501334667, -0.515167832, -0.06606445 , 0.3264123   , 0.00160713249, 0.000904940534, 3.01201987  , 4.7         , 3           , 11          , 0.07053074  , 0.0705307946
0.02187575  , -0.00403750269, -9.77943    , -0.002685478, -0.00239644456, 0.0007825098, -0.516179   , -0.06606445 , 0.325333685 , 0.00158028456, 0.000880963635, 3.012028    , 4.71        , 3           , 12          , 0.07049855  , 0
0.02047988  , -0.009408161, -9.7876     , -0.0001588818, 0.000436389673, -0.00146159821, -0.514695942, -0.0659970343, 0.32499662  , 0.0015786828, 0.00088535063, 3.01201272  , 4.72        , 3           , 14          , 0.000230360456, 0.0005712248
0.0129905893, -0.00022220239, -9.809314   , 0.00294953352, 0.000175835739, -0.0008824709, -0.5155049  , -0.0663341  , 0.3264123   , 0.00160817034, 0.000887123053, 3.01200414  , 4.73        , 3           , 15          , 0           , 3.28977767E-05
0.0156072658, -0.03195187 , -9.775979   , 0.00322433771, 0.001585568 , -0.00200913427, -0.5155049  , -0.0663341  , 0.3264123   , 0.00164039549, 0.000903011358, 3.011984    , 4.74        , 3           , 50          , 0           , 0
0.00642356975, -0.0110449586, -9.788618   , 0.00267275725, -0.0006707623, 0.00165774766, -0.5164487  , -0.06606445 , 0.325535923 , 0.00166713807, 0.0008962764, 3.0120008   , 4.75        , 3           , 11          , 0.07053074  , 0.0705307946
0.0117559414, -0.01922493 , -9.789967   , 0.00182138337, -0.000113368325, -0.000605635, -0.514830768, -0.06613186 , 0.325131446 , 0.00168534636, 0.0008951528, 3.0119946   , 4.76        , 3           , 12          , 0.07049855  , 0
0.0139425145, -0.025563091, -9.791331   , -0.000435821421, -0.000410209323, 0.0007960829, -0.5154375  , -0.06592962 , 0.3264123   , 0.00168099545, 0.0008910372, 3.01200271  , 4.77        , 3           , 14          , 0.000230360456, 0.0005712248
-0.005249858, -0.008148442, -9.804062   , 0.00068905123, 0.000442122633, -0.000327497371, -0.5154375  , -0.06592962 , 0.3264123   , 0.001687883 , 0.000895464036, 3.01199937  , 4.78        , 3           , 15          , 0           , 3.28977767E-05
0.017859634 , -0.00751269842, -9.805239   , 0.0006886362, 0.0007236924, 0.00136816129, -0.516246438, -0.0659970343, 0.3254011   , 0.00169478159, 0.000902677944, 3.0120132   , 4.79        , 3           , 50          , 0           , 0
-0.00457952 , -0.028881792, -9.813183   , 0.000119518671, 0.00128299906, -0.00117640721, -0.5148982  , -0.0659970343, 0.325198859 , 0.00169591676, 0.0009155498, 3.01200128  , 4.8         , 3           , 11          , 0.071626775 , 0.07162682
0.00749265  , -0.004227845, -9.80666    , 0.00125192525, 0.00100907986, 0.00108872622, -0.5151004  , -0.06619927 , 0.326344877 , 0.00170844607, 0.0009256221, 3.01201272  , 4.81        , 3           , 12          , 0.0715926   , 0
0.009106495 , -0.0164604262, -9.797659   , -0.000446980965, 0.00184231508, 0.000799589034, -0.5151004  , -0.06619927 , 0.326344877 , 0.00170398387, 0.0009440316, 3.01202035  , 4.82        , 3           , 14          , 0.000230367936, 0.0005712214
0.0263241827, -0.0157601237, -9.797524   , 0.000403087615, 0.00128491456, 0.000802672 , -0.516179   , -0.06606445 , 0.325535923 , 0.0017080222, 0.000956867065, 3.01202846  , 4.83        , 3           , 15          , 0           , 3.286308E-05
0.0155278845, -0.008433781, -9.791701   , -0.0010034705, 0.00014910422, 0.0007943516, -0.514695942, -0.06613186 , 0.325131446 , 0.00169799512, 0.0009583445, 3.01203656  , 4.84        , 3           , 50          , 0           , 0
-0.005554421, 0.00581383659, -9.795419   , 0.000113853836, 0.00269083073, 0.001086062 , -0.5151004  , -0.06613186 , 0.326547116 , 0.00169914414, 0.0009852342, 3.01204753  , 4.85        , 3           , 11          , 0.071626775 , 0.07162682
-0.0137922214, -0.00174946617, -9.798677   , 0.00124652684, 0.00157219765, -0.00343100517, -0.5151004  , -0.06613186 , 0.326547116 , 0.00171157543, 0.00100101472, 3.0120132   , 4.86        , 3           , 12          , 0.0715926   , 0
-0.00757391937, -0.0112950373, -9.799573   , 0.0006972446, -0.00124726514, -0.000612603733, -0.5164487  , -0.06619927 , 0.325535923 , 0.00171854149, 0.0009885525, 3.012007    , 4.87        , 3           , 14          , 0.000230367936, 0.0005712214
0.02087659  , -0.0121370107, -9.782635   , -0.00268211914, -0.00324114016, -0.0006314445, -0.5151004  , -0.06606445 , 0.325131446 , 0.00169171428, 0.000956152 , 3.01200032  , 4.88        , 3           , 15          , 0           , 3.286308E-05
0.0281200744, -0.0162400976, -9.795253   , -0.00156569912, -0.000417846575, 0.0005083123, -0.515235245, -0.06586221 , 0.326344877 , 0.00167606212, 0.000951964932, 3.012006    , 4.89        , 3           , 50          , 0           , 0
0.035235595 , -0.0244640112, -9.789808   , 0.000684198 , 0.00128681876, -0.00145627523, -0.515235245, -0.06586221 , 0.326344877 , 0.00168281537, 0.0009648615, 3.01199174  , 4.9         , 3           , 11          , 0.07272495  , 0.0727250054
0.000290706754, -0.02947608 , -9.787837   , 0.002108137 , -0.0009561488, -0.0003230121, -0.516246438, -0.06613186 , 0.325603336 , 0.00170389377, 0.00095530547, 3.011988    , 4.91        , 3           , 12          , 0.0726887   , 0
-0.0146309109, -0.0270524658, -9.785681   , -0.00268786959, -0.00211488036, -0.000912210729, -0.514763355, -0.0662666857, 0.32499662  , 0.00167700637, 0.0009341721, 3.01197934  , 4.92        , 3           , 14          , 0.000230379141, 0.000571220764
-0.0008277064, -0.00739454152, -9.775551   , -0.00155915553, -0.00154410163, 0.002201837 , -0.515235245, -0.06606445 , 0.3264797   , 0.00166143512, 0.0009186943, 3.01200128  , 4.93        , 3           , 15          , 0           , 3.28274837E-05
0.009775953 , -0.035855446, -9.802255   , 0.00294598565, 0.00102053815, 0.000249051 , -0.515235245, -0.06606445 , 0.3264797   , 0.00169089751, 0.000928895432, 3.01200318  , 4.94        , 3           , 50          , 0           , 0
0.01708461  , -0.03499586 , -9.81485    , -0.0007116232, -0.00181994226, 0.000227591532, -0.516313851, -0.0659970343, 0.325333685 , 0.00168378325, 0.0009106925, 3.012006    , 4.95        , 3           , 11          , 0.07272495  , 0.0727250054
0.00771148037, -0.01558149 , -9.785914   , -0.00327363354, 0.00210477645, -0.000908335554, -0.5148982  , -0.06619927 , 0.325198859 , 0.00165103865, 0.0009317553, 3.01199651  , 4.96        , 3           , 12          , 0.0726887   , 0
-0.0116436472, -0.00142316706, -9.76927948 , 0.00238900655, -0.000672674563, -0.0006037987, -0.515302658, -0.0659970343, 0.326277465 , 0.00167492311, 0.00092503865, 3.01199079  , 4.97        , 3           , 14          , 0.000230379141, 0.000571220764
