Acc X       , Acc Y       , Acc Z       , Gyro X      , Gyro Y      , Gyro Z      , Magn X      , Magn Y      , Magn Z      , Euler X     , Euler Y     , Euler Z     , Time        , Status      , LowRate X   , LowRate Y   , LowRate Z    
0.374070525 , 0.04518226  , -9.809076   , -0.00173619343, -0.00042495213, 0.0001607801, -0.1841715  , -0.161790475, 0.4214642   , -0.00253069284, 0.0393885337, 2.3765614   , 0           , 3           , 11          , 0.0346410163, 0.0346410163
0.372040629 , 0.03163572  , -9.799204   , -0.00287963334, 0.00224227365, -0.000687977532, -0.184306324, -0.161723062, 0.421329379 , -0.00255976268, 0.0394109339, 2.37655473  , 0.01        , 3           , 12          , 0.0346410163, 0
0.3748369   , 0.038363535 , -9.796895   , -0.00174607034, 0.00140521687, -0.00124908658, -0.184104085, -0.161386   , 0.421261966 , -0.002577719, 0.0394249558, 2.37654138  , 0.02        , 3           , 50          , 0           , 0
0.374113441 , 0.05280496  , -9.795033   , -0.00201308168, -0.00169390859, -0.001113908, -0.184238911, -0.161183774, 0.4213968   , -0.00259828661, 0.03940799  , 2.376531    , 0.03        , 3           , 11          , 0.0346410163, 0.0346410163
0.375989169 , 0.024343757 , -9.79152    , -0.00172992062, -0.00169199507, 0.0001588274, -0.184508562, -0.161790475, 0.421194553 , -0.0026155205, 0.0393910632, 2.37653232  , 0.04        , 3           , 12          , 0.0346410163, 0
0.389293373 , 0.004318516 , -9.786982   , -4.82763535E-05, 0.0009943346, 0.000735926267, -0.184508562, -0.161790475, 0.421194553 , -0.00261571445, 0.0394010246, 2.37653947  , 0.05        , 3           , 50          , 0           , 0
0.379490435 , 0.0143834641, -9.793795   , -0.000330332521, 0.0008516405, 0.000169317558, -0.1841715  , -0.16165565 , 0.4209923   , -0.00261895079, 0.0394095443, 2.37654138  , 0.06        , 3           , 11          , 0.0346410163, 0.0346410163
0.3632164   , 0.0172741711, -9.791647   , -0.00301732449, 0.00167819241, 0.000581914734, -0.184238911, -0.161453411, 0.421531618 , -0.002648893, 0.0394263528, 2.376547    , 0.07        , 3           , 12          , 0.0346410163, 0
0.380107224 , 0.0270088725, -9.793285   , -0.00104464462, 0.0026770425, 0.00158153311, -0.184373736, -0.161520824, 0.421329379 , -0.002658718, 0.0394531563, 2.37656331  , 0.08        , 3           , 50          , 0           , 0
0.374821931 , 0.03835144  , -9.793279   , 0.00178343488, 0.001992231 , 0.00215869257, -0.184373736, -0.161520824, 0.421329379 , -0.002640032, 0.03947313  , 2.37658429  , 0.09        , 3           , 11          , 0.0346410163, 0.0346410163
0.365805328 , 0.04339926  , -9.787      , 0.000235010564, 0.0008554629, 0.00101956539, -0.1841715  , -0.161453411, 0.4213968   , -0.00263728015, 0.0394817181, 2.37659478  , 0.1         , 3           , 12          , 0.0346410163, 0
0.3447469   , 0.0220323578, -9.800357   , -0.000749627652, 4.081172E-06, 0.000448579434, -0.1841715  , -0.16165565 , 0.42159903  , -0.00264460058, 0.03948177  , 2.37659955  , 0.11        , 3           , 50          , 0           , 0
0.368297935 , 0.02265371  , -9.798819   , 0.0007970763, 0.001422413 , 0.001023067 , -0.184238911, -0.16165565 , 0.4213968   , -0.00263622846, 0.0394960232, 2.376609    , 0.12        , 3           , 11          , 0.0346410163, 0.0346410163
0.3659108   , 0.0199023262, -9.777605   , 0.00235288567, 0.0008697861, 0.00046436736, -0.184238911, -0.16165565 , 0.4213968   , -0.002612516, 0.0395047329, 2.37661386  , 0.13        , 3           , 12          , 0.0346410163, 0
0.3628487   , 0.03163167  , -9.76628    , 0.000235588872, 0.0005738938, -0.0003935559, -0.184104085, -0.161723062, 0.421261966 , -0.002610316, 0.0395104624, 2.37661     , 0.14        , 3           , 50          , 0           , 0
0.375956118 , 0.0225315932, -9.78926849 , -0.000194406064, 0.00183807116, -0.0005348473, -0.1841715  , -0.161318585, 0.4213968   , -0.00261247484, 0.03952883  , 2.3766048   , 0.15        , 3           , 11          , 0.0346410163, 0.0346410163
0.380241573 , 0.03470565  , -9.801389   , -0.00160420442, 0.001406175 , -0.000118276716, -0.184306324, -0.161453411, 0.4214642   , -0.00262856437, 0.03954289  , 2.37660336  , 0.16        , 3           , 12          , 0.0346410163, 0
0.3802292   , 0.04585442  , -9.762472   , -0.00244636135, 0.000414968381, 0.000300059968, -0.184036672, -0.161520824, 0.4209249   , -0.00265290914, 0.03954705  , 2.37660623  , 0.17        , 3           , 50          , 0           , 0
0.3800307   , 0.05945626  , -9.780949   , -0.000462240219, -0.0009794863, 0.0005896463, -0.184036672, -0.161520824, 0.4209249   , -0.00265729753, 0.0395372659, 2.37661242  , 0.18        , 3           , 11          , 0.0346410163, 0.0346410163
0.3858877   , 0.052668266 , -9.795395   , -0.000743065437, -0.001403746, -0.000259934, -0.184238911, -0.161318585, 0.421261966 , -0.00266482984, 0.0395232178, 2.37661     , 0.19        , 3           , 12          , 0.0346410163, 0
0.3870046   , 0.0310318321, -9.805872   , -3.934024E-05, -0.0009766305, -0.000679793535, -0.184441149, -0.161453411, 0.421261966 , -0.00266567222, 0.0395132564, 2.37660336  , 0.2         , 3           , 50          , 0           , 0
0.398326546 , 0.03402525  , -9.796281   , 0.000668773369, -0.00125341746, 0.000453214685, -0.184441149, -0.161588237, 0.421127141 , -0.00265880162, 0.0395007357, 2.37660813  , 0.21        , 3           , 11          , 0.03466991  , 0.03466991
0.4012986   , 0.0190985352, -9.795869   , -0.000601613545, -0.00140279578, 0.000164534009, -0.184441149, -0.161588237, 0.421127141 , -0.00266475044, 0.03948671  , 2.37660956  , 0.22        , 3           , 12          , 0.0346688181, 0
0.391744584 , 0.0156024732, -9.796409   , -0.00187859952, -0.0002851327, -0.000687268854, -0.184306324, -0.161453411, 0.421329379 , -0.0026838067, 0.03948384  , 2.37660241  , 0.23        , 3           , 50          , 0           , 0
0.3941505   , 0.0286350846, -9.789104   , -0.00104083249, 0.00169155432, -0.000256474246, -0.184104085, -0.161453411, 0.421329379 , -0.0026943183, 0.03950075  , 2.3766005   , 0.24        , 3           , 11          , 0.03466991  , 0.03466991
0.372331768 , 0.0248041768, -9.781603   , -0.00047740998, 0.00183615321, -0.00152504223, -0.1841715  , -0.161588237, 0.4214642   , -0.00269969623, 0.0395190753, 2.37658525  , 0.25        , 3           , 12          , 0.0346688181, 0
0.348118722 , 0.0359959565, -9.804792   , -0.00131726812, 0.00028181402, -0.001955186, -0.1841715  , -0.161588237, 0.4214642   , -0.00271364185, 0.03952184  , 2.37656522  , 0.26        , 3           , 50          , 0           , 0
0.37143445  , 0.0208043382, -9.796542   , -0.00018518795, 7.893483E-06, -0.000255127234, -0.184104085, -0.161588237, 0.421127141 , -0.002715594, 0.03952191  , 2.37656283  , 0.27        , 3           , 11          , 0.03466991  , 0.03466991
0.392788738 , 0.00417318568, -9.756221   , 0.002075413 , -0.000117607, 0.0006028037, -0.184373736, -0.161386   , 0.421261966 , -0.002694601, 0.039520748 , 2.376569    , 0.28        , 3           , 12          , 0.0346688181, 0
0.361943841 , 0.0249475967, -9.78801    , 0.000521531561, 1.26714785E-05, 0.00087831507, -0.184104085, -0.161386   , 0.421194553 , -0.00268904143, 0.0395209   , 2.37657762  , 0.29        , 3           , 50          , 0           , 0
0.383575469 , 0.0152364112, -9.793308   , -0.00117217784, 0.0008093495, 0.00171941356, -0.184104085, -0.161386   , 0.421194553 , -0.002606349, 0.0387760364, 2.3765986   , 0.3         , 3           , 11          , 0.03475345  , 0.0347534455
0.4008417   , 0.0159760341, -9.804924   , 9.82534E-05 , 0.0008179421, 0.0008777275, -0.1841715  , -0.161520824, 0.421127141 , -0.00260502612, 0.03878425  , 2.37660718  , 0.31        , 3           , 12          , 0.0347538963, 0
0.378835052 , 0.0275409836, -9.812728   , 0.000239429646, 0.0006781111, -0.0003932498, -0.184778214, -0.161520824, 0.421531618 , -0.00260278163, 0.038791012 , 2.37660336  , 0.32        , 3           , 50          , 0           , 0
0.3984828   , 0.04888149  , -9.786727   , 0.000241683811, 0.000255764142, -0.000111363312, -0.184306324, -0.161520824, 0.421194553 , -0.002600409, 0.0387935676, 2.37660241  , 0.33        , 3           , 11          , 0.03475345  , 0.0347534455
0.3946816   , 0.036281202 , -9.783645   , 0.00123280252, -0.0003006819, -0.0003901594, -0.184306324, -0.161520824, 0.421194553 , -0.00258823 , 0.0387905426, 2.3765986   , 0.34        , 3           , 12          , 0.0347538963, 0
0.398800254 , 0.0371613577, -9.791293   , -0.000467542035, 0.0009549036, 0.000451504136, -0.184306324, -0.161723062, 0.421261966 , -0.00259273266, 0.0388001055, 2.376603    , 0.35        , 3           , 50          , 0           , 0
0.386506379 , 0.0301076341, -9.797744   , -0.00102764275, 0.000106391235, 0.00143644959, -0.184238911, -0.161520824, 0.421531618 , -0.002602453, 0.0388012044, 2.37661719  , 0.36        , 3           , 11          , 0.03475345  , 0.0347534455
0.366637379 , 0.0397582427, -9.780681   , 0.000525830837, -2.38892426E-05, 0.000454594643, -0.184036672, -0.161453411, 0.421329379 , -0.00259701815, 0.03880098  , 2.37662148  , 0.37        , 3           , 12          , 0.0347538963, 0
0.372349    , 0.027942583 , -9.775713   , -0.000240117341, -0.00235205749, -0.000894659839, -0.184238911, -0.161588237, 0.4214642   , -0.00259976438, 0.0387774371, 2.376613    , 0.38        , 3           , 50          , 0           , 0
0.377604753 , 0.0170224346, -9.767131   , -0.00172798173, -0.00137660815, -0.00132386119, -0.184238911, -0.161588237, 0.4214642   , -0.00261755427, 0.03876364  , 2.37659955  , 0.39        , 3           , 11          , 0.03475345  , 0.0347534455
0.364664733 , 0.0280435253, -9.778936   , -0.00217949157, 0.00130556081, -0.000333393458, -0.184373736, -0.161588237, 0.421261966 , -0.0027794342, 0.0388701223, 2.376591    , 0.4         , 3           , 12          , 0.0348953828, 0
0.379652739 , 0.0221029259, -9.808677   , -0.00386714167, -0.000184117656, -0.00104991684, -0.1847108  , -0.161386   , 0.42159903  , -0.00281851622, 0.03886826  , 2.37658048  , 0.41        , 3           , 50          , 0           , 0
0.411280632 , 0.0167666562, -9.808006   , -0.000834790466, 0.0008218978, 0.000943521271, -0.1841715  , -0.161723062, 0.421329379 , -0.00282649626, 0.0388765037, 2.37659     , 0.42        , 3           , 11          , 0.0176996812, 0.0176997539
0.3931932   , 0.0241402537, -9.790938   , 0.0009972985, 0.00139743846, -0.000601006846, -0.1841715  , -0.161723062, 0.421329379 , -0.002816759, 0.0388904549, 2.37658429  , 0.43        , 3           , 12          , 0.0348953828, 0
0.404382378 , 0.021669969 , -9.766456   , 0.00185101549, 0.000136126328, -0.0003164714, -0.184441149, -0.161520824, 0.4213968   , -0.00279837218, 0.03889181  , 2.376581    , 0.44        , 3           , 50          , 0           , 0
0.4058461   , 0.0279882811, -9.771842   , 0.00375292846, 0.0009937125, -0.000800720765, -0.184104085, -0.161588237, 0.4213968   , -0.002761156, 0.03890173  , 2.37657285  , 0.45        , 3           , 11          , 0.0176996812, 0.0176997539
0.386437953 , 0.06345429  , -9.784499   , 0.00177971506, 0.000135645518, -0.00151758478, -0.184104085, -0.161588237, 0.421261966 , -0.00274394988, 0.0389030427, 2.37655759  , 0.46        , 3           , 12          , 0.0348953828, 0
0.355647445 , 0.059797734 , -9.797404   , 0.003688039 , -6.263167E-05, 4.49350664E-05, -0.184104085, -0.161588237, 0.421261966 , -0.00270705088, 0.0389024131, 2.376558    , 0.47        , 3           , 50          , 0           , 0
0.370394647 , 0.0407178029, -9.810478   , 0.0005810105, 0.000197928835, 0.00186737638, -0.184306324, -0.161790475, 0.4213968   , -0.00270051486, 0.0389044471, 2.37657666  , 0.48        , 3           , 11          , 0.0176996812, 0.0176997539
0.394498885 , 0.0236353576, -9.779631   , -0.0005599899, 0.0023724162, 0.00101785921, -0.184373736, -0.161588237, 0.421531618 , -0.00270572281, 0.0389282   , 2.37658715  , 0.49        , 3           , 12          , 0.0348953828, 0
0.360155642 , 0.02320205  , -9.79933    , 0.000308862916, 0.00141481415, 0.0001709917, -0.1841715  , -0.161453411, 0.421059728 , -0.002959898, 0.03904655  , 2.37657857  , 0.5         , 3           , 50          , 0           , 0
0.3631211   , 0.03944033  , -9.807828   , -0.000246455282, -0.000630355556, -0.000823669368, -0.1841715  , -0.161453411, 0.421059728 , -0.00296268263, 0.0390402265, 2.37657     , 0.51        , 3           , 11          , 0.0134398285, 0.0134398267
0.391862959 , 0.0219473131, -9.804969   , -0.001372229, -0.00134190579, -5.30438629E-05, -0.184441149, -0.161520824, 0.421261966 , -0.00297642429, 0.0390268   , 2.37657     , 0.52        , 3           , 12          , 0.03509217  , 0
0.392358661 , 0.0295646954, -9.790921   , 0.000671736256, -0.0005537536, 0.000310869073, -0.184306324, -0.161520824, 0.421194553 , -0.00296958559, 0.03902127  , 2.37657285  , 0.53        , 3           , 50          , 0           , 0
0.369212031 , 0.0342550837, -9.763508   , 0.00101433322, 0.0016307648, 0.0009515876, -0.184104085, -0.161588237, 0.421261966 , -0.002959071, 0.0390376039, 2.37658238  , 0.54        , 3           , 11          , 0.0134398285, 0.0134398267
0.374757856 , 0.0374068022, -9.780628   , 0.000454095163, 0.000571073033, -0.000112188973, -0.184104085, -0.161588237, 0.421261966 , -0.002954573, 0.0390433148, 2.37658143  , 0.55        , 3           , 12          , 0.03509217  , 0
0.3864716   , 0.0233842079, -9.81088    , -0.000325752277, 0.00105855591, -0.00138646981, -0.184238911, -0.161520824, 0.4209923   , -0.00295837317, 0.03905386  , 2.37656713  , 0.56        , 3           , 50          , 0           , 0
0.387334853 , 0.0215538535, -9.806361   , -0.000322675129, 0.00035464135, -0.00209389837, -0.184306324, -0.161453411, 0.421666443 , -0.00296241953, 0.0390573367, 2.37654614  , 0.57        , 3           , 11          , 0.0134398285, 0.0134398267
0.39605093  , 0.0309179667, -9.803543   , -0.0019371605, -0.001486512, -0.00139794755, -0.184373736, -0.161520824, 0.4214642   , -0.00298233447, 0.03904243  , 2.37653279  , 0.58        , 3           , 12          , 0.03509217  , 0
0.3900877   , 0.03271003  , -9.779175   , -0.00165287592, -0.001554986, 0.00121673255, -0.184373736, -0.161520824, 0.4214642   , -0.002998388, 0.03902692  , 2.37654471  , 0.59        , 3           , 50          , 0           , 0
0.37562567  , 0.0342411436, -9.781539   , 0.00347385  , 0.00223054644, 0.000963702158, -0.184306324, -0.161790475, 0.421127141 , -0.002989997, 0.0391088277, 2.3765533   , 0.6         , 3           , 11          , 0.0113543356, 0.0113542983
0.388309151 , 0.03141866  , -9.791397   , 0.00297741173, 0.002579158 , 0.000184961857, -0.1841715  , -0.161453411, 0.421194553 , -0.00296015246, 0.0391346253, 2.3765552   , 0.61        , 3           , 12          , 0.0353429057, 0
0.3896531   , 0.019339554 , -9.826692   , -5.121349E-05, 0.00101001677, -0.000184753531, -0.184306324, -0.161790475, 0.421329379 , -0.00296073779, 0.03914472  , 2.3765533   , 0.62        , 3           , 50          , 0           , 0
0.3793895   , 0.008945461 , -9.786587   , -0.00102972693, -0.000897229358, 0.0007965893, -0.184104085, -0.161453411, 0.421194553 , -0.0029707225, 0.0391357653, 2.3765614   , 0.63        , 3           , 11          , 0.0113543356, 0.0113542983
0.394435734 , 0.021352388 , -9.771504   , -0.000474464527, 0.0009367608, -0.000116203017, -0.184104085, -0.161453411, 0.421194553 , -0.00297551253, 0.03914513  , 2.37656     , 0.64        , 3           , 12          , 0.0353429057, 0
0.408158839 , 0.0360355526, -9.757779   , -0.00238725962, 0.00212051743, -0.000970860536, -0.184373736, -0.161520824, 0.421329379 , -0.00299976859, 0.0391663052, 2.37655     , 0.65        , 3           , 50          , 0           , 0
0.378663063 , 0.02695527  , -9.772505   , -0.00117585657, -5.349298E-05, -0.000474186, -0.184104085, -0.161723062, 0.4213968   , -0.0030117135, 0.03916576  , 2.37654519  , 0.66        , 3           , 11          , 0.0113543356, 0.0113542983
0.383506268 , 0.009824115 , -9.793783   , -0.002230812, -0.0010461366, -0.00175206212, -0.184373736, -0.161588237, 0.421329379 , -0.00303470786, 0.03915525  , 2.376528    , 0.67        , 3           , 12          , 0.0353429057, 0
0.387360036 , 0.0305012837, -9.783725   , -0.00300829019, -0.0006994282, -0.000130550732, -0.184373736, -0.161588237, 0.421329379 , -0.0030648408, 0.039148245 , 2.376527    , 0.68        , 3           , 50          , 0           , 0
0.369603753 , 0.02214882  , -9.787511   , -0.0024340048, -0.00266656512, -0.0006960292, -0.1841715  , -0.161453411, 0.4214642   , -0.003089451, 0.03912156  , 2.37652     , 0.69        , 3           , 11          , 0.0113543356, 0.0113542983
0.393897533 , 0.0417464674, -9.795832   , -0.00365954055, -0.000621231447, -0.000696588831, -0.184441149, -0.161588237, 0.421329379 , -0.003008706, 0.03914197  , 2.37651753  , 0.7         , 3           , 12          , 0.03564603  , 0
0.379038334 , 0.05046957  , -9.788677   , -0.000556003943, 0.000103692539, -0.00011594293, -0.184104085, -0.161520824, 0.421261966 , -0.00301431236, 0.039143    , 2.37651658  , 0.71        , 3           , 50          , 0           , 0
0.372556031 , 0.04328626  , -9.777004   , -0.0004197105, 0.001090125 , -0.00018439992, -0.184104085, -0.161520824, 0.421261966 , -0.00301858247, 0.0391538963, 2.37651467  , 0.72        , 3           , 11          , 0.0101346336, 0.0101346066
0.379357278 , 0.03830433  , -9.795053   , 0.00133192865, 0.00377692934, -0.000666487264, -0.184306324, -0.161857888, 0.421194553 , -0.00300552952, 0.03919165  , 2.376508    , 0.73        , 3           , 12          , 0.03564603  , 0
0.376978755 , 0.0346672721, -9.778814   , 0.00268079643, 0.002237392 , -0.0012276934, -0.184373736, -0.161183774, 0.421329379 , -0.00297920662, 0.0392139927, 2.3764956   , 0.74        , 3           , 50          , 0           , 0
0.380005777 , 0.0233558211, -9.780194   , -0.000273247424, -3.518187E-05, -0.000750552048, -0.184238911, -0.16165565 , 0.4214642   , -0.002982233, 0.0392136164, 2.376488    , 0.75        , 3           , 11          , 0.0101346336, 0.0101346066
0.3883777   , 0.008338107 , -9.771605   , -6.08340379E-05, -0.000104139428, -0.000325866684, -0.184238911, -0.16165565 , 0.4214642   , -0.0029829694, 0.03921256  , 2.376485    , 0.76        , 3           , 12          , 0.03564603  , 0
0.389310658 , 0.010135103 , -9.772494   , 0.000998222 , 4.38086281E-05, 0.000809438643, -0.184306324, -0.161790475, 0.421329379 , -0.00297266943, 0.0392130166, 2.37649274  , 0.77        , 3           , 50          , 0           , 0
0.390151978 , 0.0390110239, -9.774628   , 0.0005706703, 0.000674461364, -0.0005336135, -0.184373736, -0.161318585, 0.421329379 , -0.0029671723, 0.03921975  , 2.37648749  , 0.78        , 3           , 11          , 0.0101346336, 0.0101346066
0.3696506   , 0.0275429785, -9.781612   , -0.000924698, 0.00319851935, -0.0006778907, -0.184104085, -0.16165565 , 0.4213968   , -0.00297668832, 0.03925171  , 2.37648034  , 0.79        , 3           , 12          , 0.03564603  , 0
0.38355583  , 0.0138814505, -9.792862   , -0.00090664794, 0.002894143 , -0.000536465261, -0.184104085, -0.16165565 , 0.4213968   , -0.00295847259, 0.0392428637, 2.37647653  , 0.8         , 3           , 50          , 0           , 0
0.378151417 , 0.0504953228, -9.793203   , -0.00138636155, 4.759704E-06, -0.000119411692, -0.184306324, -0.161453411, 0.421194553 , -0.00297238282, 0.0392429046, 2.376475    , 0.81        , 3           , 11          , 0.009381777 , 0.009381767
0.379325867 , 0.038725242 , -9.786012   , -0.0020162682, -0.001055405, 0.000441072916, -0.184306324, -0.161790475, 0.4213968   , -0.00299237156, 0.0392323621, 2.37647939  , 0.82        , 3           , 12          , 0.0359998047, 0
0.378982276 , 0.047746025 , -9.783717   , -0.00321719749, -0.0009227396, 0.0005769616, -0.184508562, -0.161318585, 0.421329379 , -0.00302431569, 0.0392231643, 2.376485    , 0.83        , 3           , 50          , 0           , 0
0.383603156 , 0.0224004127, -9.777007   , -0.00209115329, -0.000422366633, -0.00153604231, -0.184508562, -0.161318585, 0.421329379 , -0.00304582785, 0.0392188877, 2.37646985  , 0.84        , 3           , 11          , 0.009381777 , 0.009381767
0.3826692   , 0.0219417475, -9.771591   , -0.00116410491, -0.00217593857, -0.000757496164, -0.1841715  , -0.16165565 , 0.421127141 , -0.00305776228, 0.0391971022, 2.3764627   , 0.85        , 3           , 12          , 0.0359998047, 0
0.375229537 , 0.0351850465, -9.792385   , -0.00102063746, -0.00259733037, -0.000474951055, -0.184373736, -0.161588237, 0.4214642   , -0.00306815328, 0.03917112  , 2.376458    , 0.86        , 3           , 50          , 0           , 0
0.375053972 , 0.0145107061, -9.815975   , -0.00336138043, -0.000430958171, -0.0003411841, -0.184373736, -0.161453411, 0.4214642   , -0.003101897, 0.0391667932, 2.37645459  , 0.87        , 3           , 11          , 0.009381777 , 0.009381767
0.3847704   , 0.0008047912, -9.799687   , -0.000329781964, 0.0005046607, -0.000254982355, -0.184508562, -0.161520824, 0.421127141 , -0.00310529582, 0.03917183  , 2.37645173  , 0.88        , 3           , 12          , 0.0359998047, 0
0.388924628 , 0.01465798  , -9.774287   , -0.0003304976, 0.000575050246, -0.0008905832, -0.184508562, -0.161520824, 0.421127141 , -0.00310895219, 0.0391775519, 2.37644315  , 0.89        , 3           , 50          , 0           , 0
0.387635946 , 0.0156230992, -9.788303   , -0.00191120489, -0.00178299658, -0.0008980999, -0.184306324, -0.161588237, 0.421127141 , -0.00298489979, 0.03912658  , 2.37644029  , 0.9         , 3           , 11          , 0.008916723 , 0.008916718
0.357176721 , 0.03901595  , -9.795219   , -0.00084577204, -0.00297248387, -0.00018866219, -0.1841715  , -0.161318585, 0.421329379 , -0.00299342745, 0.0390968472, 2.37643838  , 0.91        , 3           , 12          , 0.03640234  , 0
0.3835406   , 0.0134227406, -9.790604   , -0.00162974582, -0.00142912648, 0.0004458122, -0.184104085, -0.161386   , 0.421194553 , -0.00300955 , 0.03908257  , 2.37644267  , 0.92        , 3           , 50          , 0           , 0
0.388942778 , 0.008870116 , -9.79736    , -0.000371185772, 0.00104316184, 0.000172997854, -0.184104085, -0.161386   , 0.421194553 , -0.00301319547, 0.0390930064, 2.376444    , 0.93        , 3           , 11          , 0.008916723 , 0.008916718
0.388218582 , 0.0121521968, -9.831252   , -0.000217018445, -0.00148996664, 0.000876094738, -0.184306324, -0.16165565 , 0.421261966 , -0.00301501923, 0.03907813  , 2.37645316  , 0.94        , 3           , 12          , 0.03640234  , 0
0.3818359   , 0.0162083637, -9.80778    , -0.00098442 , -0.00360696251, -0.00117917813, -0.184441149, -0.161588237, 0.421261966 , -0.00302531966, 0.0390420221, 2.37644124  , 0.95        , 3           , 50          , 0           , 0
0.397749573 , 0.0250030048, -9.794967   , 6.09036651E-05, -0.000784149, -0.0008873627, -0.1841715  , -0.16165565 , 0.421329379 , -0.003025057, 0.0390341543, 2.37643266  , 0.96        , 3           , 11          , 0.008916723 , 0.008916718
0.391978234 , 0.03409211  , -9.794069   , -0.0007941697, 0.0008995145, 0.000100171157, -0.1841715  , -0.16165565 , 0.421329379 , -0.00303296 , 0.0390431546, 2.37643361  , 0.97        , 3           , 12          , 0.03640234  , 0
0.37632826  , 0.0193364713, -9.779787   , -0.000357182726, -0.00184288132, -0.000325890433, -0.184104085, -0.161453411, 0.421261966 , -0.003036658, 0.0390247181, 2.37643027  , 0.98        , 3           , 50          , 0           , 0
0.38966924  , 0.0363139659, -9.775998   , 0.00203983812, -0.00112273451, -0.0005255147, -0.184036672, -0.161453411, 0.421329379 , -0.00301646348, 0.03901347  , 2.376425    , 0.99        , 3           , 11          , 0.008916723 , 0.008916718
0.385404378 , 0.0241565425, -9.768849   , -0.0007690571, -0.00222805468, 0.0007339278, -0.184104085, -0.16165565 , 0.421194553 , -0.00292373588, 0.03904207  , 2.37643647  , 1           , 3           , 12          , 0.03685164  , 0
0.377576739 , 0.0169997588, -9.760352   , -0.00155641208, -5.11772232E-05, 0.0009455723, -0.184104085, -0.16165565 , 0.421194553 , -0.00293893227, 0.03904159  , 2.376446    , 1.01        , 3           , 50          , 0           , 0
0.389203548 , 0.03139896  , -9.788678   , -0.00120936253, 0.00107746862, 0.000242610491, -0.184238911, -0.161520824, 0.421059728 , -0.00295093213, 0.0390523747, 2.37644839  , 1.02        , 3           , 11          , 0.008638213 , 0.00863822
0.373185    , 0.0144851   , -9.801978   , 0.00119288568, 0.0007417462, 4.13588932E-05, -0.1841715  , -0.161520824, 0.421329379 , -0.00293898652, 0.039059788 , 2.37644887  , 1.03        , 3           , 12          , 0.03685164  , 0
0.387934983 , 0.00433446374, -9.786992   , 0.000488438644, 0.0003850144, -0.000174378787, -0.1841715  , -0.161386   , 0.421194553 , -0.002934173, 0.0390636362, 2.376447    , 1.04        , 3           , 50          , 0           , 0
0.395957768 , 0.0335205533, -9.7723465  , -0.00126885809, -0.00117552979, 0.000168175466, -0.1841715  , -0.161386   , 0.421194553 , -0.00294679287, 0.0390518829, 2.37644887  , 1.05        , 3           , 11          , 0.008638213 , 0.00863822
0.4117131   , 0.0296890065, -9.7613945  , -0.00190075161, -0.00188373949, 0.0003053962, -0.184238911, -0.161318585, 0.421059728 , -0.002965679, 0.03903305  , 2.37645173  , 1.06        , 3           , 12          , 0.03685164  , 0
0.404681981 , 0.0335178263, -9.801659   , 0.0005648698, -0.0008815529, -0.000952980365, -0.184104085, -0.161386   , 0.421329379 , -0.00296040159, 0.03902421  , 2.37644219  , 1.07        , 3           , 50          , 0           , 0
0.365474135 , 0.0190280154, -9.78439    , 0.00120024488, -0.0007364703, 0.000109715191, -0.184373736, -0.161520824, 0.421059728 , -0.00294835586, 0.03901685  , 2.37644315  , 1.08        , 3           , 11          , 0.008638213 , 0.00863822
0.3666363   , 0.03574022  , -9.793353   , 0.0004836227, 0.00130009942, -0.000667409156, -0.1841715  , -0.16165565 , 0.421329379 , -0.002943782, 0.0390298329, 2.37643647  , 1.09        , 3           , 12          , 0.03685164  , 0
0.393573523 , 0.0521222129, -9.79398251 , -0.001577153, -0.00114230975, -4.34953363E-05, -0.1841715  , -0.16165565 , 0.421329379 , -0.00290674437, 0.03906028  , 2.37643838  , 1.1         , 3           , 50          , 0           , 0
0.391447842 , 0.0300174113, -9.788215   , -0.00370468223, 0.000743930053, 9.082541E-05, -0.183969259, -0.161588237, 0.421194553 , -0.00294375652, 0.03906773  , 2.37643933  , 1.11        , 3           , 11          , 0.00848305  , 0.008483061
0.382365674 , 0.0296559446, -9.783314   , -0.00271926168, 0.00131374388, -0.000398137869, -0.184238911, -0.161520824, 0.4213968   , -0.00297110481, 0.03908085  , 2.37643552  , 1.12        , 3           , 12          , 0.03734562  , 0
0.397915155 , 0.0447765552, -9.771833   , 0.000312581746, 0.00224936381, 0.000111869944, -0.1841715  , -0.161588237, 0.421194553 , -0.00296794041, 0.0391033478, 2.37643647  , 1.13        , 3           , 50          , 0           , 0
0.377345324 , 0.0238796845, -9.792416   , 0.00159092469, 0.0007093497, -0.000308396644, -0.1841715  , -0.161588237, 0.421194553 , -0.00295215053, 0.03911043  , 2.37643361  , 1.14        , 3           , 11          , 0.00848305  , 0.008483061
0.372068    , 0.0307651684, -9.808699   , -0.0014460868, 0.0008999919, -0.000110325243, -0.184104085, -0.161588237, 0.421261966 , -0.00296665728, 0.03911943  , 2.37643218  , 1.15        , 3           , 12          , 0.03734562  , 0
0.399889261 , 0.0181804318, -9.786391   , -0.00102412608, 0.00118442066, -0.000602356333, -0.184373736, -0.161318585, 0.421194553 , -0.00297713722, 0.0391312577, 2.376426    , 1.16        , 3           , 50          , 0           , 0
0.3864463   , 0.00201300951, -9.762606   , 0.000330992829, -0.00155176676, -0.000600331754, -0.184036672, -0.16165565 , 0.4209923   , -0.00297406083, 0.0391157158, 2.37642026  , 1.17        , 3           , 11          , 0.00848305  , 0.008483061
0.373928845 , 0.00497005554, -9.792973   , 0.000393380062, 6.77090138E-05, -0.0009506793, -0.184036672, -0.16165565 , 0.4209923   , -0.00297050062, 0.0391163751, 2.37641072  , 1.18        , 3           , 12          , 0.03734562  , 0
0.4012275   , 0.0136847235, -9.795892   , -0.0007327827, -0.00057345035, -0.0002505798, -0.184306324, -0.161588237, 0.4209923   , -0.00297792559, 0.039110627 , 2.37640786  , 1.19        , 3           , 50          , 0           , 0
0.375440031 , 0.0175757613, -9.789745   , -0.0037142334, 0.00108757766, 2.5387264E-05, -0.184441149, -0.161453411, 0.4213968   , -0.00286338758, 0.039193254 , 2.37641454  , 1.2         , 3           , 11          , 0.008403118 , 0.008403128
0.385795474 , 0.02142315  , -9.76253    , -0.00103084848, 0.000964938139, -0.000598028, -0.184306324, -0.161386   , 0.421127141 , -0.002873933, 0.03920289  , 2.37640882  , 1.21        , 3           , 12          , 0.03788214  , 0
0.3919332   , 0.0286994632, -9.80042    , -0.00215602526, 4.221173E-05, -0.000604705943, -0.184306324, -0.161386   , 0.421127141 , -0.002895731, 0.0392032936, 2.37640214  , 1.22        , 3           , 50          , 0           , 0
0.380357921 , 0.0459587425, -9.793657   , 0.00131062919, -0.00120143068, 0.0005396236, -0.1841715  , -0.161588237, 0.4209249   , -0.00288241077, 0.0391912945, 2.37640786  , 1.23        , 3           , 11          , 0.008403118 , 0.008403128
0.400530875 , 0.0290405415, -9.797642   , 0.00123766426, -0.000709169, 0.0006813225, -0.1841715  , -0.161588237, 0.421194553 , -0.00286976574, 0.03918422  , 2.37641454  , 1.24        , 3           , 12          , 0.03788214  , 0
0.4189785   , 0.0224792715, -9.78939152 , -0.003899297, -0.004474769, -0.00132622349, -0.184036672, -0.161723062, 0.421261966 , -0.00290927384, 0.03913944  , 2.37640166  , 1.25        , 3           , 50          , 0           , 0
0.381883055 , 0.0296370685, -9.776086   , -0.00229043188, -0.00136656943, -0.0008900716, -0.184036672, -0.161723062, 0.421261966 , -0.002932525, 0.03912574  , 2.3763926   , 1.26        , 3           , 11          , 0.008403118 , 0.008403128
0.3601521   , 0.0285553951, -9.781228   , -0.000382189552, -0.001564847, 0.000531179539, -0.1841715  , -0.16165565 , 0.421127141 , -0.00293613784, 0.03911012  , 2.37639832  , 1.27        , 3           , 12          , 0.03788214  , 0
0.3983779   , 0.03540592  , -9.804411   , 0.0007308342, 0.00168078847, -0.0005887124, -0.183969259, -0.161251172, 0.421261966 , -0.00292906142, 0.03912691  , 2.37639213  , 1.28        , 3           , 50          , 0           , 0
0.39324984  , 0.0277570188, -9.793182   , -3.727166E-05, -1.38536961E-05, -0.0002417658, -0.184104085, -0.161520824, 0.421194553 , -0.00292952871, 0.03912677  , 2.37638974  , 1.29        , 3           , 11          , 0.008403118 , 0.008403128
0.384741217 , 0.03686139  , -9.787334   , -0.0007990741, -0.0002853526, 0.0006730881, -0.184104085, -0.161520824, 0.421194553 , -0.002923035, 0.039220538 , 2.37639737  , 1.3         , 3           , 12          , 0.03845904  , 0
0.367940426 , 0.0254143123, -9.813272   , -0.00137407158, 0.0016113884, -0.0005980352, -0.184238911, -0.161588237, 0.421127141 , -0.00293701515, 0.03923664  , 2.37639117  , 1.31        , 3           , 50          , 0           , 0
0.372720838 , 0.009124976 , -9.816467   , -0.000661913247, 0.000278726482, -0.00151505088, -0.184306324, -0.161183774, 0.421059728 , -0.0029442294, 0.03923938  , 2.376376    , 1.32        , 3           , 11          , 0.008364887 , 0.008364905
0.383863151 , 0.006170282 , -9.782044   , -0.000589119, 6.803566E-05, 0.000462715223, -0.184238911, -0.161386   , 0.421059728 , -0.00294993725, 0.0392400734, 2.37638021  , 1.33        , 3           , 12          , 0.03845904  , 0
0.395241261 , 0.0145654138, -9.768815   , -0.00192896684, -0.000222600516, 0.0009504664, -0.184104085, -0.161588237, 0.421194553 , -0.002968856, 0.03923788  , 2.37638974  , 1.34        , 3           , 50          , 0           , 0
0.393355519 , 0.0421258248, -9.772782   , -0.000873881567, 0.0004884722, 3.82430662E-05, -0.184104085, -0.161588237, 0.421194553 , -0.00297757937, 0.0392427668, 2.3763907   , 1.35        , 3           , 11          , 0.008364887 , 0.008364905
0.405953318 , 0.0343240462, -9.777691   , -0.00164731871, -7.990832E-05, 0.0008107316, -0.184238911, -0.161386   , 0.421261966 , -0.002993733, 0.0392419919, 2.37639832  , 1.36        , 3           , 12          , 0.03845904  , 0
0.396337867 , 0.0182804056, -9.803593   , 0.000475683744, -0.00119184761, -0.0005231801, -0.184238911, -0.161318585, 0.4214642   , -0.002989179, 0.0392300524, 2.37639356  , 1.37        , 3           , 50          , 0           , 0
0.390788376 , 0.05031322  , -9.783163   , 0.00216829847, -0.000828432443, -0.0008679079, -0.184104085, -0.161453411, 0.4209923   , -0.002967836, 0.039221745 , 2.376385    , 1.38        , 3           , 11          , 0.008364887 , 0.008364905
0.390620828 , 0.043035835 , -9.765568   , 0.0007582958, -0.00126032974, -0.000804509036, -0.184104085, -0.161453411, 0.4209923   , -0.00296056666, 0.0392091163, 2.37637639  , 1.39        , 3           , 12          , 0.03845904  , 0
0.391540229 , 0.00383171439, -9.784256   , 0.000164033612, -0.00158523768, 0.0002507932, -0.184104085, -0.161318585, 0.421127141 , -0.00299534551, 0.0393082164, 2.3763783   , 1.4         , 3           , 50          , 0           , 0
0.363634169 , 0.0203649364, -9.7731     , -0.0006906913, 2.80344921E-05, 0.00123821863, -0.184238911, -0.161386   , 0.421329379 , -0.003001765, 0.0393085368, 2.3763907   , 1.41        , 3           , 11          , 0.008345098 , 0.008345113
0.385498852 , 0.0233404133, -9.794615   , 0.0009290623, 0.000813319 , 0.000611275 , -0.184104085, -0.16165565 , 0.421194553 , -0.00299223256, 0.0393166952, 2.37639642  , 1.42        , 3           , 12          , 0.03907416  , 0
0.390672445 , 0.00208763545, -9.799184   , 0.00114129391, 0.00067396753, 0.000117605072, -0.184104085, -0.16165565 , 0.421194553 , -0.00298077427, 0.03932343  , 2.37639737  , 1.43        , 3           , 50          , 0           , 0
0.373945415 , 0.007215232 , -9.7898     , 0.0007819279, 0.00186822983, -0.0005885404, -0.184373736, -0.161520824, 0.421194553 , -0.00297318958, 0.0393420979, 2.37639165  , 1.44        , 3           , 11          , 0.008345098 , 0.008345113
0.3498247   , 0.0349968   , -9.782185   , 0.00176193577, 0.00356430467, -0.000793230545, -0.184306324, -0.161386   , 0.421261966 , -0.0029558877, 0.03937772  , 2.37638354  , 1.45        , 3           , 12          , 0.03907416  , 0
0.3796355   , 0.0189645234, -9.814566   , -0.000209947058, 0.002495065 , -0.00101597968, -0.1841715  , -0.161588237, 0.421329379 , -0.0029583876, 0.0394026376, 2.37637353  , 1.46        , 3           , 50          , 0           , 0
0.406082481 , 0.0375531651, -9.798919   , 0.0009299669, 0.000531751546, -0.000236771419, -0.1841715  , -0.161588237, 0.421329379 , -0.00294918241, 0.0394079424, 2.37637115  , 1.47        , 3           , 11          , 0.008345098 , 0.008345113
0.414191425 , 0.042333968 , -9.773074   , 0.0002887451, 0.00172410661, 4.464714E-05, -0.184238911, -0.161386   , 0.421261966 , -0.00294627831, 0.0394251868, 2.37637162  , 1.48        , 3           , 12          , 0.03907416  , 0
0.4149936   , 0.0310808457, -9.783963   , -0.00203336449, 0.000159742442, 0.000455202069, -0.184104085, -0.161386   , 0.421059728 , -0.002966434, 0.0394268036, 2.37637639  , 1.49        , 3           , 50          , 0           , 0
0.387383759 , 0.0323058851, -9.783716   , -0.003063307, -0.00151192583, -0.00195284886, -0.184104085, -0.161790475, 0.421194553 , -0.002972551, 0.0395218432, 2.37635732  , 1.5         , 3           , 11          , 0.008329156 , 0.008329164
0.37620452  , 0.0459430851, -9.774706   , -0.000866917369, -0.002904946, -0.0008852968, -0.184104085, -0.161790475, 0.421194553 , -0.002981567, 0.0394927673, 2.37634873  , 1.51        , 3           , 12          , 0.03972535  , 0
0.397962332 , 0.0430293977, -9.789015   , -0.00137031043, -0.000937330071, 0.00017495155, -0.183969259, -0.161588237, 0.421127141 , -0.002995199, 0.0394834   , 2.37635064  , 1.52        , 3           , 50          , 0           , 0
0.3697756   , 0.0352321975, -9.787455   , 0.000725998136, 0.00344125181, -0.00030288595, -0.184104085, -0.161386   , 0.421329379 , -0.00298806443, 0.039517805 , 2.37634778  , 1.53        , 3           , 11          , 0.008329156 , 0.008329164
0.390846044 , 0.0200822819, -9.783741   , -0.00138687191, 0.002300666 , -0.0007383049, -0.184036672, -0.16165565 , 0.421261966 , -0.00300222868, 0.03954079  , 2.37634015  , 1.54        , 3           , 12          , 0.03972535  , 0
0.386103749 , 0.0323853381, -9.80271    , -0.000878254767, -0.0005820333, -0.0005991793, -0.184036672, -0.16165565 , 0.421261966 , -0.00301124761, 0.039534945 , 2.37633443  , 1.55        , 3           , 50          , 0           , 0
0.3833602   , 0.00390320644, -9.777085   , -0.000388234184, 0.000406789972, 0.0005347938, -0.184238911, -0.16165565 , 0.421261966 , -0.00301491865, 0.039539028 , 2.3763392   , 1.56        , 3           , 11          , 0.008329156 , 0.008329164
0.368279576 , -0.00451442041, -9.770907   , -0.000811933831, 0.000333531847, -0.000173633642, -0.1841715  , -0.161318585, 0.421329379 , -0.0030231073, 0.03954237  , 2.37633729  , 1.57        , 3           , 12          , 0.03972535  , 0
0.3870885   , 0.04627573  , -9.777334   , -0.00201361952, 0.0005365868, -0.00074398017, -0.184306324, -0.161520824, 0.421127141 , -0.00304353819, 0.0395477079, 2.37633014  , 1.58        , 3           , 50          , 0           , 0
0.409317434 , 0.04292524  , -9.797517   , -0.00151672936, 4.71912354E-05, -0.000389262917, -0.1841715  , -0.161520824, 0.4209249   , -0.00305886054, 0.0395481624, 2.37632632  , 1.59        , 3           , 11          , 0.008329156 , 0.008329164
0.388231    , 0.0540450327, -9.810287   , 0.000262863818, 0.000921153 , -0.0008733496, -0.1841715  , -0.161520824, 0.4209249   , -0.003034103, 0.0395779349, 2.37631822  , 1.6         , 3           , 12          , 0.04041051  , 0
0.37173292  , 0.0438100249, -9.79554    , 0.00351401255, 0.000239203757, -0.0012830958, -0.184104085, -0.161453411, 0.421261966 , -0.00299947243, 0.0395802967, 2.37630582  , 1.61        , 3           , 50          , 0           , 0
0.366011649 , 0.022662146 , -9.793411   , 0.000630427 , -0.00182171469, 0.0007486563, -0.184306324, -0.1619253  , 0.421127141 , -0.00299286959, 0.0395621024, 2.37631345  , 1.62        , 3           , 11          , 0.008307615 , 0.008307624
0.3797174   , 0.0315287225, -9.794174   , -0.000639755861, -0.00197109161, 0.0008131474, -0.184238911, -0.161723062, 0.421059728 , -0.00299894135, 0.03954241  , 2.376321    , 1.63        , 3           , 12          , 0.04041051  , 0
0.4097403   , 0.04021755  , -9.798881   , -8.89202056E-05, 0.000707592641, -0.000522149261, -0.184238911, -0.161723062, 0.421059728 , -0.00300003821, 0.03954947  , 2.37631631  , 1.64        , 3           , 50          , 0           , 0
0.372006416 , 0.0231273528, -9.818223   , 0.0007653303, -0.000694502844, -0.0005203681, -0.1841715  , -0.161588237, 0.421194553 , -0.00299258949, 0.03954251  , 2.37631059  , 1.65        , 3           , 11          , 0.008307615 , 0.008307624
0.391876429 , 0.0224045068, -9.806775   , 0.00216926378, 0.00100443827, -0.000228642341, -0.184036672, -0.161588237, 0.4213968   , -0.00297098933, 0.039552547 , 2.37630868  , 1.66        , 3           , 12          , 0.04041051  , 0
0.382860333 , 0.0256673675, -9.806378   , 0.000476096524, 0.000711413333, -0.000236977881, -0.184104085, -0.16165565 , 0.421261966 , -0.00296632457, 0.0395596549, 2.37630582  , 1.67        , 3           , 50          , 0           , 0
0.382135183 , 0.0102760941, -9.789272   , 0.001330347 , -0.0006906821, -0.000235196741, -0.184104085, -0.16165565 , 0.421261966 , -0.00295311352, 0.039552737 , 2.376304    , 1.68        , 3           , 11          , 0.008307615 , 0.008307624
0.376903355 , 0.031035386 , -9.772051   , -0.00149457389, -0.0007097849, -0.001378516, -0.184238911, -0.161588237, 0.421261966 , -0.00296860537, 0.0395456031, 2.37629     , 1.69        , 3           , 12          , 0.04041051  , 0
0.40214932  , 0.0230605826, -9.769631   , -0.00203692121, -0.000206342316, 0.0014458833, -0.184373736, -0.161453411, 0.421194553 , -0.00295933243, 0.0394750722, 2.37630582  , 1.7         , 3           , 50          , 0           , 0
0.376703918 , 0.0107880067, -9.788408   , 0.00164480065, -0.00243403763, -0.000235692758, -0.1841715  , -0.161453411, 0.421127141 , -0.002942975, 0.0394507274, 2.376304    , 1.71        , 3           , 11          , 0.008275556 , 0.008275564
0.3994751   , 0.0275903828, -9.765564   , -0.00315145752, -0.00331119937, 0.00115330482, -0.1841715  , -0.161453411, 0.421127141 , -0.00297403056, 0.03941765  , 2.37631536  , 1.72        , 3           , 12          , 0.04112759  , 0
0.39886564  , 0.0474803932, -9.774075   , 0.00164045568, -0.00158934353, -0.000516928441, -0.184104085, -0.16165565 , 0.421059728 , -0.00295782625, 0.0394017324, 2.37631     , 1.73        , 3           , 50          , 0           , 0
0.369579852 , 0.0225757733, -9.780277   , -5.9192007E-05, -0.000474540866, 0.000324517925, -0.184238911, -0.161588237, 0.421127141 , -0.00295828981, 0.0393969975, 2.37631345  , 1.74        , 3           , 11          , 0.008275556 , 0.008275564
0.379178882 , 0.0238765627, -9.797826   , -0.00118734222, -0.000763744931, 0.0006013538, -0.1841715  , -0.161318585, 0.421194553 , -0.00296992529, 0.0393893756, 2.37631917  , 1.75        , 3           , 12          , 0.04112759  , 0
0.4007169   , 0.0136431707, -9.781883   , -0.00175358972, -0.000485999859, 0.0005991538, -0.1841715  , -0.161318585, 0.421194553 , -0.002987223, 0.0393845327, 2.37632537  , 1.76        , 3           , 50          , 0           , 0
0.394829124 , 0.0141573753, -9.780119   , 0.003314922 , 0.0026455964, 0.00091016927, -0.184104085, -0.16165565 , 0.421059728 , -0.002953716, 0.0394110158, 2.37633443  , 1.77        , 3           , 11          , 0.008275556 , 0.008275564
0.385608017 , 0.0323558748, -9.792317   , 0.00304659875, -0.000171963708, 0.0011870506, -0.184373736, -0.161251172, 0.421059728 , -0.002922782, 0.03940933  , 2.37634635  , 1.78        , 3           , 12          , 0.04112759  , 0
0.3842332   , 0.03280483  , -9.786901   , -0.0006242088, -0.000478361617, 3.93465452E-05, -0.184508562, -0.161588237, 0.421194553 , -0.00292900763, 0.03940454  , 2.37634683  , 1.79        , 3           , 50          , 0           , 0
0.363962173 , 0.0353602655, -9.805126   , -0.0014515674, 0.00263451575, -0.00165351853, -0.1841715  , -0.161857888, 0.4208575   , -0.00289807981, 0.03945802  , 2.37633252  , 1.8         , 3           , 11          , 0.008231769 , 0.008231775
0.386134624 , 0.00882793  , -9.775235   , 0.000251684018, 0.000956586737, -0.00108314562, -0.1841715  , -0.161857888, 0.4208575   , -0.00289599318, 0.03946756  , 2.376321    , 1.81        , 3           , 12          , 0.0418746   , 0
0.3692108   , -4.07504849E-05, -9.762747   , 0.00110166357, 0.0006807578, 0.001180671 , -0.184306324, -0.161453411, 0.421261966 , -0.00288451 , 0.03947441  , 2.37633348  , 1.82        , 3           , 50          , 0           , 0
0.3655548   , 0.0298057459, -9.769429   , 0.0013839273, 0.000682667 , 0.00089945033, -0.184036672, -0.161318585, 0.421329379 , -0.00287031475, 0.0394812562, 2.376342    , 1.83        , 3           , 11          , 0.008231769 , 0.008231775
0.3720444   , 0.0419048555, -9.76707    , -0.00199952978, -0.0007480843, -0.00137882214, -0.184238911, -0.161453411, 0.4209249   , -0.00289085251, 0.0394737348, 2.37632871  , 1.84        , 3           , 12          , 0.0418746   , 0
0.3837937   , 0.0381771   , -9.772873   , -0.00142844755, -0.00187052146, -0.000247774064, -0.184238911, -0.161453411, 0.4209249   , -0.002905233, 0.0394550227, 2.37632585  , 1.85        , 3           , 50          , 0           , 0
0.395708084 , 0.0159105342, -9.767901   , -4.328892E-05, 0.00348876277, -0.00108055712, -0.184238911, -0.161453411, 0.421194553 , -0.00290609384, 0.03948987  , 2.37631536  , 1.86        , 3           , 11          , 0.008231769 , 0.008231775
0.387637019 , 0.0196411274, -9.775631   , -0.00512197427, 0.00260969158, 0.000307123468, -0.184238911, -0.161520824, 0.421261966 , -0.00295719481, 0.0395159721, 2.37631822  , 1.87        , 3           , 12          , 0.0418746   , 0
0.387927473 , 0.04442571  , -9.766939   , -0.00172202627, 0.000380089157, -0.0002456195, -0.1841715  , -0.16165565 , 0.421329379 , -0.00297451159, 0.03951977  , 2.37631583  , 1.88        , 3           , 50          , 0           , 0
0.397121221 , 0.04443128  , -9.800316   , -0.00593563542, -0.004153599, 0.0005752958, -0.1841715  , -0.16165565 , 0.421329379 , -0.00303363334, 0.03947825  , 2.37632155  , 1.89        , 3           , 11          , 0.008231769 , 0.008231775
0.399107367 , 0.0240938254, -9.797672   , -0.00144430471, -0.0001891487, 0.000319594546, -0.184373736, -0.161588237, 0.421059728 , -0.00305827381, 0.0394657925, 2.376325    , 1.9         , 3           , 12          , 0.04264963  , 0
0.3928427   , -0.00113933347, -9.786525   , 0.0005211304, 0.00179516792, -0.00277606165, -0.184036672, -0.161386   , 0.421329379 , -0.00305416156, 0.0394836627, 2.37629676  , 1.91        , 3           , 50          , 0           , 0
0.3917535   , 0.0124852294, -9.808624   , -0.000620307168, 0.004321618 , -0.00136473647, -0.184306324, -0.16165565 , 0.421127141 , -0.00306091039, 0.03952684  , 2.376283    , 1.92        , 3           , 11          , 0.008175748 , 0.008175754
0.381178379 , 0.00399630936, -9.796989   , -0.000310415344, -0.00102620374, 0.000323560467, -0.184306324, -0.16165565 , 0.421127141 , -0.003063886, 0.03951659  , 2.37628627  , 1.93        , 3           , 12          , 0.04264963  , 0
0.367152244 , 0.002830321 , -9.803881   , -0.0008780569, -0.0004668939, 0.000321794447, -0.184036672, -0.161790475, 0.4209923   , -0.00307253841, 0.03951193  , 2.37628961  , 1.94        , 3           , 50          , 0           , 0
0.3772375   , 0.0166506823, -9.789283   , 0.00305140484, 0.00434644846, -0.00106507877, -0.1841715  , -0.161318585, 0.421194553 , -0.00304245274, 0.0395553634, 2.37627864  , 1.95        , 3           , 11          , 0.008175748 , 0.008175754
0.3867643   , 0.0236954819, -9.770649   , -0.00230027549, 0.00149451033, -0.000246827374, -0.184104085, -0.161588237, 0.4214642   , -0.00306555443, 0.039570298 , 2.37627625  , 1.96        , 3           , 12          , 0.04264963  , 0
0.365524739 , 0.0244251974, -9.779396   , -0.001456762, 0.00206336565, -0.00193723373, -0.184104085, -0.161588237, 0.4214642   , -0.00308089075, 0.03959087  , 2.3762567   , 1.97        , 3           , 50          , 0           , 0
0.3828997   , 0.0310554821, -9.798672   , -0.00230740849, 0.002902335 , -0.000527195167, -0.184238911, -0.161520824, 0.4209923   , -0.00310417614, 0.0396198779, 2.37625146  , 1.98        , 3           , 11          , 0.008175748 , 0.008175754
0.387366176 , 0.02872087  , -9.790963   , -0.0006048988, 0.0015059741, 0.00117376144, -0.184238911, -0.161453411, 0.421261966 , -0.00310975942, 0.03963497  , 2.376263    , 1.99        , 3           , 12          , 0.04264963  , 0
0.3747754   , 0.0334038958, -9.79782    , -0.00163920468, 0.00143023953, 0.00117210811, -0.184238911, -0.161723062, 0.421329379 , -0.002994754, 0.03955603  , 2.37628     , 2           , 3           , 50          , 0           , 0
0.385790139 , 0.0191870444, -9.768415   , -0.00107762869, 0.00199718727, 0.000327997346, -0.184238911, -0.161723062, 0.421329379 , -0.003005402, 0.0395760164, 2.37628341  , 2.01        , 3           , 11          , 0.008115512 , 0.008115518
0.3937636   , 0.00198692176, -9.780178   , -0.00332080433, -0.00139687583, -0.0005353575, -0.184036672, -0.161588237, 0.421194553 , -0.003038821, 0.03956203  , 2.37627816  , 2.02        , 3           , 12          , 0.0434508473, 0
0.3769457   , 0.022589    , -9.8096     , 0.00119465834, -0.000521617359, 0.0008997025, -0.184238911, -0.161588237, 0.421194553 , -0.0030265192, 0.0395568423, 2.37628675  , 2.03        , 3           , 50          , 0           , 0
0.373673558 , 0.0474644974, -9.815397   , 0.00147454906, -0.0002381477, -0.001076309, -0.184104085, -0.161588237, 0.421261966 , -0.00301219686, 0.03955442  , 2.37627625  , 2.04        , 3           , 11          , 0.008115512 , 0.008115518
0.382163882 , 0.0387916267, -9.815369   , -0.00163107819, -0.000540724, -0.00165630411, -0.184104085, -0.16165565 , 0.4209923   , -0.00302916439, 0.039548967 , 2.37626     , 2.05        , 3           , 12          , 0.0434508473, 0
0.392622262 , 0.0182473417, -9.781023   , 0.002595967 , 0.00174045481, 0.00147483358, -0.184104085, -0.16165565 , 0.4209923   , -0.0030026224, 0.0395664163, 2.37627435  , 2.06        , 3           , 50          , 0           , 0
0.380138636 , 0.0265879612, -9.802327   , 0.00119867711, -0.00136631308, 0.000615863129, -0.184238911, -0.161386   , 0.421194553 , -0.00299038854, 0.03955277  , 2.376281    , 2.07        , 3           , 11          , 0.008115512 , 0.008115518
0.392043    , 0.04619609  , -9.77096748 , -0.000220427, 3.196235E-05, 0.0006114482, -0.184373736, -0.161318585, 0.421261966 , -0.00299235247, 0.03955311  , 2.37628675  , 2.08        , 3           , 12          , 0.0434508473, 0
0.404716849 , 0.04291943  , -9.779923   , 5.6750112E-05, 0.00116013421, 0.0011795758, -0.183969259, -0.161520824, 0.421059728 , -0.00299131847, 0.0395647436, 2.37629867  , 2.09        , 3           , 50          , 0           , 0
0.3899829   , 0.0419243276, -9.834731   , -0.00250632572, 0.001141477 , -0.00137588358, -0.183969259, -0.161520824, 0.421059728 , -0.003045131, 0.0395740345, 2.376284    , 2.1         , 3           , 11          , 0.00803939  , 0.008039401
0.3759097   , 0.027850166 , -9.760772   , 0.000876804639, 0.0025722268, 0.0003373139, -0.184441149, -0.161588237, 0.4209923   , -0.003036233, 0.0395997651, 2.37628675  , 2.11        , 3           , 12          , 0.04427651  , 0
0.376155674 , 0.0102696028, -9.766719   , 0.00031113546, 0.00256840279, -0.00107800716, -0.184306324, -0.161588237, 0.421059728 , -0.00303355046, 0.0396254137, 2.37627625  , 2.12        , 3           , 50          , 0           , 0
0.3912904   , 0.01873107  , -9.786003   , 0.00199986855, 0.00398769369, 0.000909826253, -0.184373736, -0.161386   , 0.421194553 , -0.00301319454, 0.0396653153, 2.37628484  , 2.13        , 3           , 11          , 0.00803939  , 0.008039401
0.3654864   , 0.0127890036, -9.807468   , 0.00143928558, 0.002857607 , -0.00135484291, -0.184373736, -0.161386   , 0.421194553 , -0.00299934228, 0.0396938622, 2.37627149  , 2.14        , 3           , 12          , 0.04427651  , 0
0.355781168 , -0.001095647, -9.804436   , 0.00230878149, -0.00136013294, 0.0009028985, -0.184306324, -0.161386   , 0.421059728 , -0.00297589577, 0.0396802872, 2.376281    , 2.15        , 3           , 50          , 0           , 0
0.3754554   , 0.020712655 , -9.783403   , -0.00136514031, -0.001103402, -0.000809012447, -0.184238911, -0.161386   , 0.4209249   , -0.00298986654, 0.0396692269, 2.37627244  , 2.16        , 3           , 11          , 0.00803939  , 0.008039401
0.3982476   , 0.0357467048, -9.771416   , -0.0005203216, -0.0005345406, -0.000239118788, -0.184104085, -0.16165565 , 0.4209923   , -0.00299516274, 0.0396638736, 2.37627053  , 2.17        , 3           , 12          , 0.04427651  , 0
0.378633142 , 0.0166649744, -9.798311   , 0.00284445  , 0.00427498249, -0.0013460886, -0.184104085, -0.16165565 , 0.4209923   , -0.002967259, 0.0397065841, 2.37625623  , 2.18        , 3           , 50          , 0           , 0
0.3842838   , 0.0382020175, -9.781908   , 0.0036944286, 0.00399915362, 0.000917727943, -0.1841715  , -0.16165565 , 0.4209923   , -0.00292995316, 0.0397465974, 2.37626576  , 2.19        , 3           , 11          , 0.00803939  , 0.008039401
0.375944555 , 0.0193977337, -9.796514   , 0.0006554054, -0.00145390676, 0.0006138771, -0.1841715  , -0.161520824, 0.421194553 , -0.002861784, 0.03961014  , 2.37627435  , 2.2         , 3           , 12          , 0.04512495  , 0
0.399804831 , 0.0399090424, -9.806643   , -0.00104178046, -0.000902236, 0.0008893808, -0.184104085, -0.161992714, 0.421127141 , -0.00287185027, 0.0396011434, 2.37628341  , 2.21        , 3           , 50          , 0           , 0
0.3974329   , 0.03761637  , -9.787685   , -0.000199987117, -5.18169254E-05, -0.00136566616, -0.184104085, -0.161992714, 0.421127141 , -0.00287439115, 0.0396005847, 2.37626958  , 2.22        , 3           , 11          , 0.007956055 , 0.007956062
0.354450881 , 0.0368087143, -9.80022049 , -0.000190970488, -0.00174120418, -0.000238119857, -0.184238911, -0.161453411, 0.421127141 , -0.00287639326, 0.0395831652, 2.37626767  , 2.23        , 3           , 12          , 0.04512495  , 0
0.3919748   , 0.0345357023, -9.791807   , 7.99779955E-05, 0.0005132248, -0.00079840637, -0.184373736, -0.16165565 , 0.421059728 , -0.00287591014, 0.0395882763, 2.376259    , 2.24        , 3           , 50          , 0           , 0
0.402251452 , 0.02760687  , -9.780007   , -0.003295204, -0.00232534576, -0.000818548957, -0.1841715  , -0.161453411, 0.421261966 , -0.00290918257, 0.039564997 , 2.37625146  , 2.25        , 3           , 11          , 0.007956055 , 0.007956062
0.385822356 , 0.0174277946, -9.781982   , -0.0001912968, -0.00174120581, -0.0008031948, -0.1841715  , -0.161453411, 0.421261966 , -0.00291141123, 0.0395475626, 2.37624335  , 2.26        , 3           , 12          , 0.04512495  , 0
0.384055674 , 0.0246266555, -9.769762   , -0.00189554156, 0.000499862 , 0.00173521228, -0.1841715  , -0.161453411, 0.4209923   , -0.002929681, 0.0395526141, 2.376261    , 2.27        , 3           , 50          , 0           , 0
0.3599461   , 0.04215119  , -9.797896   , -0.00217509153, -0.0003467495, -0.00052770623, -0.184238911, -0.161453411, 0.421059728 , -0.0029516425, 0.03954913  , 2.37625527  , 2.28        , 3           , 11          , 0.007956055 , 0.007956062
0.358061075 , 0.04568339  , -9.76851749 , 7.93254E-05 , 0.000513221661, -0.00192855648, -0.1841715  , -0.16165565 , 0.421261966 , -0.00295161223, 0.03955421  , 2.3762362   , 2.29        , 3           , 12          , 0.04512495  , 0
0.379000843 , 0.045082964 , -9.796835   , -0.000788053148, -0.00183671655, -0.000242291731, -0.184036672, -0.16165565 , 0.421127141 , -0.00300928857, 0.0393946022, 2.376232    , 2.3         , 3           , 50          , 0           , 0
0.3795622   , 0.0206905082, -9.791056   , 0.002026457 , 0.000153338537, -0.000226084841, -0.184036672, -0.16165565 , 0.421127141 , -0.0029891138, 0.0393961258, 2.37622952  , 2.31        , 3           , 11          , 0.007870382 , 0.00787039
0.4008907   , 0.0218183231, -9.79812    , -0.00334866927, 0.00180643646, -0.00137865287, -0.1841715  , -0.16165565 , 0.421194553 , -0.00302314619, 0.0394141562, 2.37621617  , 2.32        , 3           , 12          , 0.0459946   , 0
0.389329344 , 0.0101502258, -9.777014   , -0.00249688048, 0.0009674726, -0.000810928934, -0.184104085, -0.161453411, 0.421127141 , -0.003048436, 0.0394238047, 2.37620759  , 2.33        , 3           , 50          , 0           , 0
0.389356226 , 0.0137428   , -9.772026   , -0.000790841237, -0.00127358641, -0.000241423855, -0.1841715  , -0.161790475, 0.421059728 , -0.00305643817, 0.03941106  , 2.37620568  , 2.34        , 3           , 11          , 0.007870382 , 0.00787039
0.402415425 , 0.03755941  , -9.7881     , -0.0002298433, -0.000425069855, 0.000327586546, -0.1841715  , -0.161790475, 0.421059728 , -0.00305860769, 0.0394068249, 2.37620854  , 2.35        , 3           , 12          , 0.0459946   , 0
0.3744202   , 0.03929081  , -9.802771   , 0.000344026979, -0.00211063726, 0.00145776686, -0.184104085, -0.161588237, 0.4209923   , -0.00305458857, 0.03938576  , 2.37622333  , 2.36        , 3           , 50          , 0           , 0
0.3519988   , 0.0268631019, -9.78627    , -0.00192259531, -0.0009996644, -0.00137640769, -0.184104085, -0.161318585, 0.421329379 , -0.00307435635, 0.0393757224, 2.3762095   , 2.37        , 3           , 11          , 0.007870382 , 0.00787039
0.361501157 , 0.020943962 , -9.803396   , -0.00304632564, -0.001851991, 0.0017249349, -0.183969259, -0.161723062, 0.421059728 , -0.00310413982, 0.0393572561, 2.37622666  , 2.38        , 3           , 12          , 0.0459946   , 0
0.3920462   , 0.0052085775, -9.792833   , 0.00146078772, 0.0001495147, -0.00164140621, -0.183969259, -0.161723062, 0.421059728 , -0.003090178, 0.0393587053, 2.37621045  , 2.39        , 3           , 50          , 0           , 0
0.410733581 , 0.0153565379, -9.789484   , -0.00271812943, 6.396149E-05, -0.0005288981, -0.1841715  , -0.16165565 , 0.421059728 , -0.00302645378, 0.03926827  , 2.376209    , 2.4         , 3           , 11          , 0.00777764758, 0.007777652
0.407312959 , 0.03609457  , -9.772249   , -0.00187609857, 0.00119595323, 4.18631535E-05, -0.184036672, -0.161520824, 0.4213968   , -0.00304519967, 0.03928023  , 2.3762095   , 2.41        , 3           , 12          , 0.046883963 , 0
0.4016531   , 0.05241569  , -9.775389   , -0.002993675, -0.00106420252, 0.00172834878, -0.183969259, -0.161453411, 0.421127141 , -0.00307445833, 0.03926964  , 2.37622666  , 2.42        , 3           , 50          , 0           , 0
0.418196172 , 0.0328558   , -9.78619    , 0.002367111 , -0.000183223456, -0.000223089752, -0.183969259, -0.161453411, 0.421127141 , -0.00305087352, 0.0392678045, 2.37622476  , 2.43        , 3           , 11          , 0.00777764758, 0.007777652
0.400238872 , 0.03721043  , -9.810718   , 0.00263699167, 0.00235277228, -0.000217867419, -0.184238911, -0.161588237, 0.4209923   , -0.00302459113, 0.0392913222, 2.376222    , 2.44        , 3           , 12          , 0.046883963 , 0
0.3699462   , 0.006431821 , -9.811076   , 0.00292285881, 0.00179155532, 0.0009127312, -0.1841715  , -0.161520824, 0.421261966 , -0.00299500371, 0.03930927  , 2.37623143  , 2.45        , 3           , 50          , 0           , 0
0.396377355 , 0.0187587757, -9.811727   , -0.0001839107, 0.00148897339, -0.001645026, -0.184036672, -0.161588237, 0.421261966 , -0.00299749058, 0.0393241   , 2.37621474  , 2.46        , 3           , 11          , 0.00777764758, 0.007777652
0.3912913   , 0.0249806587, -9.766089   , 0.00180290942, -0.000187040248, 0.0009044261, -0.184036672, -0.161588237, 0.421261966 , -0.00297910487, 0.039322257 , 2.3762238   , 2.47        , 3           , 12          , 0.046883963 , 0
0.38035962  , 0.023270376 , -9.756237   , -0.001018897, -0.0007692718, 0.000325313915, -0.184238911, -0.161520824, 0.421059728 , -0.00298916548, 0.0393145755, 2.37622714  , 2.48        , 3           , 50          , 0           , 0
0.399083972 , 0.0579233952, -9.793917   , -0.003288722, 0.001186401 , -0.0008123338, -0.184104085, -0.161318585, 0.421059728 , -0.00302237365, 0.03932642  , 2.376219    , 2.49        , 3           , 11          , 0.00777764758, 0.007777652
0.369241655 , 0.0614322834, -9.794129   , 0.000384634855, -0.000423223, -0.00023279 , -0.184238911, -0.161453411, 0.421329379 , -0.00303008035, 0.039413482 , 2.37621665  , 2.5         , 3           , 12          , 0.04779165  , 0
0.371457368 , 0.02662546  , -9.78341    , -0.00103742047, 0.00153818191, -0.0005188746, -0.184575975, -0.161588237, 0.421059728 , -0.00304066064, 0.039428845 , 2.3762114   , 2.51        , 3           , 50          , 0           , 0
0.391956419 , 0.0100457594, -9.755299   , -0.00216573384, 0.00124897691, -0.0005245763, -0.184575975, -0.161588237, 0.421059728 , -0.00306252553, 0.0394413136, 2.37620568  , 2.52        , 3           , 11          , 0.007682429 , 0.007682435
0.39353922  , 0.0236021467, -9.766531   , -0.00384693313, -0.00129656447, 0.0008763039, -0.184306324, -0.161453411, 0.421194553 , -0.003100648, 0.0394283831, 2.37621522  , 2.53        , 3           , 12          , 0.04779165  , 0
0.381712735 , 0.04861795  , -9.784144   , -0.00159497757, 0.000126538216, 4.13965754E-05, -0.184104085, -0.16165565 , 0.4214642   , -0.00311658019, 0.03942964  , 2.37621522  , 2.54        , 3           , 50          , 0           , 0
0.396568954 , 0.03587531  , -9.803518   , -0.00102610525, -0.000714338035, -0.0002398086, -0.183969259, -0.161386   , 0.4209923   , -0.00312693417, 0.03942249  , 2.37621284  , 2.55        , 3           , 11          , 0.007682429 , 0.007682435
0.398006856 , 0.0426190719, -9.801219   , -0.00187945121, 0.0004061901, -0.00108963624, -0.183969259, -0.161386   , 0.4209923   , -0.003146159, 0.039426513 , 2.37620187  , 2.56        , 3           , 12          , 0.04779165  , 0
0.389620632 , 0.0335964821, -9.772846   , 0.00206820713, 0.00184075825, 6.112033E-05, -0.184104085, -0.161386   , 0.421329379 , -0.003125455, 0.0394449234, 2.37620234  , 2.57        , 3           , 50          , 0           , 0
0.369953245 , 0.0460885465, -9.795997   , 0.00320307515, 0.00100370753, 0.00176031119, -0.184306324, -0.16165565 , 0.4213968   , -0.00309273019, 0.03945501  , 2.37622     , 2.58        , 3           , 11          , 0.007682429 , 0.007682435
0.389126718 , 0.030890353 , -9.771505   , 0.002073457 , 0.00071449636, -0.0005056902, -0.184238911, -0.161588237, 0.421127141 , -0.00307219685, 0.039462138 , 2.37621522  , 2.59        , 3           , 12          , 0.04779165  , 0
0.3888657   , 0.0181810111, -9.748509   , 0.00287512573, 0.00157057855, -0.00050202664, -0.184238911, -0.161588237, 0.421127141 , -0.0031152023, 0.0394875631, 2.37620759  , 2.6         , 3           , 50          , 0           , 0
0.3828432   , 0.0002857074, -9.773036   , 0.001470614 , 0.0001532067, 0.000619368744, -0.1841715  , -0.161520824, 0.421194553 , -0.00310025085, 0.039489124 , 2.37621331  , 2.61        , 3           , 11          , 0.00758660864, 0.00758661376
0.384414583 , 0.00847666152, -9.798754   , 0.00341955828, 0.005797878 , 0.000354728429, -0.184306324, -0.161183774, 0.421194553 , -0.00306592137, 0.0395471044, 2.37621713  , 2.62        , 3           , 12          , 0.0487163328, 0
0.360247284 , 0.028632503 , -9.804279   , 0.000896328536, 0.002120344 , 0.00118484744, -0.183969259, -0.161453411, 0.421329379 , -0.00305649359, 0.03956834  , 2.37622857  , 2.63        , 3           , 50          , 0           , 0
0.397844851 , 0.0353462249, -9.784981   , 5.552871E-05, 0.000706786232, 0.0003311144, -0.183969259, -0.161453411, 0.421329379 , -0.00305580674, 0.03957542  , 2.376232    , 2.64        , 3           , 11          , 0.00758660864, 0.00758661376
0.403170347 , 0.0253752545, -9.790405   , 0.0006247275, -0.000134088332, 0.000614984 , -0.184104085, -0.161520824, 0.421127141 , -0.003049316, 0.0395740978, 2.376238    , 2.65        , 3           , 12          , 0.0487163328, 0
0.390241623 , 0.006574224 , -9.790129   , 0.00091347174, -0.00154000684, -0.0005160185, -0.184373736, -0.161520824, 0.421261966 , -0.00304038473, 0.0395586826, 2.37623334  , 2.66        , 3           , 50          , 0           , 0
0.365280926 , 0.03218777  , -9.805581   , -0.001066304, -0.0009902465, -0.0005243691, -0.184238911, -0.161520824, 0.421127141 , -0.003051255, 0.0395487659, 2.37622762  , 2.67        , 3           , 11          , 0.00758660864, 0.00758661376
0.349295884 , 0.0304769929, -9.77814    , -0.00221527531, 0.00266245427, -0.002501758, -0.184238911, -0.161520824, 0.421127141 , -0.00307440013, 0.039575316 , 2.37620282  , 2.68        , 3           , 12          , 0.0487163328, 0
0.392122984 , 0.0484926626, -9.783161   , -0.00304435939, -0.000722049735, 3.192101E-05, -0.1841715  , -0.161520824, 0.421194553 , -0.0031048297, 0.0395680927, 2.37620282  , 2.69        , 3           , 50          , 0           , 0
0.3880728   , 0.0467752144, -9.79495049 , -0.00304164458, 0.000355662283, 3.388099E-05, -0.184373736, -0.161453411, 0.421329379 , -0.00312036858, 0.039484825 , 2.37620425  , 2.7         , 3           , 11          , 0.00748945773, 0.007489459
0.3863243   , 0.0508643948, -9.797207   , 0.0003582142, -0.001592369, 0.0017418717, -0.184238911, -0.161453411, 0.4214642   , -0.00311609567, 0.0394689552, 2.376222    , 2.71        , 3           , 12          , 0.04965677  , 0
0.388930261 , 0.0422621369, -9.797675   , -0.0016211461, -0.00132417819, 3.78620462E-05, -0.184238911, -0.161453411, 0.4214642   , -0.00313229044, 0.03945571  , 2.376222    , 2.72        , 3           , 50          , 0           , 0
0.3826018   , 0.0138527714, -9.781118   , -0.0019045521, -0.001326093, -0.00165867957, -0.184238911, -0.161453411, 0.421127141 , -0.00315198768, 0.0394423977, 2.37620568  , 2.73        , 3           , 11          , 0.00748945773, 0.007489459
0.376682639 , 0.007199968 , -9.79475    , 5.710151E-05, 0.00178449252, -0.00164468773, -0.184306324, -0.161453411, 0.421194553 , -0.003152067, 0.0394601934, 2.376189    , 2.74        , 3           , 12          , 0.04965677  , 0
0.3911232   , 0.0394999273, -9.789082   , 0.00147251319, 0.00123091473, -0.00079135847, -0.184373736, -0.161453411, 0.4213968   , -0.00313765625, 0.03947248  , 2.376181    , 2.75        , 3           , 50          , 0           , 0
0.39527455  , 0.0417456366, -9.80034    , 7.571303E-05, -0.00187585107, -0.0008027164, -0.184104085, -0.161588237, 0.421127141 , -0.003137214, 0.0394536965, 2.37617326  , 2.76        , 3           , 11          , 0.00748945773, 0.007489459
0.388733059 , 0.05765044  , -9.81072    , 0.0009082376, 0.0009455258, -0.00220711366, -0.184104085, -0.161588237, 0.421127141 , -0.0031290038, 0.0394630842, 2.37615132  , 2.77        , 3           , 12          , 0.04965677  , 0
0.379530966 , 0.0513892323, -9.795448   , -0.0005018498, 0.000654413947, -0.00108398241, -0.184373736, -0.161857888, 0.421329379 , -0.00313444948, 0.039469596 , 2.37613988  , 2.78        , 3           , 50          , 0           , 0
0.370914    , 0.0252183527, -9.765792   , 0.00232060975, 0.00123664853, 0.000625279557, -0.1841715  , -0.161453411, 0.421329379 , -0.003110999, 0.03948198  , 2.37614655  , 2.79        , 3           , 11          , 0.00748945773, 0.007489459
0.3967564   , 0.01735465  , -9.79817    , 0.00171719131, 0.00064237637, 0.00203274749, -0.184238911, -0.161588237, 0.421261966 , -0.00317126466, 0.0394378155, 2.37616372  , 2.8         , 3           , 12          , 0.0506118126, 0
0.383107841 , 0.0179078188, -9.781096   , -0.00137949362, -0.00163115934, 3.70275666E-05, -0.184238911, -0.161588237, 0.421261966 , -0.00318504218, 0.0394215025, 2.3761642   , 2.81        , 3           , 50          , 0           , 0
0.396047354 , 0.0335931145, -9.794041   , 0.000308260467, -0.000211873383, 0.000329636328, -0.184441149, -0.161251172, 0.4209923   , -0.00318182749, 0.0394193865, 2.37616754  , 2.82        , 3           , 11          , 0.00739287166, 0.007392873
0.397428423 , 0.0340419263, -9.798096   , 0.00171818456, 7.923768E-05, -0.00107603229, -0.184306324, -0.161318585, 0.421194553 , -0.00316506764, 0.0394201539, 2.376157    , 2.83        , 3           , 12          , 0.0506118126, 0
0.398902059 , 0.0488489643, -9.778587   , -0.00112387922, 0.00372048561, -0.0005184855, -0.184104085, -0.161520824, 0.421194553 , -0.00317651522, 0.0394573361, 2.37615132  , 2.84        , 3           , 50          , 0           , 0
0.378421277 , 0.04007572  , -9.781945   , 0.00227205  , 0.002335579 , -0.0007873894, -0.184104085, -0.161520824, 0.421194553 , -0.00315410714, 0.0394806638, 2.37614369  , 2.85        , 3           , 11          , 0.00739287166, 0.007392873
0.379578829 , 0.025613863 , -9.77928448 , 0.00115210027, 0.000356983568, -0.000795694767, -0.184238911, -0.161520824, 0.421059728 , -0.00314290263, 0.03948421  , 2.37613559  , 2.86        , 3           , 12          , 0.0506118126, 0
0.3832701   , -0.00197234284, -9.773947   , 0.00059217005, -0.0007731  , -0.00193021423, -0.184238911, -0.161183774, 0.421261966 , -0.0031377445, 0.039476417 , 2.376116    , 2.87        , 3           , 50          , 0           , 0
0.3741801   , 0.02213497  , -9.799228   , 1.886359E-05, 0.001194042 , 0.000330489071, -0.184306324, -0.161520824, 0.421127141 , -0.00313742855, 0.03948837  , 2.37611985  , 2.88        , 3           , 11          , 0.00739287166, 0.007392873
0.415459275 , 0.0257297475, -9.80432    , 0.00030654014, 6.969017E-05, -0.000235004482, -0.184306324, -0.161520824, 0.421127141 , -0.003134457, 0.0394890644, 2.376117    , 2.89        , 3           , 12          , 0.0506118126, 0
0.3808543   , 0.0468814261, -9.801333   , -0.002209644, -0.000212959189, -0.0005287306, -0.184441149, -0.161318585, 0.4209923   , -0.00310983718, 0.0395178236, 2.37611413  , 2.9         , 3           , 50          , 0           , 0
0.380485058 , 0.0264964718, -9.776562   , 0.000604702858, 0.00177709525, -0.0007950612, -0.184373736, -0.161183774, 0.4213968   , -0.003104106, 0.0395355746, 2.3761065   , 2.91        , 3           , 11          , 0.007296713 , 0.00729671074
0.3681253   , 0.0109086614, -9.794348   , -0.00135973888, -0.0007703603, -0.0008081851, -0.184306324, -0.161520824, 0.421329379 , -0.00311802467, 0.0395278446, 2.376098    , 2.92        , 3           , 12          , 0.05158037  , 0
0.392580241 , 0.0342077464, -9.830223   , -0.00165020337, 0.000917121943, -0.000241823524, -0.184306324, -0.161520824, 0.421329379 , -0.0031346234, 0.039537    , 2.37609553  , 2.93        , 3           , 50          , 0           , 0
0.396429956 , 0.02683565  , -9.798586   , 0.00202118256, 0.000941950653, -0.0005072409, -0.184441149, -0.161520824, 0.421127141 , -0.003114612, 0.039546404 , 2.37609029  , 2.94        , 3           , 11          , 0.007296713 , 0.00729671074
0.3944674   , 0.0289660189, -9.754749   , 0.000635119039, -0.004135766, 0.00117358833, -0.184373736, -0.161318585, 0.421127141 , -0.003107788, 0.03950508  , 2.37610269  , 2.95        , 3           , 12          , 0.05158037  , 0
0.400319576 , 0.0506663546, -9.787157   , 5.96172467E-05, -0.00245020632, -0.0027819667, -0.184306324, -0.161588237, 0.421194553 , -0.0031082863, 0.03948049  , 2.376075    , 2.96        , 3           , 50          , 0           , 0
0.376172543 , 0.07307038  , -9.790413   , -0.00192393991, -0.0007741771, 0.000319330662, -0.184306324, -0.161588237, 0.421194553 , -0.0031274  , 0.03947276  , 2.376078    , 2.97        , 3           , 11          , 0.007296713 , 0.00729671074
0.3982663   , 0.0281738918, -9.800373   , -0.00108042627, -0.000205321645, -0.00137107528, -0.184441149, -0.161723062, 0.4208575   , -0.00313874567, 0.0394706652, 2.37606454  , 2.98        , 3           , 12          , 0.05158037  , 0
0.3944873   , 0.020501487 , -9.786875   , 0.00090213737, -0.00131821213, -0.00136359246, -0.184238911, -0.161251172, 0.4213968   , -0.00313026248, 0.03945744  , 2.37605071  , 2.99        , 3           , 50          , 0           , 0
0.369397163 , 0.009929933 , -9.776263   , -0.00222851848, -0.000470982923, 3.5252E-05  , -0.184373736, -0.161386   , 0.421194553 , -0.00319345971, 0.0394994169, 2.37604976  , 3           , 3           , 11          , 0.0072011305, 0.007201129
0.387904972 , 0.04172939  , -9.770115   , -0.00251389621, 9.023666E-05, -0.0002477343, -0.184441149, -0.161520824, 0.4209923   , -0.00321869925, 0.0395003147, 2.37604737  , 3.01        , 3           , 12          , 0.0525614023, 0
0.386685461 , 0.02809512  , -9.73718548 , -0.001676537, 0.00206692121, -0.000523283437, -0.184441149, -0.161520824, 0.4209923   , -0.003235674, 0.03952096  , 2.37604165  , 3.02        , 3           , 50          , 0           , 0
0.391810358 , 0.0187801812, -9.80227    , 0.00172348472, 0.000118890886, 0.00146724447, -0.184104085, -0.161520824, 0.421261966 , -0.00321785966, 0.0395222045, 2.376057    , 3.03        , 3           , 11          , 0.0072011305, 0.007201129
0.392286032 , 0.041929502 , -9.844205   , -0.003073011, -0.00103984284, 3.04333353E-05, -0.184508562, -0.161386   , 0.421261966 , -0.00324857677, 0.0395118073, 2.376057    , 3.04        , 3           , 12          , 0.0525614023, 0
0.398496419 , 0.0541745164, -9.883882   , -0.000821871567, 0.000383256032, -0.00221716124, -0.184508562, -0.161588237, 0.421127141 , -0.003257673, 0.0395155735, 2.376035    , 3.05        , 3           , 50          , 0           , 0
0.398592    , 0.01296382  , -9.707326   , 0.004551119 , -0.0007067087, 6.642447E-05, -0.184508562, -0.161588237, 0.421127141 , -0.003212135, 0.0395085067, 2.37603545  , 3.06        , 3           , 11          , 0.0072011305, 0.007201129
0.377332568 , 0.0145701356, -9.708385   , 0.00144064287, 0.000398550648, 0.00316158636, -0.184306324, -0.16165565 , 0.421261966 , -0.00319647836, 0.0395125933, 2.3760674   , 3.07        , 3           , 12          , 0.0525614023, 0
0.388631    , 0.0557823367, -9.791745   , -0.00166636391, -0.000185604033, -0.00222198 , -0.1841715  , -0.161790475, 0.421329379 , -0.00321401982, 0.03951066  , 2.376045    , 3.08        , 3           , 50          , 0           , 0
0.3845205   , 0.05795909  , -9.887136   , 0.0006056709, -0.00242283777, 0.0003279213, -0.184104085, -0.161453411, 0.421127141 , -0.00320783048, 0.03948644  , 2.37604833  , 3.09        , 3           , 11          , 0.0072011305, 0.007201129
0.380804151 , 0.00183355715, -9.82321548 , 0.00253834552, 0.000132548623, 0.00203504832, -0.184104085, -0.161453411, 0.421127141 , -0.00324888667, 0.0395040736, 2.37606645  , 3.1         , 3           , 12          , 0.05355398  , 0
0.406190574 , 0.01762916  , -9.778662   , 0.000565316644, -0.00157023268, -0.00560528552, -0.184306324, -0.161588237, 0.4213968   , -0.00324544637, 0.0394881852, 2.37601018  , 3.11        , 3           , 50          , 0           , 0
0.366614729 , -0.01813732 , -9.73979    , 0.004221754 , 0.00239652884, 0.0020464214, -0.184373736, -0.161386   , 0.4214642   , -0.003202423, 0.03951221  , 2.37603068  , 3.12        , 3           , 11          , 0.00710745342, 0.00710745
0.3796156   , 0.0176834762, -9.702932   , -0.000855447841, 0.0009543218, 0.00117293431, -0.184238911, -0.161386   , 0.421329379 , -0.00321051269, 0.03952179  , 2.3760426   , 3.13        , 3           , 12          , 0.05355398  , 0
0.408719033 , 0.0574679524, -9.825935   , -0.00169116107, -0.00158549845, -0.0005301466, -0.184238911, -0.161386   , 0.421329379 , -0.00322763063, 0.0395059176, 2.376037    , 3.14        , 3           , 50          , 0           , 0
0.38283357  , 0.0344985537, -9.882275   , -0.00197252026, -0.00186897512, -0.0010969725, -0.184306324, -0.161386   , 0.421059728 , -0.003247786, 0.0394871831, 2.37602639  , 3.15        , 3           , 11          , 0.00710745342, 0.00710745
0.353151679 , 0.038658    , -9.808811   , -0.000574326259, 0.000956225558, -0.00108604843, -0.184238911, -0.161386   , 0.4213968   , -0.003253959, 0.0394967124, 2.37601542  , 3.16        , 3           , 12          , 0.05355398  , 0
0.356287867 , 0.0114405658, -9.777262   , 0.002252152 , 0.0006937641, 0.000339374179, -0.1841715  , -0.161520824, 0.421261966 , -0.0032313047, 0.0395036638, 2.37601876  , 3.17        , 3           , 50          , 0           , 0
0.398658931 , 0.0325833261, -9.771425   , 0.003650583 , 0.003800538 , 0.00317610684, -0.1841715  , -0.161520824, 0.421261966 , -0.003193549, 0.0395417735, 2.37605023  , 3.18        , 3           , 11          , 0.00710745342, 0.00710745
0.401238978 , 0.02931627  , -9.748368   , 0.000557190157, 0.000400730554, -0.00277687353, -0.1841715  , -0.161520824, 0.421127141 , -0.00318907853, 0.0395456962, 2.37602258  , 3.19        , 3           , 12          , 0.05355398  , 0
0.362088621 , 0.00416060351, -9.779507   , 0.00284356321, -0.00100546749, 0.00118774245, -0.184441149, -0.161520824, 0.421261966 , -0.00312261819, 0.03950676  , 2.376036    , 3.2         , 3           , 50          , 0           , 0
0.35430932  , 0.051795762 , -9.828182   , 0.0008667384, -0.00101883651, 0.00146106142, -0.184306324, -0.16165565 , 0.4213968   , -0.003113371, 0.0394966155, 2.37605119  , 3.21        , 3           , 11          , 0.00701573025, 0.007015724
0.405226558 , 0.06922077  , -9.820038   , 0.00114130531, 0.000109322893, -0.00249141036, -0.184104085, -0.161453411, 0.421059728 , -0.00310294423, 0.0394976363, 2.376026    , 3.22        , 3           , 12          , 0.0545571968, 0
0.376660019 , 0.0170013178, -9.75764751 , 0.005093783 , 0.00126234232, 0.004592199 , -0.184104085, -0.161453411, 0.421059728 , -0.00305019366, 0.0395103954, 2.37607217  , 3.23        , 3           , 50          , 0           , 0
0.3773451   , 0.0336991772, -9.760736   , 0.00114014873, 0.0006724608, 0.000334831915, -0.184508562, -0.161453411, 0.421194553 , -0.003038661, 0.0395171344, 2.376075    , 3.24        , 3           , 11          , 0.00701573025, 0.007015724
0.389138281 , 0.0237581115, -9.797298   , -0.00167664548, -0.00131760526, -0.00363689917, -0.184306324, -0.161723062, 0.4213968   , -0.00305686262, 0.0395038426, 2.37603879  , 3.25        , 3           , 12          , 0.0545571968, 0
0.355306327 , -0.000661851838, -9.797658   , -0.000268218573, 9.978557E-05, 0.00202260446, -0.184373736, -0.161318585, 0.4213968   , -0.00305874646, 0.0395049043, 2.37605882  , 3.26        , 3           , 50          , 0           , 0
0.398008853 , 0.0127893975, -9.78688049 , 0.004820225 , -0.0009920993, 0.000631886069, -0.184373736, -0.161318585, 0.4213968   , -0.00301029254, 0.0394950025, 2.37606549  , 3.27        , 3           , 11          , 0.00701573025, 0.007015724
0.386239618 , 0.00712764449, -9.806429   , 0.000297628518, -0.0004595334, -0.00108354189, -0.184104085, -0.161723062, 0.421261966 , -0.00300774258, 0.03949038  , 2.37605453  , 3.28        , 3           , 12          , 0.0545571968, 0
0.398064822 , 0.012834752 , -9.800439   , 0.00085821125, 0.0006705532, 0.0011811275, -0.184373736, -0.161386   , 0.421531618 , -0.002998693, 0.0394971147, 2.37606645  , 3.29        , 3           , 50          , 0           , 0
0.4101981   , 0.0420017168, -9.79435    , 0.00231830962, 0.000665197847, -0.00107056915, -0.184441149, -0.16165565 , 0.4209923   , -0.002868105, 0.039471224 , 2.37606072  , 3.3         , 3           , 11          , 0.006926053 , 0.006926048
0.381400555 , 0.0247084387, -9.78469849 , -0.00134684762, -0.000485888246, 0.000323262182, -0.184441149, -0.16165565 , 0.4209923   , -0.00288144452, 0.0394663662, 2.37606359  , 3.31        , 3           , 12          , 0.05557022  , 0
0.3780691   , 0.01747281  , -9.768481   , 7.70168554E-05, -0.00301042781, -0.00108674576, -0.184508562, -0.16165565 , 0.421127141 , -0.002881099, 0.039436236 , 2.376053    , 3.32        , 3           , 50          , 0           , 0
0.403159857 , 0.0365255177, -9.75194    , -0.0005099777, 0.00149079412, -0.000799899164, -0.184441149, -0.161251172, 0.4214642   , -0.002886517, 0.03945112  , 2.37604547  , 3.33        , 3           , 11          , 0.006926053 , 0.006926048
0.3961578   , 0.04439504  , -9.786311   , -0.00276070158, -0.0002138745, -0.000247963268, -0.184441149, -0.161386   , 0.4214642   , -0.002914222, 0.03944897  , 2.3760426   , 3.34        , 3           , 12          , 0.05557022  , 0
0.3936048   , 0.0387570038, -9.84466    , 0.00205154321, -0.00243392657, -0.000511584338, -0.184441149, -0.161386   , 0.4214642   , -0.00289390469, 0.0394246168, 2.37603784  , 3.35        , 3           , 50          , 0           , 0
0.3848683   , 0.03473263  , -9.825308   , 0.002875289 , 0.00235841051, -0.0002177192, -0.184373736, -0.161386   , 0.421127141 , -0.00286524184, 0.0394481942, 2.37603545  , 3.36        , 3           , 11          , 0.006926053 , 0.006926048
0.4061106   , 0.00774465548, -9.790907   , 0.00316870445, 0.000107799191, -0.0005024112, -0.184643388, -0.161251172, 0.4213968   , -0.00283375 , 0.03944926  , 2.37603021  , 3.37        , 3           , 12          , 0.05557022  , 0
0.378742278 , -0.00191918842, -9.773981   , 0.004578302 , 0.000398908625, -0.0024731548, -0.184441149, -0.161520824, 0.421329379 , -0.00278894324, 0.03945318  , 2.37600541  , 3.38        , 3           , 50          , 0           , 0
0.373741418 , -0.0014307294, -9.767689   , -0.00021853426, -0.0001966832, 0.000328963855, -0.184441149, -0.161520824, 0.421329379 , -0.0027909975, 0.03945122  , 2.37600923  , 3.39        , 3           , 11          , 0.006926053 , 0.006926048
0.390666962 , 0.00476128049, -9.789229   , 0.00152511464, -0.00130644918, 0.000619507744, -0.184373736, -0.161453411, 0.421329379 , -0.00267769047, 0.0394495428, 2.37601972  , 3.4         , 3           , 12          , 0.05659227  , 0
0.380952179 , 0.0180220846, -9.807329   , 0.00179573672, 0.000947978 , -0.0005058536, -0.184104085, -0.161520824, 0.42159903  , -0.00265993248, 0.039459    , 2.376015    , 3.41        , 3           , 50          , 0           , 0
0.3774652   , 0.0271012429, -9.811384   , 9.806154E-05, 0.00149964669, -0.00107796246, -0.184441149, -0.161386   , 0.4213968   , -0.00265937927, 0.0394739732, 2.3760035   , 3.42        , 3           , 11          , 0.006837943 , 0.00683794124
0.3592111   , 0.0209493712, -9.797087   , 0.00152248982, -0.0007433187, 0.000902913 , -0.184441149, -0.161386   , 0.4213968   , -0.00264379731, 0.03946656  , 2.376013    , 3.43        , 3           , 12          , 0.05659227  , 0
0.3744861   , 0.01263733  , -9.79384    , 0.00348955626, 0.001241006 , 0.000632631651, -0.1841715  , -0.161453411, 0.421127141 , -0.002608654, 0.0394789875, 2.37601876  , 3.44        , 3           , 50          , 0           , 0
0.413008422 , 0.01489241  , -9.793537   , 0.00265236036, -0.000735678, 0.00119071826, -0.184306324, -0.16165565 , 0.4214642   , -0.00258165668, 0.0394716635, 2.37603116  , 3.45        , 3           , 11          , 0.006837943 , 0.00683794124
0.382436275 , 0.02926677  , -9.801846   , -0.002426236, -0.00189631979, 0.000317665224, -0.184238911, -0.161588237, 0.421329379 , -0.0026057926, 0.0394527055, 2.376034    , 3.46        , 3           , 12          , 0.05659227  , 0
0.3402671   , 0.0265879557, -9.79766    , -0.00299280975, -0.00161857624, -0.000249609438, -0.184306324, -0.161318585, 0.421059728 , -0.002635819, 0.03943651  , 2.376032    , 3.47        , 3           , 50          , 0           , 0
0.4005615   , 0.03531433  , -9.78496    , -0.00159166474, 0.00064349483, 4.29839565E-05, -0.184306324, -0.161318585, 0.421059728 , -0.00265171728, 0.0394429453, 2.376032    , 3.48        , 3           , 11          , 0.006837943 , 0.00683794124
0.413765073 , 0.042807065 , -9.77804852 , 0.00150880171, 0.0017907616, -0.00107094378, -0.184373736, -0.161520824, 0.4213968   , -0.00263705454, 0.0394608229, 2.37602162  , 3.49        , 3           , 12          , 0.05659227  , 0
0.371781766 , 0.01178658  , -9.79974    , -0.000740066462, -0.000195757559, 0.0008932974, -0.184441149, -0.161520824, 0.421261966 , -0.002644918, 0.03945822  , 2.37603068  , 3.5         , 3           , 50          , 0           , 0
0.36966455  , 0.0262152273, -9.789301   , 0.00151353469, 0.0006642096, -0.00192024 , -0.184238911, -0.16165565 , 0.421329379 , -0.00263054273, 0.0394648165, 2.37601161  , 3.51        , 3           , 11          , 0.006751815 , 0.006751816
0.39842245  , 0.0127523271, -9.777386   , 0.00124028767, -0.001027087, -0.0005114731, -0.184238911, -0.16165565 , 0.421329379 , -0.00261833984, 0.03945453  , 2.37600636  , 3.52        , 3           , 12          , 0.05762261  , 0
0.382656723 , 0.0201462172, -9.774312   , -0.0001640608, -0.00244445819, 0.0008924598, -0.184306324, -0.161183774, 0.421127141 , -0.00261962553, 0.0394301042, 2.37601542  , 3.53        , 3           , 50          , 0           , 0
0.395489544 , 0.0277107842, -9.787289   , -0.00158955646, 8.00737762E-05, -0.000522906659, -0.1841715  , -0.161453411, 0.4213968   , -0.002635726, 0.03943089  , 2.37601018  , 3.54        , 3           , 11          , 0.006751815 , 0.006751816
0.395052969 , 0.0219267365, -9.809916   , 0.00375171262, 0.00490296353, -0.00246827048, -0.1841715  , -0.161520824, 0.421194553 , -0.00259918813, 0.03947985  , 2.37598538  , 3.55        , 3           , 12          , 0.05762261  , 0
0.4061406   , 0.0456345752, -9.787133   , -0.0007554748, 0.00261988631, -0.00164520042, -0.1841715  , -0.161520824, 0.421194553 , -0.00260739378, 0.0395060033, 2.37596869  , 3.56        , 3           , 50          , 0           , 0
0.400955647 , 0.02901255  , -9.790858   , -0.00130778248, 8.19806E-05 , -0.0016517397, -0.184643388, -0.161318585, 0.421261966 , -0.0026211238, 0.03950678  , 2.375952    , 3.57        , 3           , 11          , 0.006751815 , 0.006751816
0.373221338 , 0.0207634177, -9.790653   , 0.00178685586, 0.00263707829, -0.0007857356, -0.184373736, -0.161386   , 0.421261966 , -0.00260356953, 0.03953313  , 2.37594438  , 3.58        , 3           , 12          , 0.05762261  , 0
0.373083472 , 0.0184199736, -9.764447   , -0.00185288244, -0.00358217768, 0.00116536  , -0.184104085, -0.161318585, 0.4213968   , -0.0026216344, 0.039497342 , 2.37595582  , 3.59        , 3           , 50          , 0           , 0
0.387298346 , 0.0277732126, -9.777409   , 0.0009612888, -0.000748256, 5.29611461E-05, -0.184104085, -0.161318585, 0.4213968   , -0.00260123471, 0.0394878872, 2.37595773  , 3.6         , 3           , 11          , 0.00666829245, 0.00666829245
0.37106365  , 0.0257859267, -9.800592   , -0.00300014624, 0.000632827636, -0.0008109185, -0.184441149, -0.161318585, 0.421261966 , -0.00263155624, 0.03949419  , 2.37594914  , 3.61        , 3           , 12          , 0.0586605668, 0
0.390145868 , 0.0332035124, -9.791827   , 0.000386350817, 0.0012188782, -0.00051170995, -0.184508562, -0.161453411, 0.421531618 , -0.00262789545, 0.03950636  , 2.37594438  , 3.62        , 3           , 50          , 0           , 0
0.392720938 , 0.020559039 , -9.797735   , 0.00123133278, 0.0017877405, 0.000340720959, -0.184238911, -0.161520824, 0.4213968   , -0.00261545042, 0.039524246 , 2.37594724  , 3.63        , 3           , 11          , 0.00666829245, 0.00666829245
0.383549869 , 0.04593967  , -9.799056   , 0.000393647148, -0.000188945618, 5.119515E-05, -0.184238911, -0.161520824, 0.4213968   , -0.002611492, 0.0395223647, 2.37594819  , 3.64        , 3           , 12          , 0.0586605668, 0
0.386370122 , 0.027319083 , -9.77335    , -0.000737127848, 8.498115E-05, 0.0006114363, -0.1841715  , -0.161588237, 0.421261966 , -0.00261862343, 0.0395232365, 2.375954    , 3.65        , 3           , 50          , 0           , 0
0.3962376   , 0.0164138135, -9.78507    , 0.000376592769, 0.00318983383, -0.0005086724, -0.184508562, -0.161453411, 0.421531618 , -0.002615059, 0.03955511  , 2.37594914  , 3.66        , 3           , 11          , 0.00666829245, 0.00666829245
0.389398456 , 0.0128843449, -9.785138   , -0.00441121263, 0.000341711129, -0.001383012, -0.184441149, -0.161386   , 0.4213968   , -0.0026597192, 0.0395584926, 2.37593484  , 3.67        , 3           , 12          , 0.0586605668, 0
0.414731741 , 0.0121219074, -9.78088    , 0.00375456223, 0.00546527375, -0.0004893977, -0.184441149, -0.161386   , 0.4213968   , -0.00262237177, 0.0396131277, 2.37593     , 3.68        , 3           , 50          , 0           , 0
0.3520074   , 0.0232992433, -9.799844   , 0.00011047889, 9.071262E-05, 0.00118046219, -0.184238911, -0.161857888, 0.4214642   , -0.00262079854, 0.0396140665, 2.37594151  , 3.69        , 3           , 11          , 0.00666829245, 0.00666829245
0.388518631 , 0.0449789   , -9.799023   , -0.0009987982, -0.00161551661, 4.29497E-05 , -0.184373736, -0.161386   , 0.4214642   , -0.00259944331, 0.039575316 , 2.37594342  , 3.7         , 3           , 12          , 0.0597055033, 0
0.382490426 , 0.0395767353, -9.781916   , -0.00100642082, -0.000207694422, -0.00108503038, -0.184508562, -0.161318585, 0.4213968   , -0.002609937, 0.0395732075, 2.375933    , 3.71        , 3           , 50          , 0           , 0
0.4000719   , 0.0281481   , -9.799005   , 0.00294402544, 0.000663743471, 6.485825E-05, -0.184508562, -0.161588237, 0.4214642   , -0.00258047 , 0.0395798571, 2.37593341  , 3.72        , 3           , 11          , 0.00658762734, 0.006587627
0.416453272 , 0.0369495228, -9.7898035  , 0.002660946 , 0.0006618304, -0.00106660847, -0.184508562, -0.161588237, 0.4214642   , -0.00255428324, 0.03958644  , 2.375923    , 3.73        , 3           , 12          , 0.0597055033, 0
0.4090455   , 0.02038733  , -9.803488   , -0.00411820225, 0.0008975586, -0.0002501684, -0.184643388, -0.161520824, 0.4214642   , -0.00259556412, 0.03959541  , 2.37592053  , 3.74        , 3           , 50          , 0           , 0
0.3885979   , 0.0187826157, -9.791899   , -0.00184468471, -0.00190281169, 3.85649473E-05, -0.184306324, -0.161386   , 0.42159903  , -0.00261399359, 0.03957638  , 2.37592053  , 3.75        , 3           , 11          , 0.00658762734, 0.006587627
0.386630237 , 0.04136676  , -9.791821   , 0.000680265541, 0.001493158 , -0.000226912685, -0.1841715  , -0.161588237, 0.4213968   , -0.00260728085, 0.039591305 , 2.37591863  , 3.76        , 3           , 12          , 0.0597055033, 0
0.383082658 , 0.008960387 , -9.803734   , 0.00237573124, 0.00122305064, -0.00106705748, -0.1841715  , -0.161588237, 0.4213968   , -0.00258394727, 0.03960352  , 2.37590814  , 3.77        , 3           , 50          , 0           , 0
0.385555029 , 0.02874213  , -9.790977   , -0.00100848184, 0.000637010962, 0.0025892586, -0.184441149, -0.161588237, 0.421329379 , -0.002593007, 0.03960995  , 2.375934    , 3.78        , 3           , 11          , 0.00658762734, 0.006587627
0.37846297  , 0.0410022177, -9.789173   , 0.00180997269, 0.00150079792, -0.000221644936, -0.184373736, -0.161520824, 0.4213968   , -0.00257499586, 0.0396249443, 2.3759315   , 3.79        , 3           , 12          , 0.0597055033, 0
0.380786359 , 0.0156559665, -9.774345   , 0.00236325269, 0.00122414052, 0.0009102194, -0.184441149, -0.161453411, 0.421261966 , -0.00258548278, 0.03963995  , 2.37593961  , 3.8         , 3           , 50          , 0           , 0
0.371500254 , 0.02666023  , -9.793805   , 0.00207336643, 0.00263005355, 6.345961E-05, -0.184441149, -0.161453411, 0.421261966 , -0.00256472849, 0.0396662541, 2.37594     , 3.81        , 3           , 11          , 0.00650801044, 0.00650801137
0.375440866 , 0.0135592446, -9.802869   , 0.00546462368, 0.00208984  , -0.00105175481, -0.184643388, -0.161386   , 0.4213968   , -0.00251050224, 0.0396871269, 2.37592959  , 3.82        , 3           , 12          , 0.0607568137, 0
0.3721976   , 0.0121976417, -9.78934    , -0.000167110571, -0.00104556826, 0.00145997049, -0.184508562, -0.161520824, 0.421531618 , -0.00251159375, 0.03967671  , 2.37594438  , 3.83        , 3           , 50          , 0           , 0
0.374891251 , 0.0112543721, -9.786612   , -0.0007310596, -0.00133095554, 0.000609290262, -0.184441149, -0.161588237, 0.421531618 , -0.00251866016, 0.03966342  , 2.37595     , 3.84        , 3           , 11          , 0.00650801044, 0.00650801137
0.380998731 , 0.0332357436, -9.76975    , 0.0029343348, 0.000101703336, 0.00204126746, -0.184441149, -0.161588237, 0.421531618 , -0.00248850649, 0.03966449  , 2.375971    , 3.85        , 3           , 12          , 0.0607568137, 0
0.3789407   , 0.0419097878, -9.79233    , -0.000173176028, 8.068973E-05, 0.0006140938, -0.184575975, -0.161723062, 0.421194553 , -0.00248999614, 0.03966531  , 2.3759768   , 3.86        , 3           , 50          , 0           , 0
0.3892427   , 0.0314307027, -9.798169   , 0.0006683653, 0.0012126792, 0.0003372428, -0.184104085, -0.161520824, 0.4213968   , -0.002483179, 0.03967744  , 2.37598062  , 3.87        , 3           , 11          , 0.00650801044, 0.00650801137
0.367600441 , 0.0393478647, -9.79604149 , 0.00209058379, -0.000748725142, 0.0009058648, -0.184575975, -0.161723062, 0.421531618 , -0.00246191374, 0.03966998  , 2.3759892   , 3.88        , 3           , 12          , 0.0607568137, 0
0.389250636 , 0.0345615447, -9.79002    , 0.00124314008, -0.0007544558, 0.00061937666, -0.184575975, -0.161723062, 0.421531618 , -0.00244923774, 0.03966245  , 2.3759954   , 3.89        , 3           , 50          , 0           , 0
0.4165757   , 0.0161443781, -9.775878   , -0.0004775021, 5.029241E-05, -0.000235696236, -0.184373736, -0.161857888, 0.421329379 , -0.00250977953, 0.03958896  , 2.375991    , 3.9         , 3           , 11          , 0.0064308   , 0.006430799
0.396983    , 0.0389630459, -9.784067   , 9.964561E-05, -0.002198403, 0.00174122839, -0.184643388, -0.161520824, 0.421261966 , -0.00250809221, 0.0395670161, 2.37600875  , 3.91        , 3           , 12          , 0.0618139468, 0
0.3914793   , 0.0322746821, -9.788657   , 0.0009325853, 0.000341404171, -0.00135882758, -0.184306324, -0.161386   , 0.4213968   , -0.00249930541, 0.0395704   , 2.375995    , 3.92        , 3           , 50          , 0           , 0
0.388291746 , 0.0305118226, -9.790045   , 0.002336104 , 0.002321915 , 0.0006285568, -0.184441149, -0.161453411, 0.421194553 , -0.00247569662, 0.0395936333, 2.3760016   , 3.93        , 3           , 11          , 0.0064308   , 0.006430799
0.3711465   , 0.0045024124, -9.778532   , -0.001897837, 0.00173013378, 4.2859916E-05, -0.184441149, -0.161453411, 0.421194553 , -0.00249465741, 0.03961093  , 2.3760016   , 3.94        , 3           , 12          , 0.0618139468, 0
0.400568962 , 0.007720757 , -9.764734   , 0.0009355366, -0.000221725189, -0.001077158, -0.184306324, -0.161453411, 0.42159903  , -0.00248572812, 0.0396086872, 2.375991    , 3.95        , 3           , 50          , 0           , 0
0.370253384 , 0.038817957 , -9.782013   , 9.768779E-05, -0.00219841232, -0.00164922129, -0.184441149, -0.161520824, 0.4214642   , -0.00248540333, 0.0395866632, 2.375975    , 3.96        , 3           , 11          , 0.0064308   , 0.006430799
0.371803939 , 0.02162422  , -9.773485   , -0.0010406354, -0.00023509108, 0.000326310634, -0.184508562, -0.161790475, 0.4213968   , -0.00249568 , 0.0395843238, 2.37597775  , 3.97        , 3           , 12          , 0.0618139468, 0
0.3878119   , 0.0318343043, -9.779196   , 0.0017665039, 0.00288121612, -0.002763659, -0.184508562, -0.161790475, 0.4213968   , -0.00247911271, 0.0396130644, 2.37595     , 3.98        , 3           , 50          , 0           , 0
0.407613367 , 0.0265923981, -9.765507   , -0.00017572238, -0.00388970948, -0.0005229919, -0.184238911, -0.161453411, 0.4214642   , -0.00248107174, 0.0395741537, 2.37594533  , 3.99        , 3           , 11          , 0.0064308   , 0.006430799
0.395645946 , 0.0100576626, -9.771542   , 0.003179921 , 0.00176641066, 0.00119650608, -0.184643388, -0.16165565 , 0.4214642   , -0.00246636616, 0.0395968966, 2.37595677  , 4           , 3           , 12          , 0.06287637  , 0
0.3760271   , 0.03285516  , -9.773406   , 0.00036738292, -0.0007867786, -0.00023325588, -0.184441149, -0.161588237, 0.421329379 , -0.002462783, 0.03958902  , 2.37595439  , 4.01        , 3           , 50          , 0           , 0
0.38734138  , 0.0304861665, -9.779205   , 0.00262449938, -0.000208366313, 0.0006257597, -0.184441149, -0.161588237, 0.421329379 , -0.0024362877, 0.0395869464, 2.37596059  , 4.02        , 3           , 11          , 0.00635553151, 0.00635552872
0.385782957 , 0.04454905  , -9.795881   , -0.001047213, -0.000233196653, 0.000326102017, -0.1841715  , -0.161520824, 0.421127141 , -0.00244663074, 0.0395846255, 2.375964    , 4.03        , 3           , 12          , 0.06287637  , 0
0.393233955 , 0.0615926348, -9.791234   , 0.000932236435, -0.000782958639, -0.000230622027, -0.184575975, -0.161386   , 0.421531618 , -0.00243739877, 0.03957679  , 2.37596154  , 4.04        , 3           , 50          , 0           , 0
0.384822071 , 0.04540756  , -9.779614   , 0.0017832095, -0.001621926, -0.00107558561, -0.184441149, -0.161386   , 0.421531618 , -0.00241999025, 0.0395605452, 2.375951    , 4.05        , 3           , 11          , 0.00635553151, 0.00635552872
0.400721282 , 0.04972698  , -9.777666   , -0.00105229951, 0.000893066 , 0.00117545028, -0.184441149, -0.161386   , 0.421531618 , -0.00243004854, 0.0395695   , 2.3759625   , 4.06        , 3           , 12          , 0.06287637  , 0
0.376489222 , 0.06804496  , -9.773255   , 0.0009313318, -0.0005013912, 0.0006174242, -0.184373736, -0.16165565 , 0.4214642   , -0.00242049037, 0.0395645   , 2.37596869  , 4.07        , 3           , 50          , 0           , 0
0.395896941 , 0.0543755777, -9.80118752 , -0.00217568944, -0.0005224025, 3.78628756E-05, -0.184508562, -0.161386   , 0.4214642   , -0.0024422307, 0.03955927  , 2.37596917  , 4.08        , 3           , 11          , 0.00635553151, 0.00635552872
0.358937472 , 0.03136594  , -9.807442   , 0.00120351138, 0.001471472 , -0.000225833617, -0.184508562, -0.161723062, 0.421329379 , -0.002430285, 0.0395739824, 2.37596679  , 4.09        , 3           , 12          , 0.06287637  , 0
0.379009545 , 0.0116879214, -9.795618   , 0.000309583615, -0.001925   , 0.00174017577, -0.184508562, -0.161723062, 0.421329379 , -0.00260335114, 0.0395219848, 2.37597728  , 4.1         , 3           , 50          , 0           , 0
0.3837538   , 0.0269860085, -9.799134   , -0.00279464968, -0.002509141, 0.00115974655, -0.184306324, -0.161723062, 0.421329379 , -0.00263083773, 0.03949692  , 2.3759892   , 4.11        , 3           , 11          , 0.00628317334, 0.006283169
0.3649303   , 0.047005482 , -9.782925   , -0.00252402737, -0.000254713756, 3.43849533E-05, -0.184373736, -0.16165565 , 0.421531618 , -0.00265606213, 0.0394943766, 2.3759892   , 4.12        , 3           , 12          , 0.0639436   , 0
0.391231984 , 0.0128812231, -9.790547   , 9.449839E-06, 0.00145186647, 4.88409678E-05, -0.184508562, -0.161588237, 0.4214642   , -0.002655951, 0.0395088978, 2.37598968  , 4.13        , 3           , 50          , 0           , 0
0.359929055 , 0.00918159448, -9.788994   , 0.00030196103, -0.00051717757, 0.000612195348, -0.184508562, -0.161588237, 0.4214642   , -0.00265268935, 0.03950374  , 2.37599587  , 4.14        , 3           , 11          , 0.00628317334, 0.006283169
0.369544059 , 0.0221004337, -9.773047   , -0.00209821458, -0.000674196053, 0.000176978312, -0.184441149, -0.161588237, 0.421261966 , -0.00267359964, 0.0394969955, 2.37599778  , 4.15        , 3           , 12          , 0.0639436   , 0
0.384886622 , 0.0169676226, -9.776115   , -0.00238383748, -0.000112977796, -0.0005298144, -0.184575975, -0.161318585, 0.4213968   , -0.00269764639, 0.0394958556, 2.37599254  , 4.16        , 3           , 50          , 0           , 0
0.370370984 , 0.006403827 , -9.804293   , -0.003087895, -0.0005401006, -0.0006750263, -0.1847108  , -0.161318585, 0.4213968   , -0.00272879121, 0.0394904353, 2.37598538  , 4.17        , 3           , 11          , 0.00628317334, 0.006283169
0.3554451   , 0.018197298 , -9.770911   , -0.00139374216, -0.000528642733, -0.00137346855, -0.184373736, -0.161453411, 0.421194553 , -0.00274327165, 0.0394851156, 2.375972    , 4.18        , 3           , 12          , 0.0639436   , 0
0.367667139 , 0.0189439859, -9.76719952 , 0.00170622778, 0.0009001934, -0.000933006348, -0.184373736, -0.161453411, 0.421194553 , -0.00272657885, 0.03949409  , 2.3759625   , 4.19        , 3           , 50          , 0           , 0
0.394595146 , 0.0353184268, -9.76557    , 0.00115900382, 0.00042868944, 0.00019454179, -0.1847108  , -0.161520824, 0.421531618 , -0.0026730157, 0.0393711329, 2.37596726  , 4.2         , 3           , 11          , 0.006212011 , 0.006212003
0.401390642 , 0.0601631477, -9.797054   , -0.000391311, -0.000144944337, 0.000610237 , -0.184373736, -0.161453411, 0.4213968   , -0.00267668674, 0.0393697   , 2.37597346  , 4.21        , 3           , 12          , 0.06501517  , 0
0.365232646 , 0.0651044548, -9.798665   , -0.00109372986, -0.0008536311, 0.000888397335, -0.184373736, -0.161520824, 0.4214642   , -0.002687273, 0.0393611751, 2.37598252  , 4.22        , 3           , 50          , 0           , 0
0.3942724   , 0.03721452  , -9.791327   , -0.000110359724, 0.000138530231, 0.000470719184, -0.184373736, -0.161520824, 0.4214642   , -0.002688193, 0.0393625759, 2.37598729  , 4.23        , 3           , 11          , 0.006212011 , 0.006212003
0.398078322 , 0.0159701277, -9.793646   , 0.0008702224, 0.00169382186, 5.39087923E-05, -0.184441149, -0.161520824, 0.4214642   , -0.002679471, 0.0393795148, 2.37598729  , 4.24        , 3           , 12          , 0.06501517  , 0
0.375870854 , 0.0206771   , -9.774362   , -0.00110065541, 0.000413408648, -0.000239799789, -0.184306324, -0.161386   , 0.4214642   , -0.00269057322, 0.03938364  , 2.37598538  , 4.25        , 3           , 50          , 0           , 0
0.3967872   , 0.0263066087, -9.77689    , -0.00109585794, -0.0005720696, -0.0003825872, -0.1841715  , -0.161520824, 0.421329379 , -0.00270168344, 0.0393779054, 2.375981    , 4.26        , 3           , 11          , 0.006212011 , 0.006212003
0.365210027 , -0.000379049685, -9.782215   , -0.0005317014, -0.0004274671, -0.000379736361, -0.1841715  , -0.161520824, 0.421329379 , -0.00270714867, 0.0393736176, 2.37597775  , 4.27        , 3           , 12          , 0.06501517  , 0
0.377858549 , -0.000105459243, -9.773528   , -0.000816463958, -7.030525E-06, -0.0008042086, -0.184575975, -0.161857888, 0.421329379 , -0.00271562673, 0.0393735357, 2.37596917  , 4.28        , 3           , 50          , 0           , 0
0.396307468 , 0.02004117  , -9.790479   , 0.00116105773, -0.0001344441, -0.00107774464, -0.184238911, -0.16165565 , 0.421329379 , -0.00270444085, 0.03937215  , 2.37595868  , 4.29        , 3           , 11          , 0.006212011 , 0.006212003
0.381952941 , 0.028354669 , -9.797334   , 0.000755236659, -0.000144033329, 0.0003337188, -0.1841715  , -0.161453411, 0.4213968   , -0.0026477396, 0.0393513739, 2.3759644   , 4.3         , 3           , 12          , 0.06609066  , 0
0.382630527 , 0.0174468625, -9.776583   , -0.0009386273, -0.0002962757, 0.000325600238, -0.1841715  , -0.161453411, 0.4213968   , -0.00265699625, 0.039348416 , 2.37596822  , 4.31        , 3           , 50          , 0           , 0
0.389229178 , 0.0006957017, -9.78293    , 0.00117949222, -0.000281951361, 0.0001942086, -0.184643388, -0.161723062, 0.4213968   , -0.00264512468, 0.0393456072, 2.37596965  , 4.32        , 3           , 11          , 0.006142899 , 0.00614289241
0.388624728 , 0.0299631283, -9.762474   , 0.00188277138, 0.000285953836, 0.000198368754, -0.184441149, -0.161318585, 0.421531618 , -0.00262622 , 0.0393484719, 2.375972    , 4.33        , 3           , 12          , 0.06609066  , 0
0.376204729 , 0.043711517 , -9.781946   , 4.13023045E-05, 0.00125901285, -0.00122135994, -0.184441149, -0.161386   , 0.4214642   , -0.00262628845, 0.03936103  , 2.37595963  , 4.34        , 3           , 50          , 0           , 0
0.397489637 , 0.0412331372, -9.78993    , -0.000380780839, 0.000974583731, -0.00094123173, -0.184441149, -0.161386   , 0.4214642   , -0.00263046776, 0.0393707529, 2.37595     , 4.35        , 3           , 11          , 0.006142899 , 0.00614289241
0.397608578 , 0.0533809625, -9.779936   , -0.000517159642, 0.000128936546, 0.0001869578, -0.184441149, -0.161453411, 0.421194553 , -0.00263556535, 0.03937204  , 2.375952    , 4.36        , 3           , 12          , 0.06609066  , 0
0.3866408   , 0.0404825956, -9.797248   , -0.0005166702, 0.000128938875, 0.00103457016, -0.184373736, -0.161318585, 0.4213968   , -0.002640324, 0.039373368 , 2.3759625   , 4.37        , 3           , 50          , 0           , 0
0.3864107   , 0.0242275484, -9.793249   , 0.000609144161, 0.000840489462, 0.000334579119, -0.1841715  , -0.161453411, 0.421261966 , -0.002634098, 0.03938177  , 2.37596536  , 4.38        , 3           , 11          , 0.006142899 , 0.00614289241
0.397761226 , 0.0281368718, -9.787723   , 0.00117313769, 0.0009850912, 5.489251E-05, -0.1841715  , -0.161453411, 0.421261966 , -0.0026223443, 0.0393916145, 2.37596631  , 4.39        , 3           , 12          , 0.06609066  , 0
0.3890011   , 0.0147199668, -9.792817   , 2.62991543E-05, 0.0014093474, -0.0005153275, -0.184575975, -0.161520824, 0.421531618 , -0.002665725, 0.0394338369, 2.37595963  , 4.4         , 3           , 50          , 0           , 0
0.383677125 , 0.0215676557, -9.797801   , -0.000253339618, 0.000844307244, -0.0005175122, -0.184373736, -0.161453411, 0.4213968   , -0.00266846386, 0.03944226  , 2.37595439  , 4.41        , 3           , 11          , 0.00607557  , 0.00607556431
0.373083442 , 0.04334142  , -9.79508    , -0.00024915766, -3.8799044E-07, -0.000518814137, -0.1847108  , -0.161386   , 0.4213968   , -0.0026711612, 0.0394422449, 2.37594914  , 4.42        , 3           , 12          , 0.06716965  , 0
0.384699732 , 0.03370333  , -9.787348   , 0.0008768201, 0.0007111635, -0.0009362677, -0.184441149, -0.161723062, 0.421194553 , -0.00266276114, 0.03944933  , 2.37593961  , 4.43        , 3           , 50          , 0           , 0
0.3807489   , 0.0129475417, -9.773904   , 0.00200422877, 0.001281936 , -8.251965E-05, -0.184441149, -0.161723062, 0.421194553 , -0.00264275237, 0.03946214  , 2.37593865  , 4.44        , 3           , 11          , 0.00607557  , 0.00607556431
0.391820163 , 0.0245907232, -9.7859745  , 0.001300868 , 0.0007140304, -0.000227948578, -0.184508562, -0.161318585, 0.4214642   , -0.00262983423, 0.03946929  , 2.37593675  , 4.45        , 3           , 12          , 0.06716965  , 0
0.388631582 , 0.0214880146, -9.791435   , 0.000744378369, -0.00097918 , -0.000233186031, -0.184508562, -0.161520824, 0.42159903  , -0.00262247957, 0.03945949  , 2.37593484  , 4.46        , 3           , 50          , 0           , 0
0.380276233 , 0.0387509   , -9.796852   , 0.00060558226, -0.00140248088, 0.000330579467, -0.184238911, -0.161790475, 0.421531618 , -0.00261629117, 0.03944547  , 2.3759377   , 4.47        , 3           , 11          , 0.00607557  , 0.00607556431
0.386193246 , 0.0476337634, -9.775526   , 0.00130570261, -0.000130661676, 0.000900899468, -0.184238911, -0.161790475, 0.421531618 , -0.00260287826, 0.0394441858, 2.37594676  , 4.48        , 3           , 12          , 0.06716965  , 0
0.381507516 , 0.0332757831, -9.783306   , -0.0002515004, 0.0007035302, 0.001460033 , -0.184373736, -0.161723062, 0.42159903  , -0.00260481774, 0.03945126  , 2.37596154  , 4.49        , 3           , 50          , 0           , 0
0.383658528 , 0.0242307186, -9.784682   , -0.00209581223, -0.00128388766, -0.000106168591, -0.1847108  , -0.161251172, 0.42159903  , -0.00267841155, 0.0394262038, 2.37595868  , 4.5         , 3           , 11          , 0.00601006439, 0.00601005927
0.39781937  , 0.03621829  , -9.775936   , -0.00152812607, -0.00198398368, -0.00123476947, -0.184306324, -0.161588237, 0.421329379 , -0.002694177, 0.0394063257, 2.37594628  , 4.51        , 3           , 12          , 0.0682517961, 0
0.396683276 , 0.0417705067, -9.812532   , 2.8002114E-05, -0.00225503719, 0.00117360835, -0.184306324, -0.161588237, 0.421329379 , -0.00269343262, 0.03938381  , 2.3759582   , 4.52        , 3           , 50          , 0           , 0
0.38209334  , 0.00667141657, -9.790643   , 0.000451108441, -0.002111389, 0.001458338 , -0.184306324, -0.161588237, 0.421261966 , -0.00268834317, 0.039362736 , 2.375973    , 4.53        , 3           , 11          , 0.00601006439, 0.00601005927
0.384928674 , 0.0183407348, -9.781986   , -0.000539965869, -0.00169572851, 0.000606767251, -0.184238911, -0.161723062, 0.4214642   , -0.0026935013, 0.0393457972, 2.37597871  , 4.54        , 3           , 12          , 0.0682517961, 0
0.392368    , -0.005615293, -9.795587   , -0.00025561123, -0.002116167, 0.000324895926, -0.184238911, -0.161386   , 0.4214642   , -0.002695927, 0.039324645 , 2.37598252  , 4.55        , 3           , 50          , 0           , 0
0.39915067  , 0.0272533912, -9.798112   , 1.95192988E-05, -0.0007064333, -0.00023669246, -0.184238911, -0.161386   , 0.4214642   , -0.00269582379, 0.03931757  , 2.37598014  , 4.56        , 3           , 11          , 0.00601006439, 0.00601005927
0.396546066 , 0.0403203033, -9.783612   , -0.000974305847, 0.000413143251, 0.000184240125, -0.184373736, -0.161520824, 0.421329379 , -0.002705496, 0.03932171  , 2.37598157  , 4.57        , 3           , 12          , 0.0682517961, 0
0.39592     , 0.0200994015, -9.806301   , 5.661059E-06, 0.002109218 , -9.108438E-05, -0.184508562, -0.161453411, 0.4214642   , -0.00270547578, 0.0393427946, 2.37598062  , 4.58        , 3           , 50          , 0           , 0
0.385748118 , 0.00263808016, -9.811423   , 0.00212579034, 0.00170119421, -0.000364395644, -0.184238911, -0.161251172, 0.4214642   , -0.002684363, 0.0393597931, 2.37597728  , 4.59        , 3           , 11          , 0.00601006439, 0.00601005927
0.386027962 , 0.000707205851, -9.77527    , 0.001016843 , 0.000299076026, -0.0005124344, -0.184238911, -0.161251172, 0.4214642   , -0.002631467, 0.0394040272, 2.37597442  , 4.6         , 3           , 12          , 0.06933669  , 0
0.374426782 , 0.0054476345, -9.802458   , 0.000306882837, 0.0009982119, -0.00122098566, -0.184373736, -0.161520824, 0.421329379 , -0.00262887916, 0.0394139662, 2.3759625   , 4.61        , 3           , 50          , 0           , 0
0.3778174   , 0.02478272  , -9.794216   , -0.0005395375, 0.000851700257, -0.000942615967, -0.184441149, -0.161386   , 0.421531618 , -0.0026346487, 0.03942246  , 2.375953    , 4.62        , 3           , 11          , 0.00594637729, 0.00594637
0.386110216 , 0.03863946  , -9.784152   , -0.0008234843, 0.00127214065, 4.55991649E-05, -0.184441149, -0.161723062, 0.4213968   , -0.002642867, 0.039435178 , 2.375953    , 4.63        , 3           , 12          , 0.06933669  , 0
0.3526403   , 0.0426329635, -9.78168    , 0.00143203756, 0.001991331 , -0.0006491243, -0.1841715  , -0.161453411, 0.421194553 , -0.002628804, 0.0394550748, 2.37594628  , 4.64        , 3           , 50          , 0           , 0
0.3786577   , 0.02471917  , -9.778392   , 0.002842533 , 0.002282445 , -0.00106591184, -0.1841715  , -0.161453411, 0.421194553 , -0.00260080118, 0.03947787  , 2.37593579  , 4.65        , 3           , 11          , 0.00594637729, 0.00594637
0.376932144 , 0.0270415489, -9.791954   , 0.00214515626, 0.000588281 , -0.000506732729, -0.184441149, -0.161588237, 0.421329379 , -0.00257955072, 0.0394837447, 2.375931    , 4.66        , 3           , 12          , 0.06933669  , 0
0.410418868 , 0.0230616629, -9.798494   , 0.0008778019, -0.000124226091, -0.000372475, -0.184373736, -0.161318585, 0.421531618 , -0.00257092179, 0.039482493 , 2.37592721  , 4.67        , 3           , 50          , 0           , 0
0.39233     , 0.0259706061, -9.795456   , 2.83860354E-05, 0.00043317728, 0.000754591834, -0.184441149, -0.161520824, 0.421127141 , -0.00257033971, 0.03948684  , 2.37593484  , 4.68        , 3           , 11          , 0.00594637729, 0.00594637
0.3735878   , 0.05007313  , -9.786009   , -0.0009485481, -0.001826026, 0.00145285472, -0.184441149, -0.161520824, 0.421127141 , -0.00257924851, 0.0394686125, 2.37594914  , 4.69        , 3           , 12          , 0.06933669  , 0
0.389541268 , 0.05711458  , -9.788569   , 0.0005967156, -0.002104147, 0.0007530549, -0.184238911, -0.161520824, 0.421261966 , -0.00260167825, 0.03942528  , 2.3759563   , 4.7         , 3           , 50          , 0           , 0
0.4054959   , 0.0280767474, -9.796703   , -0.0005353645, -0.00183022639, -0.00094700366, -0.184036672, -0.161453411, 0.421329379 , -0.002607405, 0.03940696  , 2.37594724  , 4.71        , 3           , 11          , 0.00588461524, 0.00588460872
0.389831543 , 0.04403343  , -9.790881   , -0.00152508949, -0.00155534549, -0.0006686415, -0.184036672, -0.161453411, 0.421261966 , -0.00262291846, 0.03939139  , 2.37594056  , 4.72        , 3           , 12          , 0.07042404  , 0
0.375622541 , 0.0248652361, -9.810957   , -0.0005431205, -4.72141437E-08, 0.00131611677, -0.184036672, -0.161453411, 0.421261966 , -0.00262782932, 0.03939142  , 2.37595344  , 4.73        , 3           , 50          , 0           , 0
0.3785101   , 0.00138932932, -9.81736    , -0.00138994877, -0.0001465609, 0.0008881426, -0.1841715  , -0.161520824, 0.421127141 , -0.0026413782, 0.0393899754, 2.3759625   , 4.74        , 3           , 11          , 0.00588461524, 0.00588460872
0.3845603   , 0.0215388816, -9.79237    , -0.00138781324, -0.0007096942, -0.000242875059, -0.184441149, -0.161386   , 0.4213968   , -0.00265535153, 0.03938287  , 2.37595963  , 4.75        , 3           , 12          , 0.07042404  , 0
0.3931902   , 0.0277086422, -9.77872    , -0.00110637257, -0.000426217157, 0.0004652196, -0.184238911, -0.16165565 , 0.421127141 , -0.002666232, 0.0393786244, 2.3759644   , 4.76        , 3           , 50          , 0           , 0
0.389851332 , 0.0480665863, -9.782728   , 2.35793559E-05, -0.000418576063, 0.0008942934, -0.184238911, -0.16165565 , 0.421127141 , -0.00266564079, 0.0393744521, 2.37597346  , 4.77        , 3           , 11          , 0.00588461524, 0.00588460872
0.388181746 , 0.025512876 , -9.779219   , -0.000261880166, 0.000142642879, 0.0004700381, -0.184508562, -0.161386   , 0.421329379 , -0.00266807433, 0.03937589  , 2.37597823  , 4.78        , 3           , 12          , 0.07042404  , 0
0.362393647 , 0.0285106748, -9.775788   , -0.000686462154, 0.000280559354, 4.44735633E-05, -0.184508562, -0.161386   , 0.4214642   , -0.00267492072, 0.0393786952, 2.37597871  , 4.79        , 3           , 50          , 0           , 0
0.390865564 , 0.0263469946, -9.768348   , -0.001400105, 0.000128808766, -0.000383028528, -0.184238911, -0.16165565 , 0.421261966 , -0.00271503581, 0.039359957 , 2.375975    , 4.8         , 3           , 11          , 0.00582446624, 0.00582446
0.3742062   , 0.03733199  , -9.756677   , -0.00267086248, 0.000120214638, -0.000106417385, -0.184238911, -0.16165565 , 0.421261966 , -0.00274178572, 0.0393611453, 2.375974    , 4.81        , 3           , 12          , 0.07151349  , 0
0.364228    , 0.0271692239, -9.785723   , -0.002665776, -0.00100604782, -0.0009557656, -0.184575975, -0.161588237, 0.421329379 , -0.00276881969, 0.03935106  , 2.3759644   , 4.82        , 3           , 50          , 0           , 0
0.378733754 , 0.0292442925, -9.78244    , -0.0009644899, -0.00240241433, -0.0013738398, -0.184306324, -0.161251172, 0.4214642   , -0.00277900184, 0.0393270068, 2.37595     , 4.83        , 3           , 11          , 0.00582446624, 0.00582446
0.385619462 , 0.0301333815, -9.802271   , 0.000440385222, -0.0008442547, -0.00065852463, -0.184508562, -0.161386   , 0.421261966 , -0.00277485559, 0.03931854  , 2.375944    , 4.84        , 3           , 12          , 0.07151349  , 0
0.385581285 , 0.0314414836, -9.788706   , 0.000857426145, 0.000425651262, -0.00121967169, -0.184508562, -0.161386   , 0.421261966 , -0.00276676216, 0.0393227637, 2.3759315   , 4.85        , 3           , 50          , 0           , 0
0.406686217 , 0.0149804372, -9.797652   , 0.000442023971, -0.00112581882, -0.000235152518, -0.184306324, -0.161588237, 0.421261966 , -0.00276243361, 0.0393115   , 2.375929    , 4.86        , 3           , 11          , 0.00582446624, 0.00582446
0.385941654 , 0.0224343035, -9.795068   , -0.000124142112, -0.0008480733, -9.608362E-05, -0.184306324, -0.161453411, 0.421329379 , -0.00276371348, 0.0393030159, 2.37592816  , 4.87        , 3           , 12          , 0.07151349  , 0
0.380813777 , 0.0174635872, -9.775241   , 0.0007149819, 0.00070626213, -0.000937358534, -0.184238911, -0.161318585, 0.421194553 , -0.00275693182, 0.03931005  , 2.37591863  , 4.88        , 3           , 50          , 0           , 0
0.381095469 , 0.007946303 , -9.763978   , 0.000571714656, 0.00126844086, 0.000334269338, -0.1841715  , -0.16165565 , 0.421194553 , -0.00275108544, 0.03932275  , 2.37592244  , 4.89        , 3           , 11          , 0.00582446624, 0.00582446
0.399583042 , 0.0299096368, -9.784537   , 0.00115467072, -0.000278092979, 0.000335002784, -0.1841715  , -0.16165565 , 0.421194553 , -0.00270487554, 0.03931422  , 2.37592721  , 4.9         , 3           , 12          , 0.07260477  , 0
0.398395419 , 0.0389909372, -9.797165   , 0.0005952299, -0.00140817394, 4.80957278E-05, -0.184373736, -0.161386   , 0.421261966 , -0.0026989032, 0.0393001363, 2.37592816  , 4.91        , 3           , 50          , 0           , 0
0.4032747   , 0.00544822076, -9.769243   , -0.00293703354, -0.00100970024, 0.000314822333, -0.184306324, -0.161453411, 0.421261966 , -0.002728148, 0.03929005  , 2.375931    , 4.92        , 3           , 11          , 0.00576566  , 0.005765654
0.383386075 , 0.0061559435, -9.776173   , -0.002375828, -0.000301968423, 3.60036574E-05, -0.184306324, -0.161520824, 0.421127141 , -0.00275189127, 0.03928703  , 2.3759315   , 4.93        , 3           , 12          , 0.07260477  , 0
0.3714884   , 0.0333458632, -9.76937    , 0.0005874813, 0.000140433491, -9.078638E-05, -0.184306324, -0.161520824, 0.421127141 , -0.002746052, 0.03928843  , 2.37593055  , 4.94        , 3           , 50          , 0           , 0
0.4037678   , 0.03441413  , -9.796691   , 0.001857416 , 0.000430595363, 0.0006219173, -0.184306324, -0.161386   , 0.421261966 , -0.0027272338, 0.0392927565, 2.37593675  , 4.95        , 3           , 11          , 0.00576566  , 0.005765654
0.398717374 , 0.0232573189, -9.815759   , 0.00116327952, -0.0019674825, 0.0007562053, -0.184104085, -0.161588237, 0.4214642   , -0.002715303, 0.0392731056, 2.37594438  , 4.96        , 3           , 12          , 0.07260477  , 0
0.350536048 , 0.004030592 , -9.834286   , 0.00017429603, -0.00197416963, -9.60162652E-05, -0.184238911, -0.161588237, 0.421127141 , -0.00271359552, 0.03925336  , 2.37594342  , 4.97        , 3           , 50          , 0           , 0
0.373851776 , 0.0316144563, -9.79919    , 0.00143148436, 0.0007092912, -0.000933580042, -0.184238911, -0.161588237, 0.421127141 , -0.0026996464, 0.0392604247, 2.375934    , 4.98        , 3           , 11          , 0.00576566  , 0.005765654
0.391640067 , 0.0480271727, -9.777291   , 0.00170862442, 0.001696677 , -0.00163708813, -0.1841715  , -0.161520824, 0.421127141 , -0.002683205, 0.0392773524, 2.37591767  , 4.99        , 3           , 12          , 0.07260477  , 0
0.399486929 , 0.0106386393, -9.823036   , -0.00153269211, 0.000265505078, -0.000948006, -0.184104085, -0.161588237, 0.4213968   , -0.00270154676, 0.0392753035, 2.375909    , 5           , 3           , 50          , 0           , 0
0.394402    , 0.008380878 , -9.805006   , -0.0013828699, -0.00142292946, -0.000526144868, -0.184238911, -0.16165565 , 0.421329379 , -0.00271558086, 0.03926106  , 2.37590337  , 5.01        , 3           , 11          , 0.00570854126, 0.005708535
0.386123955 , 0.0319553465, -9.809038   , 0.00143410207, 3.994228E-06, -0.00107588083, -0.184238911, -0.16165565 , 0.421329379 , -0.00270166341, 0.0392610729, 2.37589288  , 5.02        , 3           , 12          , 0.07369759  , 0
0.3957547   , 0.05872381  , -9.752357   , 0.0008709687, -0.0002813891, -0.0005138736, -0.184104085, -0.16165565 , 0.421059728 , -0.00269315462, 0.0392582454, 2.37588763  , 5.03        , 3           , 50          , 0           , 0
0.401164263 , 0.0617651641, -9.736483   , -0.0016648887, -0.001424837, 0.000178881848, -0.1841715  , -0.161386   , 0.421127141 , -0.0027097303, 0.0392440036, 2.37588954  , 5.04        , 3           , 11          , 0.00570854126, 0.005708535
0.395415366 , 0.0481086262, -9.814324   , -0.002366077, -0.0024150894, 0.000174070738, -0.184238911, -0.161453411, 0.421261966 , -0.00273332 , 0.0392198525, 2.375891    , 5.05        , 3           , 12          , 0.07369759  , 0
0.3901918   , 0.0220819637, -9.83888    , -0.0012419828, -0.00142197555, -0.00109056139, -0.184238911, -0.161453411, 0.421261966 , -0.00274616526, 0.0392056033, 2.37588048  , 5.06        , 3           , 50          , 0           , 0
0.392345667 , -0.018131109, -9.830442   , -0.000115716015, -0.0008512089, -0.00221457542, -0.184238911, -0.161453411, 0.421261966 , -0.00274819136, 0.03919703  , 2.37585855  , 5.07        , 3           , 11          , 0.00570854126, 0.005708535
0.400143683 , -0.0229756739, -9.759441   , 0.00355660426, -0.000685589737, 0.000345598819, -0.184238911, -0.161520824, 0.421329379 , -0.00271248817, 0.0391901843, 2.375862    , 5.08        , 3           , 12          , 0.07369759  , 0
