Acc X       , Acc Y       , Acc Z       , Gyro X      , Gyro Y      , Gyro Z      , Magn X      , Magn Y      , Magn Z      , Euler X     , Euler Y     , Euler Z     , Time        , Status      , LowRate X   , LowRate Y   , LowRate Z    
0.387615383 , 0.04811584  , -9.789525   , -0.003414035, -0.00326893828, -7.326553E-05, -0.184441149, -0.159970343, 0.421868682 , -0.00426090648, 0.0390016362, 2.38571143  , 0           , 3           , 11          , 0.0346410163, 0.0346410163
0.3980666   , 0.05293356  , -9.782645   , -0.00230527483, 0.0008213916, -0.00133312435, -0.184306324, -0.160037756, 0.421868682 , -0.004284481, 0.03900979  , 2.385698    , 0.01        , 3           , 12          , 0.0346410163, 0
0.3746174   , 0.031490434 , -9.76528549 , -0.00174460292, 0.00166990666, -0.0013291887, -0.184238911, -0.1597681  , 0.4220035   , -0.00430245046, 0.0390264355, 2.38568473  , 0.02        , 3           , 50          , 0           , 0
0.38786453  , 0.0323232561, -9.790493   , -0.003427604, -0.0005940717, -0.0006342182, -0.184441149, -0.159835517, 0.4220035   , -0.00433697226, 0.03902047  , 2.38567853  , 0.03        , 3           , 11          , 0.0346410163, 0.0346410163
0.367498517 , 0.0325700156, -9.792908   , -0.00160085363, 0.00138930243, 0.0006487981, -0.184036672, -0.159700692, 0.4220035   , -0.00435273023, 0.0390343927, 2.38568521  , 0.04        , 3           , 12          , 0.0346410163, 0
0.394193828 , 0.03179466  , -9.789542   , -0.0008978192, 0.001957206 , 0.0002291522, -0.184036672, -0.159700692, 0.4220035   , -0.004361622, 0.0390539728, 2.385687    , 0.05        , 3           , 50          , 0           , 0
0.3851792   , 0.0319342278, -9.799555   , -0.00173993141, 0.00082521385, -0.0004828782, -0.184441149, -0.160037756, 0.422205746 , -0.004379209, 0.039062202 , 2.38568234  , 0.06        , 3           , 11          , 0.0346410163, 0.0346410163
0.3814496   , 0.0229628012, -9.802332   , -0.0007513561, 0.0008318992, -0.00033700015, -0.184643388, -0.159633279, 0.4220035   , -0.004386857, 0.03907051  , 2.38567853  , 0.07        , 3           , 12          , 0.0346410163, 0
0.382498    , 0.04226096  , -9.7751255  , 0.0006599994, 0.0009822312, -0.000471467152, -0.184441149, -0.15990293 , 0.42207092  , -0.00438044127, 0.0390803069, 2.38567376  , 0.08        , 3           , 50          , 0           , 0
0.356349558 , 0.0141686443, -9.783578   , 0.002359113 , 8.211737E-06, -0.00103015918, -0.184441149, -0.15990293 , 0.42207092  , -0.004357253, 0.0390803441, 2.38566375  , 0.09        , 3           , 11          , 0.0346410163, 0.0346410163
0.385455638 , 0.0228590183, -9.785578   , 0.00180409907, -0.00196656329, -0.0008945617, -0.1841715  , -0.159700692, 0.421801269 , -0.00433955668, 0.03906063  , 2.38565469  , 0.1         , 3           , 12          , 0.0346410163, 0
0.372588933 , 0.04242024  , -9.787855   , 0.000248452881, -0.0014139358, -5.33246639E-05, -0.184508562, -0.159835517, 0.42207092  , -0.004337091, 0.0390464962, 2.38565469  , 0.11        , 3           , 50          , 0           , 0
0.396074325 , 0.039863877 , -9.780455   , 0.00080379314, 0.0005608408, 0.000376152981, -0.1841715  , -0.159700692, 0.4219361   , -0.004328908, 0.03905212  , 2.3856585   , 0.12        , 3           , 11          , 0.0346410163, 0.0346410163
0.388415039 , 0.043555893 , -9.778239   , 0.000373798335, 0.00182501832, 0.000234861684, -0.1841715  , -0.159700692, 0.4219361   , -0.00432507973, 0.0390703827, 2.38566041  , 0.13        , 3           , 12          , 0.0346410163, 0
0.3878423   , 0.06258291  , -9.798503   , -0.00175022346, 0.00293695275, -0.000197085843, -0.184238911, -0.15990293 , 0.421868682 , -0.00434266264, 0.03909974  , 2.3856585   , 0.14        , 3           , 50          , 0           , 0
0.3807573   , 0.039214883 , -9.80227    , -0.000477908558, 0.00266398233, -0.000191593572, -0.184373736, -0.159970343, 0.4219361   , -0.004347521, 0.0391263738, 2.3856566   , 0.15        , 3           , 11          , 0.0346410163, 0.0346410163
0.3624568   , 0.0205275323, -9.816951   , -0.000188467413, 0.00111728138, -0.0013228131, -0.184373736, -0.15990293 , 0.422205746 , -0.004349925, 0.0391374864, 2.38564324  , 0.16        , 3           , 12          , 0.0346410163, 0
0.372124255 , 0.03884507  , -9.796461   , -0.000746885, -0.000153580462, -0.00104486232, -0.184306324, -0.160172582, 0.421733856 , -0.00435780454, 0.0391359068, 2.38563275  , 0.17        , 3           , 50          , 0           , 0
0.376013547 , 0.06222915  , -9.786392   , 0.0008061291, 0.000138494492, 0.0007993084, -0.184306324, -0.160172582, 0.421733856 , -0.00434943149, 0.03913733  , 2.38564038  , 0.18        , 3           , 11          , 0.0346410163, 0.0346410163
0.365750879 , 0.0429087952, -9.77524948 , 0.000233815954, 0.00154249754, -4.87681536E-05, -0.184508562, -0.1597681  , 0.42207092  , -0.00434711576, 0.03915275  , 2.38564     , 0.19        , 3           , 12          , 0.0346410163, 0
0.401783824 , 0.03027827  , -9.767796   , 0.0005241179, -0.00014498888, -0.0008976653, -0.184508562, -0.1597681  , 0.422138333 , -0.00434220862, 0.03915115  , 2.38563085  , 0.2         , 3           , 50          , 0           , 0
0.377742231 , 0.0514286347, -9.800886   , 0.0006722569, -0.00141107361, 0.000231190264, -0.184238911, -0.159970343, 0.42207092  , -0.004335393, 0.03913705  , 2.38563371  , 0.21        , 3           , 11          , 0.03466991  , 0.03466991
0.3807804   , 0.04012625  , -9.804977   , -0.000178998045, -0.0007128933, -0.0006192882, -0.184238911, -0.159970343, 0.42207092  , -0.00433742348, 0.03912989  , 2.385627    , 0.22        , 3           , 12          , 0.0346688256, 0
0.4018507   , 0.0298860818, -9.785423   , -0.0008908858, 0.000408590859, -0.001044651, -0.1841715  , -0.159700692, 0.4220035   , -0.00434674276, 0.03913394  , 2.38561654  , 0.23        , 3           , 50          , 0           , 0
0.375919759 , 0.0314291343, -9.751717   , -5.06197466E-05, 0.00196293183, 9.183624E-05, -0.184643388, -0.159835517, 0.4219361   , -0.00434721448, 0.03915357  , 2.38561749  , 0.24        , 3           , 11          , 0.03466991  , 0.03466991
0.391692668 , 0.0511943065, -9.77999    , -0.000754306442, 0.00139502482, -0.0006186675, -0.184643388, -0.15990293 , 0.4220035   , -0.004355004, 0.0391674936, 2.3856113   , 0.25        , 3           , 12          , 0.0346688256, 0
0.3795995   , 0.06349623  , -9.773251   , -0.0007463131, -0.000153581481, -5.59790824E-05, -0.184643388, -0.15990293 , 0.4220035   , -0.00436248956, 0.039165955 , 2.38561082  , 0.26        , 3           , 50          , 0           , 0
0.364824533 , 0.0700558   , -9.793675   , 0.000956114847, -0.00154994277, 0.00150370877, -0.184913039, -0.159970343, 0.4219361   , -0.00435233535, 0.0391505249, 2.385626    , 0.27        , 3           , 11          , 0.03466991  , 0.03466991
0.408123165 , 0.0306504667, -9.76639    , 0.000532393 , -0.00155280821, 0.00136046461, -0.184441149, -0.1597681  , 0.422205746 , -0.004346477, 0.0391350538, 2.38563943  , 0.28        , 3           , 12          , 0.0346688256, 0
0.3676831   , 0.0202959254, -9.766741   , -0.000744096469, -0.0007167145, -0.0010457281, -0.184306324, -0.1597681  , 0.4219361   , -0.00435432745, 0.0391278453, 2.385629    , 0.29        , 3           , 50          , 0           , 0
0.359686226 , 0.03613805  , -9.75363    , -0.000100398393, -0.00148999179, -0.00132633024, -0.184306324, -0.1597681  , 0.4219361   , -0.004261629, 0.0390455462, 2.3856194   , 0.3         , 3           , 11          , 0.0347534232, 0.0347534269
0.38067466  , 0.0409333035, -9.7765     , 0.00108732877, 0.001052211 , -0.00138746225, -0.184373736, -0.159700692, 0.422205746 , -0.00425129943, 0.03905601  , 2.38560557  , 0.31        , 3           , 12          , 0.0347539075, 0
0.3655436   , 0.05471812  , -9.79735    , -0.000962378865, 0.00153110421, -0.0008311756, -0.184373736, -0.1597681  , 0.42207092  , -0.00426125061, 0.0390712842, 2.38559747  , 0.32        , 3           , 50          , 0           , 0
0.363631278 , 0.0439450145, -9.807354   , 0.000597260252, 0.000344959146, -0.000190067571, -0.184306324, -0.159835517, 0.422205746 , -0.004255354, 0.0390747227, 2.38559556  , 0.33        , 3           , 11          , 0.0347534232, 0.0347534269
0.375546128 , 0.02748143  , -9.783827   , 0.00349709555, -0.000620941049, -3.68190667E-05, -0.184306324, -0.159835517, 0.422205746 , -0.004220396, 0.0390685163, 2.38559461  , 0.34        , 3           , 12          , 0.0347539075, 0
0.3653023   , 0.0384539962, -9.79064    , 0.00123559008, -0.00021387318, -4.67036443E-05, -0.184306324, -0.159700692, 0.4220035   , -0.00420805858, 0.03906638  , 2.38559461  , 0.35        , 3           , 50          , 0           , 0
0.3920109   , 0.0457237773, -9.764643   , -0.00102438044, -1.79767812E-05, 0.000790698861, -0.1841715  , -0.159700692, 0.422205746 , -0.004217994, 0.0390662327, 2.38560224  , 0.36        , 3           , 11          , 0.0347534232, 0.0347534269
0.3880642   , 0.025417624 , -9.750745   , -0.001028088, 0.0006155419, -0.000197205838, -0.184575975, -0.160172582, 0.422138333 , -0.00422835443, 0.0390723757, 2.38560033  , 0.37        , 3           , 12          , 0.0347539075, 0
0.364282548 , 0.0303378589, -9.788873   , -0.0027866154, -0.0006634365, 0.000428319763, -0.184575975, -0.160172582, 0.422138333 , -0.00425605 , 0.0390657522, 2.38560462  , 0.38        , 3           , 50          , 0           , 0
0.378592372 , 0.0495876968, -9.793203   , -0.0019461012, 0.0007501198, 0.000787612051, -0.184306324, -0.160037756, 0.421801269 , -0.00427520368, 0.0390733   , 2.38561273  , 0.39        , 3           , 11          , 0.0347534232, 0.0347534269
0.387634546 , 0.0539339334, -9.77549    , -0.00143138715, -0.0009648433, 0.000363863248, -0.184508562, -0.1597681  , 0.4219361   , -0.004175495, 0.03879742  , 2.38562036  , 0.4         , 3           , 12          , 0.03489541  , 0
0.379345268 , 0.0423117764, -9.779217   , -0.000363062369, -0.00278785266, 0.0006485187, -0.184306324, -0.160037756, 0.42207092  , -0.00417887 , 0.03876957  , 2.385627    , 0.41        , 3           , 50          , 0           , 0
0.3850267   , 0.062534675 , -9.77456951 , 0.0008197672, 0.000669434434, -4.69122169E-05, -0.1841715  , -0.159700692, 0.421733856 , -0.004170692, 0.0387762636, 2.385627    , 0.42        , 3           , 11          , 0.017722223 , 0.0177222881
0.3897611   , 0.0471007824, -9.763749   , 0.000883325934, 0.001936951 , -0.00138668332, -0.1841715  , -0.159700692, 0.421733856 , -0.004162399, 0.0387955755, 2.38561273  , 0.43        , 3           , 12          , 0.03489541  , 0
0.377174735 , 0.0450921357, -9.793234   , 0.002293221 , 0.00258002616, 0.000174833665, -0.184575975, -0.159835517, 0.4220035   , -0.00413940568, 0.03882138  , 2.38561463  , 0.44        , 3           , 50          , 0           , 0
0.3738846   , 0.03565819  , -9.794201   , 0.00362952054, 0.003644968 , 0.000182716336, -0.184575975, -0.15990293 , 0.422138333 , -0.004103045, 0.0388578437, 2.38561654  , 0.45        , 3           , 11          , 0.017722223 , 0.0177222881
0.38514     , 0.03190249  , -9.790064   , 0.00116298685, 0.00243159826, -0.001949682, -0.184373736, -0.160037756, 0.42207092  , -0.004092177, 0.038882073 , 2.38559651  , 0.46        , 3           , 12          , 0.03489541  , 0
0.397795677 , 0.03441368  , -9.775945   , 0.00172615366, 0.002998554 , -3.90523855E-05, -0.184373736, -0.160037756, 0.42207092  , -0.004074936, 0.03891206  , 2.385596    , 0.47        , 3           , 50          , 0           , 0
0.411325574 , 0.0297472384, -9.777217   , 0.00180233677, 0.001872771 , -4.04587481E-05, -0.184373736, -0.159835517, 0.4220035   , -0.00405692961, 0.0389307849, 2.38559556  , 0.48        , 3           , 11          , 0.017722223 , 0.0177222881
0.3987559   , 0.03266195  , -9.794928   , 0.00102468044, 0.00200829958, -0.000538303866, -0.184441149, -0.1597681  , 0.422138333 , -0.004046898, 0.03895085  , 2.38558984  , 0.49        , 3           , 12          , 0.03489541  , 0
0.3412128   , 0.0279489178, -9.803071   , 0.0006148485, 0.001424546 , -0.0003993504, -0.184238911, -0.159970343, 0.422205746 , -0.003989826, 0.0392185859, 2.385588    , 0.5         , 3           , 50          , 0           , 0
0.341359973 , 0.03788785  , -9.807096   , 0.000765983248, -0.000545453746, -0.000119192126, -0.184238911, -0.159970343, 0.422205746 , -0.00398221053, 0.03921312  , 2.385587    , 0.51        , 3           , 11          , 0.0134501187, 0.0134501765
0.387638867 , 0.0445640758, -9.806716   , -0.001284377, -6.65637053E-05, -0.0006930553, -0.184508562, -0.160037756, 0.421868682 , -0.003995326, 0.039212428 , 2.3855803   , 0.52        , 3           , 12          , 0.0350922   , 0
0.3883843   , 0.037282113 , -9.79092    , -0.0005111697, 0.0007129944, -5.253124E-05, -0.184373736, -0.159700692, 0.422205746 , -0.004000457, 0.0392195657, 2.38557935  , 0.53        , 3           , 50          , 0           , 0
0.362287432 , 0.0235147476, -9.765865   , 0.00167372311, 0.00150210015, -0.000182400327, -0.1841715  , -0.160037756, 0.422138333 , -0.00398379331, 0.0392345674, 2.38557744  , 0.54        , 3           , 11          , 0.0134501187, 0.0134501765
0.359143674 , 0.023126509 , -9.773575   , 0.00181959337, 0.0004471834, -0.00117225025, -0.1841715  , -0.160037756, 0.422138333 , -0.003966058, 0.0392389931, 2.385566    , 0.55        , 3           , 12          , 0.0350922   , 0
0.3706159   , 0.0275807232, -9.796068   , 0.000619916769, 0.00022789037, -0.00188451656, -0.184643388, -0.159835517, 0.421868682 , -0.00396059966, 0.03924119  , 2.385547    , 0.56        , 3           , 50          , 0           , 0
0.368229926 , 0.0239376146, -9.778022   , -0.00122299464, 0.001764086 , -0.000972443, -0.184373736, -0.159700692, 0.422138333 , -0.00397321256, 0.0392587967, 2.38553739  , 0.57        , 3           , 11          , 0.0134501187, 0.0134501765
0.3784209   , 0.03695093  , -9.791903   , -0.00149364257, -0.000279162661, 0.00191910286, -0.184104085, -0.159970343, 0.4220035   , -0.003987394, 0.0392560773, 2.38555646  , 0.58        , 3           , 12          , 0.0350922   , 0
0.395547569 , 0.0407019556, -9.759665   , -0.00014694345, -0.00153713848, 1.62778178E-05, -0.184104085, -0.159970343, 0.4220035   , -0.00398885552, 0.03924071  , 2.38555646  , 0.59        , 3           , 50          , 0           , 0
0.397080481 , 0.0524325669, -9.764576   , 0.00264339568, 0.0003917955, 0.000174980916, -0.184643388, -0.1597681  , 0.421733856 , -0.00382346427, 0.03906324  , 2.385564    , 0.6         , 3           , 11          , 0.011360026 , 0.0113600651
0.368171841 , 0.0434558243, -9.81184    , 0.001719525 , 0.00151184632, -0.000533907034, -0.184373736, -0.159700692, 0.42207092  , -0.00380648044, 0.03907834  , 2.38555837  , 0.61        , 3           , 12          , 0.0353429466, 0
0.387722522 , 0.05445161  , -9.795373   , -0.00223080255, 0.000781194947, -0.000270891556, -0.184373736, -0.159970343, 0.422138333 , -0.00382889644, 0.03908614  , 2.38555551  , 0.62        , 3           , 50          , 0           , 0
0.393116981 , 0.0521245077, -9.793082   , -0.00186450745, -0.00182089244, 0.00036245  , -0.184373736, -0.159970343, 0.422138333 , -0.00384739833, 0.03906795  , 2.38555932  , 0.63        , 3           , 11          , 0.011360026 , 0.0113600651
0.379788578 , 0.0293546077, -9.81859    , -0.00181243033, 0.00183992891, -0.000337923178, -0.184238911, -0.15990293 , 0.421868682 , -0.00386565714, 0.03908633  , 2.385556    , 0.64        , 3           , 12          , 0.0353429466, 0
0.36563316  , 0.0222813226, -9.812852   , -0.00259043532, 0.00204584887, -0.000835659856, -0.1841715  , -0.1597681  , 0.4220035   , -0.00389189087, 0.03910676  , 2.38554788  , 0.65        , 3           , 50          , 0           , 0
0.362842768 , 0.031180514 , -9.766281   , -0.00194394891, -6.1589184E-05, 0.000152929759, -0.1841715  , -0.159700692, 0.422138333 , -0.00391126936, 0.0391061455, 2.38554883  , 0.66        , 3           , 11          , 0.011360026 , 0.0113600651
0.389770329 , 0.0368422233, -9.799047   , -0.0031420053, -0.000632839336, -0.0007717818, -0.1841715  , -0.159835517, 0.4219361   , -0.00394298974, 0.0390997864, 2.3855412   , 0.67        , 3           , 12          , 0.0353429466, 0
0.395199656 , 0.04391673  , -9.775021   , -0.00322208763, 0.001478426 , 0.0009263684, -0.1841715  , -0.159835517, 0.4219361   , -0.00397485076, 0.03911461  , 2.38555074  , 0.68        , 3           , 50          , 0           , 0
0.390122831 , 0.0322921425, -9.78912    , -0.00137770129, -0.000339334045, 0.000155129863, -0.184306324, -0.160172582, 0.42207092  , -0.00398856867, 0.0391112231, 2.38555217  , 0.69        , 3           , 11          , 0.011360026 , 0.0113600651
0.373887658 , 0.0347679853, -9.797822   , -0.000568225747, -0.00245081354, -0.00139757944, -0.184238911, -0.15990293 , 0.422138333 , -0.0039454815, 0.0390761   , 2.38554025  , 0.7         , 3           , 12          , 0.03564608  , 0
0.378995776 , 0.0432934761, -9.801363   , -0.00114356016, -0.000131716748, 0.000369225832, -0.184441149, -0.159835517, 0.421801269 , -0.003956774, 0.0390748   , 2.385544    , 0.71        , 3           , 50          , 0           , 0
0.396135271 , 0.03902054  , -9.798086   , 0.00118510821, 0.000165605714, 0.000451158849, -0.184441149, -0.159835517, 0.421801269 , -0.003944745, 0.03907647  , 2.38554835  , 0.72        , 3           , 11          , 0.0101376008, 0.010137639
0.375317633 , 0.0383808948, -9.803671   , 0.000337582722, 0.000159874689, 2.34018171E-05, -0.184036672, -0.1597681  , 0.422205746 , -0.00394136272, 0.03907807  , 2.38554883  , 0.73        , 3           , 12          , 0.03564608  , 0
0.373303741 , 0.0640520453, -9.782336   , 0.0006200539, 2.09989339E-05, -0.001105648, -0.184441149, -0.159700692, 0.422205746 , -0.00393559365, 0.0390782468, 2.38553739  , 0.74        , 3           , 50          , 0           , 0
0.40395546  , 0.0488494523, -9.796178   , -0.000359442, -0.00174546626, -0.0006185287, -0.184238911, -0.159970343, 0.4219361   , -0.00393942557, 0.03906076  , 2.38553166  , 0.75        , 3           , 11          , 0.0101376008, 0.010137639
0.383112    , 0.04595708  , -9.802676   , 0.00153955771, -0.00018396473, -0.00011281234, -0.184238911, -0.159970343, 0.4219361   , -0.003924075, 0.0390589163, 2.38553023  , 0.76        , 3           , 12          , 0.03564608  , 0
0.395465    , 0.0624320731, -9.780367   , 0.002532293 , -0.000951581751, 0.00059694727, -0.184508562, -0.1597681  , 0.42207092  , -0.00389851653, 0.0390494242, 2.38553643  , 0.77        , 3           , 50          , 0           , 0
0.397967756 , 0.0452655032, -9.78313    , 0.001323474 , 0.000659297744, -0.000253766862, -0.184306324, -0.159835517, 0.42207092  , -0.00388538116, 0.0390560031, 2.38553357  , 0.78        , 3           , 11          , 0.0101376008, 0.010137639
0.37144804  , 0.0190299675, -9.805589   , 0.00174238  , 0.0015772481, -0.0006035529, -0.184508562, -0.160172582, 0.4220035   , -0.00386819546, 0.0390717536, 2.38552785  , 0.79        , 3           , 12          , 0.03564608  , 0
0.389662921 , 0.03273802  , -9.785957   , 0.00154834439, 0.00230826228, -0.002300138, -0.184508562, -0.160172582, 0.4220035   , -0.00393388048, 0.03914123  , 2.38550115  , 0.8         , 3           , 50          , 0           , 0
0.3925287   , 0.04532475  , -9.781815   , -6.567014E-05, 0.000396718417, -0.00139239244, -0.184104085, -0.1597681  , 0.4219361   , -0.003935084, 0.03914514  , 2.38548732  , 0.81        , 3           , 11          , 0.009381469 , 0.009381499
0.382643    , 0.0441638343, -9.804495   , -0.002241298, -0.00222255941, -0.000912172, -0.184306324, -0.1597681  , 0.4219361   , -0.00395785132, 0.0391228832, 2.38547826  , 0.82        , 3           , 12          , 0.03599986  , 0
0.3851805   , 0.0337206945, -9.794124   , -0.000487508543, 0.000112290356, -0.000688458036, -0.184373736, -0.15990293 , 0.4220035   , -0.003962994, 0.0391239747, 2.38547158  , 0.83        , 3           , 50          , 0           , 0
0.385629654 , 0.03639053  , -9.784617   , 0.000931966351, -0.0014267693, -0.001249335, -0.184373736, -0.15990293 , 0.4220035   , -0.00395416142, 0.0391096659, 2.38545918  , 0.84        , 3           , 11          , 0.009381469 , 0.009381499
0.384362251 , 0.04853162  , -9.767853   , -0.000970176945, -0.0020731776, 0.0006479273, -0.184238911, -0.159633279, 0.421868682 , -0.00396360643, 0.039088957 , 2.38546586  , 0.85        , 3           , 12          , 0.03599986  , 0
0.3751707   , 0.03379833  , -9.782448   , -0.001463497, -0.00242848042, -0.000767607067, -0.184238911, -0.1597681  , 0.4220035   , -0.00397853972, 0.0390646458, 2.38545823  , 0.86        , 3           , 50          , 0           , 0
0.369919568 , 0.0433831625, -9.79646    , -0.00118644245, -0.0013003092, -0.000411382731, -0.184238911, -0.159700692, 0.42207092  , -0.00399056356, 0.0390516259, 2.385454    , 0.87        , 3           , 11          , 0.009381469 , 0.009381499
0.36079812  , 0.0478996933, -9.766228   , -4.95239728E-05, -0.0025597075, 0.00121652265, -0.184306324, -0.1597681  , 0.421868682 , -0.00399057847, 0.0390260778, 2.38546586  , 0.88        , 3           , 12          , 0.03599986  , 0
0.3851707   , 0.03817627  , -9.777381   , 0.00113168906, 0.001108751 , -0.000467463862, -0.184306324, -0.1597681  , 0.421868682 , -0.003979449, 0.03903715  , 2.38546157  , 0.89        , 3           , 50          , 0           , 0
0.404150665 , 0.0281032771, -9.799877   , -0.0007230528, -0.0009077945, 8.474666E-05, -0.184441149, -0.159700692, 0.4219361   , -0.004027386, 0.0389816128, 2.38546062  , 0.9         , 3           , 11          , 0.008915027 , 0.008915041
0.394536942 , 0.016970899 , -9.810392   , 0.00090733415, -0.00202306849, 0.001573905 , -0.184238911, -0.159700692, 0.422138333 , -0.00401769625, 0.0389614478, 2.38547635  , 0.91        , 3           , 12          , 0.036402408 , 0
0.388675779 , 0.0482306927, -9.827031   , -0.000436258415, -0.001820972, -0.000197884059, -0.1841715  , -0.160037756, 0.421801269 , -0.00402213447, 0.0389432274, 2.38547444  , 0.92        , 3           , 50          , 0           , 0
0.368521661 , 0.0429207422, -9.788336   , -0.0003108722, 0.00141798228, 0.000160936484, -0.1841715  , -0.160037756, 0.421801269 , -0.00402518362, 0.0389574133, 2.38547635  , 0.93        , 3           , 11          , 0.008915027 , 0.008915041
0.395525873 , 0.0339891128, -9.775963   , -0.000660999, 0.0009932512, 0.00157132675, -0.184373736, -0.160442233, 0.42207092  , -0.004031184, 0.03896742  , 2.38549161  , 0.94        , 3           , 12          , 0.036402408 , 0
0.3789866   , 0.0383761674, -9.814943   , -0.00128956733, -0.00055965787, 0.0002239241, -0.1841715  , -0.160037756, 0.4220035   , -0.00404399028, 0.038961824 , 2.385494    , 0.95        , 3           , 50          , 0           , 0
0.373241425 , 0.0604307279, -9.778736   , 0.00131661166, 0.00058426644, -0.0009629429, -0.184306324, -0.159970343, 0.4220035   , -0.0040311995, 0.0389676243, 2.385485    , 0.96        , 3           , 11          , 0.008915027 , 0.008915041
0.389728665 , 0.03591573  , -9.79182    , 0.0007533114, 0.000439668074, 0.000517528 , -0.184306324, -0.159970343, 0.4220035   , -0.004023467, 0.0389720462, 2.3854897   , 0.97        , 3           , 12          , 0.036402408 , 0
0.384649336 , 0.03366251  , -9.775145   , -0.0005837078, -0.000414098118, 0.00107504579, -0.184441149, -0.160105169, 0.4219361   , -0.00402888376, 0.03896795  , 2.38550019  , 0.98        , 3           , 50          , 0           , 0
0.390650749 , 0.04573821  , -9.7642     , 0.00274353847, -0.00208104425, 0.00172362546, -0.1841715  , -0.1597681  , 0.422205746 , -0.00400077133, 0.038947206 , 2.38551784  , 0.99        , 3           , 11          , 0.008915027 , 0.008915041
0.3826526   , 0.05220595  , -9.780958   , -0.000527972938, -0.00106905855, 0.0006499677, -0.184036672, -0.15990293 , 0.422138333 , -0.004028563, 0.03899738  , 2.385523    , 1           , 3           , 12          , 0.0368517153, 0
0.379163951 , 0.059052024 , -9.791804   , -0.00138211949, 0.00026264452, 0.000224271847, -0.184036672, -0.15990293 , 0.422138333 , -0.00404229853, 0.0390000157, 2.385526    , 1.01        , 3           , 50          , 0           , 0
0.3979555   , 0.0412383974, -9.793091   , -0.0005348763, 0.000127588384, -0.00104341283, -0.184238911, -0.159970343, 0.421868682 , -0.00404805457, 0.03900125  , 2.38551545  , 1.02        , 3           , 11          , 0.008637013 , 0.008637019
0.3955151   , 0.0295169055, -9.787734   , 0.00306024449, 0.00127819949, -0.0014486924, -0.1841715  , -0.159633279, 0.422138333 , -0.00401802035, 0.0390139744, 2.38550067  , 1.03        , 3           , 12          , 0.0368517153, 0
0.399838358 , 0.055112116 , -9.765899   , 0.00292603881, 1.02052809E-05, -0.000179885057, -0.184036672, -0.1597681  , 0.422205746 , -0.00398883 , 0.03901407  , 2.38549924  , 1.04        , 3           , 50          , 0           , 0
0.39591822  , 0.033042185 , -9.764214   , 0.00293072872, -0.0007640944, 0.00130224344, -0.184036672, -0.1597681  , 0.422205746 , -0.003959013, 0.03900648  , 2.38551164  , 1.05        , 3           , 11          , 0.008637013 , 0.008637019
0.374544024 , 0.02295032  , -9.774814   , 9.742521E-05, 0.0008358002, -0.000474289933, -0.184373736, -0.15990293 , 0.421868682 , -0.00395822665, 0.03901482  , 2.38550687  , 1.06        , 3           , 12          , 0.0368517153, 0
0.3794645   , 0.0197186656, -9.770269   , 0.0007928557, 0.0028819195, -0.00138609833, -0.184306324, -0.159700692, 0.422273159 , -0.003950845, 0.0390435867, 2.385493    , 1.07        , 3           , 50          , 0           , 0
0.386536568 , 0.03816637  , -9.779179   , 0.000311377255, 0.0004148852, -0.0004033189, -0.184238911, -0.159970343, 0.4219361   , -0.00394788943, 0.039047718 , 2.38548875  , 1.08        , 3           , 11          , 0.008637013 , 0.008637019
0.371450752 , 0.0252810754, -9.786127   , 0.00270534237, 0.001768554 , -0.000460698, -0.184238911, -0.159970343, 0.4219361   , -0.00392101938, 0.03906539  , 2.38548446  , 1.09        , 3           , 12          , 0.0368517153, 0
0.362543762 , 0.03488122  , -9.792032   , 0.00177064922, 0.00171975431, 0.00024310303, -0.184306324, -0.159970343, 0.421868682 , -0.00384076 , 0.0391158424, 2.38548875  , 1.1         , 3           , 50          , 0           , 0
0.3868585   , 0.0500323661, -9.819806   , -0.0005542445, 0.00057773455, -0.000546475349, -0.184306324, -0.15990293 , 0.4219361   , -0.00384651683, 0.03912161  , 2.385484    , 1.11        , 3           , 11          , 0.008483288 , 0.008483289
0.395952165 , 0.05084952  , -9.826061   , 0.00163772237, -0.000111377507, -0.00110242888, -0.184104085, -0.159835517, 0.422273159 , -0.00383057 , 0.03912044  , 2.38547254  , 1.12        , 3           , 12          , 0.03734571  , 0
0.378257751 , 0.0581694245, -9.794527   , 0.00106866413, 0.0007998906, -0.000538577558, -0.184306324, -0.159835517, 0.421801269 , -0.00382009381, 0.0391284227, 2.38546729  , 1.13        , 3           , 50          , 0           , 0
0.353931367 , 0.0398844033, -9.773997   , 0.00226784754, 0.00115996727, 0.000527077238, -0.184306324, -0.159835517, 0.421801269 , -0.00379721238, 0.0391400345, 2.38547254  , 1.14        , 3           , 11          , 0.008483288 , 0.008483289
0.365455836 , 0.0194595084, -9.778515   , -0.00288861478, 0.00154745742, 0.0003624253, -0.1841715  , -0.159700692, 0.4220035   , -0.00382595859, 0.0391555279, 2.38547635  , 1.15        , 3           , 12          , 0.03734571  , 0
0.380739421 , 0.04277118  , -9.786436   , -0.00204678415, 0.00253866217, -0.00062098616, -0.184306324, -0.159565866, 0.42207092  , -0.00384667353, 0.039180886 , 2.38546968  , 1.16        , 3           , 50          , 0           , 0
0.3684543   , 0.0375099555, -9.789264   , -6.459103E-05, 0.001566556 , -4.8211532E-05, -0.1841715  , -0.15990293 , 0.4219361   , -0.00384734315, 0.0391965546, 2.3854692   , 1.17        , 3           , 11          , 0.008483288 , 0.008483289
0.380488217 , 0.0282844361, -9.771582   , 0.003250828 , 0.00222251983, 3.88731132E-05, -0.1841715  , -0.15990293 , 0.4219361   , -0.00381482183, 0.03921878  , 2.38546968  , 1.18        , 3           , 12          , 0.03734571  , 0
0.419876784 , 0.0527404025, -9.801011   , 0.0006472967, 0.00044507187, 0.000377151329, -0.184104085, -0.1597681  , 0.42207092  , -0.00380820222, 0.0392232463, 2.38547349  , 1.19        , 3           , 50          , 0           , 0
0.384181142 , 0.05545238  , -9.81211948 , 0.00110520085, 0.0005773058, -0.0003281068, -0.1847108  , -0.159565866, 0.42207092  , -0.00383743644, 0.0392154679, 2.38546824  , 1.2         , 3           , 11          , 0.008404607 , 0.008404609
0.3697892   , 0.0334578343, -9.796502   , 0.0008130974, 0.00254635187, -0.00018511762, -0.184238911, -0.160037756, 0.4220035   , -0.00382938283, 0.0392409265, 2.38546634  , 1.21        , 3           , 12          , 0.03788224  , 0
0.3980941   , 0.0222318247, -9.77734852 , -0.00157929247, 0.000981512 , 0.0007901829, -0.184238911, -0.160037756, 0.4220035   , -0.003844864, 0.03925076  , 2.38547444  , 1.22        , 3           , 50          , 0           , 0
0.384932    , 0.05040651  , -9.79044    , -0.0012149252, -0.00119822728, 0.001706713 , -0.184575975, -0.1597681  , 0.421868682 , -0.00385634019, 0.0392388441, 2.38549161  , 1.23        , 3           , 11          , 0.008404607 , 0.008404609
0.372922361 , 0.03473023  , -9.783364   , 0.001036663 , 0.000224873613, 0.000236096457, -0.184373736, -0.159835517, 0.42207092  , -0.00384588237, 0.0392410979, 2.38549352  , 1.24        , 3           , 12          , 0.03788224  , 0
0.387523174 , 0.0444703437, -9.778694   , -0.00128821272, -0.0008467531, 8.233567E-05, -0.184373736, -0.159835517, 0.4219361   , -0.00385873066, 0.03923264  , 2.38549447  , 1.25        , 3           , 50          , 0           , 0
0.381290644 , 0.047309123 , -9.795904   , -0.0005863498, 7.310989E-05, 0.000652113231, -0.184373736, -0.159835517, 0.4219361   , -0.00386433676, 0.0392334   , 2.38550115  , 1.26        , 3           , 11          , 0.008404607 , 0.008404609
0.399978966 , 0.0236093719, -9.790888   , -0.0040500937, 0.000753622851, -0.000281181128, -0.184238911, -0.15990293 , 0.4220035   , -0.00390495034, 0.0392409228, 2.38549829  , 1.27        , 3           , 12          , 0.03788224  , 0
0.385173559 , 0.0395176262, -9.77376    , -0.000951881462, 0.00232323632, -0.00167699566, -0.184306324, -0.15990293 , 0.422205746 , -0.0039151297, 0.03926409  , 2.385481    , 1.28        , 3           , 50          , 0           , 0
0.360000819 , 0.05067619  , -9.78385    , 0.00033237887, -0.0001318574, 0.000302895962, -0.184508562, -0.159835517, 0.422138333 , -0.00391168846, 0.0392627865, 2.38548446  , 1.29        , 3           , 11          , 0.008404607 , 0.008404609
0.400461972 , 0.06685034  , -9.769914   , -0.00103269261, -0.00201581651, -0.0004139576, -0.184508562, -0.159835517, 0.422138333 , -0.0039585256, 0.0391922034, 2.38547873  , 1.3         , 3           , 12          , 0.038459152 , 0
0.384208322 , 0.031891942 , -9.783744   , -0.00168574136, 0.00149944879, -0.0006940339, -0.184643388, -0.15990293 , 0.4220035   , -0.00397565775, 0.0392071679, 2.38547158  , 1.31        , 3           , 50          , 0           , 0
0.392092735 , 0.04534368  , -9.785887   , -0.00280439644, -0.000831105, -0.00147985981, -0.184441149, -0.159700692, 0.422205746 , -0.004004281, 0.0391988   , 2.38545728  , 1.32        , 3           , 11          , 0.00836608652, 0.008366086
0.397200018 , 0.0476195775, -9.809341   , -0.00146369229, -0.000540464942, -0.00048428934, -0.184238911, -0.1597681  , 0.42207092  , -0.004019106, 0.0391933769, 2.38545251  , 1.33        , 3           , 12          , 0.038459152 , 0
0.399326861 , 0.04123304  , -9.796244   , -0.00153360178, -0.000681725, -0.000484835415, -0.184238911, -0.1597681  , 0.42207092  , -0.004034632, 0.0391865373, 2.38544774  , 1.34        , 3           , 50          , 0           , 0
0.371180356 , 0.0374856144, -9.791502   , 0.00163464248, 0.00102914928, -0.00166820071, -0.184306324, -0.159700692, 0.421868682 , -0.00401894143, 0.0391967632, 2.38543057  , 1.35        , 3           , 11          , 0.00836608652, 0.008366086
0.383223    , 0.0197865088, -9.803235   , -0.0006241195, 0.00101387268, -0.0005485863, -0.184306324, -0.1597681  , 0.422273159 , -0.004025398, 0.0392068774, 2.38542485  , 1.36        , 3           , 12          , 0.038459152 , 0
0.400027961 , 0.0294516515, -9.784083   , -4.7235153E-05, -0.00130521646, 0.000368714478, -0.184238911, -0.159633279, 0.42207092  , -0.00402572425, 0.0391938351, 2.38542867  , 1.37        , 3           , 50          , 0           , 0
0.395163476 , 0.0403165966, -9.777749   , -0.000121404788, -0.000742567761, -0.0009727997, -0.184306324, -0.15990293 , 0.4220035   , -0.00402731868, 0.0391863734, 2.38541913  , 1.38        , 3           , 11          , 0.00836608652, 0.008366086
0.387788624 , 0.0580759458, -9.799878   , -0.000332776224, -0.00074399804, -0.000196809517, -0.184306324, -0.15990293 , 0.4220035   , -0.004030723, 0.0391789265, 2.38541722  , 1.39        , 3           , 12          , 0.038459152 , 0
0.371573329 , 0.0347537473, -9.785636   , -0.0009853243, -0.0018661496, 0.000433481648, -0.184306324, -0.160105169, 0.4220035   , -0.004066992, 0.0392497331, 2.38542     , 1.4         , 3           , 50          , 0           , 0
0.3982402   , 0.0633402839, -9.791641   , -0.000146281833, -0.000311814249, -0.000549062, -0.184441149, -0.159633279, 0.422205746 , -0.00406867033, 0.0392465927, 2.38541532  , 1.41        , 3           , 11          , 0.008346169 , 0.008346166
0.381926417 , 0.0603962578, -9.798557   , 0.001466213 , 0.00202208012, -0.0004672753, -0.1841715  , -0.15990293 , 0.4220035   , -0.004054196, 0.03926679  , 2.38541055  , 1.42        , 3           , 12          , 0.03907428  , 0
0.389666975 , 0.03318766  , -9.785502   , 0.00105345773, -0.000162913668, -0.0003313449, -0.1841715  , -0.15990293 , 0.4220035   , -0.004043791, 0.0392651521, 2.38540673  , 1.43        , 3           , 50          , 0           , 0
0.402229577 , 0.0231255852, -9.789064   , 0.00118573231, 0.00166821491, -0.000115962939, -0.1841715  , -0.15990293 , 0.422138333 , -0.004031982, 0.03928183  , 2.38540578  , 1.44        , 3           , 11          , 0.008346169 , 0.008346166
0.390655518 , 0.0394931473, -9.78547    , -0.0005823901, 0.00236019283, 0.000795137836, -0.184238911, -0.1597681  , 0.422138333 , -0.004037497, 0.0393054672, 2.38541341  , 1.45        , 3           , 12          , 0.03907428  , 0
0.3957528   , 0.0484561846, -9.784942   , -0.000786068733, 0.000598975748, -0.000197442932, -0.184373736, -0.160037756, 0.4220035   , -0.00404543662, 0.0393114462, 2.3854115   , 1.46        , 3           , 50          , 0           , 0
0.395972371 , 0.03308603  , -9.77732    , -0.000647539564, 0.00109266851, -0.0006198313, -0.184373736, -0.160037756, 0.4220035   , -0.004052158, 0.0393223464, 2.3854053   , 1.47        , 3           , 11          , 0.008346169 , 0.008346166
0.3888732   , 0.0457866825, -9.772349   , -0.0004375843, 0.00144605676, -0.0008302042, -0.184508562, -0.15990293 , 0.4220035   , -0.004056861, 0.03933678  , 2.3853972   , 1.48        , 3           , 12          , 0.03907428  , 0
0.3871501   , 0.0387376919, -9.816687   , -0.00121417653, 0.00144080457, -0.0006925571, -0.184238911, -0.159835517, 0.42207092  , -0.00406927755, 0.03935115  , 2.38538957  , 1.49        , 3           , 50          , 0           , 0
0.3903917   , 0.04545414  , -9.812566   , -0.00150751811, 0.000458570023, -0.000625209941, -0.1841715  , -0.160037756, 0.4219361   , -0.00410335651, 0.0394430831, 2.385383    , 1.5         , 3           , 11          , 0.008329675 , 0.008329669
0.40030387  , 0.0470828339, -9.794856   , -0.000863430439, -0.00115612883, 0.0004347734, -0.1841715  , -0.160037756, 0.4219361   , -0.00411181524, 0.0394315422, 2.38538766  , 1.51        , 3           , 12          , 0.03972548  , 0
0.388367    , 0.03905345  , -9.78097    , -0.00234399852, -0.00158850325, 0.0005684774, -0.184238911, -0.160037756, 0.4220035   , -0.004135029, 0.03941568  , 2.38539338  , 1.52        , 3           , 50          , 0           , 0
0.366562963 , 0.03746621  , -9.769843   , 0.00046731584, 0.0009646801, -0.000120791447, -0.184373736, -0.159700692, 0.42207092  , -0.004130404, 0.03942532  , 2.385392    , 1.53        , 3           , 11          , 0.008329675 , 0.008329669
0.391882122 , 0.06027478  , -9.797126   , -0.00115651626, 0.000953698356, 8.353916E-05, -0.184373736, -0.159565866, 0.42207092  , -0.004141938, 0.0394348651, 2.38539243  , 1.54        , 3           , 12          , 0.03972548  , 0
0.4005847   , 0.0389038846, -9.779068   , 0.000759541465, -0.00100436527, -5.187787E-05, -0.184373736, -0.159565866, 0.42207092  , -0.0041343607, 0.039424818 , 2.38539243  , 1.55        , 3           , 50          , 0           , 0
0.3669148   , 0.02443495  , -9.78707    , -0.00432258425, -0.00132030877, 0.000206520825, -0.1841715  , -0.15990293 , 0.422205746 , -0.004177503, 0.03941163  , 2.38539433  , 1.56        , 3           , 11          , 0.008329675 , 0.008329669
0.3592965   , 0.02548205  , -9.803395   , 0.00102958526, 0.0015316311, 0.000235881962, -0.184238911, -0.159700692, 0.4220035   , -0.00416711764, 0.03942695  , 2.38539672  , 1.57        , 3           , 12          , 0.03972548  , 0
0.381963074 , 0.0319336466, -9.788279   , 0.00245147757, -0.000429774635, 0.00023942905, -0.184104085, -0.159835517, 0.42207092  , -0.004142507, 0.03942266  , 2.385399    , 1.58        , 3           , 50          , 0           , 0
0.407657444 , 0.0257354435, -9.779069   , 0.000190016173, -0.000163492514, -0.000900822168, -0.184104085, -0.159835517, 0.42207092  , -0.00414096145, 0.0394209921, 2.38539052  , 1.59        , 3           , 11          , 0.008329675 , 0.008329669
0.390316933 , 0.0253819712, -9.748016   , 0.000834755367, -0.001283897, -4.941685E-05, -0.1847108  , -0.159970343, 0.4220035   , -0.00404481543, 0.0394105874, 2.38539338  , 1.6         , 3           , 12          , 0.0404106528, 0
0.3783933   , 0.0400530435, -9.775166   , 0.00168122048, -0.001278171, -0.00145815313, -0.184575975, -0.159700692, 0.4219361   , -0.004028577, 0.03939775  , 2.3853786   , 1.61        , 3           , 50          , 0           , 0
0.379825264 , 0.0463456661, -9.772869   , -0.00311224977, -0.00271846168, -7.002361E-05, -0.184373736, -0.1597681  , 0.422340572 , -0.004059721, 0.03937056  , 2.38537812  , 1.62        , 3           , 11          , 0.008307994 , 0.008307989
0.370181084 , 0.0342958532, -9.778869   , -0.000287492585, -0.00269935979, 0.0007907583, -0.184575975, -0.159970343, 0.4219361   , -0.00406227959, 0.0393436   , 2.38538623  , 1.63        , 3           , 12          , 0.0404106528, 0
0.384079635 , 0.05179932  , -9.799028   , -0.00200025 , 0.000667954155, -0.00175477332, -0.184575975, -0.159970343, 0.4219361   , -0.00408297451, 0.03935021  , 2.38536859  , 1.64        , 3           , 50          , 0           , 0
0.38948825  , 0.0535008237, -9.78723    , -0.00142482249, -0.00129917741, -0.000342489569, -0.184238911, -0.15990293 , 0.422273159 , -0.004097354, 0.0393372029, 2.38536525  , 1.65        , 3           , 11          , 0.008307994 , 0.008307989
0.393780828 , 0.0403128862, -9.771882   , 0.00307604764, 0.00239172881, -3.324024E-05, -0.184643388, -0.159970343, 0.422273159 , -0.00406661164, 0.039361123 , 2.38536477  , 1.66        , 3           , 12          , 0.0404106528, 0
0.385447085 , 0.061610423 , -9.769599   , -0.000310449221, 0.00180567813, -0.000332448573, -0.184306324, -0.160105169, 0.422273159 , -0.00406985 , 0.03937916  , 2.38536143  , 1.67        , 3           , 50          , 0           , 0
0.393638343 , 0.0290386379, -9.773287   , 0.00222532684, 0.00294912583, -0.00116647291, -0.184306324, -0.160105169, 0.422273159 , -0.004048062, 0.0394086055, 2.38534951  , 1.68        , 3           , 11          , 0.008307994 , 0.008307989
0.384474635 , 0.0441592   , -9.809452   , -0.0025611734, 0.000101009493, 0.000219487061, -0.184238911, -0.15990293 , 0.4220035   , -0.00407358631, 0.0394096226, 2.385352    , 1.69        , 3           , 12          , 0.0404106528, 0
0.38331148  , 0.0586165227, -9.810759   , -0.002300827, -0.00157937757, 0.00134714285, -0.184238911, -0.15990293 , 0.42207092  , -0.00413425034, 0.03940257  , 2.38536382  , 1.7         , 3           , 50          , 0           , 0
0.388776779 , 0.03633519  , -9.77917    , -0.00088967185, -0.00156983233, -0.000341497245, -0.184238911, -0.159700692, 0.42207092  , -0.00414327765, 0.03938686  , 2.38536048  , 1.71        , 3           , 11          , 0.008275638 , 0.008275637
0.386561662 , 0.036847692 , -9.78958    , -0.0014519894, -0.001855212, 0.00163319719, -0.184238911, -0.159700692, 0.42207092  , -0.004157151, 0.0393683761, 2.38537717  , 1.72        , 3           , 12          , 0.04112775  , 0
0.378307581 , 0.05999519  , -9.800846   , -0.000893275545, -0.001006706, -0.00175331684, -0.184373736, -0.159633279, 0.422138333 , -0.00416677026, 0.0393582322, 2.38535953  , 1.73        , 3           , 50          , 0           , 0
0.382319331 , 0.0300647579, -9.770658   , 0.00138015323, -0.00352550484, 0.0007961503, -0.184306324, -0.159835517, 0.4220035   , -0.00415265 , 0.0393230133, 2.38536763  , 1.74        , 3           , 11          , 0.008275638 , 0.008275637
0.3779929   , 0.0427788757, -9.779224   , -0.000910166767, 0.002372074 , -0.00203064713, -0.184373736, -0.1597681  , 0.422205746 , -0.004162554, 0.039346654 , 2.3853476   , 1.75        , 3           , 12          , 0.04112775  , 0
0.384092152 , 0.0535948575, -9.79630852 , -0.000884748355, -0.002696096, -0.00147338293, -0.184373736, -0.1597681  , 0.422205746 , -0.004171978, 0.03931963  , 2.38533235  , 1.76        , 3           , 50          , 0           , 0
0.39036727  , 0.0503442362, -9.790851   , -0.000344334228, 0.00237589842, -0.0003327883, -0.184306324, -0.159835517, 0.4220035   , -0.00417555729, 0.0393433757, 2.38532948  , 1.77        , 3           , 11          , 0.008275638 , 0.008275637
0.385693282 , 0.0342103764, -9.807225   , -0.00146502489, 0.0006788713, 0.000789490063, -0.184441149, -0.159835517, 0.422205746 , -0.004189896, 0.0393501967, 2.385337    , 1.78        , 3           , 12          , 0.04112775  , 0
0.3958325   , 0.0529843345, -9.789894   , -0.00259784656, 0.00123436  , 0.000220015208, -0.184643388, -0.160037756, 0.42207092  , -0.00421579136, 0.03936255  , 2.385339    , 1.79        , 3           , 50          , 0           , 0
0.372594237 , 0.0419781655, -9.790569   , -0.00180204376, 0.00153482216, -0.000907638, -0.184643388, -0.160037756, 0.42207092  , -0.00429705158, 0.03939456  , 2.38532758  , 1.8         , 3           , 11          , 0.00823222  , 0.008232215
0.36211744  , 0.0353543162, -9.797005   , -0.000100512807, 0.000138456584, -0.000901906053, -0.184104085, -0.160105169, 0.42207092  , -0.00429841364, 0.039395906 , 2.38531852  , 1.81        , 3           , 12          , 0.0418747738, 0
0.3710999   , 0.0320642442, -9.789266   , 0.00413038768, 0.00157493877, 0.0016628548, -0.184373736, -0.1603074  , 0.42207092  , -0.00425645756, 0.0394117273, 2.38533521  , 1.82        , 3           , 50          , 0           , 0
0.376443863 , 0.05952751  , -9.789564   , -0.0006730779, 0.00182403019, 0.00022821335, -0.184373736, -0.160172582, 0.422138333 , -0.00426310068, 0.039429985 , 2.385337    , 1.83        , 3           , 11          , 0.00823222  , 0.008232215
0.377330184 , 0.0612867028, -9.779154   , -0.00179458421, 0.000126999163, -6.219547E-05, -0.184306324, -0.16024    , 0.42207092  , -0.00428107241, 0.03943125  , 2.38533664  , 1.84        , 3           , 12          , 0.0418747738, 0
0.378738225 , 0.0328187272, -9.772029   , -0.000674308743, 0.002105596 , 0.0005111848, -0.184306324, -0.16024    , 0.42207092  , -0.004287617, 0.03945233  , 2.385342    , 1.85        , 3           , 50          , 0           , 0
0.387359828 , 0.0327328555, -9.776484   , 0.000746115053, 0.0001441834, -0.00202810531, -0.184441149, -0.1597681  , 0.422205746 , -0.00428095646, 0.03945369  , 2.38532186  , 1.86        , 3           , 11          , 0.00823222  , 0.008232215
0.3815214   , 0.039535962 , -9.766556   , -0.00010715652, 0.0015462836, -0.000334661425, -0.1841715  , -0.160105169, 0.422205746 , -0.00428216439, 0.0394691378, 2.385318    , 1.87        , 3           , 12          , 0.0418747738, 0
0.370836318 , 0.0433816   , -9.799164   , -0.00320532429, -0.000164115918, -6.921406E-05, -0.184306324, -0.159970343, 0.4220035   , -0.004314245, 0.0394674875, 2.385317    , 1.88        , 3           , 50          , 0           , 0
0.38383323  , 0.0310675278, -9.805444   , -0.00459761638, -0.004115575, 0.000483201235, -0.184306324, -0.159970343, 0.4220035   , -0.004360025, 0.03942636  , 2.38532233  , 1.89        , 3           , 11          , 0.00823222  , 0.008232215
0.392846346 , 0.03137306  , -9.793623   , 0.0004990021, -0.00190794363, 0.0002284582, -0.184508562, -0.159970343, 0.422273159 , -0.00432291 , 0.0393027924, 2.38532567  , 1.9         , 3           , 12          , 0.04264982  , 0
0.384384871 , 0.0463182032, -9.780518   , 0.00160812587, 0.00232317368, 0.000805310032, -0.184373736, -0.16024    , 0.422138333 , -0.00430651754, 0.03932606  , 2.38533425  , 1.91        , 3           , 50          , 0           , 0
0.359534323 , 0.0497776978, -9.783405   , -0.000104794744, 0.005690487 , -0.002022759, -0.1841715  , -0.160037756, 0.42207092  , -0.00430837274, 0.03938288  , 2.38531327  , 1.92        , 3           , 11          , 0.008177005 , 0.008176999
0.3786128   , 0.046926152 , -9.806774   , -7.732981E-05, 0.000340755272, -0.0003357789, -0.1841715  , -0.160037756, 0.42207092  , -0.00430928124, 0.03938627  , 2.38531041  , 1.93        , 3           , 12          , 0.04264982  , 0
0.408329576 , 0.0375129841, -9.794834   , -0.00233051577, -0.0008007817, 0.0007820995, -0.184238911, -0.159970343, 0.4219361   , -0.00433227653, 0.039378304 , 2.385318    , 1.94        , 3           , 50          , 0           , 0
0.3848066   , 0.03959249  , -9.794554   , 0.00303010666, 8.019665E-05, -0.00145187648, -0.184306324, -0.1597681  , 0.4220035   , -0.00430254545, 0.0393790342, 2.38530374  , 1.95        , 3           , 11          , 0.008177005 , 0.008176999
0.3863167   , 0.0557681   , -9.77956    , -0.00149151054, 0.0006127673, -0.00147207954, -0.1841715  , -0.159970343, 0.42207092  , -0.00431804 , 0.0393851064, 2.38528848  , 1.96        , 3           , 12          , 0.04264982  , 0
0.380921662 , 0.05988014  , -9.775969   , 0.000210183542, -0.0007835975, -0.00118381018, -0.1841715  , -0.159970343, 0.42207092  , -0.004316406, 0.0393772125, 2.385277    , 1.97        , 3           , 50          , 0           , 0
0.377010167 , 0.0342463627, -9.787856   , -0.00121876737, 0.002867205 , 0.001075546 , -0.184441149, -0.159835517, 0.4219361   , -0.00432817638, 0.0394059345, 2.38528752  , 1.98        , 3           , 11          , 0.008177005 , 0.008176999
0.3810359   , 0.0279096141, -9.795987   , -0.00178385852, 0.002581812 , -0.00175289647, -0.184306324, -0.1597681  , 0.42207092  , -0.0043467097, 0.0394316874, 2.38526988  , 1.99        , 3           , 12          , 0.04264982  , 0
0.3807129   , 0.0396252   , -9.790065   , -0.00316874473, -0.000852202356, 0.00106084766, -0.1841715  , -0.15990293 , 0.42207092  , -0.00436577341, 0.0393606052, 2.38528085  , 2           , 3           , 50          , 0           , 0
0.3825463   , 0.0445318446, -9.779635   , 0.000503219 , -0.00110894244, -0.0006176909, -0.1841715  , -0.15990293 , 0.42207092  , -0.004360984, 0.03934949  , 2.38527513  , 2.01        , 3           , 11          , 0.00811462849, 0.008114627
0.385382921 , 0.0579876155, -9.765546   , -0.00146294292, -0.003374834, -0.0011954559, -0.184441149, -0.160172582, 0.421801269 , -0.004376076, 0.0393156856, 2.3852632   , 2.02        , 3           , 12          , 0.0434510559, 0
0.377481937 , 0.0347027779, -9.791014   , 0.00191461213, -0.0008178244, 0.0005194775, -0.184306324, -0.159700692, 0.422138333 , -0.004356724, 0.03930753  , 2.38526845  , 2.03        , 3           , 50          , 0           , 0
0.3930628   , 0.0142149292, -9.790979   , 0.0004942023, 0.0005804448, -0.00174523727, -0.184306324, -0.15990293 , 0.422273159 , -0.00435247 , 0.03931326  , 2.38525128  , 2.04        , 3           , 11          , 0.00811462849, 0.008114627
0.370129645 , 0.0226490758, -9.803776   , -0.00203518174, -0.00168925908, 0.000499738555, -0.184306324, -0.15990293 , 0.422273159 , -0.00437262142, 0.0392963924, 2.385256    , 2.05        , 3           , 12          , 0.0434510559, 0
0.396366    , 0.02365945  , -9.793176   , 0.00105264992, 0.00227366481, 0.00165044994, -0.184441149, -0.159970343, 0.422138333 , -0.00436145 , 0.0393191949, 2.38527226  , 2.06        , 3           , 50          , 0           , 0
0.3875287   , 0.0417967   , -9.788649   , -0.00287828012, -0.002539684, 0.000494485954, -0.184306324, -0.1597681  , 0.422273159 , -0.004390034, 0.0392938219, 2.38527751  , 2.07        , 3           , 11          , 0.00811462849, 0.008114627
0.36765638  , 0.0469811559, -9.785163   , -0.002324905, -0.000283345464, -6.44837E-05, -0.184238911, -0.159970343, 0.422407985 , -0.004413307, 0.039290987 , 2.385277    , 2.08        , 3           , 12          , 0.0434510559, 0
0.3957548   , 0.0538140647, -9.768196   , 0.00219629752, -0.0005343463, 0.00165137812, -0.184306324, -0.160172582, 0.422138333 , -0.0043906956, 0.0392857119, 2.38529325  , 2.09        , 3           , 50          , 0           , 0
0.3930106   , 0.04936015  , -9.775919   , 0.00136319268, 0.003394545 , -0.00117052335, -0.184306324, -0.160172582, 0.422138333 , -0.004327125, 0.03930924  , 2.38528371  , 2.1         , 3           , 11          , 0.008039676 , 0.008039675
0.371525615 , 0.030697912 , -9.787008   , 0.0005320622, 0.000291603035, 0.0002334398, -0.184373736, -0.1597681  , 0.4220035   , -0.00432171347, 0.03931217  , 2.38528562  , 2.11        , 3           , 12          , 0.04427673  , 0
0.389328    , 0.04087313  , -9.788638   , 0.000243406757, 0.00141595025, -0.0008962911, -0.184306324, -0.159835517, 0.422340572 , -0.004319637, 0.0393262841, 2.385277    , 2.12        , 3           , 50          , 0           , 0
0.398916841 , 0.04618288  , -9.790802   , 0.00165365753, 0.00170706271, -0.00173688494, -0.184306324, -0.159970343, 0.422138333 , -0.004303785, 0.03934328  , 2.38525939  , 2.13        , 3           , 11          , 0.008039676 , 0.008039675
0.369956076 , 0.04742991  , -9.792375   , -0.00117365073, 0.00253266376, 0.000229009675, -0.184306324, -0.159970343, 0.422138333 , -0.00431543542, 0.039368622 , 2.38526177  , 2.14        , 3           , 12          , 0.04427673  , 0
0.370480627 , 0.0537316427, -9.789633   , 0.000814074 , 0.0005750827, 0.00193041551, -0.184373736, -0.15990293 , 0.422138333 , -0.004306535, 0.0393744521, 2.38528085  , 2.15        , 3           , 50          , 0           , 0
0.3885277   , 0.0196184   , -9.772008   , -0.000877283863, -0.0002810771, 0.000225987242, -0.184508562, -0.159970343, 0.422138333 , -0.00431521842, 0.0393716469, 2.38528323  , 2.16        , 3           , 11          , 0.008039676 , 0.008039675
0.380483121 , 0.02381677  , -9.784709   , -2.94250785E-05, -0.000556916231, -0.00118318317, -0.184508562, -0.1597681  , 0.4220035   , -0.00431597745, 0.0393660255, 2.38527131  , 2.17        , 3           , 12          , 0.04427673  , 0
0.378755063 , 0.0604319647, -9.79813    , 0.00306513882, 0.00171660923, -0.00286045042, -0.184508562, -0.1597681  , 0.4220035   , -0.004286456, 0.0393830836, 2.3852427   , 2.18        , 3           , 50          , 0           , 0
0.3683831   , 0.0721934438, -9.77104    , 0.001667835 , -0.0008270151, 0.00108458439, -0.184306324, -0.15990293 , 0.422138333 , -0.004269348, 0.039374847 , 2.38525367  , 2.19        , 3           , 11          , 0.008039676 , 0.008039675
0.3917873   , 0.0530563667, -9.797157   , -0.00036848188, 0.00219841418, -0.00146464189, -0.184441149, -0.1597681  , 0.422273159 , -0.004336701, 0.0393102281, 2.385236    , 2.2         , 3           , 12          , 0.0451251939, 0
0.401960731 , 0.0375632048, -9.787651   , -0.000354215532, -0.0006172352, -0.0009039061, -0.184306324, -0.159835517, 0.422273159 , -0.004340597, 0.0393040031, 2.38522744  , 2.21        , 3           , 50          , 0           , 0
0.36600703  , 0.0489188954, -9.818614   , -9.53236E-05, 0.004171282 , -0.000612675, -0.184306324, -0.159835517, 0.422273159 , -0.004341799, 0.03934569  , 2.38522077  , 2.22        , 3           , 11          , 0.00795694347, 0.00795694347
0.400773346 , 0.05200088  , -9.783081   , -0.00063426944, -0.000900705461, 0.0007895675, -0.184441149, -0.159565866, 0.422205746 , -0.00434782868, 0.0393367149, 2.38522887  , 2.23        , 3           , 12          , 0.0451251939, 0
0.376885    , 0.0563883223, -9.796804   , 0.00105283211, 0.000518577464, -4.797362E-05, -0.184508562, -0.15990293 , 0.422340572 , -0.004337321, 0.0393418968, 2.3852284   , 2.24        , 3           , 50          , 0           , 0
0.372941375 , 0.0351919681, -9.786527   , 0.00246931147, -0.000316567137, 0.000239846748, -0.184373736, -0.160105169, 0.422273159 , -0.00431253249, 0.0393387377, 2.38523078  , 2.25        , 3           , 11          , 0.00795694347, 0.00795694347
0.384508848 , 0.05266758  , -9.790434   , -0.000348891481, -0.00146192464, 0.00107255415, -0.184373736, -0.160105169, 0.422273159 , -0.00431559654, 0.03932417  , 2.38524175  , 2.26        , 3           , 12          , 0.0451251939, 0
0.386300027 , 0.0508447438, -9.791332   , -0.00092120457, -5.792169E-05, 0.000224477466, -0.1841715  , -0.15990293 , 0.422138333 , -0.00432472257, 0.0393236019, 2.38524365  , 2.27        , 3           , 50          , 0           , 0
0.36703825  , 0.03256928  , -9.791102   , -0.003749818, 0.000767673133, -6.992757E-05, -0.184238911, -0.159700692, 0.422138333 , -0.00436224975, 0.0393312834, 2.38524318  , 2.28        , 3           , 11          , 0.00795694347, 0.00795694347
0.375814527 , 0.0451065749, -9.792792   , -0.0023434232, 0.00190348236, -0.000344144384, -0.184036672, -0.160172582, 0.4225428   , -0.00438582245, 0.0393503   , 2.38523984  , 2.29        , 3           , 12          , 0.0451251939, 0
0.37606433  , 0.03020721  , -9.791044   , -0.0009561963, 0.00213923631, 0.000509249163, -0.184036672, -0.160172582, 0.4225428   , -0.004432204, 0.0392864421, 2.3852427   , 2.3         , 3           , 50          , 0           , 0
0.3749466   , 0.0455940552, -9.80048    , 0.000459467235, 0.00130408769, -0.000615617668, -0.184104085, -0.16024    , 0.42207092  , -0.00442785444, 0.03929946  , 2.385237    , 2.31        , 3           , 11          , 0.007868486 , 0.007868484
0.357489526 , 0.0286311321, -9.794356   , -0.000664664, 0.000170187559, -0.000622621155, -0.184373736, -0.160172582, 0.422407985 , -0.00443474669, 0.03930114  , 2.3852303   , 2.32        , 3           , 12          , 0.04599486  , 0
0.365666747 , 0.0374843962, -9.77211    , 0.00130535359, 0.00159138255, -0.000611232943, -0.184373736, -0.160509646, 0.422138333 , -0.004421937, 0.039317023 , 2.38522458  , 2.33        , 3           , 50          , 0           , 0
0.383268952 , 0.0265189968, -9.792811   , -0.000951851136, 0.00129454175, 0.0007904848, -0.184306324, -0.16024    , 0.422273159 , -0.004431147, 0.0393300056, 2.38523221  , 2.34        , 3           , 11          , 0.007868486 , 0.007868484
0.3916371   , 0.04400763  , -9.789511   , -0.00150629412, -0.0006802308, 0.00191496336, -0.184306324, -0.16024    , 0.422273159 , -0.004445453, 0.0393232778, 2.38525128  , 2.35        , 3           , 12          , 0.04599486  , 0
0.389017254 , 0.0490278937, -9.797194   , 0.000188845035, -0.000950339832, 0.0005097437, -0.184306324, -0.160172582, 0.422340572 , -0.00444336468, 0.0393138   , 2.385256    , 2.36        , 3           , 50          , 0           , 0
0.372123122 , 0.0424149744, -9.784695   , -0.000949137437, 0.0004498395, -0.00175365421, -0.184441149, -0.15990293 , 0.4224754   , -0.00445354544, 0.0393182226, 2.385239    , 2.37        , 3           , 11          , 0.007868486 , 0.007868484
0.396321535 , 0.05657915  , -9.787163   , -0.00235627382, -0.000404401682, -0.000348853122, -0.184373736, -0.159970343, 0.422205746 , -0.004477243, 0.0393141545, 2.38523555  , 2.38        , 3           , 12          , 0.04599486  , 0
0.382704139 , 0.0237554256, -9.774297   , -0.003771611, 0.0004307484, 0.00134108879, -0.184373736, -0.159970343, 0.422205746 , -0.00451443158, 0.03931852  , 2.38524842  , 2.39        , 3           , 50          , 0           , 0
0.399210453 , 0.0375678875, -9.779537   , -0.00345181557, -0.000444172532, -0.0006354436, -0.1841715  , -0.1597681  , 0.422273159 , -0.00449417252, 0.03926265  , 2.38524461  , 2.4         , 3           , 11          , 0.007776537 , 0.00777653372
0.420889974 , 0.03459072  , -9.774863   , 0.000218339032, -0.000137777824, -0.0006178896, -0.184306324, -0.159835517, 0.4224754   , -0.00449223258, 0.03926124  , 2.38523841  , 2.41        , 3           , 12          , 0.0468842536, 0
0.3873971   , 0.03276309  , -9.785523   , -0.0020318958, -0.00184244406, 0.0007816585, -0.184238911, -0.160105169, 0.422138333 , -0.00451224064, 0.0392428562, 2.38524652  , 2.42        , 3           , 50          , 0           , 0
0.403794855 , 0.03577514  , -9.798944   , -0.000912687858, 0.000417719479, 0.00192054757, -0.184238911, -0.160105169, 0.422138333 , -0.00452061463, 0.0392471142, 2.38526559  , 2.43        , 3           , 11          , 0.007776537 , 0.00777653372
0.382916123 , 0.0306224786, -9.804098   , -0.00175987952, 0.000130418281, -0.000344136672, -0.184643388, -0.160105169, 0.422407985 , -0.00453834934, 0.0392484069, 2.38526177  , 2.44        , 3           , 12          , 0.0468842536, 0
0.370549828 , 0.0239563957, -9.791564   , 0.00134714169, 0.0001514295, 0.000235424319, -0.184508562, -0.159835517, 0.4224754   , -0.004524786, 0.03924993  , 2.38526464  , 2.45        , 3           , 50          , 0           , 0
0.362585783 , 0.0362543277, -9.797901   , 0.00105602469, 0.00183890841, -0.000328363734, -0.184238911, -0.160037756, 0.422273159 , -0.00451435847, 0.0392683148, 2.38526082  , 2.46        , 3           , 11          , 0.007776537 , 0.00777653372
0.389305383 , 0.0354986228, -9.800412   , -0.00118101155, -0.00239984063, 0.002197429 , -0.184238911, -0.160037756, 0.422273159 , -0.004525301, 0.0392444134, 2.38528323  , 2.47        , 3           , 12          , 0.0468842536, 0
0.390701473 , 0.0386377126, -9.799484   , -0.00146818417, -0.0018386296, -0.00119346986, -0.1841715  , -0.15990293 , 0.422407985 , -0.00454044761, 0.03922597  , 2.38527131  , 2.48        , 3           , 50          , 0           , 0
0.4106871   , 0.0531844757, -9.76718    , -0.0011939581, -0.000147328479, -0.000907011738, -0.184373736, -0.159700692, 0.422677636 , -0.00455274154, 0.039224457 , 2.38526273  , 2.49        , 3           , 11          , 0.007776537 , 0.00777653372
0.395454884 , 0.0588531047, -9.78942    , 0.000263370632, 0.00131369359, -0.00202607876, -0.184373736, -0.15990293 , 0.4224754   , -0.004463001, 0.0393100642, 2.38524556  , 2.5         , 3           , 12          , 0.0477919579, 0
0.356053472 , 0.02188888  , -9.797107   , -0.00172969257, 0.00467910757, -0.000899939856, -0.184373736, -0.15990293 , 0.4224754   , -0.004480662, 0.0393568166, 2.3852365   , 2.51        , 3           , 50          , 0           , 0
0.348392725 , 0.0287041869, -9.784482   , -0.00509241736, -0.000411977, 0.0013367458, -0.184373736, -0.1597681  , 0.422205746 , -0.00453105848, 0.0393527523, 2.38524985  , 2.52        , 3           , 11          , 0.007682683 , 0.00768268248
0.366782    , 0.0412145071, -9.811408   , -0.00142045342, -0.000668717257, -0.0003417927, -0.184441149, -0.159835517, 0.422340572 , -0.004545395, 0.03934605  , 2.38524652  , 2.53        , 3           , 12          , 0.0477919579, 0
0.352157682 , 0.0350261554, -9.798891   , -0.001708293, 0.000455633941, -5.883668E-05, -0.184373736, -0.159970343, 0.4224754   , -0.00456250366, 0.0393506028, 2.38524556  , 2.54        , 3           , 50          , 0           , 0
0.365248322 , 0.0335004143, -9.793373   , 0.0039379443, 0.00105696591, 0.0008159824, -0.184373736, -0.159970343, 0.4224754   , -0.00452280371, 0.03936121  , 2.38525414  , 2.55        , 3           , 11          , 0.007682683 , 0.00768268248
0.401468247 , 0.0393217281, -9.77228    , -0.00171886676, 0.00242658565, -0.00146848627, -0.1841715  , -0.15990293 , 0.422138333 , -0.00454057427, 0.0393854044, 2.385239    , 2.56        , 3           , 12          , 0.0477919579, 0
0.3833304   , 0.03147864  , -9.791886   , 0.00113179884, -0.00262247957, 0.000797171844, -0.184238911, -0.159633279, 0.422138333 , -0.00452893833, 0.0393592268, 2.38524747  , 2.57        , 3           , 50          , 0           , 0
0.38437444  , 0.04229261  , -9.79093    , -8.57119448E-06, -0.000377596763, 0.00164298818, -0.1841715  , -0.159970343, 0.422407985 , -0.00452837534, 0.03935552  , 2.38526368  , 2.58        , 3           , 11          , 0.007682683 , 0.00768268248
0.395067662 , 0.0393462554, -9.757413   , 0.0002587735, 0.00243995851, -0.000329117844, -0.184238911, -0.15990293 , 0.422205746 , -0.004525923, 0.03937991  , 2.38526034  , 2.59        , 3           , 12          , 0.0477919579, 0
0.365260124 , 0.0419906378, -9.76892948 , -0.0013795509, 0.00183172931, -0.001466063, -0.184238911, -0.15990293 , 0.422205746 , -0.00444685156, 0.03934017  , 2.38524938  , 2.6         , 3           , 50          , 0           , 0
0.3688587   , 0.0325555764, -9.793349   , 0.0008796118, 0.00212857965, 0.0005226687, -0.184238911, -0.159700692, 0.422407985 , -0.004437853, 0.03936148  , 2.38525414  , 2.61        , 3           , 11          , 0.007585817 , 0.00758582028
0.379443944 , 0.04462348  , -9.795931   , 0.0003023009, 0.004377274 , -0.00173679355, -0.184306324, -0.159835517, 0.422273159 , -0.004435521, 0.0394051671, 2.385237    , 2.62        , 3           , 12          , 0.04871667  , 0
0.377866924 , 0.0337498039, -9.777456   , 0.00258097984, 0.000732213259, 0.000245863077, -0.184306324, -0.160037756, 0.422273159 , -0.00440961635, 0.0394125022, 2.385239    , 2.63        , 3           , 50          , 0           , 0
0.3858392   , 0.0526289642, -9.783645   , -0.00108490419, -0.0007004481, -0.00203372655, -0.184306324, -0.160037756, 0.422273159 , -0.00442126626, 0.0394054055, 2.38521886  , 2.64        , 3           , 11          , 0.007585817 , 0.00758582028
0.3901202   , 0.03630715  , -9.775543   , -0.00136823556, -0.0004207907, -0.00118699693, -0.184441149, -0.159700692, 0.422407985 , -0.004435417, 0.0394011438, 2.385207    , 2.65        , 3           , 12          , 0.04871667  , 0
0.398143023 , 0.0253959224, -9.779143   , -0.00333546521, -0.00240511587, -0.001199253, -0.184508562, -0.160037756, 0.422138333 , -0.004469239, 0.03937704  , 2.385195    , 2.66        , 3           , 50          , 0           , 0
0.400240719 , 0.037211936 , -9.811168   , -0.00220756745, -0.00183434121, 0.0005021073, -0.184238911, -0.159835517, 0.422407985 , -0.00449111452, 0.03935872  , 2.38520026  , 2.67        , 3           , 11          , 0.007585817 , 0.00758582028
0.388828248 , 0.0328061022, -9.803139   , -0.000253699254, 0.00268406584, -0.0008944185, -0.184238911, -0.159835517, 0.422407985 , -0.00449400628, 0.0393855274, 2.3851912   , 2.68        , 3           , 12          , 0.04871667  , 0
0.390987515 , 0.06252605  , -9.79260349 , -0.00419004261, -0.00100302207, -0.001766109, -0.184306324, -0.159835517, 0.422407985 , -0.00453660125, 0.03937541  , 2.38517356  , 2.69        , 3           , 50          , 0           , 0
0.3769817   , 0.0386868156, -9.766593   , 0.0023262694, 0.000741765369, -0.000319346553, -0.184508562, -0.159835517, 0.422407985 , -0.00446324376, 0.0394033268, 2.38517213  , 2.7         , 3           , 11          , 0.00748889  , 0.0074888966
0.385887146 , 0.019265661 , -9.791918   , 0.00176239444, 0.0007379501, 0.00137324433, -0.184306324, -0.159835517, 0.422407985 , -0.00444508065, 0.03941077  , 2.38518643  , 2.71        , 3           , 12          , 0.04965714  , 0
0.378958166 , 0.04281662  , -9.793681   , -0.00217116065, -0.00351226772, 0.000500685768, -0.184306324, -0.159835517, 0.422407985 , -0.004466588, 0.03937567  , 2.3851912   , 2.72        , 3           , 50          , 0           , 0
0.4012014   , 0.0488511138, -9.787158   , 0.00149899418, -0.00320587284, 0.0005182398, -0.184373736, -0.159970343, 0.4224754   , -0.00445138942, 0.0393436365, 2.385197    , 2.73        , 3           , 11          , 0.00748889  , 0.0074888966
0.3955794   , 0.0282299761, -9.807626   , 0.00063121866, 0.000730303233, -0.00117486063, -0.184575975, -0.159970343, 0.4224754   , -0.00444554072, 0.03935089  , 2.38518453  , 2.74        , 3           , 12          , 0.04965714  , 0
0.391570866 , 0.04261487  , -9.777766   , 0.000336082652, 0.00326247839, -0.00145480956, -0.184238911, -0.160037756, 0.4224754   , -0.00444275653, 0.0393834524, 2.38517022  , 2.75        , 3           , 50          , 0           , 0
0.362990081 , 0.0362097062, -9.786147   , -0.0007810786, 0.0007207526, -0.00146398274, -0.184238911, -0.160037756, 0.4224754   , -0.004451144, 0.0393905863, 2.385156    , 2.76        , 3           , 11          , 0.00748889  , 0.0074888966
0.387205482 , 0.04815593  , -9.799924   , 0.001464559 , 0.00355168432, -0.00116657058, -0.184306324, -0.1597681  , 0.422273159 , -0.00443696557, 0.0394260548, 2.38514352  , 2.77        , 3           , 12          , 0.04965714  , 0
0.3632395   , 0.0457851775, -9.816388   , -0.0036247  , 0.00464356458, -0.00118853967, -0.184441149, -0.15990293 , 0.4224754   , -0.004473691, 0.0394724347, 2.3851316   , 2.78        , 3           , 50          , 0           , 0
0.383576065 , 0.0486390144, -9.796784   , 0.0009096267, 0.0015769091, -0.0008897045, -0.184306324, -0.159700692, 0.422273159 , -0.00446494855, 0.03948817  , 2.38512254  , 2.79        , 3           , 11          , 0.00748889  , 0.0074888966
0.380340844 , 0.04549852  , -9.790948   , 0.0009241699, 0.00154240069, 0.00306614651, -0.1841715  , -0.159835517, 0.422205746 , -0.004431741, 0.03943978  , 2.385154    , 2.8         , 3           , 12          , 0.050612215 , 0
0.364919156 , 0.04699642  , -9.780212   , -0.00105568022, 0.00181058876, 0.0005145244, -0.1841715  , -0.159835517, 0.422205746 , -0.0044421  , 0.039457906 , 2.38515925  , 2.81        , 3           , 50          , 0           , 0
0.390934825 , 0.024171371 , -9.79231    , 0.00148616114, 0.00182777876, 0.0005263768, -0.184441149, -0.160037756, 0.4224754   , -0.00442703255, 0.0394762121, 2.3851645   , 2.82        , 3           , 11          , 0.00739341741, 0.007393425
0.38367492  , 0.0211195257, -9.798707   , 0.000928114459, 0.000416132534, 0.0002390357, -0.184306324, -0.159700692, 0.422340572 , -0.004417658, 0.03948038  , 2.38516641  , 2.83        , 3           , 12          , 0.050612215 , 0
0.374506354 , 0.0398069732, -9.822203   , 0.00119537034, 0.0035152596, 0.000527663447, -0.184306324, -0.159970343, 0.422273159 , -0.00440550363, 0.03951556  , 2.38517213  , 2.84        , 3           , 50          , 0           , 0
0.353303462 , 0.05484955  , -9.793827   , -0.0004935258, 0.00209596776, -0.00174270757, -0.184306324, -0.159970343, 0.422273159 , -0.004411132, 0.0395364463, 2.385154    , 2.85        , 3           , 11          , 0.00739341741, 0.007393425
0.390123576 , 0.0358635522, -9.777806   , -0.002450508, -0.00185931078, -0.000910388655, -0.184508562, -0.159835517, 0.4225428   , -0.00443599466, 0.0395178124, 2.38514543  , 2.86        , 3           , 12          , 0.050612215 , 0
0.394781142 , 0.04484249  , -9.780444   , -0.00189188286, -0.0007292339, -0.00203616917, -0.184306324, -0.1597681  , 0.422610223 , -0.004455718, 0.03951043  , 2.3851254   , 2.87        , 3           , 50          , 0           , 0
0.385324419 , 0.0494595878, -9.77869    , 0.004035299 , 0.0004371446, 0.00110113458, -0.184238911, -0.159970343, 0.422340572 , -0.00441492861, 0.03951485  , 2.385136    , 2.88        , 3           , 11          , 0.00739341741, 0.007393425
0.372055769 , 0.0294162482, -9.8100605  , 0.0009300867, -0.000147001527, -0.0011745193, -0.184238911, -0.159970343, 0.422340572 , -0.004406093, 0.03951333  , 2.38512444  , 2.89        , 3           , 12          , 0.050612215 , 0
0.3761869   , 0.0396798775, -9.790551   , 0.000662252656, 0.0012121161, -0.0008905364, -0.184373736, -0.160105169, 0.422340572 , -0.004358708, 0.0394356772, 2.38511682  , 2.9         , 3           , 50          , 0           , 0
0.3923629   , 0.0353707   , -9.773271   , 0.00149633456, 0.00375192869, -0.00201283023, -0.184373736, -0.159700692, 0.4224754   , -0.004344545, 0.0394731052, 2.38509679  , 2.91        , 3           , 11          , 0.007296961 , 0.00729696825
0.3815309   , 0.06982133  , -9.782249   , -0.00159207522, 7.05736456E-05, -0.00175042008, -0.184306324, -0.15990293 , 0.4225428   , -0.00436116057, 0.0394737348, 2.38507867  , 2.92        , 3           , 12          , 0.0515807979, 0
0.389918566 , 0.0507991873, -9.7904     , -0.001881635, 0.00147648819, -0.00203210488, -0.184306324, -0.15990293 , 0.4225428   , -0.004380783, 0.0394884162, 2.38505864  , 2.93        , 3           , 50          , 0           , 0
0.368816853 , 0.0365388319, -9.770281   , -0.000463850825, 0.0006413499, 0.0005160153, -0.184441149, -0.159835517, 0.422340572 , -0.00438522 , 0.0394948535, 2.38506341  , 2.94        , 3           , 11          , 0.007296961 , 0.00729696825
0.3819388   , 0.031913992 , -9.782404   , -0.00129784388, -0.002180034, -0.000622424646, -0.184306324, -0.15990293 , 0.422340572 , -0.00439844141, 0.039473027 , 2.38505769  , 2.95        , 3           , 12          , 0.0515807979, 0
0.380329072 , 0.0120868422, -9.784759   , -0.00214946945, -0.00134106935, -0.000907611044, -0.1841715  , -0.15990293 , 0.422407985 , -0.0044202907, 0.03945958  , 2.38504815  , 2.96        , 3           , 50          , 0           , 0
0.37435323  , 0.00181725994, -9.796145   , 0.001513137 , 0.000654719654, 0.0005252338, -0.1841715  , -0.15990293 , 0.422407985 , -0.00440495228, 0.0394661464, 2.38505387  , 2.97        , 3           , 11          , 0.007296961 , 0.00729696825
0.386926562 , 0.03141495  , -9.785532   , -0.00187254418, 6.867305E-05, 0.00163871271, -0.184373736, -0.159835517, 0.422205746 , -0.00442303251, 0.0394669026, 2.38507     , 2.98        , 3           , 12          , 0.0515807979, 0
0.389557    , 0.0531101562, -9.805309   , -0.0007543897, 0.00204725983, -0.00146089424, -0.184643388, -0.15990293 , 0.4224754   , -0.004431159, 0.0394873172, 2.3850553   , 2.99        , 3           , 50          , 0           , 0
0.3893076   , 0.03594675  , -9.799506   , -0.000678048353, -0.002485937, 0.00135951  , -0.184373736, -0.1597681  , 0.422340572 , -0.004333265, 0.03940669  , 2.385073    , 3           , 3           , 11          , 0.00720155332, 0.007201561
0.376614869 , 0.04143986  , -9.77878952 , 0.0004271451, 0.00230830535, -4.0532992E-05, -0.184373736, -0.1597681  , 0.422340572 , -0.004329013, 0.0394297726, 2.385073    , 3.01        , 3           , 12          , 0.0525618754, 0
0.39574033  , 0.04933884  , -9.779062   , -0.00239301543, 0.00116293831, -0.0025982752, -0.184306324, -0.159970343, 0.422407985 , -0.00435397169, 0.039441295 , 2.38504672  , 3.02        , 3           , 50          , 0           , 0
0.393770516 , 0.06388691  , -9.804328   , -0.003234972, 0.000312518649, -0.0006257654, -0.184508562, -0.160037756, 0.422273159 , -0.004386569, 0.0394443832, 2.38504052  , 3.03        , 3           , 11          , 0.00720155332, 0.007201561
0.3917486   , 0.0485614724, -9.802148   , -0.000136314542, 0.00202292018, -4.36007977E-05, -0.184508562, -0.15990293 , 0.4225428   , -0.004387954, 0.03946461  , 2.38504     , 3.04        , 3           , 12          , 0.0525618754, 0
0.370976478 , 0.0239299163, -9.7852335  , 0.000437970768, 5.57832573E-05, -0.0006090792, -0.184306324, -0.160172582, 0.422273159 , -0.00438381452, 0.0394651443, 2.38503385  , 3.05        , 3           , 50          , 0           , 0
0.384417862 , 0.0481303632, -9.78277    , -0.000968587236, -0.001080027, -0.0006173996, -0.184306324, -0.160172582, 0.422273159 , -0.00439374242, 0.03945432  , 2.38502765  , 3.06        , 3           , 11          , 0.00720155332, 0.007201561
0.394323617 , 0.0435049348, -9.783617   , -0.00266421586, -0.000809920253, -5.97925355E-05, -0.184306324, -0.159700692, 0.422340572 , -0.004420406, 0.0394462124, 2.38502717  , 3.07        , 3           , 12          , 0.0525618754, 0
0.39715606  , 0.0538328923, -9.778582   , 0.00269959541, -0.000210498227, 0.0008137096, -0.184373736, -0.159835517, 0.422407985 , -0.004393088, 0.0394441523, 2.38503528  , 3.08        , 3           , 50          , 0           , 0
0.3747375   , 0.067667976 , -9.78909    , -0.0006909207, 4.814728E-05, 0.0007983403, -0.184575975, -0.160172582, 0.422340572 , -0.00439968333, 0.0394446626, 2.38504338  , 3.09        , 3           , 11          , 0.00720155332, 0.007201561
0.3867337   , 0.0476995073, -9.796764   , 0.000123904436, 0.00117647  , -0.0008922511, -0.184575975, -0.160172582, 0.422340572 , -0.004451979, 0.0394488536, 2.385032    , 3.1         , 3           , 12          , 0.0535544828, 0
0.386807144 , 0.0486517027, -9.811676   , -0.00183800119, -0.001652545, 0.00107195333, -0.184441149, -0.160037756, 0.4225428   , -0.00446993252, 0.0394323729, 2.38504338  , 3.11        , 3           , 50          , 0           , 0
0.3863333   , 0.05042533  , -9.800825   , -0.000153109519, 4.82988544E-05, -0.00117784133, -0.184373736, -0.159835517, 0.4225428   , -0.004471929, 0.0394327976, 2.385031    , 3.12        , 3           , 11          , 0.00710806  , 0.007108071
0.385218322 , 0.0395539142, -9.784607   , 0.000129806751, 5.021115E-05, -0.0003289118, -0.184643388, -0.160172582, 0.422407985 , -0.00447076 , 0.0394332856, 2.38502812  , 3.13        , 3           , 12          , 0.0535544828, 0
0.3957893   , 0.009727455 , -9.807701   , 0.000143984274, -0.002483867, 0.00249255728, -0.184643388, -0.160172582, 0.422407985 , -0.00446833158, 0.0394085534, 2.385053    , 3.14        , 3           , 50          , 0           , 0
0.387867    , 0.0332179964, -9.788229   , 0.0009779918, -0.0002256264, -0.00117300742, -0.184306324, -0.159970343, 0.422138333 , -0.0044590123, 0.0394062474, 2.38504148  , 3.15        , 3           , 11          , 0.00710806  , 0.007108071
0.387514174 , 0.0449094   , -9.775076   , 0.000408540975, 0.0008968187, 0.0005213192, -0.184306324, -0.15990293 , 0.4225428   , -0.004454722, 0.03941524  , 2.38504672  , 3.16        , 3           , 12          , 0.0535544828, 0
0.3902566   , 0.04177387  , -9.791339   , -0.00157655892, 0.00229126867, -0.00146349182, -0.184441149, -0.1597681  , 0.4225428   , -0.004471068, 0.03943808  , 2.385032    , 3.17        , 3           , 50          , 0           , 0
0.38434568  , 0.0462864563, -9.771027   , 0.00124762068, 0.00259193964, 0.0008104111, -0.184441149, -0.1597681  , 0.4225428   , -0.004458277, 0.0394640341, 2.38503957  , 3.18        , 3           , 11          , 0.00710806  , 0.007108071
0.379871845 , 0.0437052771, -9.792767   , 0.000134804577, -0.000794480264, 0.00108247367, -0.1841715  , -0.160105169, 0.422273159 , -0.004456499, 0.0394561365, 2.385051    , 3.19        , 3           , 12          , 0.0535544828, 0
0.3820969   , 0.0440935642, -9.7819     , 0.00268470752, -0.000778538932, -0.0011656303, -0.184238911, -0.159835517, 0.422407985 , -0.004410248, 0.0394456722, 2.38503957  , 3.2         , 3           , 50          , 0           , 0
0.379162282 , 0.0292193182, -9.77656    , 0.0009975171, -0.00191625021, 0.0019326444, -0.1841715  , -0.15990293 , 0.422340572 , -0.00439950824, 0.03942659  , 2.385059    , 3.21        , 3           , 11          , 0.00701586762, 0.007015875
0.372191221 , 0.05139718  , -9.772454   , -0.0007045033, -0.000519887253, 0.00107930019, -0.1841715  , -0.15990293 , 0.422340572 , -0.00440612575, 0.03942144  , 2.38507     , 3.22        , 3           , 12          , 0.0545577332, 0
0.364605278 , 0.0533632   , -9.793747   , 0.00210689288, 0.00203329674, 0.0005313   , -0.184306324, -0.159835517, 0.422138333 , -0.00438485 , 0.0394417979, 2.38507533  , 3.23        , 3           , 50          , 0           , 0
0.382285863 , 0.0500492342, -9.808993   , 0.00212608255, -0.00190861593, -3.985013E-05, -0.184238911, -0.159970343, 0.4225428   , -0.00436360342, 0.0394227132, 2.38507485  , 3.24        , 3           , 11          , 0.00701586762, 0.007015875
0.3766907   , 0.0406086147, -9.800035   , 0.00126855448, 5.66073541E-05, -0.0008883756, -0.184306324, -0.15990293 , 0.4225428   , -0.00435126759, 0.0394232422, 2.38506627  , 3.25        , 3           , 12          , 0.0545577332, 0
0.382000029 , 0.03910519  , -9.774239   , 0.000139989192, 4.897296E-05, 0.00108411885, -0.184306324, -0.15990293 , 0.4225428   , -0.00434944034, 0.0394237749, 2.38507676  , 3.26        , 3           , 50          , 0           , 0
0.374857783 , 0.0490928963, -9.767471   , 0.0009827613, 0.0008993965, 0.0005242965, -0.184238911, -0.15990293 , 0.422205746 , -0.004339406, 0.039432805 , 2.38508248  , 3.27        , 3           , 11          , 0.00701586762, 0.007015875
0.381795853 , 0.0527024977, -9.791359   , 0.000134828268, 0.0008936635, -0.000609804061, -0.184441149, -0.160105169, 0.422407985 , -0.00433829846, 0.03944171  , 2.38507581  , 3.28        , 3           , 12          , 0.0545577332, 0
0.3889296   , 0.0489568338, -9.775952   , 0.00209680852, 0.00400425075, -3.07375158E-05, -0.184306324, -0.159835517, 0.4224754   , -0.004317348, 0.03948174  , 2.38507581  , 3.29        , 3           , 50          , 0           , 0
0.38095513  , 0.05722918  , -9.792703   , 0.00321488478, 0.00229410129, 0.000253502076, -0.184238911, -0.160037756, 0.422407985 , -0.00432920037, 0.0394426323, 2.38507628  , 3.3         , 3           , 11          , 0.00692569325, 0.006925701
0.3624015   , 0.0565629564, -9.79827    , -0.001299184, 0.00113727758, -0.00118199189, -0.184238911, -0.160037756, 0.422407985 , -0.00434266124, 0.03945396  , 2.38506436  , 3.31        , 3           , 12          , 0.0555707961, 0
0.380356342 , 0.0437256619, -9.800446   , -0.000155047252, -0.00167073088, -0.000333450938, -0.184441149, -0.159970343, 0.4225428   , -0.004344342, 0.03943724  , 2.385061    , 3.32        , 3           , 50          , 0           , 0
0.37067613  , 0.0334320851, -9.791975   , 0.00124110025, 0.00143603142, -0.001452243, -0.184238911, -0.159700692, 0.422340572 , -0.00433250749, 0.03945154  , 2.38504624  , 3.33        , 3           , 11          , 0.00692569325, 0.006925701
0.393128216 , 0.0521335751, -9.795794   , -0.000173332432, 0.00198961422, -0.000610347255, -0.184238911, -0.15990293 , 0.422273159 , -0.004334484, 0.03947141  , 2.38504052  , 3.34        , 3           , 12          , 0.0555707961, 0
0.391571969 , 0.0390449762, -9.789533   , -0.000441492943, -0.00082794507, -5.0928822E-05, -0.184238911, -0.15990293 , 0.422273159 , -0.004338921, 0.03946313  , 2.38503957  , 3.35        , 3           , 50          , 0           , 0
0.385911763 , 0.05491949  , -9.79403    , 0.0032241533, 0.00032314338, -0.0005971477, -0.184306324, -0.159970343, 0.4225428   , -0.00430691475, 0.0394663364, 2.38503385  , 3.36        , 3           , 11          , 0.00692569325, 0.006925701
0.380689323 , 0.0329108536, -9.805912   , 0.000414062757, -0.00223003421, 0.00221115234, -0.184441149, -0.15990293 , 0.422407985 , -0.00430189632, 0.0394441336, 2.38505578  , 3.37        , 3           , 12          , 0.0555707961, 0
0.373316348 , 0.025750272 , -9.797863   , 0.00096892094, -0.0005368317, -0.000608984963, -0.184575975, -0.1597681  , 0.422340572 , -0.004292448, 0.0394387431, 2.38505     , 3.38        , 3           , 50          , 0           , 0
0.387849033 , 0.0340961069, -9.780994   , 0.000681244361, 0.0005875203, -4.34914255E-05, -0.184575975, -0.1597681  , 0.422340572 , -0.00428565359, 0.0394446142, 2.38504958  , 3.39        , 3           , 11          , 0.00692569325, 0.006925701
0.391100347 , 0.0363569856, -9.793615   , 0.000972265669, 3.23646213E-06, -0.001173021, -0.184306324, -0.160037756, 0.4224754   , -0.004261812, 0.0393926576, 2.38503861  , 3.4         , 3           , 12          , 0.0565928929, 0
0.386093438 , 0.0310379267, -9.80452251 , 0.00378791755, 0.00199329713, 0.000820948044, -0.184306324, -0.159835517, 0.422407985 , -0.004223612, 0.03941263  , 2.38504672  , 3.41        , 3           , 50          , 0           , 0
0.372567266 , 0.03570739  , -9.804155   , 0.000682616665, 0.0016907223, 0.000806027849, -0.184373736, -0.159970343, 0.422138333 , -0.00421646843, 0.039429564 , 2.38505483  , 3.42        , 3           , 11          , 0.006838959 , 0.006838963
0.378784418 , 0.0373196565, -9.76884651 , -0.00016269146, 0.00112185837, -0.000611478, -0.184373736, -0.159970343, 0.422138333 , -0.004218338, 0.03944076  , 2.38504863  , 3.43        , 3           , 12          , 0.0565928929, 0
0.390167117 , 0.0443794876, -9.761045   , 0.00209581875, 0.00141870556, 0.000247103628, -0.184373736, -0.160105169, 0.422205746 , -0.00419728365, 0.03945496  , 2.385051    , 3.44        , 3           , 50          , 0           , 0
0.384640157 , 0.06393275  , -9.786318   , 0.000962581951, 0.00225576386, 0.00137328776, -0.184441149, -0.159565866, 0.422610223 , -0.00418711966, 0.03947757  , 2.38506436  , 3.45        , 3           , 11          , 0.006838959 , 0.006838963
0.378682345 , 0.052785065 , -9.804941   , -0.00239619822, -0.00396158826, 0.0007828629, -0.1841715  , -0.160037756, 0.4225428   , -0.004210766, 0.0394379832, 2.385073    , 3.46        , 3           , 12          , 0.0565928929, 0
0.3558941   , 0.0431104   , -9.800635   , -0.00298614381, 0.00110276265, 0.0007880399, -0.1841715  , -0.160037756, 0.4225428   , -0.00424031634, 0.0394490436, 2.38508058  , 3.47        , 3           , 50          , 0           , 0
0.359257579 , 0.0508183576, -9.823177   , -0.00101366453, 0.001960826 , 0.000233485262, -0.184508562, -0.160037756, 0.422205746 , -0.00425036531, 0.03946867  , 2.385083    , 3.48        , 3           , 11          , 0.006838959 , 0.006838963
0.376865953 , 0.05324841  , -9.802241   , 0.00180560607, 0.00282461732, -0.00116473087, -0.184575975, -0.159700692, 0.4225428   , -0.004232775, 0.0394968577, 2.385071    , 3.49        , 3           , 12          , 0.0565928929, 0
0.389779776 , 0.0395279676, -9.792707   , 0.002080675 , -0.000325316272, 0.00080835697, -0.184508562, -0.160037756, 0.422677636 , -0.00426703366, 0.0393668339, 2.38507676  , 3.5         , 3           , 50          , 0           , 0
0.3916539   , 0.04402124  , -9.793579   , -0.000190292427, 0.001630351 , -0.00230705319, -0.184508562, -0.160037756, 0.422677636 , -0.00426984858, 0.0393830426, 2.38505387  , 3.51        , 3           , 11          , 0.006752766 , 0.00675276853
0.394396365 , 0.0511518344, -9.776805   , 0.0006582932, 0.001636087 , -4.28025669E-05, -0.184373736, -0.159835517, 0.422273159 , -0.004263289, 0.0393994078, 2.385053    , 3.52        , 3           , 12          , 0.0576232858, 0
0.384769469 , 0.04491861  , -9.768316   , -0.00159045891, -0.0006317157, -0.00090442173, -0.184373736, -0.15990293 , 0.422610223 , -0.004279548, 0.03939305  , 2.38504434  , 3.53        , 3           , 50          , 0           , 0
0.402630121 , 0.05067757  , -9.798439   , -0.000190544408, 0.00191192143, -0.0003288567, -0.184238911, -0.159633279, 0.4225428   , -0.0042815865, 0.0394121557, 2.38504052  , 3.54        , 3           , 11          , 0.006752766 , 0.00675276853
0.3780744   , 0.04463035  , -9.793229   , 8.163502E-05, 0.00388478441, -0.00117211475, -0.184373736, -0.159835517, 0.422340572 , -0.00428124 , 0.03945095  , 2.385029    , 3.55        , 3           , 12          , 0.0576232858, 0
0.35340178  , 0.0317931958, -9.781267   , -0.00301588024, 0.00217438838, 0.00022348261, -0.184373736, -0.159835517, 0.422340572 , -0.004311314, 0.0394727029, 2.385031    , 3.56        , 3           , 50          , 0           , 0
0.353759021 , 0.0209980421, -9.792608   , -0.00159800693, 0.00105767872, 0.0005108691, -0.1847108  , -0.15990293 , 0.422407985 , -0.004327094, 0.0394833051, 2.38503623  , 3.57        , 3           , 11          , 0.006752766 , 0.00675276853
0.363111436 , 0.046574086 , -9.782488   , -0.000463213219, -6.09440031E-05, -0.000333211152, -0.184373736, -0.160105169, 0.4225428   , -0.00433185743, 0.03948268  , 2.385033    , 3.58        , 3           , 12          , 0.0576232858, 0
0.3785594   , 0.05045372  , -9.782353   , -0.00215268764, -0.00119866664, -0.001190461, -0.184575975, -0.159835517, 0.422407985 , -0.004353854, 0.0394706465, 2.385021    , 3.59        , 3           , 50          , 0           , 0
0.356692344 , 0.03408581  , -9.803379   , -0.000749561237, 0.000446312217, -0.000616496662, -0.184575975, -0.159835517, 0.422407985 , -0.004363893, 0.0393461436, 2.38501477  , 3.6         , 3           , 11          , 0.00666958932, 0.00666959025
0.359789938 , 0.03265131  , -9.790254   , -0.00244691013, 0.0009979826, -0.0006235304, -0.184575975, -0.159970343, 0.4224754   , -0.004388609, 0.0393560976, 2.385008    , 3.61        , 3           , 12          , 0.0586613   , 0
0.3914124   , 0.0299886838, -9.779628   , -0.0015880625, -0.00153037789, -0.00231871 , -0.184238911, -0.15990293 , 0.4224754   , -0.00440539932, 0.0393406935, 2.38498521  , 3.62        , 3           , 50          , 0           , 0
0.386788547 , 0.0237151384, -9.7765255  , -0.000185938465, 0.000731698 , -0.000330891373, -0.184306324, -0.160172582, 0.422677636 , -0.00440739 , 0.0393479951, 2.38498187  , 3.63        , 3           , 11          , 0.00666958932, 0.00666959025
0.392352849 , 0.03179173  , -9.782326   , 0.001218321 , 0.00243064063, 0.0005259092, -0.184306324, -0.160172582, 0.422677636 , -0.004395005, 0.03937232  , 2.384987    , 3.64        , 3           , 12          , 0.0586613   , 0
0.388329923 , 0.03679165  , -9.779171   , -0.00018930473, 0.00157639722, 0.00108309765, -0.184104085, -0.160105169, 0.4225428   , -0.00439647445, 0.03938814  , 2.38499761  , 3.65        , 3           , 50          , 0           , 0
0.381855    , 0.0621237643, -9.775499   , 0.001215785 , 0.0027122004, -0.0014514192, -0.184508562, -0.159970343, 0.4224754   , -0.004384895, 0.0394151956, 2.3849833   , 3.66        , 3           , 11          , 0.00666958932, 0.00666959025
0.3864443   , 0.05944231  , -9.798979   , -0.00159430574, 0.000159022689, 0.00135688088, -0.184441149, -0.159835517, 0.422610223 , -0.004400303, 0.0394168459, 2.38499665  , 3.67        , 3           , 12          , 0.0586613   , 0
0.376846969 , 0.045198746 , -9.823518   , 0.0040361085, 0.003857568 , 0.00138886063, -0.184441149, -0.159835517, 0.422610223 , -0.004359401, 0.03945548  , 2.38501     , 3.68        , 3           , 50          , 0           , 0
0.364144266 , 0.04979106  , -9.803257   , 0.00206125667, 0.00328106526, 0.000248624245, -0.184441149, -0.159970343, 0.422407985 , -0.00433869427, 0.0394883   , 2.38501287  , 3.69        , 3           , 11          , 0.00666958932, 0.00666959025
0.375944972 , 0.05771008  , -9.784151   , 0.00207274128, -0.000699334953, -0.000323041517, -0.184508562, -0.160105169, 0.422610223 , -0.00433705375, 0.03938667  , 2.38500857  , 3.7         , 3           , 12          , 0.05970629  , 0
0.3972305   , 0.048537    , -9.813856   , -0.0007546417, -0.000155306072, -0.000900418, -0.184373736, -0.15990293 , 0.4225428   , -0.004344955, 0.03938508  , 2.38499951  , 3.71        , 3           , 50          , 0           , 0
0.381172121 , 0.0382860973, -9.795942   , 0.00206577126, 0.0007084904, -0.000320871855, -0.184373736, -0.15990293 , 0.4225428   , -0.004324426, 0.0393921621, 2.38499665  , 3.72        , 3           , 11          , 0.00658816  , 0.00658816146
0.368281364 , 0.0279964712, -9.777553   , 0.00263841054, -0.0006955112, 0.00109227956, -0.184373736, -0.159970343, 0.422407985 , -0.00429761037, 0.03938525  , 2.38500714  , 3.73        , 3           , 12          , 0.05970629  , 0
0.412719041 , 0.0293134041, -9.787151   , -0.000761611736, 0.0012525192, -0.0008982483, -0.184441149, -0.159970343, 0.422745049 , -0.004305583, 0.03939774  , 2.38499856  , 3.74        , 3           , 50          , 0           , 0
0.414252847 , 0.0472936071, -9.772149   , -0.002178091, 0.00208766386, -0.00118606864, -0.184441149, -0.15990293 , 0.4224754   , -0.00432783738, 0.03941856  , 2.38498616  , 3.75        , 3           , 11          , 0.00658816  , 0.00658816146
0.39428097  , 0.0412385948, -9.780464   , 0.00120996335, 0.00239215023, -0.0006047565, -0.184238911, -0.160037756, 0.422205746 , -0.00431598 , 0.0394424573, 2.38498044  , 3.76        , 3           , 12          , 0.05970629  , 0
0.389558464 , 0.0250654276, -9.785086   , 0.002356562 , -0.0009789902, -0.000322158536, -0.184238911, -0.160037756, 0.422205746 , -0.00429253932, 0.039432656 , 2.38497663  , 3.77        , 3           , 50          , 0           , 0
0.382538378 , 0.0414009877, -9.787784   , -0.000184790289, -0.0009961776, 0.00051360135, -0.184373736, -0.15990293 , 0.422205746 , -0.00429418171, 0.0394227132, 2.38498235  , 3.78        , 3           , 11          , 0.00658816  , 0.00658816146
0.3808803   , 0.05181234  , -9.79182148 , 0.0006620007, -0.0009904499, -0.000330060138, -0.184104085, -0.15990293 , 0.422610223 , -0.00428769039, 0.0394128   , 2.384979    , 3.79        , 3           , 12          , 0.05970629  , 0
0.379897952 , 0.0437264368, -9.799093   , 0.00149672735, 0.00211802125, -3.86814936E-05, -0.184238911, -0.15990293 , 0.422340572 , -0.004266122, 0.03944794  , 2.38497853  , 3.8         , 3           , 50          , 0           , 0
0.390187979 , 0.0372547954, -9.789099   , 0.002058793 , 0.00268497155, -3.517975E-05, -0.184238911, -0.15990293 , 0.422340572 , -0.00424555363, 0.0394747928, 2.38497853  , 3.81        , 3           , 11          , 0.006509327 , 0.006509328
0.382518977 , 0.037814457 , -9.794579   , 0.006280766 , 0.00552927051, -0.0008586986, -0.1841715  , -0.160037756, 0.422273159 , -0.004183096, 0.03953005  , 2.384969    , 3.82        , 3           , 12          , 0.06075766  , 0
0.3761633   , 0.04055345  , -9.78196049 , 0.0017848938, 0.0009936718, 0.000243437156, -0.184441149, -0.1597681  , 0.4224754   , -0.00416515 , 0.0395399928, 2.38497186  , 3.83        , 3           , 50          , 0           , 0
0.372921377 , 0.0333903842, -9.787439   , -0.00299503724, -0.00354384328, -0.00148111838, -0.184306324, -0.1597681  , 0.422340572 , -0.00419568038, 0.0395044945, 2.384957    , 3.84        , 3           , 11          , 0.006509327 , 0.006509328
0.406645954 , 0.0461182073, -9.798428   , 0.004053161 , -0.0006804366, 0.00109898148, -0.184306324, -0.1597681  , 0.422340572 , -0.004154716, 0.0394977368, 2.384968    , 3.85        , 3           , 12          , 0.06075766  , 0
0.3831737   , 0.01617579  , -9.802799   , 0.0026312694, 0.001280969 , 0.00109543442, -0.184441149, -0.1597681  , 0.422407985 , -0.00412797 , 0.0395105928, 2.384979    , 3.86        , 3           , 50          , 0           , 0
0.3921847   , 0.0512207337, -9.789477   , -0.0035853982, 0.00180207752, 0.000219717229, -0.184575975, -0.1597681  , 0.4225428   , -0.004163739, 0.03952862  , 2.38498139  , 3.87        , 3           , 11          , 0.006509327 , 0.006509328
0.3920541   , 0.04352698  , -9.782279   , -0.00187582953, -0.00128368 , -0.000342229148, -0.1841715  , -0.160105169, 0.422340572 , -0.00418262975, 0.0395157747, 2.38497758  , 3.88        , 3           , 12          , 0.06075766  , 0
0.397347331 , 0.0277273227, -9.798574   , -0.00384839787, -0.00186017214, 0.00247305888, -0.1841715  , -0.160105169, 0.422340572 , -0.00422013132, 0.0394972675, 2.38500237  , 3.89        , 3           , 50          , 0           , 0
0.390310735 , 0.0168962739, -9.773814   , -0.00215189345, 0.000131055684, -0.0006233591, -0.184238911, -0.16037482 , 0.422340572 , -0.004206801, 0.0395214781, 2.38499761  , 3.9         , 3           , 11          , 0.006431762 , 0.006431762
0.398840636 , 0.04388932  , -9.779513   , 0.0006869673, -0.00266549224, 0.000515620632, -0.184373736, -0.160037756, 0.422610223 , -0.00419972371, 0.039494846 , 2.38500285  , 3.91        , 3           , 12          , 0.0618148558, 0
0.382518083 , 0.0391527936, -9.790052   , -0.000458726485, 0.000424080616, -0.000615023542, -0.184373736, -0.15990293 , 0.422407985 , -0.00420455635, 0.039499063 , 2.38499665  , 3.92        , 3           , 50          , 0           , 0
0.371697336 , 0.0411031172, -9.795551   , 0.00152514258, -0.0006888036, 0.00165275915, -0.184373736, -0.15990293 , 0.422407985 , -0.00418865029, 0.03949224  , 2.38501334  , 3.93        , 3           , 11          , 0.006431762 , 0.006431762
0.372138619 , 0.0330541842, -9.818633   , -0.0015802331, -0.00127295055, -0.0009054324, -0.184238911, -0.160172582, 0.422340572 , -0.00420480734, 0.0394794755, 2.38500428  , 3.94        , 3           , 12          , 0.0618148558, 0
0.382874638 , 0.0350523479, -9.779673   , -0.000173674809, -0.000137140334, -0.00089711207, -0.184238911, -0.159700692, 0.422407985 , -0.00420689769, 0.0394780636, 2.3849957   , 3.95        , 3           , 50          , 0           , 0
0.378357738 , 0.0373461358, -9.775177   , -0.00215049926, -0.0001505093, -0.00062379305, -0.184441149, -0.160105169, 0.4225428   , -0.004228648, 0.0394765325, 2.384989    , 3.96        , 3           , 11          , 0.006431762 , 0.006431762
0.3582744   , 0.0543369055, -9.792888   , -0.0038438295, -0.000443535071, -0.000914666045, -0.184441149, -0.160105169, 0.4225428   , -0.004267447, 0.0394720621, 2.38498     , 3.97        , 3           , 12          , 0.0618148558, 0
0.37495482  , 0.04917151  , -9.790974   , 0.00205556117, 0.0060725743, -2.94177426E-05, -0.184508562, -0.159970343, 0.422138333 , -0.004246916, 0.0395327844, 2.38497949  , 3.98        , 3           , 50          , 0           , 0
0.36528033  , 0.0339727253, -9.799698   , -0.00186848757, 0.000132970366, 0.00107318256, -0.184441149, -0.1597681  , 0.4225428   , -0.00426517846, 0.0395341553, 2.38499     , 3.99        , 3           , 11          , 0.006431762 , 0.006431762
0.369339943 , 0.0708853   , -9.787763   , 0.002931875 , 0.00153427781, -0.0008799096, -0.184238911, -0.15990293 , 0.422677636 , -0.00421691 , 0.039445512 , 2.38498235  , 4           , 3           , 12          , 0.06287735  , 0
0.4158353   , 0.0604033843, -9.784739   , 0.0009694796, -0.00129473954, 0.000236682245, -0.184238911, -0.159835517, 0.422138333 , -0.00420712074, 0.0394325741, 2.38498425  , 4.01        , 3           , 50          , 0           , 0
0.389797449 , 0.0382032469, -9.801301   , 0.000392732472, 0.00123552931, 0.00136810378, -0.184238911, -0.159835517, 0.422138333 , -0.00420265645, 0.03944499  , 2.384998    , 4.02        , 3           , 11          , 0.006357618 , 0.00635761768
0.38564986  , 0.03596055  , -9.790946   , -0.000170801475, 0.000668572262, -0.00117823528, -0.184306324, -0.1597681  , 0.422340572 , -0.004204829, 0.0394516252, 2.38498616  , 4.03        , 3           , 12          , 0.06287735  , 0
0.384249151 , 0.03415678  , -9.786445   , -0.00157399336, -0.00131193711, -0.00260054483, -0.184306324, -0.160037756, 0.422610223 , -0.00422159256, 0.039438393 , 2.38496041  , 4.04        , 3           , 50          , 0           , 0
0.359762371 , 0.0254873186, -9.806555   , 0.00124649354, -0.000166568439, 0.0005222724, -0.184441149, -0.160172582, 0.4224754   , -0.004208922, 0.03943675  , 2.38496566  , 4.05        , 3           , 11          , 0.006357618 , 0.00635761768
0.3817513   , 0.05043464  , -9.787753   , 0.0002623076, -0.001158734, -0.000472736749, -0.184441149, -0.160172582, 0.4224754   , -0.00420648465, 0.0394251421, 2.384961    , 4.06        , 3           , 12          , 0.06287735  , 0
0.386366546 , 0.0250844955, -9.779687   , -0.00129095826, -0.00116923836, -0.000338711136, -0.1841715  , -0.159970343, 0.422407985 , -0.004219527, 0.03941344  , 2.38495755  , 4.07        , 3           , 50          , 0           , 0
0.373310775 , 0.02574574  , -9.796507   , -0.00129173684, -0.00102845614, -0.000479762821, -0.184441149, -0.159970343, 0.422812462 , -0.00423263153, 0.0394031368, 2.38495278  , 4.08        , 3           , 11          , 0.006357618 , 0.00635761768
0.3770751   , 0.04144059  , -9.780594   , 0.0006867264, -0.001296651, -0.000329709525, -0.184306324, -0.160037756, 0.4225428   , -0.00422589155, 0.0393901542, 2.38495     , 4.09        , 3           , 12          , 0.06287735  , 0
0.366656721 , 0.0433447771, -9.773886   , -0.0002829438, -0.00245161075, 8.815204E-05, -0.184306324, -0.160037756, 0.4225428   , -0.004193029, 0.0393054076, 2.38495183  , 4.1         , 3           , 50          , 0           , 0
0.382968575 , 0.0436091051, -9.775117   , -0.0026870938, -0.00190471881, -0.00119359267, -0.184441149, -0.15990293 , 0.422340572 , -0.00422036368, 0.039286308 , 2.38494039  , 4.11        , 3           , 11          , 0.00628431933, 0.00628432
0.399552763 , 0.0267606433, -9.787263   , -0.000430756336, -0.00118552439, -0.000475628825, -0.184441149, -0.159835517, 0.422610223 , -0.00422485732, 0.039274428 , 2.38493562  , 4.12        , 3           , 12          , 0.06394465  , 0
0.3992136   , 0.0317679346, -9.798996   , 0.0002709211, -0.000195269487, 0.000376794633, -0.184441149, -0.1597681  , 0.422407985 , -0.004221998, 0.0392724946, 2.38493943  , 4.13        , 3           , 50          , 0           , 0
0.381102681 , 0.03510536  , -9.789177   , -0.00100126769, -6.308451E-05, -0.0006177956, -0.184441149, -0.1597681  , 0.422407985 , -0.004232255, 0.03927184  , 2.38493276  , 4.14        , 3           , 11          , 0.00628431933, 0.00628432
0.371685445 , 0.04778875  , -9.771117   , 0.000413698785, -0.000757450471, -0.00174244563, -0.184306324, -0.159970343, 0.422407985 , -0.0042288024, 0.03926419  , 2.38491559  , 4.15        , 3           , 12          , 0.06394465  , 0
0.375467181 , 0.0541243181, -9.789593   , 0.0001268008, 0.000226119286, -0.00103590009, -0.184508562, -0.159835517, 0.422407985 , -0.00422793953, 0.0392664149, 2.384905    , 4.16        , 3           , 50          , 0           , 0
0.383844554 , 0.03375478  , -9.799558   , -0.00142937922, 0.0009195303, 8.809135E-05, -0.184238911, -0.1603074  , 0.422340572 , -0.0042422004, 0.0392756127, 2.384906    , 4.17        , 3           , 11          , 0.00628431933, 0.00628432
0.385743916 , 0.0396075547, -9.802231   , -0.00171172433, 0.0009176206, 0.000228043165, -0.184238911, -0.1603074  , 0.422340572 , -0.004259231, 0.0392848   , 2.384908    , 4.18        , 3           , 12          , 0.06394465  , 0
0.382820338 , 0.0296521336, -9.783762   , -0.00128878118, 0.00106126815, 0.000230235542, -0.184238911, -0.159835517, 0.422138333 , -0.00427203 , 0.0392954238, 2.38491082  , 4.19        , 3           , 50          , 0           , 0
0.364657551 , 0.0284841   , -9.77577    , -0.0009883718, -7.187255E-05, -0.000193508778, -0.184441149, -0.160037756, 0.422407985 , -0.00424641743, 0.03927004  , 2.38490987  , 4.2         , 3           , 11          , 0.00621293765, 0.00621293765
0.369081825 , 0.0194200147, -9.77939    , 0.000288784824, -0.00147110655, -0.00146117073, -0.184441149, -0.15990293 , 0.422407985 , -0.00424410123, 0.03925527  , 2.38489556  , 4.21        , 3           , 12          , 0.0650163144, 0
0.382806182 , 0.0256235246, -9.79327    , -0.000417363859, -0.00147588213, -0.0016057319, -0.184441149, -0.15990293 , 0.422407985 , -0.004248904, 0.0392404459, 2.38487935  , 4.22        , 3           , 50          , 0           , 0
0.372833848 , 0.02082165  , -9.806475   , -0.0001379326, -0.000770056969, -0.0007557177, -0.184441149, -0.159835517, 0.422273159 , -0.00425058 , 0.0392327122, 2.38487172  , 4.23        , 3           , 11          , 0.00621293765, 0.00621293765
0.358422935 , 0.0335529335, -9.785288   , 0.00182929728, 0.00121426838, -0.000743461656, -0.184508562, -0.15990293 , 0.422407985 , -0.00423258264, 0.0392448269, 2.38486457  , 4.24        , 3           , 12          , 0.0650163144, 0
0.400090039 , 0.0326263458, -9.78904152 , 0.00084437  , 0.000503671065, -0.000607886934, -0.184575975, -0.159970343, 0.422407985 , -0.004224379, 0.0392498374, 2.38485837  , 4.25        , 3           , 50          , 0           , 0
0.4013986   , 0.05838424  , -9.804745   , -0.000708569831, 0.0004931683, 9.121352E-05, -0.1841715  , -0.160037756, 0.42207092  , -0.004231431, 0.0392547734, 2.38485932  , 4.26        , 3           , 11          , 0.00621293765, 0.00621293765
0.38208     , 0.0414017737, -9.786431   , -0.00113909855, 0.00189812912, 0.000232676539, -0.1841715  , -0.160037756, 0.42207092  , -0.004242733, 0.0392737649, 2.38486123  , 4.27        , 3           , 12          , 0.0650163144, 0
0.393736869 , 0.028672155 , -9.798598   , -0.00183675718, 6.317823E-05, -0.0009035861, -0.184373736, -0.160037756, 0.422205746 , -0.00426145736, 0.0392743535, 2.38485265  , 4.28        , 3           , 50          , 0           , 0
0.4132408   , 0.0342737734, -9.788031   , -0.00028332806, 7.368344E-05, -0.000755074434, -0.184575975, -0.15990293 , 0.4224754   , -0.004264586, 0.03927506  , 2.384845    , 4.29        , 3           , 11          , 0.00621293765, 0.00621293765
0.3869419   , 0.03455184  , -9.779191   , 0.00156599039, 0.00164692325, -3.6834128E-05, -0.1841715  , -0.15990293 , 0.422407985 , -0.00418899534, 0.0393267   , 2.384847    , 4.3         , 3           , 12          , 0.06609188  , 0
0.3726006   , 0.0455541052, -9.780611   , 0.000159432107, 0.00051111303, -4.515454E-05, -0.1841715  , -0.15990293 , 0.422407985 , -0.004187421, 0.0393318124, 2.384847    , 4.31        , 3           , 50          , 0           , 0
0.384953678 , 0.0219317973, -9.77654648 , -0.00026503118, 0.000789815967, 0.0009421852, -0.184373736, -0.160037756, 0.422340572 , -0.004189703, 0.0393397547, 2.38485646  , 4.32        , 3           , 11          , 0.00614357274, 0.00614357367
0.389176756 , 0.03807249  , -9.760628   , 0.0002981022, 0.00107519934, 0.000380178069, -0.184306324, -0.159835517, 0.4224754   , -0.004186574, 0.03935052  , 2.38486028  , 4.33        , 3           , 12          , 0.06609188  , 0
0.38987565  , 0.0507644229, -9.780005   , -0.000129141816, 0.00163546088, -0.00103361672, -0.184306324, -0.15990293 , 0.4224754   , -0.00418827729, 0.0393668339, 2.38484979  , 4.34        , 3           , 50          , 0           , 0
0.390806049 , 0.048988495 , -9.791757   , 0.000153529734, 0.001637372 , -0.0006084935, -0.184306324, -0.15990293 , 0.4224754   , -0.004186985, 0.0393831879, 2.384843    , 4.35        , 3           , 11          , 0.00614357274, 0.00614357367
0.386571974 , 0.03819509  , -9.787766   , 0.00284953834, -0.000878567167, 0.0001064556, -0.184441149, -0.160105169, 0.422273159 , -0.00415844657, 0.03937441  , 2.384844    , 4.36        , 3           , 12          , 0.06609188  , 0
0.3937904   , 0.0456768051, -9.756945   , 0.0028516294, -0.0013009148, 0.000105804684, -0.184238911, -0.159835517, 0.422205746 , -0.0041298843, 0.0393613949, 2.3848455   , 4.37        , 3           , 50          , 0           , 0
0.391368121 , 0.06067682  , -9.780857   , -0.000969126, 0.000221906928, -0.0004746622, -0.184104085, -0.160105169, 0.422340572 , -0.00413976423, 0.0393635966, 2.38484073  , 4.38        , 3           , 11          , 0.00614357274, 0.00614357367
0.383390635 , 0.0373300053, -9.787794   , -0.0009722847, 0.000925821252, 9.149749E-05, -0.184104085, -0.160105169, 0.422340572 , -0.004149453, 0.0393728577, 2.3848412   , 4.39        , 3           , 12          , 0.06609188  , 0
0.3815458   , 0.0346458629, -9.788271   , 0.00171230477, -0.000455904956, 0.000242878843, -0.184373736, -0.160037756, 0.422273159 , -0.0041485345, 0.0393917523, 2.384843    , 4.4         , 3           , 50          , 0           , 0
0.357458472 , 0.0570982881, -9.80599    , 0.00199202518, 0.000109135544, 0.000386332453, -0.184306324, -0.159835517, 0.4225428   , -0.00412846 , 0.03939286  , 2.384847    , 4.41        , 3           , 11          , 0.006076039 , 0.00607603975
0.39328444  , 0.0291240811, -9.797244   , 7.904146E-06, 0.00150359026, 9.67460437E-05, -0.1841715  , -0.159835517, 0.4225428   , -0.004128346, 0.0394078977, 2.38484788  , 4.42        , 3           , 12          , 0.06717096  , 0
0.3884096   , 0.038641613 , -9.792723   , -0.000409871, 0.000233680374, -0.000613525743, -0.1841715  , -0.159835517, 0.4225428   , -0.00413268665, 0.0394102   , 2.38484168  , 4.43        , 3           , 50          , 0           , 0
0.3845095   , 0.053560812 , -9.787718   , 0.00142364937, 0.000668442 , -0.0008868522, -0.184373736, -0.15990293 , 0.422205746 , -0.00411880063, 0.0394168533, 2.38483262  , 4.44        , 3           , 11          , 0.006076039 , 0.00607603975
0.400752485 , 0.0515376329, -9.779468   , 0.000295462174, 0.000238451874, -0.00188165216, -0.184238911, -0.159633279, 0.4225428   , -0.00411658967, 0.03941916  , 2.384814    , 4.45        , 3           , 12          , 0.06717096  , 0
0.375740021 , 0.04013635  , -9.790553   , -0.0005462868, -0.0007527526, -0.000756971829, -0.184373736, -0.1597681  , 0.4224754   , -0.0041223513, 0.0394116044, 2.38480639  , 4.46        , 3           , 50          , 0           , 0
0.374334633 , 0.0294017661, -9.813659   , -0.00124878739, -0.00146143977, -0.0006200803, -0.184373736, -0.1597681  , 0.4224754   , -0.00413508061, 0.0393969677, 2.3848002   , 4.47        , 3           , 11          , 0.006076039 , 0.00607603975
0.393180221 , 0.0218981057, -9.795015   , -0.000543254, -0.00131588138, -0.0003340334, -0.184575975, -0.160037756, 0.422273159 , -0.004140643, 0.0393837951, 2.38479733  , 4.48        , 3           , 12          , 0.06717096  , 0
0.385661721 , 0.03686285  , -9.790942   , 0.000156250913, 9.672063E-05, 0.000377772376, -0.184508562, -0.1597681  , 0.422407985 , -0.004138932, 0.0393847749, 2.38480115  , 4.49        , 3           , 50          , 0           , 0
0.385941684 , 0.0224343073, -9.795069   , -0.00124737713, -0.0003369464, -0.000618024555, -0.184441149, -0.15990293 , 0.422610223 , -0.00413051853, 0.039376054 , 2.384796    , 4.5         , 3           , 11          , 0.00601053424, 0.00601053471
0.382559478 , 0.0396326669, -9.798638   , -0.000961917569, -0.0008981655, -0.000193769418, -0.184441149, -0.160105169, 0.4225428   , -0.004140212, 0.03936707  , 2.384794    , 4.51        , 3           , 12          , 0.06825318  , 0
0.376385927 , 0.05680246  , -9.784152   , 3.6534675E-05, -0.00272164913, 0.00136197521, -0.184441149, -0.160105169, 0.4225428   , -0.00413930556, 0.03933991  , 2.38480783  , 4.52        , 3           , 50          , 0           , 0
0.405190885 , 0.046502158 , -9.773579   , -0.0005238106, -0.00357016269, 0.00192311441, -0.184441149, -0.15990293 , 0.422407985 , -0.00414377823, 0.03930428  , 2.384827    , 4.53        , 3           , 11          , 0.00601053424, 0.00601053471
0.388881862 , 0.0449010134, -9.777325   , -0.001095753, -0.002306944, 0.0005097462, -0.184373736, -0.159835517, 0.4224754   , -0.00415453175, 0.0392812341, 2.38483262  , 4.54        , 3           , 12          , 0.06825318  , 0
0.388579637 , 0.0544016659, -9.783616   , -0.0006767028, -0.00145938562, -0.000193320331, -0.184373736, -0.15990293 , 0.422340572 , -0.004161372, 0.0392666273, 2.38483071  , 4.55        , 3           , 50          , 0           , 0
0.394872159 , 0.0520578846, -9.7795105  , -0.000120213146, 0.000233824729, -0.000188082879, -0.184373736, -0.15990293 , 0.422340572 , -0.004162648, 0.03926896  , 2.38482881  , 4.56        , 3           , 11          , 0.00601053424, 0.00601053471
0.4019353   , 0.0384352766, -9.778608   , 0.00157635752, -0.000177063339, -0.0003221008, -0.184441149, -0.15990293 , 0.4225428   , -0.00414701 , 0.03926718  , 2.38482547  , 4.57        , 3           , 12          , 0.06825318  , 0
0.395540565 , 0.0286448412, -9.796777   , 0.00157324329, 0.0003860653, -0.000886308, -0.184508562, -0.1597681  , 0.422610223 , -0.00413162727, 0.039271    , 2.38481641  , 4.58        , 3           , 50          , 0           , 0
0.383771    , 0.0301244035, -9.793244   , 0.0002988372, 0.00108138309, -0.0008911493, -0.1841715  , -0.15990293 , 0.422407985 , -0.004128991, 0.03928178  , 2.38480783  , 4.59        , 3           , 11          , 0.00601053424, 0.00601053471
0.404845268 , 0.0425771251, -9.812468   , 0.000166352285, -0.000171218941, -0.000611067866, -0.1841715  , -0.15990293 , 0.422407985 , -0.004120488, 0.0393276   , 2.38480163  , 4.6         , 3           , 12          , 0.06933817  , 0
0.394871175 , 0.07563948  , -9.814215   , 0.0017164225, 0.000402413716, -0.00145056937, -0.184373736, -0.160037756, 0.422340572 , -0.00410389574, 0.0393315665, 2.38478732  , 4.61        , 3           , 50          , 0           , 0
0.3823098   , 0.05721021  , -9.791788   , 0.00157861249, -0.000302454457, -0.00159358152, -0.184373736, -0.159970343, 0.4224754   , -0.004088735, 0.03932848  , 2.38477159  , 4.62        , 3           , 11          , 0.005946664 , 0.00594666461
0.378854245 , 0.0333590843, -9.798693   , 0.000165655321, -3.04364676E-05, -0.0006108511, -0.184508562, -0.15990293 , 0.422340572 , -0.0040873196, 0.03932815  , 2.384765    , 4.63        , 3           , 12          , 0.06933817  , 0
0.39680928  , 0.0258781463, -9.783671   , 0.00114873645, 0.00110250956, -0.000321968575, -0.184508562, -0.15990293 , 0.422340572 , -0.00407596258, 0.03933917  , 2.384762    , 4.64        , 3           , 50          , 0           , 0
0.3752799   , 0.0428137928, -9.780149   , 0.0017047365, 0.00279571768, -0.00116434344, -0.184441149, -0.160037756, 0.422273159 , -0.004059377, 0.039367076 , 2.3847506   , 4.65        , 3           , 11          , 0.005946664 , 0.00594666461
0.377400041 , 0.05732613  , -9.809      , 0.001148818 , 0.00110251  , -0.000180699775, -0.184508562, -0.160172582, 0.422407985 , -0.0040479633, 0.0393781   , 2.3847487   , 4.66        , 3           , 12          , 0.06933817  , 0
0.4044901   , 0.05114223  , -9.808819   , 0.000599090767, -0.0018577408, 0.000659722369, -0.184238911, -0.160172582, 0.4224754   , -0.004041709, 0.0393595472, 2.38475537  , 4.67        , 3           , 50          , 0           , 0
0.389740229 , 0.0390496068, -9.784575   , 0.000175042645, -0.00186060776, -4.85967757E-05, -0.184238911, -0.160172582, 0.4224754   , -0.004039977, 0.03934094  , 2.38475442  , 4.68        , 3           , 11          , 0.005946664 , 0.00594666461
0.374264359 , 0.03782548  , -9.769331   , -0.000954049232, -0.00200903066, -0.0001953501, -0.184238911, -0.159970343, 0.422205746 , -0.00404959265, 0.0393208452, 2.38475251  , 4.69        , 3           , 12          , 0.06933817  , 0
0.385276258 , 0.04227896  , -9.790019   , -0.00111645123, 0.0002472063, 0.000230863821, -0.184238911, -0.159970343, 0.422340572 , -0.004093217, 0.0393380672, 2.38475347  , 4.7         , 3           , 50          , 0           , 0
0.408690184 , 0.0338621736, -9.783999   , -0.00295608165, 0.00107948831, 0.000788680336, -0.184104085, -0.160037756, 0.4225428   , -0.00412247144, 0.0393489   , 2.384761    , 4.71        , 3           , 11          , 0.005884636 , 0.00588463526
0.3924158   , 0.03630627  , -9.78321    , -0.003374309, -4.963788E-05, 0.0005024318, -0.184238911, -0.15990293 , 0.422205746 , -0.00415601628, 0.03934842  , 2.38476682  , 4.72        , 3           , 12          , 0.0704256147, 0
0.3833655   , 0.0310607553, -9.801832   , -0.00139867049, 0.0001045113, -0.000618282531, -0.184238911, -0.15990293 , 0.422205746 , -0.004170248, 0.0393494442, 2.38476014  , 4.73        , 3           , 50          , 0           , 0
0.391101837 , 0.0332337   , -9.804023   , -0.00139116647, -0.00144409738, -0.00090320647, -0.184373736, -0.159970343, 0.422407985 , -0.00418451242, 0.039334964 , 2.38475156  , 4.74        , 3           , 11          , 0.005884636 , 0.00588463526
0.39686358  , 0.03127835  , -9.77958    , -0.00138456724, -0.00271113869, -0.000340084254, -0.184238911, -0.159970343, 0.4224754   , -0.004198487, 0.0393078364, 2.38474774  , 4.75        , 3           , 12          , 0.0704256147, 0
0.3873588   , 0.0313930064, -9.780557   , 0.000168409679, -0.00255984976, 0.000232450708, -0.1841715  , -0.160105169, 0.422205746 , -0.004196708, 0.0392822623, 2.3847506   , 4.76        , 3           , 50          , 0           , 0
0.3724379   , 0.0271219164, -9.800124   , 0.00242450251, -0.00184065651, 0.0005266083, -0.1841715  , -0.160105169, 0.422205746 , -0.00417225156, 0.0392638668, 2.38475537  , 4.77        , 3           , 11          , 0.005884636 , 0.00588463526
0.362360716 , 0.02178876  , -9.789375   , 0.00114636694, -0.000441427255, 9.904558E-05, -0.184913039, -0.159970343, 0.422407985 , -0.00416074833, 0.0392594524, 2.38475633  , 4.78        , 3           , 12          , 0.0704256147, 0
0.368082076 , 0.0456148274, -9.782905   , -0.00139998272, 0.000386076776, -0.00047657988, -0.184441149, -0.15990293 , 0.4225428   , -0.004174937, 0.0392632969, 2.38475156  , 4.79        , 3           , 50          , 0           , 0
0.386704236 , 0.0508001149, -9.779577   , -0.00195143244, 0.0006549635, -0.00104325416, -0.184508562, -0.160105169, 0.422273159 , -0.00414589373, 0.0392412022, 2.384744    , 4.8         , 3           , 11          , 0.005824427 , 0.005824425
0.394805074 , 0.0444155261, -9.787678   , -0.000401243684, 0.0013693826, -0.0004698513, -0.184508562, -0.160105169, 0.422273159 , -0.004150094, 0.039254874 , 2.38473868  , 4.81        , 3           , 12          , 0.0715151653, 0
0.388021559 , 0.0507509038, -9.769624   , 3.100532E-05, -0.0003171417, -4.66732236E-05, -0.184373736, -0.15990293 , 0.422205746 , -0.004149801, 0.0392517038, 2.38473821  , 4.82        , 3           , 50          , 0           , 0
0.394980073 , 0.0240993351, -9.78504848 , -0.000382135477, -0.00257253041, -0.00118227 , -0.184508562, -0.159970343, 0.422340572 , -0.00415408146, 0.03922593  , 2.38472676  , 4.83        , 3           , 11          , 0.005824427 , 0.005824425
0.390125126 , 0.0354184471, -9.779614   , 3.13388227E-05, -0.000598712, -0.00188360072, -0.184306324, -0.159970343, 0.422340572 , -0.004154507, 0.03921986  , 2.38470769  , 4.84        , 3           , 12          , 0.0715151653, 0
0.378504127 , 0.0437136665, -9.790518   , 0.000311548676, -3.36691774E-05, -0.000892534736, -0.184306324, -0.159970343, 0.422340572 , -0.00415174244, 0.0392194875, 2.384699    , 4.85        , 3           , 50          , 0           , 0
0.3906075   , 0.06259033  , -9.810233   , -0.000249701174, -0.0006006153, 0.000516650849, -0.184238911, -0.160037756, 0.422407985 , -0.00415403629, 0.0392135158, 2.38470387  , 4.86        , 3           , 11          , 0.005824427 , 0.005824425
0.3934542   , 0.04443752  , -9.789495   , 0.00101269246, 0.00109736936, 0.000242643233, -0.184238911, -0.159970343, 0.4225428   , -0.00414381642, 0.0392244942, 2.38470674  , 4.87        , 3           , 12          , 0.0715151653, 0
0.351971984 , 0.0259487089, -9.782658   , 0.00354912085, 0.00224082  , 0.000538768771, -0.184238911, -0.15990293 , 0.4224754   , -0.004108116, 0.0392469242, 2.384712    , 4.88        , 3           , 50          , 0           , 0
0.3822818   , 0.0322660841, -9.754375   , 0.00185857888, 0.00138466433, 0.000247027783, -0.184238911, -0.15990293 , 0.4224754   , -0.0040894337, 0.03926078  , 2.38471437  , 4.89        , 3           , 11          , 0.005824427 , 0.005824425
0.385783762 , 0.0156110944, -9.778375   , 0.000456550071, -0.0001791785, -0.0007507231, -0.184508562, -0.160037756, 0.422407985 , -0.00407519937, 0.0392401852, 2.38470721  , 4.9         , 3           , 12          , 0.0726065561, 0
0.385157526 , 0.0354875028, -9.782818   , 0.000172810789, 0.000100476995, -0.00061033736, -0.184508562, -0.159498453, 0.422745049 , -0.00407371158, 0.03924117  , 2.384701    , 4.91        , 3           , 50          , 0           , 0
0.392201781 , 0.0240813382, -9.770154   , -0.002933269, -6.131568E-05, -0.0007663093, -0.184306324, -0.159835517, 0.4224754   , -0.004103344, 0.0392405242, 2.38469338  , 4.92        , 3           , 11          , 0.00576569838, 0.00576569559
0.386721969 , 0.04188746  , -9.812608   , -0.00264448766, -0.00132644817, -0.000625676359, -0.184306324, -0.159835517, 0.4224754   , -0.004130033, 0.0392272323, 2.38468719  , 4.93        , 3           , 12          , 0.0726065561, 0
0.380267978 , 0.042761378 , -9.78191948 , -0.0005299345, -0.0006082114, -0.000897252, -0.184238911, -0.160105169, 0.422407985 , -0.00413568364, 0.03922111  , 2.38467813  , 4.94        , 3           , 50          , 0           , 0
0.383013427 , 0.0463235676, -9.777365   , 0.000174204659, -0.000181088166, -0.0006107714, -0.184643388, -0.160105169, 0.4225428   , -0.004134181, 0.0392192751, 2.3846724   , 4.95        , 3           , 11          , 0.00576569838, 0.00576569559
0.382511079 , 0.042271547 , -9.778288   , 0.0010305834, -0.001864745, 0.0006619944, -0.1841715  , -0.160105169, 0.422407985 , -0.004123613, 0.0392006524, 2.384679    , 4.96        , 3           , 12          , 0.0726065561, 0
0.385436863 , 0.02016572  , -9.789658   , 0.000180885647, -0.001448129, 9.361959E-05, -0.184306324, -0.159835517, 0.422273159 , -0.004121764, 0.03918618  , 2.38468     , 4.97        , 3           , 50          , 0           , 0
0.3786496   , 0.02381989  , -9.779299   , -0.0002570582, 0.00122386916, -0.00174072688, -0.184306324, -0.159835517, 0.422273159 , -0.0041250186, 0.0391983427, 2.38466239  , 4.98        , 3           , 11          , 0.00576569838, 0.00576569559
0.3690188   , 0.0474148467, -9.784698   , -0.0006783627, 0.000798657769, -0.001319547, -0.184441149, -0.15990293 , 0.4224754   , -0.004132321, 0.0392062776, 2.38464952  , 4.99        , 3           , 12          , 0.0726065561, 0
0.367749423 , 0.0492883176, -9.800519   , -0.0010761437, -0.00216731383, -0.0003367625, -0.184373736, -0.160037756, 0.422610223 , -0.00410720333, 0.03916209  , 2.38464761  , 5           , 3           , 50          , 0           , 0
0.376638174 , 0.0401196666, -9.788738   , -8.941444E-05, -0.00173827994, 0.000233572529, -0.184306324, -0.160105169, 0.422205746 , -0.00410800427, 0.0391447134, 2.38464952  , 5.01        , 3           , 11          , 0.00570873544, 0.00570873264
0.3963242   , 0.027642712 , -9.770107   , -0.00123719918, 0.001773641 , -0.0008964209, -0.184306324, -0.160105169, 0.422205746 , -0.004120731, 0.03916242  , 2.384641    , 5.02        , 3           , 12          , 0.0736995041, 0
0.365733236 , 0.03664559  , -9.791096   , -0.00109532592, 0.0014930272, -0.002167615, -0.184036672, -0.159970343, 0.4224754   , -0.004132536, 0.0391772538, 2.384619    , 5.03        , 3           , 50          , 0           , 0
0.3672013   , 0.04386016  , -9.794671   , 0.0018808553, -0.00059865514, -0.00173323555, -0.184575975, -0.1597681  , 0.422677636 , -0.00411440758, 0.0391712   , 2.38460183  , 5.04        , 3           , 11          , 0.00570873544, 0.00570873264
0.3962489   , 0.05161044  , -9.785377   , 0.00174402411, -0.00130351854, -0.00018102274, -0.184508562, -0.160172582, 0.422340572 , -0.004097036, 0.039158158 , 2.3846      , 5.05        , 3           , 12          , 0.0736995041, 0
0.3884205   , 0.048470173 , -9.763754   , 0.0001876811, -0.0006101083, 0.000660431338, -0.184508562, -0.160172582, 0.422340572 , -0.00409490243, 0.0391520858, 2.3846066   , 5.06        , 3           , 50          , 0           , 0
0.392373383 , 0.03180837  , -9.787297   , 0.000746714068, 0.0005199708, 0.000240994734, -0.184373736, -0.159970343, 0.422340572 , -0.00408734242, 0.0391573   , 2.384609    , 5.07        , 3           , 11          , 0.00570873544, 0.00570873264
0.390762478 , 0.048060488 , -9.784078   , 0.00343448459, -0.000447363069, -3.05505419E-05, -0.184238911, -0.160105169, 0.422745049 , -0.004053007, 0.03915282  , 2.38460851  , 5.08        , 3           , 12          , 0.0736995041, 0
