Acc X       , Acc Y       , Acc Z       , Gyro X      , Gyro Y      , Gyro Z      , Magn X      , Magn Y      , Magn Z      , Euler X     , Euler Y     , Euler Z     , Time        , Status      , LowRate X   , LowRate Y   , LowRate Z    
0.0134735852, 0.03543084  , -9.81277752 , -0.00207178178, -0.000450449239, -0.00192488288, 0.4007011   , 0.15990293  , 0.333221    , -0.00434161862, 0.0005515565, -0.382645845, 0           , 3           , 11          , 0.0346410163, 0.0346410163
0.00138685293, 0.0463989675, -9.81192    , 0.002444497 , 0.000424813246, 0.000922864652, 0.400903344 , 0.159835517 , 0.333423227 , -0.004317168, 0.0005558447, -0.3826368  , 0.01        , 3           , 12          , 0.0346410163, 0
-3.24836E-05, 0.0196586326, -9.772268   , 0.00300565851, 0.00127333088, 0.00177441293, 0.400835931 , 0.160037756 , 0.33301875  , -0.00428710226, 0.00056865433, -0.382619143, 0.02        , 3           , 14          , 0.000452718145, 0.000601907843
-0.03226862 , 0.04399319  , -9.784616   , -0.000939701335, -0.0007243697, -0.000224823962, 0.4007011   , 0.159633279 , 0.333895117 , -0.0042965  , 0.000561400957, -0.3826213  , 0.03        , 3           , 15          , 0           , 0.000204441458
-0.0272750221, 0.0412671268, -9.796342   , 0.000468250684, 0.000129875261, -0.000216937508, 0.400498867 , 0.15990293  , 0.3332884   , -0.004291819, 0.0005626903, -0.382623434, 0.04        , 3           , 50          , 0           , 0
0.006414106 , 0.0539662279, -9.798743   , -0.000104966959, 0.00181544607, -0.000216967761, 0.400498867 , 0.15990293  , 0.3332884   , -0.004292869, 0.0005808352, -0.38262558 , 0.05        , 3           , 11          , 0.0346410163, 0.0346410163
0.0144951046, 0.05113642  , -9.790558   , -0.000390508067, 0.002376665 , -0.0007824918, 0.400498867 , 0.16024     , 0.333086163 , -0.00429677963, 0.000604568166, -0.382633448, 0.06        , 3           , 12          , 0.0346410163, 0
0.0114666652, 0.0303836111, -9.781176   , -0.00347998575, -0.00102312374, 4.54269466E-05, 0.4006337   , 0.1597681   , 0.3337603   , -0.004331579, 0.0005943389, -0.3826332  , 0.07        , 3           , 14          , 0.000452718145, 0.000601907843
0.002665373 , 0.0142552573, -9.784925   , -0.000396573538, 0.00350292213, -0.00162836863, 0.4007011   , 0.159700692 , 0.3333558   , -0.004335555, 0.0006292973, -0.382649422, 0.08        , 3           , 15          , 0           , 0.000204441458
0.00498563331, 0.0499082059, -9.79470348 , 0.000462096446, 0.001537705 , 0.00119791937, 0.4007011   , 0.159700692 , 0.3333558   , -0.004330926, 0.000644726038, -0.382637739, 0.09        , 3           , 50          , 0           , 0
0.0222917683, 0.0542509779, -9.804497   , -0.00123664632, 0.00237094029, 0.0011913199, 0.400768518 , 0.160172582 , 0.33301875  , -0.00434327452, 0.0006684751, -0.382625818, 0.1         , 3           , 11          , 0.0346410163, 0.0346410163
0.004391634 , 0.0404257327, -9.79068    , -0.00235798955, 0.0006739095, 0.00118344859, 0.401105583 , 0.160172582 , 0.3337603   , -0.00436684536, 0.0006752657, -0.3826139  , 0.11        , 3           , 12          , 0.0346410163, 0
-0.0163779929, 0.0416103527, -9.802133   , -0.000393622235, 0.00293979282, -0.00134669861, 0.400498867 , 0.15990293  , 0.3332884   , -0.004370791, 0.000704604434, -0.3826275  , 0.12        , 3           , 14          , 0.000452718 , 0.000601908
-0.00427315664, 0.0324422941, -9.801627   , 0.001029664 , 0.0006968221, -0.00134358543, 0.400498867 , 0.15990293  , 0.3332884   , -0.00436050445, 0.0007115138, -0.382641077, 0.13        , 3           , 15          , 0           , 0.000204441152
-0.009786024, 0.0284245573, -9.795358   , -0.000942652347, -0.000161240518, -0.000506493263, 0.400431454 , 0.160037756 , 0.33301875  , -0.004369934, 0.0007098794, -0.382646084, 0.14        , 3           , 50          , 0           , 0
-0.0014969008, 0.0449564643, -9.77579    , -0.00038370103, 0.000968838052, -0.0010671987, 0.400903344 , 0.159970343 , 0.333895117 , -0.00437377859, 0.000719520962, -0.3826568  , 0.15        , 3           , 11          , 0.0346410163, 0.0346410163
0.0158262588, 0.0470812768, -9.796893   , -0.000373290444, -0.00100211427, 5.991351E-05, 0.4007011   , 0.160037756 , 0.333423227 , -0.004377512, 0.0007095026, -0.3826561  , 0.16        , 3           , 12          , 0.0346410163, 0
0.007959574 , 0.0425709262, -9.770305   , -0.00122786732, 0.0003999796, -0.000506942335, 0.4007011   , 0.160037756 , 0.333423227 , -0.00438979361, 0.0007134801, -0.3826611  , 0.17        , 3           , 14          , 0.000452718 , 0.000601908
-0.0120142028, 0.0365144126, -9.778166   , -0.00291726715, -0.000456170732, 0.001179079 , 0.400498867 , 0.160105169 , 0.332883924 , -0.004418958, 0.0007089703, -0.382649422, 0.18        , 3           , 15          , 0           , 0.000204441152
-0.0261188354, 0.057528168 , -9.80530548 , -0.000934940937, -0.001850634, -0.00163924694, 0.400768518 , 0.159700692 , 0.333895117 , -0.0044283187, 0.000690391869, -0.382665634, 0.19        , 3           , 50          , 0           , 0
0.0104213459, 0.05297073  , -9.785158   , 0.00129847706, 0.00351438322, -0.0007728536, 0.40056628  , 0.159970343 , 0.333423227 , -0.00441533746, 0.00072547  , -0.3826735  , 0.2         , 3           , 11          , 0.03466943  , 0.0346694328
0.021081673 , 0.0433024466, -9.765228   , 0.0018757137, 0.0009841167, -0.00105666264, 0.40056628  , 0.159970343 , 0.333423227 , -0.004396589, 0.0007352644, -0.382684   , 0.21        , 3           , 12          , 0.0346692465, 0
0.0303775165, 0.0278426073, -9.762509   , -0.00121966633, -0.00128941261, -0.000792082865, 0.4007011   , 0.160172582 , 0.33301875  , -0.004408791, 0.0007223354, -0.3826921  , 0.22        , 3           , 14          , 0.00045271797, 0.000601909065
0.02989193  , 0.0238041952, -9.767503   , -0.0001057082, 0.002097013 , 0.000913616735, 0.4012404   , 0.16024     , 0.3337603   , -0.004409842, 0.000743345765, -0.3826828  , 0.23        , 3           , 15          , 0           , 0.000204440541
-0.0007970026, 0.05898824  , -9.791094   , 0.00103162182, 0.0006968304, 0.002046865 , 0.4006337   , 0.159970343 , 0.333423227 , -0.00439951 , 0.0007504043, -0.382662535, 0.24        , 3           , 50          , 0           , 0
0.009582066 , 0.0543741249, -9.796909   , 0.00498708  , 0.000160433527, -0.00019586565, 0.4006337   , 0.159970343 , 0.333423227 , -0.004349641, 0.000752    , -0.382664442, 0.25        , 3           , 11          , 0.03466943  , 0.0346694328
-0.0021676654, 0.0625650138, -9.776626   , 0.00187202112, 0.00182881451, -0.000207748279, 0.4007011   , 0.160037756 , 0.332951337 , -0.00433092238, 0.0007702789, -0.3826666  , 0.26        , 3           , 12          , 0.0346692465, 0
0.0007819534, 0.0449419729, -9.779388   , 0.0010416318, -0.00155569566, 6.563093E-05, 0.4007011   , 0.159835517 , 0.333895117 , -0.00432050461, 0.000754724955, -0.382665873, 0.27        , 3           , 14          , 0.00045271797, 0.000601909065
0.04242592  , 0.0404258445, -9.789033   , -0.002359621, 0.000673900649, -0.00164192554, 0.4006337   , 0.160105169 , 0.3333558   , -0.004344114, 0.0007613927, -0.382682323, 0.28        , 3           , 15          , 0           , 0.000204440541
0.0306450557, 0.03921815  , -9.791388   , 0.00103145861, 0.0006968297, 0.0017643274, 0.4006337   , 0.160105169 , 0.3333558   , -0.00433378667, 0.000768437458, -0.38266468 , 0.29        , 3           , 50          , 0           , 0
0.007283312 , 0.0200776514, -9.78803    , 0.001894325 , -0.0026762255, -0.000214692, 0.4007011   , 0.16024     , 0.33301875  , -0.00431485055, 0.0007416877, -0.382666826, 0.3         , 3           , 11          , 0.0347551145, 0.0347551219
0.0025770897, 0.0408905968, -9.788431   , -0.00320550753, 0.000386606756, -0.00164631091, 0.400903344 , 0.159835517 , 0.33396253  , -0.004346918, 0.000745482568, -0.382683277, 0.31        , 3           , 12          , 0.03475475  , 0
0.0163167864, 0.0502310023, -9.795971   , -0.00178591418, -0.00101166649, -0.000794283464, 0.400431454 , 0.160172582 , 0.333153576 , -0.00436478248, 0.0007353315, -0.382691145, 0.32        , 3           , 14          , 0.0004527183, 0.000601908
-0.0176394861, 0.0542025976, -9.785367   , 0.000754206732, -0.0007129132, -0.00134707207, 0.400431454 , 0.160172582 , 0.333153576 , -0.004357251, 0.0007281437, -0.3827045  , 0.33        , 3           , 15          , 0           , 0.0002044413
0.0193251669, 0.04917054  , -9.759794   , 0.003008372 , 0.000428628351, -0.000769726, 0.40056628  , 0.160105169 , 0.33301875  , -0.00432717241, 0.000732396555, -0.382712126, 0.34        , 3           , 50          , 0           , 0
0.0194230732, 0.04791082  , -9.787821   , -9.808588E-05, 0.000689191569, 0.00204159622, 0.400970757 , 0.160037756 , 0.3338277   , -0.00432813726, 0.0007393768, -0.38269186 , 0.35        , 3           , 11          , 0.0347551145, 0.0347551219
-0.00239366665, 0.0391716734, -9.796612   , -0.00149242417, -0.00298070558, 0.00146429567, 0.400768518 , 0.159970343 , 0.333153576 , -0.00434305053, 0.0007096334, -0.382677078, 0.36        , 3           , 12          , 0.03475475  , 0
-0.00787953 , 0.03383677  , -9.801196   , 0.00216395385, 0.000141340366, 0.00176872662, 0.400768518 , 0.159970343 , 0.333153576 , -0.00432139961, 0.000711123459, -0.382659435, 0.37        , 3           , 14          , 0.0004527183, 0.000601908
0.0139918411, 0.0484227352, -9.786957   , 0.00102055818, 0.002667781 , -0.000210398051, 0.400835931 , 0.16037482  , 0.33301875  , -0.004311195, 0.0007377918, -0.382661581, 0.38        , 3           , 15          , 0           , 0.0002044413
0.0107700042, 0.0457394347, -9.782925   , 0.00496772677, 0.00410234649, 9.274595E-05, 0.400768518 , 0.1603074   , 0.33396253  , -0.00426151743, 0.0007788189, -0.382660866, 0.39        , 3           , 50          , 0           , 0
0.00443454646, 0.04046051  , -9.801075   , -0.001229677, 0.000963114435, 0.0011891484, 0.400498867 , 0.15990293  , 0.33349064  , -0.00427381136, 0.000788502 , -0.382649183, 0.4         , 3           , 11          , 0.03489723  , 0.0348972343
0.0131306909, 0.05561096  , -9.77473    , -7.89709156E-05, -0.00353429327, -0.00107282656, 0.400498867 , 0.15990293  , 0.33349064  , -0.0042746095, 0.000753113534, -0.382659674, 0.41        , 3           , 12          , 0.0348966755, 0
0.008704908 , 0.0575322248, -9.793739   , 0.004712112 , -0.00124929822, 0.0006482575, 0.400768518 , 0.160037756 , 0.333086163 , -0.00422748365, 0.000740648131, -0.382653236, 0.42        , 3           , 14          , 0.000452718727, 0.000601907959
0.0222720988, 0.0604839474, -9.779612   , 0.00103819044, -0.0009925675, -0.0010636535, 0.400970757 , 0.159835517 , 0.334029943 , -0.004217109, 0.000730677741, -0.382663727, 0.43        , 3           , 15          , 0           , 0.000204443044
0.009896154 , 0.0457757637, -9.790616   , 0.00330227637, -0.00182198058, -0.000206807279, 0.400296628 , 0.159970343 , 0.333423227 , -0.00418408774, 0.000712449546, -0.382665634, 0.44        , 3           , 50          , 0           , 0
-0.0146364449, 0.043318104 , -9.779514   , 0.00132282707, -0.00127221865, 0.000349916751, 0.400296628 , 0.159970343 , 0.333423227 , -0.00417085644, 0.000699742 , -0.382662058, 0.45        , 3           , 11          , 0.03489723  , 0.0348972343
0.004601852 , 0.05755739  , -9.78699    , 0.00103867985, -0.0009925652, -0.000216040949, 0.4006337   , 0.1603074   , 0.332951337 , -0.004160471, 0.0006898076, -0.3826642  , 0.46        , 3           , 12          , 0.0348966755, 0
0.004564995 , 0.05306402  , -9.792434   , 0.00102859549, 0.0009783887, -0.0007780784, 0.400768518 , 0.160037756 , 0.3337603   , -0.00415019 , 0.000699559168, -0.382672071, 0.47        , 3           , 14          , 0.000452718727, 0.000601907959
0.0125061851, 0.0452110767, -9.766191   , -0.00178756053, -0.000448530773, 0.00118434487, 0.4007011   , 0.159835517 , 0.3333558   , -0.00416805642, 0.0006951232, -0.382660151, 0.48        , 3           , 15          , 0           , 0.000204443044
0.00245374255, 0.0354344472, -9.7758     , -0.0009569194, 0.0026544088, -0.00106723083, 0.4007011   , 0.159835517 , 0.3333558   , -0.00417763367, 0.0007216225, -0.382671118, 0.49        , 3           , 50          , 0           , 0
-0.0137275988, 0.0477736257, -9.765928   , 0.002718973 , 0.00183454377, -0.0007688739, 0.4007011   , 0.1603074   , 0.332883924 , -0.00415046839, 0.0007399335, -0.382678747, 0.5         , 3           , 11          , 0.0350946561, 0.03509466
0.00448531844, 0.0512140654, -9.778883   , 0.000179178111, 0.001535792 , 0.000348989444, 0.400970757 , 0.159835517 , 0.333895117 , -0.00414867327, 0.0007553059, -0.3826754  , 0.51        , 3           , 12          , 0.0350939073, 0
0.0254568476, 0.06090545  , -9.781846   , 0.00187562278, 0.001265689 , 0.0012040697, 0.400498867 , 0.1597681   , 0.33349064  , -0.004129908, 0.000768012542, -0.38266325 , 0.52        , 3           , 14          , 0.00045272024, 0.000601908134
-0.003602458, 0.0473431125, -9.806983   , -0.00122138893, -0.00100784819, -0.00135672523, 0.400498867 , 0.1597681   , 0.33349064  , -0.004142132, 0.000757878064, -0.38267684 , 0.53        , 3           , 15          , 0           , 0.000204442
0.0003056964, 0.04091112  , -9.78664    , -0.00264648418, 0.0017982577, 0.000336254016, 0.4006337   , 0.160105169 , 0.332951337 , -0.00416859426, 0.0007758744, -0.3826735  , 0.54        , 3           , 50          , 0           , 0
0.009794905 , 0.0323032141, -9.809203   , 0.0021510052, 0.00239385245, -0.00133571483, 0.400903344 , 0.15990293  , 0.333895117 , -0.004147095, 0.000799757137, -0.3826871  , 0.55        , 3           , 11          , 0.0350946561, 0.03509466
0.00206669141, 0.0386174768, -9.781666   , -0.00120802713, -0.00354193 , 5.20564645E-05, 0.400296628 , 0.160105169 , 0.3332884   , -0.004159174, 0.0007643404, -0.382686377, 0.56        , 3           , 12          , 0.0350939073, 0
-0.005977352, 0.0486188233, -9.775809   , 0.0007388707, 0.00238430267, -0.00134229951, 0.400296628 , 0.160105169 , 0.3332884   , -0.004151796, 0.0007881276, -0.382699728, 0.57        , 3           , 14          , 0.00045272024, 0.000601908134
0.0037885278, 0.071479626 , -9.76479149 , 0.00300107361, 0.001836452 , -0.00133263192, 0.400768518 , 0.160105169 , 0.33301875  , -0.00412179576, 0.0008064369, -0.382713318, 0.58        , 3           , 15          , 0           , 0.000204442
0.0231736749, 0.0275143012, -9.773866   , -0.000664988067, 0.0009669334, 0.0009092457, 0.40103817  , 0.15990293  , 0.333895117 , -0.00412843842, 0.000816143642, -0.382704258, 0.59        , 3           , 50          , 0           , 0
0.028800007 , 0.0387655869, -9.784625   , -0.000377149961, -0.000157418021, 0.00062629173, 0.4006337   , 0.1597681   , 0.333423227 , -0.00413222145, 0.000814590254, -0.382697821, 0.6         , 3           , 11          , 0.0353460424, 0.0353460461
0.0281663276, 0.0586359426, -9.787258   , 0.00386433862, -0.00125503121, -0.000203302247, 0.4006337   , 0.1597681   , 0.333423227 , -0.00409358 , 0.0008020318, -0.382699728, 0.61        , 3           , 12          , 0.0353451   , 0
0.006090329 , 0.0269228518, -9.806541   , 0.002184534 , -0.00408213772, 0.001197144 , 0.400768518 , 0.1603074   , 0.33301875  , -0.00407172553, 0.0007612595, -0.3826878  , 0.62        , 3           , 14          , 0.000452721841, 0.0006019086
0.0152901635, 0.047911793 , -9.773842   , -0.0003658348, -0.002409938, 0.0009053576, 0.400970757 , 0.160037756 , 0.333895117 , -0.004075377, 0.000737197232, -0.3826785  , 0.63        , 3           , 15          , 0           , 0.000204439741
-0.002448758, 0.0377879776, -9.787579   , -0.000370995724, -0.00156524731, -0.000788565143, 0.40056628  , 0.159700692 , 0.3332884   , -0.00407909229, 0.0007215128, -0.382686377, 0.64        , 3           , 50          , 0           , 0
-0.0114217112, 0.0388540439, -9.804818   , -0.00291464617, -0.00101930229, 0.0008956749, 0.40056628  , 0.159700692 , 0.3332884   , -0.004108232, 0.0007113564, -0.382677317, 0.65        , 3           , 11          , 0.0353460424, 0.0353460461
0.01163675  , 0.0385557376, -9.796508   , 0.002719298 , 0.001834545 , -0.000203796691, 0.4007011   , 0.160105169 , 0.332951337 , -0.00408104062, 0.0007296934, -0.3826797  , 0.66        , 3           , 12          , 0.0353451   , 0
0.0173102841, 0.0307263471, -9.769378   , 0.0007485384, 0.0006949178, 0.0009153987, 0.400835931 , 0.15990293  , 0.334097356 , -0.004073549, 0.0007366798, -0.3826704  , 0.67        , 3           , 14          , 0.000452721841, 0.0006019086
0.0140485084, 0.0244398862, -9.767169   , -0.00149930909, -0.0018544523, -0.0007942668, 0.4007011   , 0.159700692 , 0.3333558   , -0.00408854755, 0.000718103 , -0.38267827 , 0.68        , 3           , 15          , 0           , 0.000204439741
0.0177469626, 0.0240127277, -9.78703    , -0.00122443051, -0.000163147954, 0.000622340944, 0.4007011   , 0.159700692 , 0.3333558   , -0.004100788, 0.0007164969, -0.382672071, 0.69        , 3           , 50          , 0           , 0
0.0137505606, 0.0321586132, -9.780247   , 0.000183033757, 0.0006910962, -0.000217381748, 0.400835931 , 0.160037756 , 0.333086163 , -0.00409894437, 0.0007234117, -0.382674217, 0.7         , 3           , 11          , 0.0356498361, 0.03564984
-0.019788675, 0.0280616283, -9.786849   , 0.00216255779, 0.000422906363, 0.00176916493, 0.400970757 , 0.159970343 , 0.33396253  , -0.00407730555, 0.000727713 , -0.382656574, 0.71        , 3           , 12          , 0.0356486924, 0
-0.00533713028, 0.0550142974, -9.801089   , -0.00037296646, -0.00100211194, 0.000624993059, 0.400903344 , 0.160105169 , 0.33349064  , -0.004081031, 0.00071771763, -0.382650375, 0.72        , 3           , 14          , 0.000452720327, 0.000601907261
-0.000614736229, 0.06850927  , -9.805065   , -0.00235708756, 0.0003923428, 0.000335406628, 0.400903344 , 0.160105169 , 0.33349064  , -0.0041046  , 0.000721654738, -0.3826468  , 0.73        , 3           , 15          , 0           , 0.000204436656
-0.00402682927, 0.0504958965, -9.80381    , -0.000380099635, 0.000405712635, 0.00034462515, 0.400903344 , 0.159835517 , 0.333086163 , -0.00410839776, 0.000725725957, -0.382643461, 0.74        , 3           , 50          , 0           , 0
-0.0193194263, 0.0276233014, -9.79227    , -0.000104479659, 0.001815449 , 0.000630649331, 0.400903344 , 0.159498453 , 0.33396253  , -0.004109438, 0.000743906363, -0.382637262, 0.75        , 3           , 11          , 0.0356498361, 0.03564984
-0.0005796766, 0.0404917672, -9.792976   , -0.00122245669, -0.0007262807, -0.0007912111, 0.400768518 , 0.159700692 , 0.3332884   , -0.00412166864, 0.000736611139, -0.38264513 , 0.76        , 3           , 12          , 0.0356486924, 0
-0.00292239152, 0.0373300537, -9.783969   , -0.00151275808, 0.000961202 , 5.76878047E-05, 0.400768518 , 0.159700692 , 0.3332884   , -0.00413679471, 0.000746225531, -0.382644653, 0.77        , 3           , 14          , 0.000452720327, 0.000601907261
0.00293484516, 0.0358984172, -9.781219   , 0.000465297373, 0.0006930053, -0.0004986023, 0.400835931 , 0.15990293  , 0.333153576 , -0.004132146, 0.000753134955, -0.38264966 , 0.78        , 3           , 15          , 0           , 0.000204436656
0.0125581985, 0.0474849753, -9.771604   , 0.000186726335, -0.000153601432, -0.00106629613, 0.401105583 , 0.159970343 , 0.333895117 , -0.00413028663, 0.000751554966, -0.382660151, 0.79        , 3           , 50          , 0           , 0
0.0156751573, 0.03937089  , -9.784722   , -0.0006585078, -0.0004408956, 5.947103E-05, 0.4007011   , 0.159700692 , 0.333558053 , -0.00413687248, 0.0007471298, -0.382659674, 0.8         , 3           , 11          , 0.0360043   , 0.0360043
0.031011492 , 0.03334031  , -9.789149   , 0.00188259245, -0.000142137578, 0.00120190741, 0.4007011   , 0.159700692 , 0.333558053 , -0.004118038, 0.000745758 , -0.3826475  , 0.81        , 3           , 12          , 0.03600295  , 0
0.0300050639, 0.03059112  , -9.773349   , -0.000388953282, 0.00209509861, -0.000500381342, 0.4007011   , 0.159700692 , 0.333153576 , -0.00412193174, 0.0007666882, -0.38265276 , 0.82        , 3           , 14          , 0.0004527205, 0.0006019095
0.03502475  , 0.03547414  , -9.766963   , -8.594271E-05, -0.00212646928, -0.00107064843, 0.400835931 , 0.160037756 , 0.333895117 , -0.004122799, 0.0007453796, -0.38266325 , 0.83        , 3           , 15          , 0           , 0.00020443456
0.00123850256, 0.03735175  , -9.804728   , 0.00159983919, -0.000144049118, 0.0006355155, 0.400768518 , 0.160105169 , 0.3333558   , -0.00410679542, 0.000743965444, -0.382657051, 0.84        , 3           , 50          , 0           , 0
-0.00570022129, 0.0328489169, -9.783556   , 0.00132372975, -0.00155378773, -0.0004981209, 0.400768518 , 0.160105169 , 0.3333558   , -0.00409356225, 0.000728407467, -0.382661819, 0.85        , 3           , 11          , 0.0360043   , 0.0360043
0.009892421 , 0.04577274  , -9.789711   , -0.00291004777, -0.00214556837, -0.0008012802, 0.4007011   , 0.1603074   , 0.332951337 , -0.00412266841, 0.000706918945, -0.3826697  , 0.86        , 3           , 12          , 0.03600295  , 0
0.0144954324, 0.0515830368, -9.7892     , 0.00103244954, 0.000133690424, -0.00134444656, 0.400970757 , 0.160037756 , 0.3338277   , -0.00411235355, 0.000708200445, -0.382683277, 0.87        , 3           , 14          , 0.0004527205, 0.0006019095
0.0122368764, 0.05384572  , -9.783332   , 0.000744357763, 0.00153961231, 0.000916705758, 0.4007011   , 0.159700692 , 0.3333558   , -0.004104903, 0.0007236339, -0.382673979, 0.88        , 3           , 15          , 0           , 0.00020443456
0.0206152033, 0.034816023 , -9.789223   , 0.00216666516, -0.0007033633, -0.000775405846, 0.4007011   , 0.159700692 , 0.3333558   , -0.00408324227, 0.000716568553, -0.382681847, 0.89        , 3           , 50          , 0           , 0
0.0422664657, 0.03404773  , -9.770529   , 0.00357912481, -0.000693809532, -0.000203742136, 0.400835931 , 0.160037756 , 0.33301875  , -0.004047457, 0.0007096407, -0.382683754, 0.9         , 3           , 11          , 0.0364075527, 0.0364075527
0.0176518038, 0.0239356272, -9.763979   , 0.00413914351, 0.0001547024, -0.00132995634, 0.400970757 , 0.159633279 , 0.33396253  , -0.00400607428, 0.000711134053, -0.3826971  , 0.91        , 3           , 12          , 0.0364059843, 0
0.00691576535, 0.0295253936, -9.77850151 , 0.0007468188, 0.000976482756, 0.000350766844, 0.400498867 , 0.160037756 , 0.333423227 , -0.00399860367, 0.0007209129, -0.382693529, 0.92        , 3           , 14          , 0.000452721084, 0.000601907144
-0.0278251283, 0.03315927  , -9.798639   , 0.00076354685, -0.00240229815, 0.000345559645, 0.400498867 , 0.160037756 , 0.333423227 , -0.00399096543, 0.000696903851, -0.3826902  , 0.93        , 3           , 15          , 0           , 0.000204430573
0.0203127339, 0.0465482473, -9.788272   , 0.00244990736, -0.0007014471, 0.0006386024, 0.400835931 , 0.160105169 , 0.333221    , -0.00396646233, 0.0006899149, -0.382683754, 0.94        , 3           , 50          , 0           , 0
0.00237930566, 0.0580638424, -9.795593   , -9.50487156E-05, -0.000155508169, 6.254282E-05, 0.400970757 , 0.160037756 , 0.3338277   , -0.00396741228, 0.000688362343, -0.382683039, 0.95        , 3           , 11          , 0.0364075527, 0.0364075527
0.0139143914, 0.0394329727, -9.796939   , 0.001590911 , 0.00126376923, -0.00275276066, 0.4006337   , 0.159835517 , 0.333423227 , -0.00395152252, 0.0007008909, -0.3827107  , 0.96        , 3           , 12          , 0.0364059843, 0
-0.00507407356, 0.04548189  , -9.785307   , 0.00130191469, 0.00295125833, 0.00035643825, 0.4006337   , 0.159835517 , 0.333423227 , -0.00393850124, 0.0007304173, -0.382707119, 0.97        , 3           , 14          , 0.000452721084, 0.000601907144
-0.005166022, 0.0396048278, -9.781716   , 0.0007531362, -0.0004313457, -0.0007815526, 0.40056628  , 0.160442233 , 0.33301875  , -0.003930975, 0.0007260732, -0.382715   , 0.98        , 3           , 15          , 0           , 0.000204430573
-0.009213005, 0.04235352  , -9.779928   , -0.00152342138, 0.003213725 , 0.0009087779, 0.400903344 , 0.1597681   , 0.3338277   , -0.00394620327, 0.000758246169, -0.382705927, 0.99        , 3           , 50          , 0           , 0
-0.0169297643, 0.0388573557, -9.786782   , -0.00292596174, 0.00123321707, 0.000616623671, 0.4007011   , 0.15990293  , 0.33349064  , -0.003975467, 0.0007705885, -0.382699728, 1           , 3           , 11          , 0.0368575975, 0.0368575938
0.004815451 , 0.0390578955, -9.78797    , 0.004421807 , 0.00043818343, 0.00149717473, 0.4007011   , 0.15990293  , 0.33349064  , -0.003931237, 0.0007750295, -0.382684946, 1.01        , 3           , 12          , 0.0368558019, 0
0.0138683012, 0.0376102254, -9.791523   , 0.00187062286, 0.00211037975, -0.000207298886, 0.4006337   , 0.159835517 , 0.33301875  , -0.00391253224, 0.0007961249, -0.3826871  , 1.02        , 3           , 14          , 0.000452722335, 0.0006019091
0.00072555244, 0.0417718254, -9.775786   , -0.000658020144, -0.0004408928, 0.000907092937, 0.401105583 , 0.160037756 , 0.334164768 , -0.003919105, 0.000791751547, -0.3826778  , 1.03        , 3           , 15          , 0           , 0.000204425058
-0.00616600225, 0.0604432747, -9.802429   , -8.61964945E-05, -0.00184489845, 0.0009075572, 0.40056628  , 0.160037756 , 0.333221    , -0.00391996047, 0.0007733384, -0.382668734, 1.04        , 3           , 50          , 0           , 0
-0.0108362855, 0.05190037  , -9.795267   , -0.00290275319, -0.00355339143, -0.000238365421, 0.40056628  , 0.160037756 , 0.333221    , -0.00394899 , 0.0007377952, -0.382671118, 1.05        , 3           , 11          , 0.0368575975, 0.0368575938
-0.0106921224, 0.022632204 , -9.813919   , 0.001871928 , 0.002110386 , 0.00205300073, 0.401173    , 0.1603074   , 0.333153576 , -0.00393025531, 0.000758979761, -0.3826506  , 1.06        , 3           , 12          , 0.0368558019, 0
0.0248157736, 0.048260387 , -9.77648    , -0.000656952441, -0.0007224595, 0.0003415841, 0.400768518 , 0.159835517 , 0.334029943 , -0.003936822, 0.0007517686, -0.382647276, 1.07        , 3           , 14          , 0.000452722335, 0.0006019091
0.0150456065, 0.0699569955, -9.753865   , -0.00037378422, -0.00100211776, -0.000787682657, 0.400498867 , 0.15990293  , 0.333558053 , -0.003940566, 0.000741716533, -0.3826549  , 1.08        , 3           , 15          , 0           , 0.000204425058
0.0107681407, 0.04573792  , -9.782473   , 0.00215829932, 0.0009860275, -0.0007727927, 0.400498867 , 0.15990293  , 0.333558053 , -0.003918989, 0.0007515464, -0.382662773, 1.09        , 3           , 50          , 0           , 0
0.00212737871, 0.0400057   , -9.792054   , -7.97201938E-05, -0.00325272721, 5.777643E-05, 0.400498867 , 0.159835517 , 0.333153576 , -0.00391981471, 0.0007190138, -0.382662058, 1.1         , 3           , 11          , 0.0373523533, 0.0373523533
-0.0176820718, 0.05461444  , -9.773615   , -0.0006493341, -0.002130283, 0.0014695659, 0.400835931 , 0.15990293  , 0.3337603   , -0.00392629765, 0.0006977689, -0.382647276, 1.11        , 3           , 12          , 0.0373503268, 0
-0.0124482308, 0.0392130241, -9.77409    , -0.0009325767, -0.002132197, 5.556137E-05, 0.400498867 , 0.1597681   , 0.333153576 , -0.003935623, 0.0006764492, -0.3826468  , 1.12        , 3           , 14          , 0.0004527266, 0.0006019103
-0.0111598661, 0.030213356 , -9.785869   , -0.0037733207, 0.0009459138, -0.00193059677, 0.400498867 , 0.1597681   , 0.333153576 , -0.00397336949, 0.0006858318, -0.382665873, 1.13        , 3           , 15          , 0           , 0.0002044237
0.008017873 , 0.03815467  , -9.798798   , 0.00130690681, 0.00210656412, 0.00176783092, 0.400431454 , 0.1597681   , 0.33301875  , -0.003960288, 0.0007069674, -0.382648468, 1.14        , 3           , 50          , 0           , 0
0.0283788089, 0.0437063426, -9.77647    , 0.0004688948, 0.00012987596, 0.00091323  , 0.400768518 , 0.159970343 , 0.33396253  , -0.003955593, 0.00070830225, -0.38263917 , 1.15        , 3           , 11          , 0.0373523533, 0.0373523533
0.00705367746, 0.0421349443, -9.771668   , -0.000674500538, 0.00265631662, -0.00106589461, 0.400364041 , 0.15990293  , 0.333625466 , -0.003962345, 0.000734823057, -0.382650137, 1.16        , 3           , 12          , 0.0373503268, 0
-0.0111170188, 0.06275749  , -9.802457   , 0.00131371373, 0.0006987377, 0.00148312375, 0.400364041 , 0.15990293  , 0.333625466 , -0.00394919747, 0.0007418691, -0.382635355, 1.17        , 3           , 14          , 0.0004527266, 0.0006019103
0.004877775 , 0.0426791981, -9.791571   , 0.00187784026, 0.000420982367, -0.00218766346, 0.400768518 , 0.160037756 , 0.333221    , -0.00393043552, 0.000745992642, -0.382657051, 1.18        , 3           , 15          , 0           , 0.0002044237
0.0102586243, 0.04212647  , -9.780231   , -0.000944381231, 0.000120320648, -0.00107111689, 0.400970757 , 0.159970343 , 0.334029943 , -0.003939887, 0.000747153768, -0.38266778 , 1.19        , 3           , 50          , 0           , 0
0.0201706346, 0.0383987948, -9.77972    , -0.002352337, -0.0007339265, -0.00107900007, 0.4007011   , 0.159970343 , 0.3333558   , -0.00396344066, 0.0007397584, -0.3826785  , 1.2         , 3           , 11          , 0.03788969  , 0.0378896855
0.00295072049, 0.0448382944, -9.756321   , -0.00122516567, -0.000444727, -0.003051061, 0.4007011   , 0.159970343 , 0.3333558   , -0.00397571456, 0.0007351901, -0.382709026, 1.21        , 3           , 12          , 0.0378874168, 0
0.0110535864, 0.03622365  , -9.772115   , 0.00159204379, 0.00126376946, -0.000774988, 0.4007011   , 0.16037482  , 0.333221    , -0.00395980058, 0.0007477971, -0.3827169  , 1.22        , 3           , 14          , 0.000452730135, 0.0006019124
0.00165966712, 0.0399989262, -9.788442   , 0.00129386783, 0.00464064535, 0.000924126944, 0.400768518 , 0.159970343 , 0.33396253  , -0.00394685427, 0.0007942397, -0.382707834, 1.23        , 3           , 15          , 0           , 0.000204420416
-0.00186431315, 0.0494944565, -9.782103   , 0.000773948559, -0.00437325565, 0.00147268234, 0.40056628  , 0.160037756 , 0.3333558   , -0.00393910334, 0.0007505655, -0.3826928  , 1.24        , 3           , 50          , 0           , 0
0.0156446472, 0.0384534635, -9.780206   , -9.80089244E-05, 0.00040761588, -0.00021911638, 0.40056628  , 0.160037756 , 0.3333558   , -0.00394008541, 0.000754633 , -0.38269496 , 1.25        , 3           , 11          , 0.03788969  , 0.0378896855
0.014944586 , 0.05425288  , -9.779694   , -0.0006581911, -0.0004408969, 0.0006245602, 0.400903344 , 0.159970343 , 0.333221    , -0.00394666241, 0.000750248553, -0.382688761, 1.26        , 3           , 12          , 0.0378874168, 0
0.000637099147, 0.0554628633, -9.82093    , -0.0006532677, -0.00156716013, -0.0005073253, 0.400835931 , 0.160172582 , 0.334029943 , -0.003953199, 0.000734557048, -0.382693768, 1.27        , 3           , 14          , 0.000452730135, 0.0006019124
0.0158076   , 0.047066167 , -9.792374   , 0.00583156059, 0.0007292904, -0.000191026833, 0.4006337   , 0.160037756 , 0.333423227 , -0.0038948846, 0.0007418424, -0.382695675, 1.28        , 3           , 15          , 0           , 0.000204420416
0.01769511  , 0.05201664  , -9.795049   , -0.004032632, -0.00356103573, -0.000526166055, 0.4006337   , 0.160037756 , 0.333423227 , -0.0039352146, 0.0007062118, -0.38270092 , 1.29        , 3           , 50          , 0           , 0
0.00917779  , 0.0544187464, -9.808664   , -8.38367E-05, -0.00212646043, 0.002602353 , 0.400835931 , 0.160172582 , 0.333221    , -0.003936067, 0.00068505964, -0.3826747  , 1.3         , 3           , 11          , 0.0384674445, 0.03846744
0.02319849  , 0.02574901  , -9.7856245  , -0.0009247108, -0.00382159022, -0.0007946509, 0.400970757 , 0.159835517 , 0.334232181 , -0.00394532 , 0.0006468127, -0.382682562, 1.31        , 3           , 12          , 0.03846491  , 0
0.0156829488, 0.03982355  , -9.785172   , 0.000197448171, -0.00212455587, 0.0006259077, 0.40056628  , 0.160037756 , 0.333423227 , -0.00394334132, 0.0006255921, -0.382676363, 1.32        , 3           , 14          , 0.000452735432, 0.0006019108
-0.0144971265, 0.0176168233, -9.785495   , -0.002922772, 0.000388515356, -0.001079898, 0.40056628  , 0.160037756 , 0.333423227 , -0.00397257553, 0.0006294345, -0.3826871  , 1.33        , 3           , 15          , 0           , 0.00020442011
-0.00745352171, 0.0329170451, -9.797581   , -0.00037232897, -0.0010021124, 0.00175515946, 0.4007011   , 0.159970343 , 0.333086163 , -0.003976288, 0.0006194831, -0.382669449, 1.34        , 3           , 50          , 0           , 0
0.00536489766, 0.04627251  , -9.788388   , -0.00121648062, -0.0021341145, -0.00248858915, 0.401173    , 0.160037756 , 0.334164768 , -0.00398846855, 0.0005980431, -0.382694244, 1.35        , 3           , 11          , 0.0384674445, 0.03846744
-0.0196513869, 0.0321900174, -9.807169   , 0.0001867855, 0.00012796704, 0.00147699169, 0.400431454 , 0.159970343 , 0.333423227 , -0.00398659147, 0.00059938163, -0.382679462, 1.36        , 3           , 12          , 0.03846491  , 0
-0.0103530558, 0.02521285  , -9.777747   , -0.000946036, 0.0006834558, 0.000907516747, 0.400431454 , 0.159970343 , 0.333423227 , -0.00399604673, 0.000606252346, -0.3826704  , 1.37        , 3           , 14          , 0.000452735432, 0.0006019108
0.0170453638, 0.0402572453, -9.784707   , -0.00121870486, -0.00128940959, 0.0009031623, 0.400903344 , 0.160105169 , 0.3332884   , -0.00400822842, 0.000593394565, -0.382661343, 1.38        , 3           , 15          , 0           , 0.00020442011
0.009655684 , 0.0606826767, -9.794622   , -0.000662867853, 0.000403797545, -0.000221749928, 0.40103817  , 0.160172582 , 0.334232181 , -0.004014858, 0.0005974236, -0.3826635  , 1.39        , 3           , 50          , 0           , 0
-0.006362344, 0.057159733 , -9.764929   , -0.00094144 , -0.000442810648, -0.000789443846, 0.40103817  , 0.160172582 , 0.33349064  , -0.004024284, 0.000592955039, -0.3826716  , 1.4         , 3           , 11          , 0.03908346  , 0.03908346
-0.003101324, 0.0598747879, -9.778453   , -0.0009448062, 0.000401888537, 0.000624545151, 0.40103817  , 0.160172582 , 0.33349064  , -0.004033728, 0.000596999 , -0.382665157, 1.41        , 3           , 12          , 0.0390806571, 0
0.003977374 , 0.0395695679, -9.802889   , -0.0003778172, -0.000157424831, -0.000503838644, 0.400835931 , 0.1603074   , 0.3332884   , -0.004037509, 0.000595404534, -0.382670164, 1.42        , 3           , 14          , 0.000452736451, 0.000601912267
-0.00126700662, 0.05585514  , -9.796987   , -0.000378306635, -0.000157427159, -0.00135145115, 0.400903344 , 0.160037756 , 0.3342996   , -0.0040413  , 0.0005937756, -0.382683754, 1.43        , 3           , 15          , 0           , 0.000204420372
0.00218803436, 0.0489818528, -9.778005   , -0.002069842, -0.000450444262, 0.001465588 , 0.400768518 , 0.15990293  , 0.3338277   , -0.00406199042, 0.0005893307, -0.3826692  , 1.44        , 3           , 50          , 0           , 0
0.00400588475, 0.04539523  , -9.791114   , 0.00356435357, 0.00212183269, -0.00161208014, 0.400768518 , 0.15990293  , 0.3338277   , -0.00402635662, 0.0006104836, -0.382685184, 1.45        , 3           , 11          , 0.03908346  , 0.03908346
-0.0153850866, 0.04881209  , -9.800287   , 0.002718957 , 0.00183453981, -0.0007688523, 0.400903344 , 0.160037756 , 0.3333558   , -0.00399917131, 0.000628798 , -0.382693052, 1.46        , 3           , 12          , 0.0390806571, 0
0.0190198142, 0.08448285  , -9.793097   , -0.00179864129, 0.0015224145, -0.00107289478, 0.400970757 , 0.160105169 , 0.334164768 , -0.004017165, 0.000643978943, -0.382703781, 1.47        , 3           , 14          , 0.000452736451, 0.000601912267
0.00384201575, 0.06304231  , -9.805053   , -0.0006612229, -0.000159339485, -0.00220038067, 0.40056628  , 0.15990293  , 0.333625466 , -0.004023791, 0.000642297033, -0.382725716, 1.48        , 3           , 15          , 0           , 0.000204420372
0.00628683437, 0.0431506857, -9.802404   , -0.000651716837, -0.00184872444, -0.00022522168, 0.40056628  , 0.15990293  , 0.333625466 , -0.00403031 , 0.0006238009, -0.3827281  , 1.49        , 3           , 50          , 0           , 0
0.01516862  , 0.0321910456, -9.794698   , -0.006302725, -0.00132379425, 0.000314384146, 0.400903344 , 0.16024     , 0.333423227 , -0.00409338856, 0.0006105636, -0.382724762, 1.5         , 3           , 11          , 0.0397356   , 0.0397355966
0.018023897 , 0.0456619337, -9.78513    , 0.000476172019, -0.00127795176, 0.00147614058, 0.401105583 , 0.160037756 , 0.334164768 , -0.0040886174, 0.0005978446, -0.38270998 , 1.51        , 3           , 12          , 0.0397325158, 0
0.0203969944, 0.05465082  , -9.782815   , 0.00130976457, 0.00126185827, -0.000493765459, 0.400768518 , 0.1603074   , 0.333625466 , -0.004075523, 0.000610442832, -0.382715   , 1.52        , 3           , 14          , 0.0004527457, 0.000601914362
0.0129253166, 0.0349124372, -9.79109    , 0.002726244 , 0.000426713726, -0.000205945093, 0.400768518 , 0.1603074   , 0.333625466 , -0.00404826226, 0.000614701654, -0.382717133, 1.53        , 3           , 15          , 0           , 0.000204418466
-0.0034720113, 0.0599466152, -9.798342   , -7.604671E-05, -0.00409742864, -0.000791132334, 0.400903344 , 0.160172582 , 0.333558053 , -0.00404902734, 0.0005736957, -0.382724762, 1.54        , 3           , 50          , 0           , 0
-0.004513003, 0.0558303669, -9.778481   , -0.000379961857, 0.000405706349, 0.0006271809, 0.401105583 , 0.160172582 , 0.3342996   , -0.004052823, 0.000577778032, -0.382718563, 1.55        , 3           , 11          , 0.0397356   , 0.0397355966
-0.00293169264, 0.0297345631, -9.806148   , 0.0007365468, 0.00294742873, -0.0004937957, 0.400768518 , 0.159835517 , 0.3338277   , -0.004045461, 0.0006072321, -0.38272357 , 1.56        , 3           , 12          , 0.0397325158, 0
-0.00571809337, 0.028817283 , -9.792161   , -0.0006723099, 0.00237475149, 0.000346363959, 0.400768518 , 0.159835517 , 0.3338277   , -0.004052181, 0.000630993571, -0.382720232, 1.57        , 3           , 14          , 0.0004527457, 0.000601914362
0.004893617 , 0.01643152  , -9.769079   , -0.00177569408, -0.00298262574, 5.03140036E-05, 0.400835931 , 0.160442233 , 0.3332884   , -0.00406993739, 0.000601169653, -0.382719755, 1.58        , 3           , 15          , 0           , 0.000204418466
0.0009439877, 0.01970545  , -9.789435   , -0.00121846318, -0.00157098391, -0.00107503228, 0.401105583 , 0.1603074   , 0.33443442  , -0.00408212841, 0.000585416157, -0.382730246, 1.59        , 3           , 50          , 0           , 0
0.0009028744, 0.0521815643, -9.785686   , -0.0009553869, 0.002372836 , -0.000785105338, 0.400768518 , 0.160105169 , 0.333558053 , -0.00409167353, 0.0006090999, -0.382738352, 1.6         , 3           , 11          , 0.0404217653, 0.04042176
0.0142855067, 0.0424859375, -9.767092   , -0.000382006052, 0.0006872661, -0.00050253747, 0.400768518 , 0.160105169 , 0.333558053 , -0.004095496, 0.000615952 , -0.382743359, 1.61        , 3           , 12          , 0.0404183753, 0
0.028466925 , 0.0469022021, -9.787756   , 0.0001845679, 0.000409522472, 6.473719E-05, 0.40103817  , 0.1603074   , 0.333423227 , -0.00409365026, 0.0006200497, -0.382742643, 1.62        , 3           , 14          , 0.0004527433, 0.0006019166
0.0113035459, 0.0516021065, -9.783801   , -0.00121206907, -0.00269724219, 0.000335916731, 0.4012404   , 0.16037482  , 0.334367    , -0.004105769, 0.0005930913, -0.3827393  , 1.63        , 3           , 15          , 0           , 0.000204421027
-0.00131820235, 0.0246432927, -9.774065   , 0.002440127 , 0.00126949907, 0.0006416495, 0.400835931 , 0.160172582 , 0.3338277   , -0.004081364, 0.0006058124, -0.382732868, 1.64        , 3           , 50          , 0           , 0
0.02126083  , 0.0185261481, -9.777987   , 0.00187880278, 0.000420980738, -0.000492435938, 0.400835931 , 0.160172582 , 0.3338277   , -0.00406257855, 0.0006100021, -0.382737875, 1.65        , 3           , 11          , 0.0404217653, 0.04042176
0.008433441 , 0.0407973   , -9.781156   , 0.00244258856, 0.0007063673, 7.57066E-05 , 0.400970757 , 0.160577059 , 0.333423227 , -0.00403815275, 0.000617068668, -0.38273716 , 1.66        , 3           , 12          , 0.0404183753, 0
0.00327191059, 0.06072081  , -9.783824   , -0.00149793644, -0.00213602558, -0.0007946821, 0.400835931 , 0.160037756 , 0.334367    , -0.00405313633, 0.0005956764, -0.382745028, 1.67        , 3           , 14          , 0.0004527433, 0.0006019166
-0.0108196894, 0.0465576053, -9.816534   , -0.00290695624, -0.00270870351, -0.00023705959, 0.400970757 , 0.160509646 , 0.333692878 , -0.00408220757, 0.00056858  , -0.382747173, 1.68        , 3           , 15          , 0           , 0.000204421027
-0.0106951  , 0.0262005981, -9.801701   , -0.00178807462, -0.0004485417, 0.00033675434, 0.400970757 , 0.160509646 , 0.333692878 , -0.004100086, 0.00056410837, -0.382743835, 1.69        , 3           , 50          , 0           , 0
0.0216337722, 0.04650206  , -9.77922249 , -0.000373315, -0.001002125, 5.992532E-05, 0.400970757 , 0.160509646 , 0.333692878 , -0.00410381565, 0.000554077444, -0.382743359, 1.7         , 3           , 11          , 0.04113991  , 0.0411399081
0.0196501836, 0.0677342638, -9.779602   , -0.00208493043, 0.00236519473, -0.0005078438, 0.401442617 , 0.16024     , 0.334501833 , -0.00412466656, 0.000577708532, -0.382748365, 1.71        , 3           , 12          , 0.0411362052, 0
0.02856271  , 0.0554604754, -9.783653   , -0.00263584382, -0.00045427616, -0.000514817, 0.400768518 , 0.160172582 , 0.3337603   , -0.004151028, 0.000573144469, -0.3827536  , 1.72        , 3           , 14          , 0.0004527426, 0.0006019187
0.004535042 , 0.0503616519, -9.793801   , -0.00151138625, 0.0006796256, 5.726119E-05, 0.400768518 , 0.160172582 , 0.3337603   , -0.00416614069, 0.000579943 , -0.382753134, 1.73        , 3           , 15          , 0           , 0.000204429336
0.005050582 , 0.0571024343, -9.787441   , -0.0006500027, -0.00213029468, 0.000339410151, 0.400903344 , 0.16037482  , 0.3333558   , -0.00417264039, 0.0005586542, -0.382749557, 1.74        , 3           , 50          , 0           , 0
-0.0147214876, 0.03923204  , -9.771847   , -0.00234784116, -0.00157862657, -0.0005152358, 0.401307821 , 0.16037482  , 0.3342996   , -0.004196121, 0.000542846741, -0.382754564, 1.75        , 3           , 11          , 0.04113991  , 0.0411399081
-0.0376716331, 0.0422962233, -9.797773   , -0.000650492148, -0.002130297, -0.000508202065, 0.400768518 , 0.1603074   , 0.333895117 , -0.00420262758, 0.0005215224, -0.382759571, 1.76        , 3           , 12          , 0.0411362052, 0
0.0175064951, 0.0389196426, -9.791038   , -0.00179307163, 0.000396147283, -0.0010746395, 0.400768518 , 0.1603074   , 0.333895117 , -0.004220564, 0.000525438634, -0.3827703  , 1.77        , 3           , 14          , 0.0004527426, 0.0006019187
-0.0111348564, 0.0338044241, -9.780431   , 0.00131165108, 0.000980291 , 0.000353402 , 0.40103817  , 0.160442233 , 0.33349064  , -0.00420744671, 0.0005352563, -0.382766962, 1.78        , 3           , 15          , 0           , 0.000204429336
-0.0153120216, 0.0569056049, -9.792118   , -0.000932755764, -0.002132206, -0.0002269815, 0.401173    , 0.16024     , 0.33443442  , -0.004216775, 0.000513924868, -0.3827691  , 1.79        , 3           , 50          , 0           , 0
-1.45444646E-05, 0.0512898974, -9.785696   , -9.08028742E-05, -0.00128179276, -0.00219949265, 0.400835931 , 0.16024     , 0.3337603   , -0.004217713, 0.00050098  , -0.382791042, 1.8         , 3           , 11          , 0.04188806  , 0.04188806
-0.00102571771, 0.01201028  , -9.775472   , 0.00300850719, 0.000428612082, -0.000487177953, 0.400835931 , 0.16024     , 0.3337603   , -0.00418763049, 0.00050524564, -0.3827958  , 1.81        , 3           , 12          , 0.04188401  , 0
0.000165261328, 0.02740682  , -9.795737   , 0.0032898658, 0.0007120887, 7.964768E-05, 0.400970757 , 0.160577059 , 0.3332884   , -0.004154731, 0.0005123697, -0.3827951  , 1.82        , 3           , 14          , 0.000452746084, 0.00060192513
0.0102412757, 0.0438978076, -9.770281   , 0.00103881571, -0.0009925815, 6.650861E-05, 0.4012404   , 0.160037756 , 0.334367    , -0.00414434262, 0.0005024467, -0.38279438 , 1.83        , 3           , 15          , 0           , 0.000204430733
-0.0101972381, 0.0342661142, -9.786749   , -9.7045966E-05, 0.000407607848, 0.00147609808, 0.400768518 , 0.160442233 , 0.3337603   , -0.0041453056, 0.00050658395, -0.3827796  , 1.84        , 3           , 50          , 0           , 0
-0.00921366 , 0.04146029  , -9.782643   , 0.00187231926, 0.00182880019, 0.000357336248, 0.400768518 , 0.160442233 , 0.3337603   , -0.004126581, 0.0005248866, -0.382776022, 1.85        , 3           , 11          , 0.04188806  , 0.04188806
0.0135118244, 0.05197678  , -9.768866   , -0.002630108, -0.001580542, -0.000234016654, 0.401105583 , 0.16037482  , 0.333558053 , -0.00415288238, 0.0005090718, -0.3827784  , 1.86        , 3           , 12          , 0.04188401  , 0
-0.00914531 , 0.0482109375, -9.777643   , -0.00237523532, 0.004052671 , 0.0003410537, 0.401173    , 0.160105169 , 0.334501833 , -0.004176633, 0.000549612334, -0.382775068, 1.87        , 3           , 14          , 0.000452746084, 0.00060192513
0.004166416 , 0.0557913557, -9.796946   , 0.000476423622, -0.00155953318, -0.000502067851, 0.401105583 , 0.160037756 , 0.333895117 , -0.00417187158, 0.0005339961, -0.382780075, 1.88        , 3           , 15          , 0           , 0.000204430733
0.0171831772, 0.0501886122, -9.786474   , 0.002446605 , -0.000138337229, -0.00020814217, 0.401105583 , 0.160037756 , 0.333895117 , -0.00414740667, 0.000532604 , -0.382782221, 1.89        , 3           , 50          , 0           , 0
0.03329846  , 0.0342251062, -9.79184    , -0.000944404863, 0.000120303128, -0.00107112015, 0.40103817  , 0.160172582 , 0.333558053 , -0.004156879, 0.000533748535, -0.38279295 , 1.9         , 3           , 11          , 0.0426642932, 0.0426642932
-0.000226303484, 0.0346033461, -9.787576   , -0.00065870065, -0.00044091462, -0.000223058625, 0.401105583 , 0.160105169 , 0.334367    , -0.004163467, 0.0005293303, -0.3827951  , 1.91        , 3           , 12          , 0.0426598825, 0
0.009903946 , 0.0462284274, -9.791065   , 0.00301194377, -0.000134517613, 0.000642107741, 0.400970757 , 0.160509646 , 0.3338277   , -0.00413334463, 0.0005280117, -0.382788658, 1.92        , 3           , 14          , 0.000452750246, 0.0006019278
0.03132037  , 0.0527836569, -9.802174   , 0.0004664095, 0.0006929902, 0.0014791697, 0.400970757 , 0.160509646 , 0.3338277   , -0.00412867265, 0.000535002735, -0.382773876, 1.93        , 3           , 15          , 0           , 0.000204426979
-0.00195757346, 0.0418309346, -9.783942   , 0.00131361571, 0.000417147938, -0.0010601508, 0.400970757 , 0.16037482  , 0.333692878 , -0.00411554147, 0.0005391305, -0.3827846  , 1.94        , 3           , 50          , 0           , 0
0.008533741 , 0.0453420728, -9.79107952 , -0.0003784836, -0.000157443486, -0.0016339951, 0.40103817  , 0.160172582 , 0.334367    , -0.00411933474, 0.0005374888, -0.382800817, 1.95        , 3           , 11          , 0.0426642932, 0.0426642932
0.0114600183, 0.0615486   , -9.790086   , -0.0015172963, 0.00180587545, -0.000506075448, 0.400768518 , 0.16024     , 0.333692878 , -0.00413451064, 0.000555526465, -0.382806063, 1.96        , 3           , 12          , 0.0426598825, 0
0.0278770812, 0.0405475572, -9.77468    , 0.00272886455, -0.000136430725, -0.000489358965, 0.400768518 , 0.16024     , 0.333692878 , -0.00410722475, 0.000554142054, -0.382810831, 1.97        , 3           , 14          , 0.000452750246, 0.0006019278
-0.013368044, 0.0325168557, -9.792204   , 0.00160710572, -0.00155189144, 0.00119842845, 0.40103817  , 0.160577059 , 0.333692878 , -0.00409114733, 0.000538672262, -0.3827989  , 1.98        , 3           , 15          , 0           , 0.000204426979
-0.0133166192, 0.06149715  , -9.822368   , -0.00177988061, -0.00213794434, 5.1607276E-05, 0.400970757 , 0.16024     , 0.33443442  , -0.004108946, 0.000517295266, -0.3827982  , 1.99        , 3           , 50          , 0           , 0
0.0109696174, 0.0534891263, -9.806847   , 0.002154247 , 0.00183070451, -0.000488957565, 0.4007011   , 0.160172582 , 0.3338277   , -0.00408743648, 0.000535579864, -0.3828032  , 2           , 3           , 11          , 0.0434668027, 0.0434668
0.008540449 , 0.0417767055, -9.804201   , 0.000191362036, -0.0009983153, -0.000219977985, 0.4007011   , 0.160172582 , 0.3338277   , -0.00408552447, 0.0005255879, -0.382805347, 2.01        , 3           , 12          , 0.043462    , 0
0.00311897416, 0.0454209745, -9.79564    , -0.0015035253, -0.00100977672, -0.0007929545, 0.40103817  , 0.1603074   , 0.333423227 , -0.00410056347, 0.00051545765, -0.382813215, 2.02        , 3           , 14          , 0.000452756038, 0.0006019282
0.00355313253, 0.03781261  , -9.815556   , -0.00150828552, 0.000116487434, 0.0006214684, 0.400970757 , 0.1603074   , 0.334367    , -0.00411564251, 0.000516648055, -0.382807016, 2.03        , 3           , 15          , 0           , 0.000204429278
0.0242158119, 0.06324821  , -9.803089   , -0.00122479093, -0.000163169141, 5.727638E-05, 0.4007011   , 0.16037482  , 0.3338277   , -0.004127891, 0.0005150188, -0.38280654 , 2.04        , 3           , 50          , 0           , 0
0.0127019053, 0.0226799473, -9.775774   , 0.00218089623, -0.00351903122, -0.000214664862, 0.4007011   , 0.16037482  , 0.3338277   , -0.004106082, 0.000479819981, -0.382808447, 2.05        , 3           , 11          , 0.0434668027, 0.0434668
0.0214978587, 0.0289842635, -9.802347   , 0.00216786051, -0.0009849479, -0.001058372, 0.401105583 , 0.1603074   , 0.333423227 , -0.00408440875, 0.000469927356, -0.382819176, 2.06        , 3           , 12          , 0.043462    , 0
0.0003521163, 0.043180488 , -9.790699   , 0.000476739981, -0.00155953458, 6.300832E-05, 0.400903344 , 0.16024     , 0.33443442  , -0.004079641, 0.0004543347, -0.38281846 , 2.07        , 3           , 14          , 0.000452756038, 0.0006019282
0.004661071 , 0.0268813483, -9.789377   , 0.00188329839, -0.00042372453, 7.132873E-05, 0.400835931 , 0.16024     , 0.3337603   , -0.004060808, 0.000450100371, -0.3828175  , 2.08        , 3           , 15          , 0           , 0.000204429278
0.0174370613, 0.0281509832, -9.80871    , 0.001037486 , -0.0004294474, 0.00261021522, 0.400835931 , 0.16024     , 0.3337603   , -0.00405042153, 0.000445911865, -0.382791519, 2.09        , 3           , 50          , 0           , 0
0.005940696 , 0.05127673  , -9.802374   , -0.00151000393, 0.0003980563, 5.68240357E-05, 0.400970757 , 0.160442233 , 0.333558053 , -0.00406551128, 0.000449922431, -0.382791042, 2.1         , 3           , 11          , 0.0442938358, 0.044293832
0.0248701777, 0.0563387722, -9.763789   , 0.00131245516, 0.0009802908, 0.00176608632, 0.401307821 , 0.160172582 , 0.334367    , -0.00405237824, 0.0004597969, -0.3827734  , 2.11        , 3           , 12          , 0.0442886166, 0
0.0123063363, 0.05702646  , -9.790098   , 0.00159841136, 0.000137502386, 0.0006359514, 0.400835931 , 0.160172582 , 0.3337603   , -0.004036392, 0.000461197662, -0.382766962, 2.12        , 3           , 14          , 0.000452754175, 0.0006019229
-0.002685166, 0.0531445369, -9.791133   , -0.0006506669, -0.002130302, -0.0007907428, 0.400835931 , 0.160172582 , 0.3337603   , -0.004042902, 0.000439862837, -0.38277483 , 2.13        , 3           , 15          , 0           , 0.000204432552
-0.0116270175, 0.0284216311, -9.78814    , -9.30351962E-05, -0.000437085924, 0.00119225692, 0.401105583 , 0.160037756 , 0.333692878 , -0.0040438273, 0.000435540162, -0.3827629  , 2.14        , 3           , 50          , 0           , 0
-0.00637481734, 0.04777626  , -9.792087   , 0.00272976514, -0.000417993229, -0.00133741088, 0.401105583 , 0.1603074   , 0.334501833 , -0.00401653536, 0.000431306369, -0.38277626 , 2.15        , 3           , 11          , 0.0442938358, 0.044293832
0.0163874272, 0.0601079427, -9.78146648 , 0.00202688621, -0.00070432463, 0.001766775 , 0.400903344 , 0.16024     , 0.33396253  , -0.003996259, 0.000424333964, -0.382758617, 2.16        , 3           , 12          , 0.0442886166, 0
0.00200030347, 0.03454653  , -9.778519   , 0.000619920262, -0.0018401366, 0.00105211081, 0.400903344 , 0.16024     , 0.33396253  , -0.003990055, 0.000405974744, -0.3827479  , 2.17        , 3           , 14          , 0.000452754175, 0.0006019229
0.0109254913, 0.0543460771, -9.793283   , -0.00163534936, -0.00284089777, -0.000231361992, 0.401173    , 0.159970343 , 0.3337603   , -0.004006409, 0.000377556717, -0.382750273, 2.18        , 3           , 15          , 0           , 0.000204432552
0.000473036431, 0.0504200719, -9.796996   , -0.00121380016, -0.00241568522, -0.00022873572, 0.40103817  , 0.160037756 , 0.334569246 , -0.004018549, 0.000353390817, -0.382752419, 2.19        , 3           , 50          , 0           , 0
-0.00584697165, 0.0509562269, -9.800205   , -0.000230889782, -0.001282738, -0.0002223871, 0.400768518 , 0.16024     , 0.334029943 , -0.00402089674, 0.000340564759, -0.382754564, 2.2         , 3           , 11          , 0.04514374  , 0.04514373
0.00188307732, 0.0522314049, -9.803757   , 4.378842E-05, 0.000267779367, -0.000359952159, 0.400768518 , 0.16024     , 0.334029943 , -0.00402046 , 0.00034322805, -0.382758379, 2.21        , 3           , 12          , 0.0451380759, 0
-0.009547717, 0.0482570753, -9.78985    , -0.00320412 , 0.0002458147, -0.000375096919, 0.401173    , 0.1603074   , 0.333625466 , -0.00405250257, 0.0003456709, -0.382761955, 2.22        , 3           , 14          , 0.000452761626, 0.000601921
0.00623459276, 0.04310836  , -9.78975    , -0.001513741, 0.00110196986, -0.000365893473, 0.40103817  , 0.159970343 , 0.334501833 , -0.004067642, 0.000356675533, -0.382765532, 2.23        , 3           , 15          , 0           , 0.000204428929
0.0222210959, 0.05196197  , -9.794562   , 0.00145034655, 0.00140358962, -0.000351631723, 0.40103817  , 0.160172582 , 0.333895117 , -0.00405313959, 0.000370697 , -0.382769346, 2.24        , 3           , 50          , 0           , 0
0.007175383 , 0.0453580171, -9.79109    , 0.00187779812, 0.000702543359, 0.00021433369, 0.40103817  , 0.160172582 , 0.333895117 , -0.00403436134, 0.0003777311, -0.3827672  , 2.25        , 3           , 11          , 0.04514374  , 0.04514373
0.0228045583, 0.0623285957, -9.79316    , 0.000898854749, -0.00113431213, 0.00105451618, 0.40103817  , 0.160172582 , 0.333625466 , -0.00402536849, 0.0003664305, -0.382756472, 2.26        , 3           , 12          , 0.0451380759, 0
-0.0126784891, 0.0527891628, -9.7848835  , -0.00135986274, -0.00129037444, 0.00104376383, 0.401307821 , 0.160172582 , 0.334501833 , -0.00403896347, 0.000353568932, -0.382745981, 2.27        , 3           , 14          , 0.000452761626, 0.000601921
-0.0005055005, 0.04501537  , -9.796574   , -0.00094347453, -2.047139E-05, -0.0006475329, 0.400768518 , 0.160105169 , 0.334029943 , -0.004048401, 0.0003533379, -0.382752419, 2.28        , 3           , 15          , 0           , 0.000204428929
0.0129218139, 0.0326778442, -9.797426   , 0.0007558022, -0.0009944901, -0.00092368765, 0.400768518 , 0.160105169 , 0.334029943 , -0.004040846, 0.000343355583, -0.382761717, 2.29        , 3           , 50          , 0           , 0
0.01806318  , 0.04837187  , -9.786022   , 0.00062150677, -0.00226248242, 0.000203849442, 0.401173    , 0.160105169 , 0.333692878 , -0.00403467054, 0.0003207507, -0.382759571, 2.3         , 3           , 11          , 0.046014946 , 0.0460149348
0.02024887  , 0.0433720462, -9.782862   , -0.00206495146, -0.0015767141, 0.000333692151, 0.401173    , 0.16024     , 0.334636658 , -0.004055319, 0.000304997142, -0.382756233, 2.31        , 3           , 12          , 0.0460088141, 0
0.00617226539, 0.03948705  , -9.78615    , -0.00207618484, 0.000675806135, 0.000195894972, 0.400970757 , 0.160105169 , 0.334164768 , -0.0040760804, 0.000311763026, -0.382754326, 2.32        , 3           , 14          , 0.000452769222, 0.0006019188
0.0149240913, 0.04664832  , -9.79916    , 0.0010280112, 0.00111916149, -0.000495311455, 0.400970757 , 0.160105169 , 0.334164768 , -0.004065802, 0.000322934182, -0.382759333, 2.33        , 3           , 15          , 0           , 0.000204430544
0.012975039 , 0.0340600275, -9.806007   , -0.000659742858, -0.0003001247, -0.0007879202, 0.4012404   , 0.16037482  , 0.33396253  , -0.004072402, 0.0003199011, -0.3827672  , 2.34        , 3           , 50          , 0           , 0
0.0205182415, 0.06233703  , -9.787753   , -0.00277142623, -0.00158149109, -0.0003759438, 0.401105583 , 0.16037482  , 0.334704071 , -0.00410011737, 0.000304071058, -0.382770777, 2.35        , 3           , 11          , 0.046014946 , 0.0460149348
0.00797339  , 0.046152927 , -9.762154   , -0.00136007066, -0.00143115921, -0.00051041093, 0.400903344 , 0.16024     , 0.334164768 , -0.00411371933, 0.0002897386, -0.382775784, 2.36        , 3           , 12          , 0.0460088141, 0
-0.0005581714, 0.0418482423, -9.793875   , -0.0006673283, 0.00124848355, -0.000644264859, 0.400903344 , 0.16024     , 0.334164768 , -0.004120394, 0.0003021969, -0.382782221, 2.37        , 3           , 14          , 0.000452769222, 0.0006019188
0.01159603  , 0.03896909  , -9.785206   , -0.0002452453, 0.001532913 , -0.000924392953, 0.401105583 , 0.15990293  , 0.33396253  , -0.00412285049, 0.000317487575, -0.382791758, 2.38        , 3           , 15          , 0           , 0.000204430544
-0.0147792352, 0.05919686  , -9.804308   , 0.0007562025, -0.0009944859, -0.0002173455, 0.401173    , 0.15990293  , 0.3348389   , -0.004115288, 0.0003075339, -0.382793665, 2.39        , 3           , 50          , 0           , 0
-0.008346358, 0.0752671361, -9.775265   , 0.0013147759, 0.000276380073, -0.000212749772, 0.401105583 , 0.15990293  , 0.3342996   , -0.004102179, 0.000310305331, -0.3827958  , 2.4         , 3           , 11          , 0.04690597  , 0.0469059646
-0.00152269751, 0.0453819074, -9.76810551 , 3.96732066E-05, 0.00111248042, -0.000217374225, 0.401105583 , 0.15990293  , 0.3342996   , -0.004101783, 0.000321421132, -0.382797956, 2.41        , 3           , 12          , 0.04689934  , 0
0.0100410022, 0.05258838  , -9.804146   , -0.0003772046, -0.000157425122, 0.00062631  , 0.40103817  , 0.16024     , 0.3338277   , -0.00410555257, 0.000319872575, -0.382791758, 2.42        , 3           , 14          , 0.0004527765, 0.0006019157
0.0305488836, 0.06272264  , -9.803042   , -0.000231356942, -0.00114194921, 0.0002016435, 0.401173    , 0.15990293  , 0.334704071 , -0.004107866, 0.0003084613, -0.38278985 , 2.43        , 3           , 15          , 0           , 0.000204421391
0.0184866674, 0.0465574041, -9.78467    , -0.00234049722, -0.002986447, 0.000188945938, 0.400768518 , 0.160172582 , 0.334097356 , -0.00413127 , 0.000278604915, -0.3827877  , 2.44        , 3           , 50          , 0           , 0
0.01109506  , 0.0393817164, -9.772101   , -0.00135757914, -0.00185350154, 0.000195290937, 0.400768518 , 0.160172582 , 0.334097356 , -0.00414484553, 0.000260078115, -0.382785559, 2.45        , 3           , 11          , 0.04690597  , 0.0469059646
0.006136614 , 0.03410196  , -9.79476    , 0.00160171115, -0.000566403731, 0.0003523402, 0.401307821 , 0.160105169 , 0.334029943 , -0.00412882771, 0.0002544287, -0.382782221, 2.46        , 3           , 12          , 0.04689934  , 0
0.016208468 , 0.0474651344, -9.778357   , 5.00838723E-05, -0.0008584721, 0.0009097381, 0.401307821 , 0.160037756 , 0.3348389   , -0.00412832526, 0.000245881674, -0.382772923, 2.47        , 3           , 14          , 0.0004527765, 0.0006019157
0.0139411381, 0.0479352921, -9.776112   , -0.0003789249, 0.000124138343, 6.16692E-05 , 0.400903344 , 0.15990293  , 0.334164768 , -0.00413211342, 0.000247125572, -0.382772446, 2.48        , 3           , 15          , 0           , 0.000204421391
-0.0126458863, 0.051476527 , -9.79709148 , -0.00150362728, -0.00100976438, -0.0009342153, 0.400903344 , 0.15990293  , 0.334164768 , -0.00414715242, 0.000236989465, -0.382781744, 2.49        , 3           , 50          , 0           , 0
-0.0102733457, 0.062250372 , -9.788893   , -0.00263154088, -0.00129896193, -0.000233568338, 0.401173    , 0.160442233 , 0.334029943 , -0.00417351164, 0.000224019284, -0.3827839  , 2.5         , 3           , 11          , 0.0478154272, 0.04781542
0.00753314327, 0.04036585  , -9.783876   , -0.00122002233, -0.00114862924, -8.549793E-05, 0.401307821 , 0.159970343 , 0.3348389   , -0.004185712, 0.000212529558, -0.382784843, 2.51        , 3           , 12          , 0.0478082635, 0
0.0272987615, 0.0346485972, -9.762958   , -0.000657586, -0.000722463243, -0.000647288049, 0.400970757 , 0.1603074   , 0.3342996   , -0.004192289, 0.000205277815, -0.382791281, 2.52        , 3           , 14          , 0.00045278485, 0.0006019102
0.0183880348, 0.0366577879, -9.792396   , -0.0006609078, -1.85499175E-05, -0.000363665866, 0.400970757 , 0.1603074   , 0.3342996   , -0.00419889856, 0.000205077 , -0.382794857, 2.53        , 3           , 15          , 0           , 0.00020441621
0.00219166931, 0.0463066958, -9.787508   , 0.000888294948, 0.0009774362, 0.0009165147, 0.401105583 , 0.159970343 , 0.334029943 , -0.00419001374, 0.000214889937, -0.382785559, 2.54        , 3           , 50          , 0           , 0
0.00195306528, 0.0612151176, -9.791967   , 0.00286212424, 0.00169472024, 0.00149189308, 0.4013752   , 0.16024     , 0.334771484 , -0.00416138954, 0.000231899263, -0.382770777, 2.55        , 3           , 11          , 0.0478154272, 0.04781542
-0.0176790934, 0.0510460548, -9.785833   , 0.00300879474, 0.000428628642, 7.79114562E-05, 0.400970757 , 0.15990293  , 0.3342996   , -0.004131302, 0.00023618876, -0.382770061, 2.56        , 3           , 12          , 0.0478082635, 0
-0.00374269113, 0.03919518  , -9.79888248 , 0.001312595 , 0.0006987327, -0.00035336244, 0.400970757 , 0.15990293  , 0.3342996   , -0.00411817664, 0.000243161514, -0.382773638, 2.57        , 3           , 14          , 0.00045278485, 0.0006019102
0.00309056067, 0.0422734953, -9.798819   , -0.0009482136, 0.000965017942, -0.000363464, 0.40103817  , 0.159970343 , 0.33396253  , -0.00412766 , 0.0002527965, -0.3827772  , 2.58        , 3           , 15          , 0           , 0.00020441621
-0.0005459944, 0.0431971624, -9.792514   , -0.0016508773, 0.000256329979, -0.00050910993, 0.40103817  , 0.1603074   , 0.3349063   , -0.00414416939, 0.000255338731, -0.382782459, 2.59        , 3           , 50          , 0           , 0
0.0199232586, 0.05151472  , -9.787803   , 0.0003221675, 0.00111439591, -7.478954E-05, 0.400970757 , 0.160037756 , 0.334367    , -0.00414097868, 0.000266477349, -0.382783175, 2.6         , 3           , 11          , 0.048742    , 0.0487419963
0.0152249895, 0.0429491252, -9.773863   , 0.00088640576, 0.00125899876, 6.933005E-05, 0.400970757 , 0.160037756 , 0.334367    , -0.004132114, 0.0002790701, -0.3827827  , 2.61        , 3           , 12          , 0.0487342663, 0
-0.00249628443, 0.03908852  , -9.771754   , -0.000661573547, 0.000263018417, 0.0009081805, 0.401105583 , 0.160037756 , 0.33396253  , -0.004138728, 0.0002817377, -0.382773638, 2.62        , 3           , 14          , 0.0004527907, 0.0006019106
0.0196995474, 0.031247681 , -9.798285   , -0.000519047666, -1.75920613E-05, 0.000767136342, 0.40103817  , 0.160172582 , 0.334771484 , -0.004143916, 0.000281593471, -0.38276577 , 2.63        , 3           , 15          , 0           , 0.000204422424
0.0131898457, 0.0574442968, -9.78331    , -0.000659727259, -0.0001593304, 0.000483723416, 0.40103817  , 0.160037756 , 0.334367    , -0.0041505117, 0.000280020351, -0.382761   , 2.64        , 3           , 50          , 0           , 0
0.0243949387, 0.0460598357, -9.791408   , 4.347021E-05, 0.000408574269, 0.000346614863, 0.40103817  , 0.160037756 , 0.334367    , -0.0041500763, 0.00028412044, -0.382757425, 2.65        , 3           , 11          , 0.048742    , 0.0487419963
0.0147824194, 0.0416236669, -9.780652   , 0.0011726435, 0.0005569975, 0.000634637 , 0.40103817  , 0.1603074   , 0.334164768 , -0.004138348, 0.0002897167, -0.382751226, 2.66        , 3           , 12          , 0.0487342663, 0
0.01298555  , 0.0407637954, -9.786997   , 0.000185417783, 0.000409532775, 0.001618692 , 0.401442617 , 0.15990293  , 0.3349063   , -0.004136489, 0.000293878838, -0.382735   , 2.67        , 3           , 14          , 0.0004527907, 0.0006019106
-0.000136089511, 0.0355691463, -9.806553   , 0.00102999178, 0.0009783934, 0.00176477933, 0.40103817  , 0.160037756 , 0.3342996   , -0.004126184, 0.000303735549, -0.382717371, 2.68        , 3           , 15          , 0           , 0.000204422424
0.00747817941, 0.034072414 , -9.790683   , 0.00272381864, 0.0009898496, 0.000501262431, 0.40103817  , 0.160037756 , 0.3342996   , -0.00409894437, 0.000313654775, -0.382712364, 2.69        , 3           , 50          , 0           , 0
0.0210996754, 0.0424243361, -9.772464   , 0.000753146945, -0.000431341061, -0.000640272861, 0.40103817  , 0.16024     , 0.334097356 , -0.00409142254, 0.000309355382, -0.3827188  , 2.7         , 3           , 11          , 0.0496844649, 0.0496844538
0.005152843 , 0.0643269   , -9.789219   , -0.000237971879, 0.000125105 , -0.0003614769, 0.40103817  , 0.160037756 , 0.334771484 , -0.004093803, 0.0003105917, -0.382722616, 2.71        , 3           , 12          , 0.0496761128, 0
0.01822813  , 0.0347428247, -9.75941    , -0.00052302354, 0.0006863259, -7.93884537E-05, 0.400835931 , 0.160105169 , 0.3342996   , -0.00409903424, 0.0003174516, -0.382723331, 2.72        , 3           , 14          , 0.000452792156, 0.0006019029
0.0196195152, 0.0365390331, -9.761652   , -0.002911558, -0.00172321091, 0.0003295354, 0.400835931 , 0.160105169 , 0.3342996   , -0.00412814831, 0.0003002332, -0.38272    , 2.73        , 3           , 15          , 0           , 0.000204419644
-0.009614858, 0.04061471  , -9.7980175  , -0.00178222125, -0.001574787, 0.0009000949, 0.400970757 , 0.160037756 , 0.33396253  , -0.00414596731, 0.000284522772, -0.382710934, 2.74        , 3           , 50          , 0           , 0
-0.007758411, 0.04643271  , -9.790296   , 0.000195011264, -0.00156141585, 0.0013331197, 0.4013752   , 0.159970343 , 0.334771484 , -0.00414401432, 0.000268963922, -0.382697344, 2.75        , 3           , 11          , 0.0496844649, 0.0496844538
0.0180040263, 0.04653854  , -9.777442   , -0.000367543835, -0.002128368, 0.000482005649, 0.400768518 , 0.16024     , 0.334569246 , -0.00414768839, 0.000247700373, -0.382692575, 2.76        , 3           , 12          , 0.0496761128, 0
0.0326436   , 0.0531855971, -9.792218   , -0.000371147617, -0.00156524207, -0.0009298137, 0.400768518 , 0.16024     , 0.334569246 , -0.004151403, 0.000232009334, -0.382701874, 2.77        , 3           , 14          , 0.000452792156, 0.0006019029
0.0033150916, 0.0336025767, -9.770828   , 0.000757329 , -0.00127603626, -0.0006415747, 0.401173    , 0.16037482  , 0.334029943 , -0.004143831, 0.000219222449, -0.3827083  , 2.78        , 3           , 15          , 0           , 0.000204419644
-0.0105364658, 0.04418315  , -9.782642   , 5.22853043E-05, -0.0014215922, -8.00091E-05, 0.4012404   , 0.160172582 , 0.335175961 , -0.004143308, 0.0002050033, -0.3827088  , 2.79        , 3           , 50          , 0           , 0
-0.00184797961, 0.0539711937, -9.77168751 , -0.00135690137, -0.00199426454, 0.000195075379, 0.400903344 , 0.160037756 , 0.33443442  , -0.00415689452, 0.000185104727, -0.382706881, 2.8         , 3           , 11          , 0.05064165  , 0.05064165
0.0007949164, 0.04227438  , -9.791151   , -0.002773462, -0.00115912047, -0.000234013583, 0.400903344 , 0.160037756 , 0.33443442  , -0.004184629, 0.00017350394, -0.382709265, 2.81        , 3           , 12          , 0.0506326556, 0
0.0376673527, 0.058518257 , -9.785378   , -0.00390320644, -0.00130754639, -0.00151091686, 0.401173    , 0.160442233 , 0.334164768 , -0.004223664, 0.000160364958, -0.3827243  , 2.82        , 3           , 14          , 0.0004527956, 0.000601896143
-0.0144116208, 0.06001524  , -9.780798   , -0.00263011316, -0.00172129879, -0.0013643729, 0.400970757 , 0.16024     , 0.3349063   , -0.00424996624, 0.0001430944, -0.382737875, 2.83        , 3           , 15          , 0           , 0.000204419979
-0.007791668, 0.04685212  , -9.780802   , -0.0005146629, -0.00100305781, -8.199241E-05, 0.400970757 , 0.159970343 , 0.334367    , -0.00425511366, 0.000133060443, -0.3827386  , 2.84        , 3           , 50          , 0           , 0
0.01947728  , 0.05063285  , -9.79233    , -9.536789E-05, -0.000155498346, -0.000361252722, 0.400970757 , 0.159970343 , 0.334367    , -0.004256068, 0.00013149  , -0.382742167, 2.85        , 3           , 11          , 0.05064165  , 0.05064165
0.0171832014, 0.0426006839, -9.810911   , -0.00123499648, 0.00180781644, -0.0006460203, 0.400970757 , 0.16024     , 0.33396253  , -0.004268419, 0.000149540487, -0.3827486  , 2.86        , 3           , 12          , 0.0506326556, 0
0.00532748131, 0.0435640924, -9.787948   , 0.000453944231, 0.00308632269, 0.0004939839, 0.401173    , 0.160105169 , 0.3348389   , -0.004263879, 0.00018042454, -0.382743835, 2.87        , 3           , 14          , 0.0004527956, 0.000601896143
-0.00612930674, 0.0346588381, -9.783552   , 0.00202012714, 0.0004219571, -0.000209239079, 0.400903344 , 0.160105169 , 0.334367    , -0.004243677, 0.000184635224, -0.382745981, 2.88        , 3           , 15          , 0           , 0.000204419979
0.01294142  , 0.0416207351, -9.773434   , 0.000614310266, -0.0009954214, -0.00134814333, 0.400903344 , 0.160105169 , 0.334367    , -0.00423753634, 0.000174623914, -0.382759571, 2.89        , 3           , 50          , 0           , 0
0.0118291983, 0.0543339252, -9.792826   , -0.001930568, -0.000449475745, -0.00178293744, 0.40103817  , 0.160105169 , 0.334164768 , -0.00425686641, 0.0001700875, -0.382777452, 2.9         , 3           , 11          , 0.0516124852, 0.0516124852
0.004605488 , 0.05488223  , -9.796494   , -0.00164859358, -0.00030678208, -0.0013575973, 0.401173    , 0.159633279 , 0.3349063   , -0.004273355, 0.0001669618, -0.3827908  , 2.91        , 3           , 12          , 0.0516028032, 0
0.00426995661, 0.0296147317, -9.795696   , -0.0008008237, -0.0003010498, -0.000506034063, 0.400835931 , 0.160105169 , 0.334367    , -0.00428136345, 0.000163929828, -0.382796049, 2.92        , 3           , 14          , 0.000452799664, 0.00060188974
0.0075367745, 0.0376906879, -9.793378   , -0.0002311726, -0.001282708, -0.0006461877, 0.400835931 , 0.160105169 , 0.334367    , -0.00428367639, 0.000151075132, -0.382802248, 2.93        , 3           , 15          , 0           , 0.00020442337
0.008837549 , 0.070583865 , -9.784192   , -8.84019537E-05, -0.00156331738, -0.000363425643, 0.400970757 , 0.160577059 , 0.334097356 , -0.00428456161, 0.00013542641, -0.382805824, 2.94        , 3           , 50          , 0           , 0
0.002742231 , 0.04995141  , -9.799692   , -0.00024285847, 0.00111059588, -0.000359961734, 0.401307821 , 0.159970343 , 0.334771484 , -0.004286991, 0.000146516773, -0.382809639, 2.95        , 3           , 11          , 0.0516124852, 0.0516124852
0.0247669667, 0.0401865356, -9.790525   , -0.000390508125, 0.00237668282, -0.000641204941, 0.400970757 , 0.160037756 , 0.33443442  , -0.00429089647, 0.0001702559, -0.382816076, 2.96        , 3           , 12          , 0.0516028032, 0
0.0425538458, 0.0521346   , -9.782656   , -0.00136871007, 0.0002582592, -0.0009316063, 0.400970757 , 0.160037756 , 0.33443442  , -0.00430458551, 0.000172798464, -0.382825375, 2.97        , 3           , 14          , 0.000452799664, 0.00060188974
0.00322100753, 0.05487701  , -9.790176   , -0.00221217913, -0.000451381871, -0.000371567032, 0.400903344 , 0.1603074   , 0.334097356 , -0.00432670768, 0.000168268685, -0.382828951, 2.98        , 3           , 15          , 0           , 0.00020442337
0.011946979 , 0.0348641053, -9.77347    , -0.000243103117, 0.001110595 , -0.0007837681, 0.4013752   , 0.160105169 , 0.334973723 , -0.00432914 , 0.000179340539, -0.382837057, 2.99        , 3           , 50          , 0           , 0
0.0169092845, 0.03523713  , -9.767553   , 0.00172650116, 0.00253180275, -0.00147871941, 0.400903344 , 0.160105169 , 0.334232181 , -0.0043119085, 0.000204671116, -0.382851839, 3           , 3           , 11          , 0.0525959581, 0.0525959581
0.00508580171, 0.0593627244, -9.788788   , -0.0009475371, 0.00082427013, -0.000363684143, 0.400903344 , 0.160105169 , 0.334232181 , -0.00432138424, 0.000212898187, -0.382855654, 3.01        , 3           , 12          , 0.0525855422, 0
-0.009076274, 0.04826687  , -9.794365   , -0.0029226786, 0.0003885519, -0.000797359855, 0.401105583 , 0.160037756 , 0.334097356 , -0.00435061241, 0.000216749089, -0.382863522, 3.02        , 3           , 14          , 0.0004528053, 0.0006018754
0.00741189159, 0.0326796472, -9.778936   , -0.00180178764, 0.00222636643, -0.000365465268, 0.4013752   , 0.159970343 , 0.335108548 , -0.0043686307, 0.000238996756, -0.382867336, 3.03        , 3           , 15          , 0           , 0.000204419426
0.0135250147, 0.04707762  , -9.787869   , -0.0001107117, 0.00294173858, -0.00035647882, 0.400903344 , 0.1603074   , 0.334569246 , -0.004369738, 0.000268398318, -0.3828709  , 3.04        , 3           , 50          , 0           , 0
-0.00620374735, 0.0572882444, -9.803346   , 0.0004600071, 0.00167851348, -0.00106214127, 0.400903344 , 0.1603074   , 0.334569246 , -0.004365141, 0.000285136863, -0.382881641, 3.05        , 3           , 11          , 0.0525959581, 0.0525959581
-0.00467009563, 0.0374027155, -9.799349   , 0.0018830857, -0.000423672551, -0.000211198654, 0.40103817  , 0.16037482  , 0.334097356 , -0.00434631063, 0.0002808908, -0.3828838  , 3.06        , 3           , 12          , 0.0525855422, 0
0.024799116 , 0.04333703  , -9.788252   , 0.00203003827, -0.00154897722, 7.02614343E-05, 0.401173    , 0.159835517 , 0.335175961 , -0.00432601059, 0.000265404349, -0.382883072, 3.07        , 3           , 14          , 0.0004528053, 0.0006018754
0.02258697  , 0.04786907  , -9.786441   , 0.0001972966, -0.002124521, 0.000484639633, 0.400903344 , 0.16037482  , 0.334569246 , -0.004324036, 0.0002441802, -0.382878065, 3.08        , 3           , 15          , 0           , 0.000204419426
0.0144416485, 0.05198581  , -9.774735   , 4.73928958E-05, -0.000436087081, -7.849008E-05, 0.400903344 , 0.16037482  , 0.334569246 , -0.00432356261, 0.000239815854, -0.38287878 , 3.09        , 3           , 50          , 0           , 0
0.00344841555, 0.0399595164, -9.783005   , 0.00103485759, -0.000288609415, -0.000638751255, 0.4012404   , 0.160442233 , 0.3342996   , -0.004313248, 0.000236965832, -0.382885218, 3.1         , 3           , 11          , 0.0535911247, 0.05359112
-0.0134925991, 0.02795243  , -9.776404   , 0.00132412848, -0.00155373954, 0.0003494941, 0.401307821 , 0.1603074   , 0.3349063   , -0.00430000573, 0.000221443654, -0.38288188 , 3.11        , 3           , 12          , 0.05357992  , 0
0.0160711128, 0.0330706239, -9.791072   , 0.0003315341, -0.0007157287, 0.000487455371, 0.400835931 , 0.160037756 , 0.334636658 , -0.00429668929, 0.000214307278, -0.382876873, 3.12        , 3           , 14          , 0.000452811219, 0.0006018636
0.00270360429, 0.0481347144, -9.796084   , -0.000237664688, 0.000125145743, 0.00020358582, 0.400835931 , 0.160037756 , 0.334636658 , -0.004299066, 0.0002155673, -0.382874727, 3.13        , 3           , 15          , 0           , 0.000204431912
0.00676878728, 0.0498642623, -9.78791    , -0.0009436501, 0.000120371231, 0.000341562118, 0.400835931 , 0.160442233 , 0.334097356 , -0.004308502, 0.0002167857, -0.3828714  , 3.14        , 3           , 50          , 0           , 0
0.0112084206, 0.0439370722, -9.785189   , -0.00263480772, -0.000595001562, 0.000191306914, 0.40103817  , 0.15990293  , 0.334973723 , -0.00433484931, 0.0002108441, -0.382869482, 3.15        , 3           , 11          , 0.0535911247, 0.05359112
0.00267748442, 0.0481135547, -9.789758   , -0.001931855, -2.70980763E-05, -0.000369607762, 0.401105583 , 0.159970343 , 0.334367    , -0.00435416866, 0.000210557017, -0.382873058, 3.16        , 3           , 12          , 0.05357992  , 0
0.00336120953, 0.02783739  , -9.800683   , -0.0002356924, -0.0004379883, -0.0012099694, 0.401105583 , 0.159970343 , 0.334367    , -0.004356528, 0.0002061245, -0.382885218, 3.17        , 3           , 14          , 0.000452811219, 0.0006018636
0.0150813814, 0.0276568551, -9.787938   , 0.0011773837, -0.0005692198, -0.0007797954, 0.401105583 , 0.1603074   , 0.334029943 , -0.004344756, 0.000200398383, -0.382892847, 3.18        , 3           , 15          , 0           , 0.000204431912
-0.000287748873, 0.0296437051, -9.7885     , 0.00173514127, 0.0009832109, 0.000214106156, 0.401307821 , 0.160105169 , 0.3349063   , -0.00432740431, 0.00021023961, -0.38289094 , 3.19        , 3           , 50          , 0           , 0
4.17558476E-05, 0.051781863 , -9.797897   , 0.000608843344, 0.000271663943, 6.648935E-05, 0.401105583 , 0.159970343 , 0.334569246 , -0.00432128226, 0.000212992134, -0.382890224, 3.2         , 3           , 11          , 0.0545971   , 0.05459709
-0.0180208124, 0.05248041  , -9.808428   , 0.00188152853, -0.000142090386, -0.0004933102, 0.401105583 , 0.159970343 , 0.334569246 , -0.004302468, 0.000211549923, -0.382895231, 3.21        , 3           , 12          , 0.05458506  , 0
0.008840464 , 0.0394158475, -9.774378   , 0.00230127573, 0.00056468515, -0.00119659386, 0.401105583 , 0.16024     , 0.334232181 , -0.004279459, 0.000217145425, -0.382907152, 3.22        , 3           , 14          , 0.000452805078, 0.000601857551
-0.00284756348, 0.0427468941, -9.784849   , -0.000948271, 0.0008242845, -0.0016351107, 0.401307821 , 0.16037482  , 0.334973723 , -0.004288945, 0.00022531813, -0.382923365, 3.23        , 3           , 15          , 0           , 0.000204427459
0.00292937458, 0.0309841335, -9.795701   , -0.00179674523, 0.00124090677, -8.44545648E-05, 0.400835931 , 0.159835517 , 0.334501833 , -0.00430691149, 0.000237723463, -0.382924318, 3.24        , 3           , 50          , 0           , 0
0.03403859  , 0.05989459  , -9.779525   , 0.0006069156, 0.0006940126, 0.00034967775, 0.400835931 , 0.159835517 , 0.334501833 , -0.0043008416, 0.000244678638, -0.38292098 , 3.25        , 3           , 11          , 0.0545971   , 0.05459709
0.0188432131, 0.04245697  , -9.774288   , -0.000379034929, 0.000124196144, -7.96056847E-05, 0.400903344 , 0.160105169 , 0.334097356 , -0.004304632, 0.000245917239, -0.3829217  , 3.26        , 3           , 12          , 0.05458506  , 0
0.0267299619, 0.0514470674, -9.791367   , -0.00207380368, 0.0002535212, 0.000760322029, 0.401442617 , 0.15990293  , 0.334973723 , -0.004325368, 0.0002484853, -0.382914066, 3.27        , 3           , 14          , 0.000452805078, 0.000601857551
0.00357035361, 0.0409510173, -9.809668   , -0.00221346 , -2.89981144E-05, 0.00104176707, 0.4007011   , 0.159970343 , 0.33443442  , -0.00434750039, 0.000248240482, -0.382903576, 3.28        , 3           , 15          , 0           , 0.000204427459
0.007910177 , 0.0612034723, -9.809097   , -0.000381170423, 0.0006873294, 0.001051412 , 0.4007011   , 0.159970343 , 0.33443442  , -0.004351309, 0.000255159452, -0.3828931  , 3.29        , 3           , 50          , 0           , 0
0.0166311041, 0.0394010767, -9.796917   , 0.00230503734, 1.57074282E-06, 0.000497763569, 0.4012404   , 0.160105169 , 0.33396253  , -0.0043282886, 0.0002552563, -0.382888079, 3.3         , 3           , 11          , 0.05561305  , 0.0556130372
0.005460092 , 0.0214281753, -9.780807   , 0.00216751662, -0.000844081864, -0.0003518091, 0.4012404   , 0.160105169 , 0.334973723 , -0.004306614, 0.000246800366, -0.382891655, 3.31        , 3           , 12          , 0.05560012  , 0
-0.007763124, 0.04508984  , -9.793465   , 0.00385371363, 0.0008567686, -0.000341303938, 0.4006337   , 0.160037756 , 0.33443442  , -0.00426807767, 0.000255353458, -0.382895   , 3.32        , 3           , 14          , 0.0004528108, 0.0006018467
0.009438458 , 0.03908185  , -9.810986   , 0.00308283814, -0.000204350232, 0.0006423283, 0.4006337   , 0.160037756 , 0.33443442  , -0.00423724763, 0.000253337144, -0.382888556, 3.33        , 3           , 15          , 0           , 0.000204427168
0.02687524  , 0.0613844953, -9.794941   , -0.000381992053, 0.000687336258, -0.000361274957, 0.400903344 , 0.1603074   , 0.334164768 , -0.004241068, 0.0002601953, -0.38289237 , 3.34        , 3           , 50          , 0           , 0
0.002448406 , 0.0683858842, -9.779279   , -0.00165256427, 0.0006083501, -0.000367309549, 0.401105583 , 0.160037756 , 0.335108548 , -0.0042575947, 0.0002662632, -0.382895947, 3.35        , 3           , 11          , 0.05561305  , 0.0556130372
0.00813522749, 0.05833552  , -9.762553   , -0.000939096964, -0.000865091162, -0.000225026641, 0.400768518 , 0.16024     , 0.33443442  , -0.00426698569, 0.00025760266, -0.3828981  , 3.36        , 3           , 12          , 0.05560012  , 0
0.0177274533, 0.0605235   , -9.7755785  , -0.00193343021, 0.000184090066, -0.00128752424, 0.400768518 , 0.16024     , 0.33443442  , -0.004286324, 0.000259388355, -0.382910967, 3.37        , 3           , 14          , 0.0004528108, 0.0006018467
0.00216083229, 0.04494266  , -9.784349   , -0.000867941533, -0.0007942181, 0.00132936717, 0.401173    , 0.16024     , 0.334232181 , -0.00429499941, 0.0002515035, -0.382897615, 3.38        , 3           , 15          , 0           , 0.000204427168
-0.004930108, 0.0536328442, -9.794311   , 0.00174727256, -0.00126928824, 0.00190586457, 0.401173    , 0.160037756 , 0.335041136 , -0.004277522, 0.0002388925, -0.382878542, 3.39        , 3           , 50          , 0           , 0
0.0222366452, 0.0176797379, -9.79787    , -0.000303487119, -0.0008607861, 6.048015E-05, 0.400903344 , 0.160105169 , 0.334636658 , -0.00428063143, 0.000230325328, -0.382878065, 3.4         , 3           , 11          , 0.0566381961, 0.0566381961
0.0103714289, 0.04846677  , -9.78743649 , -0.000377085846, -0.00029813443, -0.0002921531, 0.400903344 , 0.160105169 , 0.334636658 , -0.00428440329, 0.000227331475, -0.382880926, 3.41        , 3           , 12          , 0.056624338 , 0
0.0339672938, 0.049124416 , -9.796745   , 0.000536763866, 0.000482375937, -0.0006398516, 0.400903344 , 0.160037756 , 0.334097356 , -0.004279037, 0.000232127786, -0.382887363, 3.42        , 3           , 14          , 0.000452824432, 0.0006018399
-0.005592131, 0.0378463529, -9.79393    , 0.0007432083, 0.00175085571, 0.0009170449, 0.401173    , 0.159835517 , 0.3349063   , -0.00427160226, 0.000249675417, -0.382878065, 3.43        , 3           , 15          , 0           , 0.000204421
0.00229841564, 0.0571056   , -9.778875   , -0.000100260819, 0.00104121468, 0.00147708424, 0.40103817  , 0.160105169 , 0.334232181 , -0.00427260157, 0.000260150526, -0.382863283, 3.44        , 3           , 50          , 0           , 0
0.00370116322, 0.0290797018, -9.769036   , -0.0008050747, 0.0006844809, 0.0006256369, 0.40103817  , 0.160105169 , 0.334232181 , -0.00428065052, 0.000267022173, -0.382857084, 3.45        , 3           , 11          , 0.0566381961, 0.0566381961
0.01091492  , 0.0200426858, -9.790262   , 0.000950709044, 0.00238580373, -0.00112938776, 0.40103817  , 0.160172582 , 0.33396253  , -0.004271147, 0.000290831726, -0.382868528, 3.46        , 3           , 12          , 0.056624338 , 0
0.00695648557, 0.029112041 , -9.789803   , 0.000113390575, 0.0004091193, -0.0007832043, 0.40103817  , 0.160172582 , 0.335108548 , -0.00427001528, 0.00029488944, -0.3828764  , 3.47        , 3           , 14          , 0.000452824432, 0.0006018399
0.00578835327, 0.05204598  , -9.762598   , 0.001102726 , 0.000204629468, -0.00113209232, 0.400835931 , 0.160037756 , 0.3342996   , -0.004258991, 0.000296887476, -0.38288784 , 3.48        , 3           , 15          , 0           , 0.000204421
0.0126019977, 0.04618141  , -9.786525   , 0.00159395882, 0.000841494 , -0.0009169082, 0.400835931 , 0.160037756 , 0.3342996   , -0.00424305443, 0.000305263326, -0.3828969  , 3.49        , 3           , 50          , 0           , 0
0.0156728625, 0.03624458  , -9.794226   , -0.001165112, 0.00180835545, -0.00184647506, 0.401173    , 0.1603074   , 0.334097356 , -0.00425471226, 0.0003233169, -0.3829155  , 3.5         , 3           , 11          , 0.0576718338, 0.0576718338
0.0197892766, 0.0442645475, -9.778343   , -0.00207291846, -2.80199638E-05, -8.77165E-05, 0.4012404   , 0.159835517 , 0.3349063   , -0.0042754407, 0.000323033135, -0.3829162  , 3.51        , 3           , 12          , 0.0576569848, 0
0.0162115451, 0.0465749167, -9.781975   , 5.299028E-05, -0.00156230293, -9.591679E-06, 0.400970757 , 0.16024     , 0.3342996   , -0.004274911, 0.000307409849, -0.3829162  , 3.52        , 3           , 14          , 0.000452824635, 0.0006018313
-0.00245357119, 0.07654241  , -9.772503   , 0.0016036724, -0.0009886674, 0.000210422309, 0.400970757 , 0.16024     , 0.3342996   , -0.00425887341, 0.000297532184, -0.3829143  , 3.53        , 3           , 15          , 0           , 0.000204419717
0.0004261918, 0.0450259149, -9.802894   , -0.000451018161, 0.000546095951, 0.00119214237, 0.4012404   , 0.160037756 , 0.33396253  , -0.00426337961, 0.000303043867, -0.382902384, 3.54        , 3           , 50          , 0           , 0
-0.0059880577, 0.0365586951, -9.812017   , -0.00143349881, -0.000938811747, -0.001075045, 0.4012404   , 0.160105169 , 0.3349063   , -0.004277718, 0.000293609861, -0.3829131  , 3.55        , 3           , 11          , 0.0576718338, 0.0576718338
0.012732802 , 0.0516436063, -9.800964   , -0.00234308862, -0.002423231, 0.0006136218, 0.40103817  , 0.160037756 , 0.33443442  , -0.004301147, 0.0002694041, -0.382906675, 3.56        , 3           , 12          , 0.0576569848, 0
0.0156280845, 0.0362082981, -9.783379   , -0.00263008312, -0.00165084063, -0.0006579204, 0.40103817  , 0.160037756 , 0.33443442  , -0.00432744948, 0.000252867525, -0.382913351, 3.57        , 3           , 14          , 0.000452824635, 0.0006018313
0.009271186 , 0.039839007 , -9.767593   , -0.00115182833, -0.000866512535, -0.001779963, 0.400970757 , 0.160172582 , 0.334029943 , -0.00433897134, 0.000244125375, -0.382931   , 3.58        , 3           , 15          , 0           , 0.000204419717
-0.00115335453, 0.025669571 , -9.811122   , 0.00208195485, 0.00204149471, -0.001477833, 0.40151003  , 0.159970343 , 0.3349063   , -0.00431815535, 0.000264475937, -0.382946   , 3.59        , 3           , 50          , 0           , 0
0.0169380885, 0.0236553624, -9.811896   , 0.00171844568, 0.00422124565, -0.0009110255, 0.401173    , 0.1603074   , 0.334367    , -0.004300965, 0.000306687725, -0.382955074, 3.6         , 3           , 11          , 0.0587132834, 0.05871328
0.01604414  , 0.0267998613, -9.804659   , -0.000809355464, 0.00145879819, -0.000150130843, 0.401173    , 0.1603074   , 0.334367    , -0.00430905866, 0.000321269152, -0.382956743, 3.61        , 3           , 12          , 0.0586973839, 0
-0.02766823 , 0.04623057  , -9.794969   , -0.004052838, 0.000592139433, 0.0002572288, 0.40103817  , 0.1603074   , 0.334232181 , -0.004349586, 0.000327201735, -0.382954121, 3.62        , 3           , 14          , 0.000452822918, 0.0006018245
0.00153183646, 0.0309683383, -9.786221   , 0.0008136127, 0.00175134791, 0.000564219139, 0.401105583 , 0.159970343 , 0.3349063   , -0.004341448, 0.0003447396, -0.382948637, 3.63        , 3           , 15          , 0           , 0.000204403972
0.003925686 , 0.0377422832, -9.796118   , 0.00271804747, 0.00211619539, 0.000220479 , 0.400903344 , 0.160172582 , 0.334636658 , -0.004314267, 0.000365910935, -0.3829465  , 3.64        , 3           , 50          , 0           , 0
-0.01679513 , 0.0470007546, -9.793526   , -0.001297763, 0.000399589655, 0.000905452762, 0.400903344 , 0.160172582 , 0.334636658 , -0.004327242, 0.0003699459, -0.382937431, 3.65        , 3           , 11          , 0.0587132834, 0.05871328
0.0156925712, 0.04786566  , -9.761635   , -0.000315171521, 0.00153253332, 0.0003467228, 0.4013752   , 0.159970343 , 0.334232181 , -0.00433039153, 0.000385285937, -0.3829341  , 3.66        , 3           , 12          , 0.0586973839, 0
0.0476084948, 0.026321942 , -9.772779   , -0.0007985334, -0.00065293815, 0.000482323958, 0.4013752   , 0.16024     , 0.3349063   , -0.00433837576, 0.00037877768, -0.3829291  , 3.67        , 3           , 14          , 0.000452822918, 0.0006018245
0.0115393028, 0.0353523269, -9.782962   , -0.00207498576, 0.000323941465, -0.000652233255, 0.401105583 , 0.159970343 , 0.334501833 , -0.004359127, 0.0003819886, -0.382935762, 3.68        , 3           , 15          , 0           , 0.000204403972
0.00201097317, 0.0287526213, -9.799786   , 0.00039501462, 0.0007630056, 0.0008432626, 0.401105583 , 0.159970343 , 0.334501833 , -0.00435517356, 0.000389655237, -0.382927179, 3.69        , 3           , 50          , 0           , 0
0.00272291712, 0.0490430631, -9.797888   , -0.00122175191, -0.000796579057, -1.429969E-05, 0.401173    , 0.160037756 , 0.334029943 , -0.004367332, 0.00038173463, -0.382927418, 3.7         , 3           , 11          , 0.05976191  , 0.05976191
0.0194249414, 0.04791233  , -9.788274   , 0.000248016528, 0.001677139 , -0.00134564179, 0.401644856 , 0.159970343 , 0.3349063   , -0.004364856, 0.000398447039, -0.382941   , 3.71        , 3           , 12          , 0.0597448945, 0
0.00953306351, 0.02361039  , -9.773082   , 0.00123232475, 0.002669305 , -0.000138729753, 0.401173    , 0.159835517 , 0.33443442  , -0.004352534, 0.000425133854, -0.382942438, 3.72        , 3           , 14          , 0.000452812674, 0.000601816631
0.008134345 , 0.0168983713, -9.784872   , 4.195049E-05, 0.0007606257, 0.000770991 , 0.401173    , 0.159835517 , 0.33443442  , -0.004352112, 0.000432773377, -0.3829348  , 3.73        , 3           , 15          , 0           , 0.000204394848
0.0171335842, 0.046131283 , -9.78739548 , -0.00206780527, -0.0009430891, 0.000899779145, 0.401307821 , 0.160172582 , 0.334097356 , -0.004372786, 0.0004233818, -0.382925749, 3.74        , 3           , 50          , 0           , 0
0.0150210839, 0.0543148629, -9.798224   , -0.00157267228, -0.00129170693, -0.000581780332, 0.401307821 , 0.159970343 , 0.3349063   , -0.004388515, 0.000410439272, -0.382931471, 3.75        , 3           , 11          , 0.05976191  , 0.05976191
0.0316058174, 0.0432693921, -9.791816   , -0.001001464, -0.00255492958, -0.00043983027, 0.401105583 , 0.160037756 , 0.334367    , -0.00439853128, 0.000384870742, -0.382935762, 3.76        , 3           , 12          , 0.0597448945, 0
0.0154394982, 0.0582988635, -9.776961   , 0.003932519 , -0.0008321153, -0.000626083463, 0.401105583 , 0.160037756 , 0.334367    , -0.00435920851, 0.0003765223, -0.382941961, 3.77        , 3           , 14          , 0.000452812674, 0.000601816631
0.00144476164, 0.0567119531, -9.792894   , 0.0027914932, 0.00155355071, 0.000290583936, 0.401105583 , 0.16024     , 0.333895117 , -0.004331293, 0.000392070331, -0.3829391  , 3.78        , 3           , 15          , 0           , 0.000204394848
-0.006018795, 0.0378728434, -9.8002615  , 0.00103105977, 0.0006265277, 0.0006341146, 0.4013752   , 0.160172582 , 0.3348389   , -0.00432097958, 0.000398362929, -0.3829329  , 3.79        , 3           , 50          , 0           , 0
-0.00358562917, 0.02243528  , -9.780419   , -0.00179716654, 0.00138174091, 0.000410241017, 0.400970757 , 0.15990293  , 0.3342996   , -0.00433896249, 0.0004122518, -0.3829286  , 3.8         , 3           , 11          , 0.0608171336, 0.0608171448
0.0201169811, 0.0338918231, -9.781095   , -0.000518968038, -8.788125E-05, 0.0003432547, 0.400970757 , 0.15990293  , 0.3342996   , -0.004344151, 0.000411387882, -0.382925272, 3.81        , 3           , 12          , 0.0607989319, 0
0.02976004  , 0.03165748  , -9.820805   , -0.0008820895, 0.002021471 , 0.0009805724, 0.401105583 , 0.1603074   , 0.334164768 , -0.004352967, 0.00043164508, -0.3829155  , 3.82        , 3           , 14          , 0.000452814827, 0.0006018074
0.01879529  , 0.0330447778, -9.792859   , -0.00228392822, -0.000240603549, -0.0005128054, 0.40151003  , 0.160172582 , 0.3348389   , -0.00437580841, 0.000429216656, -0.382920742, 3.83        , 3           , 15          , 0           , 0.00020438926
-0.0120779714, 0.03601639  , -9.764156   , -0.00116057543, 0.001034079 , -0.000646853645, 0.401173    , 0.160105169 , 0.334501833 , -0.004387418, 0.000439528958, -0.382927179, 3.84        , 3           , 50          , 0           , 0
0.00177508872, 0.0499121547, -9.784785   , 0.000613875745, -0.000713762769, 0.000347546185, 0.401173    , 0.160105169 , 0.334501833 , -0.004381277, 0.0004324066, -0.3829236  , 3.85        , 3           , 11          , 0.0608171336, 0.0608171448
0.008118271 , 0.045377627 , -9.800122   , 0.000392197457, 0.00118536688, -0.00042749045, 0.401173    , 0.16024     , 0.334029943 , -0.00437735626, 0.000444241363, -0.3829279  , 3.86        , 3           , 12          , 0.0607989319, 0
-0.00207853038, 0.05951279  , -9.808276   , 0.0006063569, 0.0006236669, -0.00120434863, 0.4013752   , 0.159970343 , 0.3348389   , -0.00437129848, 0.0004504254, -0.382940054, 3.87        , 3           , 14          , 0.000452814827, 0.0006018074
0.0139667355, 0.0421534851, -9.800995   , 0.00033495255, -0.00134919246, 0.0009809624, 0.401173    , 0.159970343 , 0.334501833 , -0.004367945, 0.000436976377, -0.38293004 , 3.88        , 3           , 15          , 0           , 0.00020438926
0.00109329168, 0.03768044  , -9.768116   , -0.000436119415, -0.00269188383, -0.000790579768, 0.401173    , 0.159970343 , 0.334501833 , -0.004372309, 0.0004100232, -0.3829379  , 3.89        , 3           , 50          , 0           , 0
-0.0063501345, 0.05092072  , -9.788007   , -0.000449606072, -1.70124167E-05, -0.0012102531, 0.401442617 , 0.1603074   , 0.334097356 , -0.00437680446, 0.0004098268, -0.382950068, 3.9         , 3           , 11          , 0.0618783981, 0.06187841
0.008648836 , 0.0548086837, -9.788779   , 0.000258982036, -0.000504975964, -0.00106645131, 0.401307821 , 0.16024     , 0.334973723 , -0.004374219, 0.000404730265, -0.382960558, 3.91        , 3           , 12          , 0.061858952 , 0
0.0247286689, 0.038816452 , -9.785559   , 0.0004759445, -0.001418627, -7.35849426E-06, 0.400835931 , 0.1603074   , 0.334569246 , -0.00436945958, 0.000390543719, -0.382960558, 3.92        , 3           , 14          , 0.000452813751, 0.0006018029
0.0294224825, 0.0188861527, -9.779278   , 4.87784746E-05, -0.0007175795, -7.888329E-05, 0.400835931 , 0.1603074   , 0.334569246 , -0.004368972, 0.000383364735, -0.3829615  , 3.93        , 3           , 15          , 0           , 0.000204378724
0.0103265513, 0.04575231  , -9.785189   , -0.0007291261, -0.000441266049, 0.000200466413, 0.400903344 , 0.16024     , 0.3342996   , -0.00437626243, 0.000378960918, -0.382959366, 3.94        , 3           , 50          , 0           , 0
-0.006147149, 0.0658147559, -9.78975    , 0.0015982074, 0.000208014724, 0.0009892856, 0.401105583 , 0.160172582 , 0.335041136 , -0.00436027627, 0.000381084217, -0.3829496  , 3.95        , 3           , 11          , 0.0618783981, 0.06187841
0.0007182788, 0.06445565  , -9.8118515  , -0.0005167907, -0.00065101 , -0.000717118033, 0.400903344 , 0.160105169 , 0.334704071 , -0.00436544651, 0.00037454284, -0.382956743, 3.96        , 3           , 12          , 0.061858952 , 0
0.00692964345, 0.06070701  , -9.792383   , -0.0008680818, -0.00100535376, -0.0007193065, 0.400903344 , 0.160105169 , 0.334704071 , -0.00437413 , 0.000364458072, -0.382963657, 3.97        , 3           , 14          , 0.000452813751, 0.0006018029
0.0068067573, 0.050787732 , -9.794233   , -0.000445553684, -0.000580136431, 0.0009785446, 0.4012404   , 0.160037756 , 0.334164768 , -0.004378582, 0.0003586996, -0.382953882, 3.98        , 3           , 15          , 0           , 0.000204378724
-0.009272125, 0.0329322666, -9.795787   , -0.00185557443, -0.00108242675, 0.000406125415, 0.4013752   , 0.160037756 , 0.3348389   , -0.004397136, 0.000347893278, -0.382949829, 3.99        , 3           , 50          , 0           , 0
0.04332082  , 0.0462091155, -9.767758   , -0.00192675961, -0.001082905, -0.0005830737, 0.401173    , 0.1603074   , 0.33443442  , -0.004416451, 0.0003370511, -0.382955551, 4           , 3           , 11          , 0.06294519  , 0.0629451945
0.0263101086, 0.05058638  , -9.802221   , -0.00200170814, -0.0003794739, -0.00206564 , 0.401173    , 0.1603074   , 0.33443442  , -0.00443647429, 0.000333165 , -0.3829763  , 4.01        , 3           , 12          , 0.06292443  , 0
0.002370433 , 0.0535931438, -9.807816   , 0.000251611724, 0.00111402839, 6.620476E-05, 0.401105583 , 0.160105169 , 0.334097356 , -0.00443395833, 0.000344308151, -0.382975578, 4.02        , 3           , 14          , 0.00045282123, 0.000601800857
0.0118070366, 0.0520842262, -9.794642   , -0.0002422682, 0.00111068774, 0.0006996094, 0.401105583 , 0.160037756 , 0.334973723 , -0.00443637837, 0.000355445954, -0.382968664, 4.03        , 3           , 15          , 0           , 0.000204367621
-0.00299899187, 0.0345898829, -9.774036   , -0.00214731437, 0.000745837169, -1.61658827E-05, 0.4007011   , 0.16024     , 0.334367    , -0.004457852, 0.00036290352, -0.382968664, 4.04        , 3           , 50          , 0           , 0
0.0137086259, 0.033463683 , -9.765778   , -0.00221812888, 0.0008861445, 0.00083133427, 0.4007011   , 0.16024     , 0.334367    , -0.00448002946, 0.000371802249, -0.382960558, 4.05        , 3           , 11          , 0.06294519  , 0.0629451945
-0.00220465567, 0.0202059038, -9.793074   , 4.58791219E-05, -8.40548746E-05, 0.00034591023, 0.4012404   , 0.160037756 , 0.334164768 , -0.00447956938, 0.000370977155, -0.382956982, 4.06        , 3           , 12          , 0.06292443  , 0
0.00385425775, 0.0318818539, -9.7975     , -0.00115667027, 0.000400567573, 0.0006942445, 0.40151003  , 0.160172582 , 0.335041136 , -0.00449113268, 0.000375014031, -0.382950068, 4.07        , 3           , 14          , 0.00045282123, 0.000601800857
0.0162013639, 0.0403177664, -9.799629   , 0.000314899837, 0.002592723 , 6.88122163E-05, 0.401173    , 0.160172582 , 0.33443442  , -0.004487984, 0.000400944147, -0.3829496  , 4.08        , 3           , 15          , 0           , 0.000204367621
0.004706892 , 0.0558570959, -9.818184   , 0.001657432 , 0.002390621 , 4.10771872E-06, 0.401173    , 0.160172582 , 0.33443442  , -0.004471409, 0.000424850266, -0.3829496  , 4.09        , 3           , 50          , 0           , 0
-0.006466439, 0.0423458144, -9.787139   , 0.00250018854, 0.003170658 , -0.00119153236, 0.400903344 , 0.160172582 , 0.334164768 , -0.004446395, 0.000456544716, -0.3829615  , 4.1         , 3           , 11          , 0.06401703  , 0.0640170351
-0.00746572949, 0.0391560644, -9.774504   , 0.00102978607, 0.0007673299, -0.000354522461, 0.4012404   , 0.15990293  , 0.334973723 , -0.004436099, 0.000464202 , -0.382965326, 4.11        , 3           , 12          , 0.0639948845, 0
0.018087009 , 0.0452667251, -9.801853   , 0.00152776274, 6.676101E-05, 7.05035345E-05, 0.400970757 , 0.16024     , 0.334501833 , -0.004420821, 0.000464872719, -0.3829646  , 4.12        , 3           , 14          , 0.000452818465, 0.000601794047
0.00148185063, 0.0589737557, -9.794692   , 0.0006152439, -0.000924921769, 0.000912317249, 0.400970757 , 0.16024     , 0.334501833 , -0.004414664, 0.00045566386, -0.3829553  , 4.13        , 3           , 15          , 0           , 0.0002043677
-0.009737609, 0.06856116  , -9.788863   , -0.000451783417, 0.0004053437, -0.00135086 , 0.401307821 , 0.160105169 , 0.3342996   , -0.004419188, 0.0004596575, -0.3829689  , 4.14        , 3           , 50          , 0           , 0
0.009504583 , 0.0529722832, -9.782454   , -0.000240604539, 0.0007587378, 0.0005577982, 0.401307821 , 0.160105169 , 0.3349063   , -0.004421591, 0.0004672696, -0.382963419, 4.15        , 3           , 11          , 0.06401703  , 0.0640170351
0.00505614327, 0.0219194181, -9.7912035  , -0.00220047473, -0.00270380382, 0.0006138983, 0.400903344 , 0.160037756 , 0.334501833 , -0.004443593, 0.000440259 , -0.382956982, 4.16        , 3           , 12          , 0.0639948845, 0
-0.0211006179, 0.0303469375, -9.790916   , -0.000798977562, -0.0006529099, -0.000294617668, 0.400903344 , 0.160037756 , 0.334501833 , -0.00445158361, 0.000433716923, -0.382960081, 4.17        , 3           , 14          , 0.000452818465, 0.000601794047
-0.008764605, 0.0414519571, -9.781735   , 0.000110979323, 0.000831511163, -0.0013475751, 0.400903344 , 0.160172582 , 0.334164768 , -0.00445047952, 0.000441972 , -0.382973433, 4.18        , 3           , 15          , 0           , 0.0002043677
0.00256906822, 0.0426694937, -9.78074    , -0.000233571482, -0.0007194803, 6.10795E-05 , 0.40103817  , 0.160037756 , 0.335041136 , -0.004452815, 0.0004347799, -0.382972956, 4.19        , 3           , 50          , 0           , 0
0.00263470039, 0.0431690253, -9.795202   , 0.00195952062, -0.00147898844, 0.0008470751, 0.400903344 , 0.160105169 , 0.334704071 , -0.00443320535, 0.000419974967, -0.382964373, 4.2         , 3           , 11          , 0.06509346  , 0.06509347
0.00336150639, 0.03587194  , -9.774886   , -0.00151635776, 0.0015948267, -0.000576971332, 0.400903344 , 0.160105169 , 0.334704071 , -0.004448371, 0.000435897557, -0.3829701  , 4.21        , 3           , 12          , 0.06506985  , 0
0.0297046918, 0.0400932878, -9.780091   , -0.0005958645, 0.00096750987, -0.00149191427, 0.400903344 , 0.16024     , 0.334367    , -0.004454336, 0.000445506157, -0.382985115, 4.22        , 3           , 14          , 0.0004528166, 0.0006018027
0.005780398 , 0.0386490338, -9.803783   , 0.00314776227, 0.0008520379, -0.00013262908, 0.400970757 , 0.15990293  , 0.334973723 , -0.004422859, 0.0004540203, -0.3829863  , 4.23        , 3           , 15          , 0           , 0.00020436295
0.02132518  , 0.0524267629, -9.795472   , 0.003910066 , 0.00374333258, -0.000265828334, 0.4007011   , 0.1597681   , 0.334569246 , -0.004383759, 0.0004914416, -0.382989168, 4.24        , 3           , 50          , 0           , 0
0.0245516375, 0.05377476  , -9.804934   , 0.000679583056, 0.000201804054, -0.000286397175, 0.4007011   , 0.1597681   , 0.334569246 , -0.00437696464, 0.000493447 , -0.382992029, 4.25        , 3           , 11          , 0.06509346  , 0.06509347
-0.00586605631, 0.04781631  , -9.805642   , -0.000376462558, -0.000438880175, -0.000433580746, 0.401105583 , 0.16037482  , 0.333895117 , -0.00438073138, 0.00048903923, -0.382996559, 4.26        , 3           , 12          , 0.06506985  , 0
-0.00313071557, 0.05538746  , -9.785704   , 0.00132170226, -0.0009905465, 0.0009861403, 0.401105583 , 0.160037756 , 0.335108548 , -0.00436751032, 0.0004791769, -0.382986546, 4.27        , 3           , 14          , 0.0004528166, 0.0006018027
0.0299379881, 0.05054839  , -9.80355    , 0.002524619 , -0.00147516734, 0.0012735154, 0.401105583 , 0.160105169 , 0.33443442  , -0.004342258, 0.000464480923, -0.382973671, 4.28        , 3           , 15          , 0           , 0.00020436295
0.0186267719, 0.0596151   , -9.776932   , 0.000194849461, -0.00177249534, -0.0007155455, 0.401105583 , 0.160105169 , 0.33443442  , -0.004340312, 0.0004467249, -0.382980824, 4.29        , 3           , 50          , 0           , 0
0.0158445574, 0.0542377122, -9.778331   , -0.00172257354, 0.0004671461, -0.0005090553, 0.40103817  , 0.160442233 , 0.334029943 , -0.004357615, 0.0004514502, -0.38298583 , 4.3         , 3           , 11          , 0.066174075 , 0.06617409
-0.0010154387, 0.0382791273, -9.804289   , -0.00123236375, 0.00124479155, -0.000858729065, 0.401307821 , 0.1603074   , 0.334704071 , -0.00436994247, 0.0004638605, -0.382994652, 4.31        , 3           , 12          , 0.06614891  , 0
-0.009579208, 0.0459998026, -9.789408   , -0.0005147962, -0.00107334566, -0.0008590168, 0.40103817  , 0.15990293  , 0.334636658 , -0.004375094, 0.000453089568, -0.383003   , 4.32        , 3           , 14          , 0.000452828623, 0.000601790438
0.005877031 , 0.0534568876, -9.779767   , 0.000266608433, -0.001842393, 0.000697367534, 0.40103817  , 0.15990293  , 0.334636658 , -0.00437242538, 0.000434696267, -0.382996082, 4.33        , 3           , 15          , 0           , 0.00020435793
0.0118769249, 0.05838976  , -9.791452   , 0.001111227 , -0.00141431787, -0.000286911934, 0.401105583 , 0.16024     , 0.333895117 , -0.00436131423, 0.0004205405, -0.382998943, 4.34        , 3           , 50          , 0           , 0
0.0294295549, 0.0509549566, -9.788636   , -0.00101508631, -2.08228357E-05, -0.002272382, 0.4013752   , 0.160105169 , 0.3348389   , -0.0043714745, 0.000420233177, -0.3830216  , 4.35        , 3           , 11          , 0.066174075 , 0.06617409
0.00189718883, 0.06384796  , -9.76981    , 0.0005408009, -0.000432663452, -0.00148881145, 0.400970757 , 0.16024     , 0.334569246 , -0.004366073, 0.00041584135, -0.383036375, 4.36        , 3           , 12          , 0.06614891  , 0
0.0103504444, 0.0529132746, -9.76798248 , 0.000888276845, 0.000766377256, -0.0008496116, 0.400970757 , 0.16024     , 0.334569246 , -0.004357194, 0.000423468067, -0.383044958, 4.37        , 3           , 14          , 0.000452828623, 0.000601790438
-0.005261152, 0.03193979  , -9.783105   , -0.000315792655, 0.00167335046, 0.0004882546, 0.4012404   , 0.160172582 , 0.334164768 , -0.00436034938, 0.000440222677, -0.3830402  , 4.38        , 3           , 15          , 0           , 0.00020435793
-0.0276208278, 0.04983978  , -9.794952   , -0.00235584239, 0.000110894478, 0.00026441706, 0.401173    , 0.15990293  , 0.3348389   , -0.00438390626, 0.000441343174, -0.383037567, 4.39        , 3           , 50          , 0           , 0
-0.03838855 , 0.0304824077, -9.771161   , -0.00164632092, -0.0006586411, -0.000369175279, 0.401173    , 0.16037482  , 0.33443442  , -0.004400445, 0.00043471175, -0.383041143, 4.4         , 3           , 11          , 0.06725846  , 0.06725848
-0.0247469563, 0.0357261747, -9.76787    , 0.0008975671, -0.000923013256, 0.000772393 , 0.401173    , 0.16037482  , 0.33443442  , -0.00439146627, 0.000425515638, -0.383033276, 4.41        , 3           , 12          , 0.06723166  , 0
0.005565202 , 0.0299940072, -9.778962   , 0.00116497139, 0.001964935 , -0.0004932608, 0.401173    , 0.16037482  , 0.33396253  , -0.00437981868, 0.000445143232, -0.383038282, 4.42        , 3           , 14          , 0.000452840468, 0.000601795153
0.0006688526, 0.0305671282, -9.79798    , 0.0025116154, 0.00127010269, 0.00233728439, 0.401577443 , 0.159970343 , 0.334771484 , -0.00435469253, 0.000457946066, -0.383015156, 4.43        , 3           , 15          , 0           , 0.000204340118
0.0175645351, 0.0443228744, -9.78785    , 0.00278728316, 0.00239826716, 0.0002919405, 0.40103817  , 0.160037756 , 0.334771484 , -0.004326818, 0.000481941242, -0.3830123  , 4.44        , 3           , 50          , 0           , 0
0.0167145114, 0.04125406  , -9.811373   , 0.0006085446, 0.000201332208, -0.0009930474, 0.40103817  , 0.160037756 , 0.334771484 , -0.00432073744, 0.0004839115, -0.3830223  , 4.45        , 3           , 11          , 0.06725846  , 0.06725848
-0.016854478, 0.0398110673, -9.802144   , -0.00200341758, 0.000324453227, 0.00104338466, 0.401307821 , 0.160509646 , 0.334367    , -0.004340766, 0.000487201352, -0.383011818, 4.46        , 3           , 12          , 0.06723166  , 0
0.0137526542, 0.0299285576, -9.78794    , -0.003262693, -0.00207744562, 0.0006805982, 0.401307821 , 0.159970343 , 0.335041136 , -0.00437338976, 0.000466456666, -0.3830049  , 4.47        , 3           , 14          , 0.000452840468, 0.000601795153
0.0334450454, 0.04594899  , -9.789982   , -0.00115516956, -2.17769411E-05, -0.000295259961, 0.400903344 , 0.160037756 , 0.334569246 , -0.00438494328, 0.000466225873, -0.383007765, 4.48        , 3           , 15          , 0           , 0.000204340118
-0.000100117177, 0.04140085  , -9.796585   , -0.00178415293, -0.00129311625, 5.299595E-05, 0.400903344 , 0.160037756 , 0.334569246 , -0.004402784, 0.0004532973, -0.3830073  , 4.49        , 3           , 50          , 0           , 0
0.0222067237, 0.0501649156, -9.796831   , -0.00206395 , -0.00185815571, -0.000231721948, 0.40103817  , 0.160105169 , 0.334232181 , -0.004423393, 0.000434714952, -0.383009434, 4.5         , 3           , 11          , 0.06834626  , 0.06834628
0.0163970869, 0.0605621263, -9.782369   , 0.00103914144, -0.00127401983, -0.00162905524, 0.401307821 , 0.16024     , 0.334973723 , -0.004413008, 0.000421902863, -0.383025646, 4.51        , 3           , 12          , 0.0683177561, 0
-0.000535125844, 0.0427596234, -9.796583   , 0.0007490774, 0.000695035851, 0.0020456526, 0.400970757 , 0.16024     , 0.334501833 , -0.00440550875, 0.000428943371, -0.383005381, 4.52        , 3           , 14          , 0.0004528355, 0.0006017937
0.0103075942, 0.0377026349, -9.806464   , -0.00319300452, -0.00186579255, 0.0008931601, 0.400970757 , 0.16024     , 0.334501833 , -0.004437435, 0.000410325 , -0.382996321, 4.53        , 3           , 15          , 0           , 0.000204335971
0.009659778 , 0.036210876 , -9.763537   , -0.0018052212, 0.00293036061, -0.000223028139, 0.401105583 , 0.16024     , 0.334232181 , -0.00445548864, 0.000439618423, -0.3829987  , 4.54        , 3           , 50          , 0           , 0
0.009488284 , 0.0235741045, -9.762236   , -0.000384886254, 0.00125051918, -0.000501584553, 0.40151003  , 0.160172582 , 0.335041136 , -0.00445934 , 0.000452101143, -0.3830037  , 4.55        , 3           , 11          , 0.06834626  , 0.06834628
-0.00375444558, 0.04097106  , -9.790288   , 0.002165557 , -0.000140108721, 0.002333473 , 0.401105583 , 0.160105169 , 0.3348389   , -0.0044376743, 0.000450803753, -0.382980347, 4.56        , 3           , 12          , 0.0683177561, 0
0.0133682173, 0.03668451  , -9.782942   , -0.00263962941, 0.000390546455, 0.000334190379, 0.401105583 , 0.160105169 , 0.3348389   , -0.004464068, 0.0004547241, -0.382977   , 4.57        , 3           , 14          , 0.0004528355, 0.0006017937
0.00755959051, 0.04083363  , -9.788845   , -0.00235523027, -0.000170677609, -0.00107804779, 0.400903344 , 0.160105169 , 0.3342996   , -0.004487626, 0.000452969136, -0.382987738, 4.58        , 3           , 15          , 0           , 0.000204335971
-0.00780142 , 0.0437197536, -9.788499   , -9.27014044E-05, -0.0007185265, -0.0005033052, 0.401307821 , 0.16037482  , 0.335108548 , -0.004488555, 0.0004457614, -0.382992744, 4.59        , 3           , 50          , 0           , 0
-0.011250115, 0.054169    , -9.797522   , -0.00263609271, -0.0004541503, -0.000797268644, 0.400835931 , 0.160172582 , 0.334569246 , -0.00451487256, 0.000441194279, -0.383000851, 4.6         , 3           , 11          , 0.06943713  , 0.06943714
0.00290217344, 0.0269449446, -9.802046   , -0.004329838, -0.0004656062, 0.000607517 , 0.400835931 , 0.160172582 , 0.334569246 , -0.00455816835, 0.000436565722, -0.382994652, 4.61        , 3           , 12          , 0.06940682  , 0
-0.00635314453, 0.01930156  , -9.778193   , -0.000378813536, 0.0001242627, 0.0003442844, 0.4013752   , 0.160037756 , 0.334232181 , -0.004561955, 0.000437824056, -0.3829913  , 4.62        , 3           , 14          , 0.000452828244, 0.000601792068
0.00356210419, 0.04496149  , -9.794735   , -0.00207542116, 0.000394364877, -0.000793333, 0.4012404   , 0.159970343 , 0.335041136 , -0.00458271243, 0.000441731419, -0.382999182, 4.63        , 3           , 15          , 0           , 0.00020434348
0.00747896265, 0.03005589  , -9.803806   , -0.00122035481, -0.00100772665, 0.0006211354, 0.401105583 , 0.160442233 , 0.334636658 , -0.00459491368, 0.00043168274, -0.382992983, 4.64        , 3           , 50          , 0           , 0
0.0104732625, 0.05256644  , -9.79917    , 0.00158809  , 0.002108587 , -0.000208534242, 0.401105583 , 0.160442233 , 0.334636658 , -0.0045790337, 0.000452758657, -0.382995129, 4.65        , 3           , 11          , 0.06943713  , 0.06943714
-0.007613462, 0.0559235178, -9.795227   , 0.0007412988, 0.00210285932, 0.000635127246, 0.40103817  , 0.160509646 , 0.334029943 , -0.00457161851, 0.000473816035, -0.38298893 , 4.66        , 3           , 12          , 0.06940682  , 0
0.003670131 , 0.0223592967, -9.783076   , -0.00037865038, 0.000124263461, 0.000626821944, 0.4013752   , 0.159835517 , 0.334973723 , -0.004575401, 0.000475087232, -0.382982731, 4.67        , 3           , 14          , 0.000452828244, 0.000601792068
-0.007967649, 0.0306409057, -9.789909   , 0.0007350702, 0.00322911632, -0.0004932868, 0.40103817  , 0.16024     , 0.334704071 , -0.00456805341, 0.000507355435, -0.382987738, 4.68        , 3           , 15          , 0           , 0.00020434348
0.00765602523, 0.0502851345, -9.782025   , -0.004049947, -0.000182136573, -0.00136849436, 0.40103817  , 0.16024     , 0.334704071 , -0.004608559, 0.000505471544, -0.383001566, 4.69        , 3           , 50          , 0           , 0
-0.00772868749, 0.05136665  , -9.781687   , 0.0004773312, -0.00155940163, 0.00119323621, 0.4012404   , 0.16024     , 0.334097356 , -0.00460370863, 0.0004898922, -0.382989645, 4.7         , 3           , 11          , 0.07053073  , 0.07053075
-0.0100527164, 0.040632125 , -9.801636   , -0.000942751765, -0.00016113068, -0.0005064035, 0.4012404   , 0.160442233 , 0.335175961 , -0.00461313874, 0.000488257763, -0.3829944  , 4.71        , 3           , 12          , 0.07049853  , 0
0.0239465386, 0.04696141  , -9.789598   , -0.00123665691, 0.00208947854, -0.001069324, 0.40103817  , 0.16024     , 0.3349063   , -0.00462551042, 0.000509102945, -0.383005381, 4.72        , 3           , 14          , 0.000452817418, 0.0006017982
-0.007828727, 0.0370023772, -9.803442   , 0.000750904554, 0.000131896464, 0.000349544222, 0.40103817  , 0.16024     , 0.3349063   , -0.004618   , 0.000510437938, -0.3830018  , 4.73        , 3           , 15          , 0           , 0.000204351381
0.0236787051, 0.0275513213, -9.786518   , -0.0012295238, 0.000681653735, -0.0007889561, 0.401173    , 0.1603074   , 0.334367    , -0.00463029975, 0.0005172179, -0.383009672, 4.74        , 3           , 50          , 0           , 0
-0.0005091652, 0.0552784652, -9.762632   , 0.00271969172, 0.00183465786, 0.0006439039, 0.401307821 , 0.160105169 , 0.335175961 , -0.00460309861, 0.000535594 , -0.383003473, 4.75        , 3           , 11          , 0.07053073  , 0.07053075
-0.004221633, 0.0467672572, -9.768119   , 0.004693891 , 0.00241115782, 0.0006539903, 0.401173    , 0.160442233 , 0.334771484 , -0.00455615576, 0.0005597354, -0.382997036, 4.76        , 3           , 12          , 0.07049853  , 0
0.0171015356, 0.04565896  , -9.78107    , 0.00160359778, -0.0009886347, 6.922183E-05, 0.401173    , 0.160442233 , 0.334771484 , -0.00454012 , 0.0005498522, -0.382996321, 4.77        , 3           , 14          , 0.000452817418, 0.0006017982
0.007079896 , 0.0448342934, -9.769398   , 0.00131608464, 0.000135717972, 0.0009172531, 0.401173    , 0.160037756 , 0.33443442  , -0.004526954, 0.000551251 , -0.382987022, 4.78        , 3           , 15          , 0           , 0.000204351381
-0.005466073, 0.04955361  , -9.787101   , 0.00356671959, 0.00212195842, 0.00262605073, 0.4013752   , 0.160037756 , 0.335175961 , -0.004491272, 0.000572588935, -0.3829608  , 4.79        , 3           , 50          , 0           , 0
0.0145098343, 0.04579215  , -9.811371   , -0.00150867377, 0.000116611722, 5.64849033E-05, 0.40103817  , 0.15990293  , 0.334704071 , -0.004506362, 0.000573730271, -0.38296032 , 4.8         , 3           , 11          , 0.07162676  , 0.07162679
-0.00200156868, 0.0377781354, -9.78622    , 0.00244218763, 0.000706479943, -0.000489284866, 0.40103817  , 0.15990293  , 0.334704071 , -0.00448194332, 0.000580773 , -0.3829651  , 4.81        , 3           , 12          , 0.0715925843, 0
0.00026641693, 0.0382011943, -9.78574848 , 0.00188298419, -0.0001420282, 0.00204961654, 0.4012404   , 0.160172582 , 0.334367    , -0.00446310127, 0.0005794443, -0.382944584, 4.82        , 3           , 14          , 0.000452818116, 0.0006018024
0.008650598 , 0.05213202  , -9.797831   , 0.00132658333, -0.00211681 , -0.0002163545, 0.4012404   , 0.160172582 , 0.335243374 , -0.00444983644, 0.000558266649, -0.38294673 , 4.83        , 3           , 15          , 0           , 0.000204337775
-0.00179759972, 0.054012008 , -9.783892   , 0.004141256 , -0.0001267539, 8.238964E-05, 0.401173    , 0.160105169 , 0.334501833 , -0.00440842425, 0.0005570028, -0.382945776, 4.84        , 3           , 50          , 0           , 0
0.00262854621, 0.04494944  , -9.787962   , -0.0003883983, 0.002095209 , 0.0006298652, 0.401173    , 0.160105169 , 0.334501833 , -0.00441230461, 0.0005779826, -0.382939577, 4.85        , 3           , 11          , 0.07162676  , 0.07162679
0.0138473511, 0.0344687924, -9.796508   , -0.001230429, 0.0009632168, 5.910364E-05, 0.401173    , 0.1603074   , 0.334367    , -0.004424609, 0.000587617164, -0.3829391  , 4.86        , 3           , 12          , 0.0715925843, 0
0.0187894627, 0.0352718   , -9.784263   , -0.00150637538, -0.000446520746, -0.0007919952, 0.401105583 , 0.160105169 , 0.335243374 , -0.00443967665, 0.0005831168, -0.382946968, 4.87        , 3           , 14          , 0.000452818116, 0.0006018024
0.00421322975, 0.0259979665, -9.793452   , -0.002338648, -0.00354946824, -0.00136579422, 0.400903344 , 0.160172582 , 0.334704071 , -0.00446307147, 0.0005475616, -0.382960558, 4.88        , 3           , 15          , 0           , 0.000204337775
0.008738233 , 0.0246034525, -9.797039   , 0.0004800442, -0.00240410818, -0.0013508891, 0.400903344 , 0.160172582 , 0.334704071 , -0.00445827842, 0.0005234605, -0.3829739  , 4.89        , 3           , 50          , 0           , 0
0.006112915 , 0.0322973579, -9.794768   , 0.0007464078, 0.0009765896, -0.000214220185, 0.401173    , 0.16024     , 0.3342996   , -0.004450733, 0.0005332415, -0.3829763  , 4.9         , 3           , 11          , 0.07272494  , 0.07272496
0.0209598988, 0.029813271 , -9.778845   , 0.00300984154, 0.0001471733, -0.000487523968, 0.401173    , 0.160509646 , 0.335041136 , -0.004420636, 0.0005346916, -0.382981062, 4.91        , 3           , 12          , 0.0726886839, 0
0.000354273245, 0.0512165427, -9.765354   , -0.0006486718, -0.00241173967, 0.000339062652, 0.400903344 , 0.1603074   , 0.334501833 , -0.00442712149, 0.000510589452, -0.3829775  , 4.92        , 3           , 14          , 0.000452805747, 0.000601798762
-0.0116784479, 0.0595503338, -9.786203   , 0.00132659567, -0.00211680634, -0.0002163596, 0.400903344 , 0.1603074   , 0.334501833 , -0.00441385573, 0.0004894121, -0.382979631, 4.93        , 3           , 15          , 0           , 0.000204342869
0.00260242354, 0.0449282676, -9.781634   , 0.001031786 , 0.0004153701, 6.876614E-05, 0.4012404   , 0.1603074   , 0.334367    , -0.004403538, 0.000493568659, -0.382978916, 4.94        , 3           , 50          , 0           , 0
-0.0104670022, 0.0473638922, -9.789408   , 0.000180812931, 0.00125433784, 0.0009137295, 0.401173    , 0.160037756 , 0.335041136 , -0.00440172525, 0.0005061522, -0.382969856, 4.95        , 3           , 11          , 0.07272494  , 0.07272496
-0.0117696114, 0.04965676  , -9.795737   , 0.000189176964, -0.000435052585, 0.0009111259, 0.4013752   , 0.159970343 , 0.334704071 , -0.004399829, 0.0005018418, -0.3829608  , 4.96        , 3           , 12          , 0.0726886839, 0
-0.00195999816, 0.04361437  , -9.777607   , -0.000363293861, -0.00297295884, 0.000622049265, 0.4013752   , 0.159970343 , 0.334704071 , -0.004403458, 0.00047214  , -0.382954359, 4.97        , 3           , 14          , 0.000452805747, 0.000601798762
0.00611894066, 0.03542669  , -9.786168   , 0.0007554245, -0.0007127977, 0.000913326 , 0.4012404   , 0.160577059 , 0.334367    , -0.0043959  , 0.0004650523, -0.382945061, 4.98        , 3           , 15          , 0           , 0.000204342869
