Acc X       , Acc Y       , Acc Z       , Gyro X      , Gyro Y      , Gyro Z      , Magn X      , Magn Y      , Magn Z      , Euler X     , Euler Y     , Euler Z     , Time        , Status      , LowRate X   , LowRate Y   , LowRate Z    
-0.0105992174, 0.0374370441, -9.788998   , -0.00162938121, -0.00090713083, 0.00125111418, 0.394566536 , 0.164149925 , 0.340029657 , -0.0032513137, -0.0007495155, -0.396832228, 0           , 3           , 11          , 0.0346410163, 0.0346410163
-0.0208029915, 0.02218159  , -9.779197   , -0.0012152472, 0.000785119133, -0.000722068944, 0.3943643   , 0.164149925 , 0.340029657 , -0.00326346047, -0.0007416878, -0.39683938 , 0.01        , 3           , 12          , 0.0346410163, 0
-0.02359182 , 0.04038126  , -9.813944   , -0.0003668175, 0.000509282749, -0.00114235829, 0.3954429   , 0.1640151   , 0.340366721 , -0.0032671208, -0.0007366323, -0.396850824, 0.02        , 3           , 50          , 0           , 0
-0.003399863, 0.03419091  , -9.78805351 , -0.00205654372, -0.0003468692, -2.14118481E-05, 0.3954429   , 0.1640151   , 0.340366721 , -0.003287686, -0.000740101736, -0.396851063, 0.03        , 3           , 11          , 0.0346410163, 0.0346410163
-0.0106945746, 0.03200358  , -9.783146   , -0.0009272071, -0.0001984452, 0.0005491477, 0.395308077 , 0.163408384 , 0.3407712   , -0.00329696224, -0.000742068, -0.396845579, 0.04        , 3           , 12          , 0.0346410163, 0
-0.007967977, 0.03019429  , -9.791268   , 0.0011890661, 0.000238227993, 0.0008422131, 0.394633949 , 0.164082512 , 0.34009707  , -0.0032850774, -0.000739658, -0.396837   , 0.05        , 3           , 50          , 0           , 0
-0.0015736958, 0.0368599258, -9.783056   , 0.0011924695, -0.000465685123, 0.0006998595, 0.395308077 , 0.1640151   , 0.340366721 , -0.00327315833, -0.0007442919, -0.396830082, 0.06        , 3           , 11          , 0.0346410163, 0.0346410163
-0.0129434746, 0.03472044  , -9.77818    , 0.00189615646, 0.000102222068, 0.00141036347, 0.395308077 , 0.1640151   , 0.340366721 , -0.00325420778, -0.0007432237, -0.396816015, 0.07        , 3           , 12          , 0.0346410163, 0
-0.008459816, 0.0252581127, -9.797621   , 0.00132081064, 0.002069354 , 0.0001393486, 0.395240664 , 0.163745448 , 0.3407712   , -0.00324100023, -0.000722525641, -0.396814585, 0.08        , 3           , 50          , 0           , 0
0.00707047153, 0.0421485566, -9.775737   , 0.0006152402, 0.00178300962, -0.00141833385, 0.3944317   , 0.164486989 , 0.340164483 , -0.003234838, -0.000704741629, -0.3968289  , 0.09        , 3           , 11          , 0.0346410163, 0.0346410163
-4.07686457E-05, 0.0485905446, -9.787968   , -0.0002187158, -0.00089758815, -0.00128513842, 0.395105839 , 0.164217338 , 0.340366721 , -0.003237016, -0.000713759044, -0.396841764, 0.1         , 3           , 12          , 0.0346410163, 0
0.008765271 , 0.0584738329, -9.805487   , -0.00120245665, -0.00174896547, -0.000302168424, 0.395105839 , 0.164217338 , 0.340366721 , -0.00324903871, -0.0007312583, -0.396844625, 0.11        , 3           , 50          , 0           , 0
-0.009011031, 0.0207201615, -9.788152   , 0.000337974256, 0.0009364092, 0.000274272141, 0.395105839 , 0.163543209 , 0.34056896  , -0.00324566057, -0.0007218853, -0.396841764, 0.12        , 3           , 11          , 0.0346410163, 0.0346410163
-0.009347086, 0.03242518  , -9.779066   , 0.00132343546, 0.00150622311, -0.000144056947, 0.394633949 , 0.164217338 , 0.340029657 , -0.00323242554, -0.000706827734, -0.396843433, 0.13        , 3           , 12          , 0.0346410163, 0
0.009152324 , 0.05529081  , -9.799622   , 0.000618310238, 0.00136066682, 0.000276239851, 0.395173252 , 0.163947687 , 0.34009707  , -0.00322624436, -0.0006932122, -0.396840572, 0.14        , 3           , 50          , 0           , 0
-0.00842904951, 0.059131518 , -9.806972   , 5.218483E-05, 0.00163841271, 0.000485943019, 0.395173252 , 0.163947687 , 0.34009707  , -0.00322572584, -0.000676812546, -0.3968358  , 0.15        , 3           , 11          , 0.0346410163, 0.0346410163
-0.0156413317, 0.0401238   , -9.765523   , -0.00100621511, 0.00134968176, -0.0007202135, 0.395240664 , 0.163543209 , 0.34056896  , -0.00323578273, -0.0006633391, -0.3968432  , 0.16        , 3           , 12          , 0.0346410163, 0
-0.01569279 , 0.0360649563, -9.765992   , -0.0005004119, -0.0007587086, 0.00118596456, 0.3944317   , 0.164217338 , 0.340029657 , -0.00324079487, -0.0006708877, -0.396831274, 0.17        , 3           , 50          , 0           , 0
0.01097623  , 0.0299120713, -9.773498   , -0.00149259111, -0.000202267693, -0.000371732953, 0.394971    , 0.164082512 , 0.340029657 , -0.00325571815, -0.0006729224, -0.39683485 , 0.18        , 3           , 11          , 0.0346410163, 0.0346410163
-0.0132506583, 0.0451097824, -9.780399   , -0.000222363815, -0.000193676111, -0.00156659121, 0.394971    , 0.164082512 , 0.340029657 , -0.003257931, -0.0006749102, -0.3968506  , 0.19        , 3           , 12          , 0.0346410163, 0
-0.005215944, 0.0351008773, -9.783996   , -0.00156451447, 7.88207E-05 , -0.00023035951, 0.395105839 , 0.163610622 , 0.34056896  , -0.00327370083, -0.0006741159, -0.396852732, 0.2         , 3           , 50          , 0           , 0
-0.0107937595, 0.023888899 , -9.784987   , -0.000706945662, -0.00188640226, 0.000688800646, 0.394566536 , 0.163947687 , 0.34009707  , -0.003280775, -0.0006929572, -0.396845818, 0.21        , 3           , 11          , 0.0346699134, 0.0346699171
-0.01153088 , 0.0298385844, -9.80711651 , -0.001073074, 0.000574900536, -0.00086300465, 0.395173252 , 0.163947687 , 0.3402319   , -0.00329149957, -0.0006872366, -0.396854639, 0.22        , 3           , 12          , 0.03466976  , 0
0.001906815 , 0.0291145742, -9.773118   , 0.000340880681, 0.0003732801, 0.0004853075, 0.395173252 , 0.163947687 , 0.3402319   , -0.00328809419, -0.0006834879, -0.396849632, 0.23        , 3           , 50          , 0           , 0
0.00371072069, 0.02685569  , -9.778538   , 5.53172758E-05, 0.00100489159, 0.000484966877, 0.3954429   , 0.1640151   , 0.340366721 , -0.00328754424, -0.000673423056, -0.396844864, 0.24        , 3           , 11          , 0.0346699134, 0.0346699171
0.006138483 , 0.0341034755, -9.795212   , -0.004032316, -0.000993769, -0.00335142179, 0.3944317   , 0.164082512 , 0.339962244 , -0.00332784443, -0.0006834716, -0.396878481, 0.25        , 3           , 12          , 0.03466976  , 0
0.0126057966, 0.0136750694, -9.781236   , -0.00234200014, -6.722144E-05, -0.00284766918, 0.395240664 , 0.163947687 , 0.340164483 , -0.003351245, -0.00068423897, -0.396906853, 0.26        , 3           , 50          , 0           , 0
0.00681107957, 0.02408436  , -9.770389   , 0.00162168185, -0.00158908009, 0.000700099336, 0.395240664 , 0.163947687 , 0.340164483 , -0.00333503331, -0.0007001063, -0.3968997  , 0.27        , 3           , 11          , 0.0346699134, 0.0346699171
0.00447900128, 0.02271666  , -9.758209   , -0.00035813477, -0.00103931979, 0.000621114159, 0.395308077 , 0.163543209 , 0.34056896  , -0.00333861914, -0.0007104788, -0.3968935  , 0.28        , 3           , 12          , 0.03466976  , 0
-0.004111382, 0.0170252677, -9.779994   , -0.00283129723, -0.0006336837, 0.0008927794, 0.394768775 , 0.164082512 , 0.339962244 , -0.00336693833, -0.000716785551, -0.39688468 , 0.29        , 3           , 50          , 0           , 0
-0.035327442, 0.017413212 , -9.786559   , -0.0003333047, -0.00143370288, -0.000580245163, 0.395173252 , 0.164284751 , 0.3402319   , -0.002887657, -0.000155081623, -0.3968904  , 0.3         , 3           , 11          , 0.03475351  , 0.0347535126
-0.0137090413, 0.04511057  , -9.779047   , 0.001710008 , -0.0006455537, -0.00134648208, 0.395173252 , 0.164284751 , 0.3402319   , -0.00287055457, -0.00016157591, -0.396903753, 0.31        , 3           , 12          , 0.03475578  , 0
-0.0123513388, 0.04420139  , -9.781753   , -0.0006926483, -0.000309833529, -0.00185157428, 0.395240664 , 0.163340971 , 0.340501547 , -0.002877478, -0.00016472736, -0.39692235 , 0.32        , 3           , 50          , 0           , 0
-0.0221821368, 0.04933391  , -9.797626   , 0.0002956975, -9.197054E-05, -0.000292683544, 0.3948362   , 0.163947687 , 0.339962244 , -0.00287452037, -0.00016565554, -0.3969252  , 0.33        , 3           , 11          , 0.03475351  , 0.0347535126
0.0196014456, 0.0271510333, -9.787455   , 0.0026189338, 0.0012612202, -0.000562295, 0.395240664 , 0.164082512 , 0.340029657 , -0.00284833042, -0.000153059431, -0.396930933, 0.34        , 3           , 12          , 0.03475578  , 0
-2.628658E-06, 0.01968282  , -9.7795     , 0.000644853 , 0.000825506635, 0.000840522931, 0.395240664 , 0.164082512 , 0.340029657 , -0.002841883, -0.000144780584, -0.3969226  , 0.35        , 3           , 50          , 0           , 0
-0.0201779231, 0.0307965241, -9.793619   , -0.000407477841, -0.000730268, -0.00072075834, 0.395240664 , 0.163947687 , 0.340636373 , -0.00284595671, -0.000152103719, -0.396929741, 0.36        , 3           , 11          , 0.03475351  , 0.0347535126
-0.008664964, 0.0451034978, -9.794376   , -0.00111051591, -0.00115738611, 0.000899889 , 0.3944317   , 0.163947687 , 0.340164483 , -0.00285706343, -0.000163651828, -0.396920681, 0.37        , 3           , 12          , 0.03475578  , 0
-0.0182104446, 0.0456315055, -9.78405    , -0.00344223529, -0.000961972633, -0.0002408002, 0.395105839 , 0.164082512 , 0.340029657 , -0.002891485, -0.000173278473, -0.396923065, 0.38        , 3           , 50          , 0           , 0
-0.00626149075, 0.0599195547, -9.780737   , 0.00029040713, 0.00103429146, 0.0002034928, 0.395105839 , 0.164082512 , 0.340029657 , -0.00288858125, -0.000162929762, -0.396921158, 0.39        , 3           , 11          , 0.03475351  , 0.0347535126
-0.001828731, 0.0446134359, -9.806528   , 0.002796454 , -0.00214902358, -0.00049595983, 0.395105839 , 0.163745448 , 0.340501547 , -0.00333177531, -0.000487948681, -0.3969257  , 0.4         , 3           , 12          , 0.0348982327, 0
-0.0181377716, 0.0430122875, -9.810277   , 0.00187467015, -0.00131053443, -4.49754225E-06, 0.394499123 , 0.164082512 , 0.340164483 , -0.00331302872, -0.0005010541, -0.3969257  , 0.41        , 3           , 50          , 0           , 0
-0.008529444, 0.0519085638, -9.805646   , 0.00292116171, 0.00130110665, 0.0004988953, 0.395173252 , 0.164217338 , 0.339962244 , -0.00328381942, -0.000488026679, -0.396920919, 0.42        , 3           , 11          , 0.01775315  , 0.0177531373
-0.0103146592, 0.0292611178, -9.774115   , 0.00172156713, 0.00108181359, -7.210186E-05, 0.395173252 , 0.164217338 , 0.339962244 , -0.00326660369, -0.00047721088, -0.396921635, 0.43        , 3           , 12          , 0.0348982327, 0
-0.0128570246, 0.04327114  , -9.771815   , 0.00158851023, -0.000467746955, 0.0007724653, 0.3953755   , 0.163543209 , 0.340501547 , -0.00325072184, -0.0004818632, -0.396913767, 0.44        , 3           , 50          , 0           , 0
0.00357745681, 0.0480983853, -9.788394   , 0.00213739625, 0.00270367856, 0.000285540533, 0.394566536 , 0.163880274 , 0.340029657 , -0.00322934939, -0.000454817346, -0.396911144, 0.45        , 3           , 11          , 0.01775315  , 0.0177531373
-0.0108754989, 0.0166810676, -9.788183   , 0.00101925211, 0.000302734377, -0.000217856184, 0.395173252 , 0.163947687 , 0.340164483 , -0.003219156, -0.000451797241, -0.3969133  , 0.46        , 3           , 12          , 0.0348982327, 0
-0.00644653663, 0.0165477823, -9.764194   , 0.00166385528, -0.00152314082, -7.64449E-05, 0.395173252 , 0.163947687 , 0.340164483 , -0.00320251752, -0.0004670309, -0.396914   , 0.47        , 3           , 50          , 0           , 0
-0.0195168834, 0.0452431738, -9.798075   , 0.000310990261, 0.0007906996, 0.0002034169, 0.395105839 , 0.163610622 , 0.340636373 , -0.00319940853, -0.000459117437, -0.3969121  , 0.48        , 3           , 11          , 0.01775315  , 0.0177531373
-0.00540181249, 0.02066706  , -9.784961   , 0.000374875119, 0.00205821777, -0.000571279146, 0.394499123 , 0.163947687 , 0.340029657 , -0.00319565623, -0.000438553572, -0.39691782 , 0.49        , 3           , 12          , 0.0348982327, 0
-0.00523414742, 0.0306226257, -9.793957   , 0.0003650246, 0.0009007481, 0.00041577575, 0.395240664 , 0.164082512 , 0.34009707  , -0.00326919719, -0.0005801354, -0.396913767, 0.5         , 3           , 50          , 0           , 0
-0.01141899 , 0.0451051481, -9.785357   , -0.002457953, 0.0006704757, 0.00082608714, 0.395240664 , 0.164082512 , 0.34009707  , -0.00329378131, -0.0005734036, -0.396905422, 0.51        , 3           , 11          , 0.01346255  , 0.0134625519
-0.00242888834, 0.0369113833, -9.795266   , -0.001681072, 0.000534943247, -1.8120556E-05, 0.3954429   , 0.163340971 , 0.340501547 , -0.00331059168, -0.000568054733, -0.396905661, 0.52        , 3           , 12          , 0.0350959972, 0
-0.010021518, 0.0175213329, -9.772805   , 0.0016349816, 0.00112051738, 0.0005632961, 0.3943643   , 0.164082512 , 0.340164483 , -0.00329424534, -0.000556830957, -0.396899939, 0.53        , 3           , 50          , 0           , 0
-0.00121944211, 0.0296331681, -9.78218    , 0.003397854 , 0.00155480136, 0.00021900615, 0.3948362   , 0.164082512 , 0.340029657 , -0.00326026813, -0.000541275833, -0.3968978  , 0.54        , 3           , 11          , 0.01346255  , 0.0134625519
-0.00447024871, 0.0255873427, -9.775441   , 0.00199619331, -0.0004960937, 0.0008449846, 0.3948362   , 0.164082512 , 0.340029657 , -0.00324031059, -0.0005462095, -0.396889448, 0.55        , 3           , 12          , 0.0350959972, 0
-0.0106478622, 0.0423074849, -9.761408   , 0.00184977509, 0.0004884275, 0.000280770066, 0.395240664 , 0.163880274 , 0.340434134 , -0.00322181452, -0.000541316054, -0.3968866  , 0.56        , 3           , 50          , 0           , 0
-0.0106406957, 0.0342789851, -9.789013   , -0.00139880471, 0.00039606652, -0.00150034227, 0.394633949 , 0.1640151   , 0.34009707  , -0.00323579414, -0.000537403859, -0.3969016  , 0.57        , 3           , 11          , 0.01346255  , 0.0134625519
-0.0121368319, 0.0167756267, -9.811695   , -0.000615965342, -0.0006545456, 0.00012624239, 0.395173252 , 0.163947687 , 0.34009707  , -0.00324195437, -0.0005439451, -0.396900415, 0.58        , 3           , 12          , 0.0350959972, 0
-0.0122279311, 0.0171481613, -9.788191   , 0.00129455328, -0.00134556287, 0.0012641967, 0.395173252 , 0.163947687 , 0.34009707  , -0.003229016, -0.0005573598, -0.396887541, 0.59        , 3           , 50          , 0           , 0
0.000938720943, 0.0201475322, -9.786722   , 0.00278549572, 0.00229408545, 0.0001464928, 0.395577729 , 0.1634758   , 0.34056896  , -0.00312034087, -0.0006264603, -0.396886349, 0.6         , 3           , 11          , 0.0113674859, 0.0113674812
0.00772434426, 0.0218482148, -9.779431   , -0.0008867872, 0.002269252 , -0.001142046, 0.394499123 , 0.164217338 , 0.34009707  , -0.00312920217, -0.00060380355, -0.3968978  , 0.61        , 3           , 12          , 0.0353477336, 0
-0.0219034962, 0.04070683  , -9.782743   , -0.00285846577, 0.00120001368, -0.00101162307, 0.395308077 , 0.163745448 , 0.339962244 , -0.00315778051, -0.0005918352, -0.396908045, 0.62        , 3           , 50          , 0           , 0
-0.0121553894, 0.0194386933, -9.798576   , -0.003269723, -0.00133693789, -0.00130004133, 0.395308077 , 0.163745448 , 0.339962244 , -0.00319047016, -0.000605245761, -0.396920919, 0.63        , 3           , 11          , 0.0113674859, 0.0113674812
0.00805732049, 0.011033413 , -9.784898   , -0.000804891, 0.00022838841, 0.0009035339, 0.395510316 , 0.163678035 , 0.340636373 , -0.00319852424, -0.000602932938, -0.39691186 , 0.64        , 3           , 12          , 0.0353477336, 0
-0.00777569227, 0.015694689 , -9.774152   , 0.00109576911, 0.00143793342, 0.00126743922, 0.3948362   , 0.164352164 , 0.34009707  , -0.00318757445, -0.000588513154, -0.396899223, 0.65        , 3           , 50          , 0           , 0
-0.0211015977, 0.0290070847, -9.79499    , 0.000389423949, 0.00115158537, -0.00163229625, 0.395038426 , 0.163745448 , 0.340029657 , -0.00318367057, -0.0005770494, -0.396915674, 0.66        , 3           , 11          , 0.0113674859, 0.0113674812
-0.008340134, 0.0409773439, -9.776311   , -0.00143985474, -5.74783153E-05, -0.000653819239, 0.395038426 , 0.163745448 , 0.340029657 , -0.00319806556, -0.000577644969, -0.39692235 , 0.67        , 3           , 12          , 0.0353477336, 0
-0.00605316553, 0.0418621376, -9.779002   , -0.00192990107, -0.000835122948, -2.16077733E-05, 0.3953755   , 0.163610622 , 0.340501547 , -0.0032173642, -0.000585996837, -0.39692235 , 0.68        , 3           , 50          , 0           , 0
0.00591867138, 0.0267837588, -9.764962   , -0.002988672, -0.0009830698, -0.0006624727, 0.394768775 , 0.163812861 , 0.34009707  , -0.00324724731, -0.000595848949, -0.396929026, 0.69        , 3           , 11          , 0.0113674859, 0.0113674812
-0.023116285, 0.0159192588, -9.787375   , -0.0033098124, -0.00119724206, 0.000183151482, 0.395240664 , 0.164352164 , 0.339894831 , -0.00321596558, -0.0006091153, -0.396927118, 0.7         , 3           , 12          , 0.03565189  , 0
-0.00838829 , 0.0337967239, -9.787641   , -0.000348761561, -0.000191707659, 0.00097547617, 0.395240664 , 0.164352164 , 0.339894831 , -0.00321945874, -0.0006110009, -0.396917343, 0.71        , 3           , 50          , 0           , 0
0.00344412774, 0.04174144  , -9.776218   , 0.00127771369, -0.000673463743, 0.0011235578, 0.3953755   , 0.163543209 , 0.340636373 , -0.003206689, -0.0006176994, -0.396906137, 0.72        , 3           , 11          , 0.0101431431, 0.01014314
-0.0119674578, 0.0392303839, -9.780867   , 0.00148311991, 0.000524618 , 0.0002787775, 0.394566536 , 0.164082512 , 0.340029657 , -0.00319185923, -0.000612444244, -0.396903276, 0.73        , 3           , 12          , 0.03565189  , 0
-0.00337023567, 0.0364466645, -9.788044   , 0.00253580324, 0.00186921575, 0.000638949 , 0.395240664 , 0.1640151   , 0.339827418 , -0.00316650537, -0.000593731937, -0.396897078, 0.74        , 3           , 50          , 0           , 0
-0.008031745, 0.0296962652, -9.777259   , -0.000270484132, -0.00188062375, -0.000227582408, 0.395240664 , 0.1640151   , 0.339827418 , -0.0031692083, -0.000612545235, -0.396899223, 0.75        , 3           , 11          , 0.0101431431, 0.01014314
0.006592052 , 0.0300816447, -9.808332   , 0.002706331 , -0.00404269574, 0.000701129145, 0.395240664 , 0.163610622 , 0.340434134 , -0.00314215012, -0.0006529499, -0.396892071, 0.76        , 3           , 12          , 0.03565189  , 0
-0.006140928, 0.03152497  , -9.790797   , 0.00340555049, -0.002630095, 0.0009184942, 0.394499123 , 0.1640151   , 0.340164483 , -0.003108101, -0.000679222168, -0.396882772, 0.77        , 3           , 50          , 0           , 0
-0.009708775, 0.03205796  , -9.802573   , -0.00147276686, -0.00146639312, -2.0625328E-05, 0.395173252 , 0.164082512 , 0.339894831 , -0.0031228282, -0.0006938866, -0.396883   , 0.78        , 3           , 11          , 0.0101431431, 0.01014314
0.00245135138, 0.02962995  , -9.793903   , 0.000134541056, 0.00192337064, 0.000133422858, 0.395173252 , 0.164082512 , 0.339894831 , -0.00312148384, -0.0006746488, -0.396881819, 0.79        , 3           , 12          , 0.03565189  , 0
-0.0149471294, 0.051472865 , -9.78807    , 0.00118376955, 0.00195509032, -0.00120360753, 0.3954429   , 0.163745448 , 0.3402993   , -0.00312473 , -0.0006143888, -0.39689374 , 0.8         , 3           , 50          , 0           , 0
0.00249390863, 0.0368060358, -9.781217   , 0.00119106588, 0.0005472665, -0.0006407021, 0.394701362 , 0.1640151   , 0.3402319   , -0.003112815, -0.0006089361, -0.396900177, 0.81        , 3           , 11          , 0.009387601 , 0.00938761
-0.0140328184, 0.0180671941, -9.786845   , -0.00198010751, -0.000670871348, -0.0003041899, 0.3953755   , 0.163947687 , 0.34009707  , -0.00313261454, -0.000615654339, -0.396903276, 0.82        , 3           , 12          , 0.0360067226, 0
-0.008223144, 0.0428575464, -9.798902   , -0.00282735075, -0.000535815139, 0.0009634947, 0.3953755   , 0.163947687 , 0.34009707  , -0.003160894, -0.0006209821, -0.3968935  , 0.83        , 3           , 50          , 0           , 0
0.0132151516, 0.0262944233, -9.778918   , -0.00211471785, -0.00207965332, -0.0009427275, 0.395105839 , 0.163610622 , 0.340636373 , -0.00318203517, -0.0006418085, -0.396903038, 0.84        , 3           , 11          , 0.009387601 , 0.00938761
0.0108349184, 0.0177461021, -9.778069   , -0.001059184, -0.00136857887, -0.00107797282, 0.395038426 , 0.163947687 , 0.340164483 , -0.00319262035, -0.0006555286, -0.396913767, 0.85        , 3           , 12          , 0.0360067226, 0
-0.0008040732, 0.02691944  , -9.781735   , -0.002681292, -0.00180191 , -0.00151000242, 0.3953755   , 0.163947687 , 0.340029657 , -0.003219423, -0.000673596, -0.3969288  , 0.86        , 3           , 50          , 0           , 0
0.00108271744, 0.06348604  , -9.793321   , -0.003528168, -0.00166685192, 0.000393391674, 0.3953755   , 0.163947687 , 0.340029657 , -0.0032547072, -0.000690251531, -0.396924734, 0.87        , 3           , 11          , 0.009387601 , 0.00938761
-0.0137645584, 0.04060208  , -9.77997    , -0.00380983856, -0.00173915131, 0.00109830988, 0.3953755   , 0.163678035 , 0.34056896  , -0.00329281343, -0.000707607, -0.396913767, 0.88        , 3           , 12          , 0.0360067226, 0
-0.00311408727, 0.02512327  , -9.776337   , -0.00367890974, 9.197077E-05, -0.001017242, 0.394768775 , 0.164149925 , 0.340029657 , -0.00332959555, -0.0007067213, -0.39692378 , 0.89        , 3           , 50          , 0           , 0
0.00786458  , 0.0299961455, -9.787533   , -0.004033505, -0.00387016451, -3.60077138E-05, 0.395105839 , 0.164217338 , 0.339894831 , -0.00340076163, -0.000671770249, -0.396924257, 0.9         , 3           , 11          , 0.008919146 , 0.008919144
-0.0039142184, 0.03414634  , -9.773142   , -0.000579619431, -0.00265011564, 0.000123237842, 0.395105839 , 0.164217338 , 0.339894831 , -0.00340655865, -0.0006982671, -0.396922827, 0.91        , 3           , 12          , 0.03641036  , 0
-0.01623036 , 0.02216471  , -9.790009   , -0.000233166618, -0.00131029356, 0.000197579458, 0.3953755   , 0.163610622 , 0.340636373 , -0.003408892, -0.000711363449, -0.396920919, 0.92        , 3           , 50          , 0           , 0
-0.0007042317, 0.03592734  , -9.777178   , 0.002226467 , 0.0009589372, -0.0005644039, 0.394701362 , 0.163947687 , 0.340164483 , -0.00338662346, -0.0007017931, -0.3969264  , 0.93        , 3           , 11          , 0.008919146 , 0.008919144
0.0107556339, 0.0439423919, -9.78519249 , 0.00082403206, -0.0010919614, -0.0012804782, 0.395038426 , 0.163812861 , 0.339962244 , -0.003378374, -0.000712756, -0.396939278, 0.94        , 3           , 12          , 0.03641036  , 0
0.0190751366, 0.0235259756, -9.781145   , -0.00185697607, -0.00139166822, -0.00016327326, 0.395038426 , 0.163812861 , 0.339962244 , -0.00339694275, -0.0007266781, -0.396940947, 0.95        , 3           , 50          , 0           , 0
-0.01878307 , 0.04241526  , -9.765084   , -0.0010136331, -0.00054124184, 0.000265785522, 0.3953755   , 0.163610622 , 0.3408386   , -0.00340708066, -0.0007320814, -0.3969381  , 0.96        , 3           , 11          , 0.008919146 , 0.008919144
-0.0372245461, 0.039608188 , -9.805013   , 0.00137654  , 0.001586731 , 0.000280233973, 0.394701362 , 0.164352164 , 0.340029657 , -0.00339331734, -0.0007162047, -0.396935463, 0.97        , 3           , 12          , 0.03641036  , 0
-0.018800253, 0.03168893  , -9.795413   , 0.000327772 , -0.00053217 , 6.013801E-05, 0.395173252 , 0.164217338 , 0.33976     , -0.00339004025, -0.000721524353, -0.396934748, 0.98        , 3           , 50          , 0           , 0
-0.00299290475, 0.06531883  , -9.787469   , 0.0006098281, -0.0003894761, 0.0006267468, 0.395173252 , 0.164217338 , 0.33976     , -0.00338394661, -0.0007253979, -0.396928549, 0.99        , 3           , 11          , 0.008919146 , 0.008919144
0.02025568  , 0.0424848646, -9.787386   , -0.0002492937, -0.00132099749, 0.00168125122, 0.3953755   , 0.163745448 , 0.340434134 , -0.00349646248, -0.0007525992, -0.396911621, 1           , 3           , 12          , 0.036860805 , 0
0.000292766374, 0.03599079  , -9.799317   , -0.00272073247, -0.00133771077, 0.001316556 , 0.394768775 , 0.164149925 , 0.3402993   , -0.00352367922, -0.0007659301, -0.39689827 , 1.01        , 3           , 50          , 0           , 0
-0.0159561075, 0.0126413759, -9.776938   , -0.00195329753, 0.000286534952, -0.000796358334, 0.395173252 , 0.1640151   , 0.339894831 , -0.00354320649, -0.000763092947, -0.396906376, 1.02        , 3           , 11          , 0.008641839 , 0.008641848
0.01060378  , 0.0326605849, -9.784337   , 2.54324968E-05, -5.2051575E-05, -0.0007876821, 0.395173252 , 0.1640151   , 0.339894831 , -0.003542946, -0.0007636413, -0.396914244, 1.03        , 3           , 12          , 0.036860805 , 0
0.0053123245, 0.0457835644, -9.777091   , 0.001153086 , 0.000518722 , 0.000489872065, 0.395577729 , 0.163678035 , 0.3407038   , -0.00353141921, -0.000758437, -0.396909237, 1.04        , 3           , 50          , 0           , 0
-0.0067390874, 0.01891468  , -9.795826   , 9.814523E-05, -0.0002627428, 0.00104881509, 0.394633949 , 0.163947687 , 0.3402993   , -0.00353044528, -0.000761027331, -0.396898746, 1.05        , 3           , 11          , 0.008641839 , 0.008641848
0.0137834884, 0.031292595 , -9.791098   , -0.0005246431, -0.00294191157, 5.28486E-05 , 0.3949036   , 0.164082512 , 0.34009707  , -0.00353569258, -0.0007904444, -0.396898031, 1.06        , 3           , 12          , 0.036860805 , 0
0.00740969926, 0.0322315171, -9.779842   , -0.000605400768, -0.000760256255, 0.00118603243, 0.3949036   , 0.164082512 , 0.34009707  , -0.00354175572, -0.0007980048, -0.396886349, 1.07        , 3           , 50          , 0           , 0
0.0103877615, 0.0529435053, -9.777022   , -0.0003954047, -0.0004068678, 0.00104629365, 0.3954429   , 0.163745448 , 0.340636373 , -0.00354571827, -0.0008020364, -0.396875858, 1.08        , 3           , 11          , 0.008641839 , 0.008641848
0.0186027437, 0.05736387  , -9.778296   , 0.00199464639, 0.00172110449, 0.000848839 , 0.394701362 , 0.163812861 , 0.3402319   , -0.00352577842, -0.00078479544, -0.396867275, 1.09        , 3           , 12          , 0.036860805 , 0
-0.0005576783, 0.0124636721, -9.777725   , 0.00122378825, -6.29436763E-05, 0.00105510408, 0.3954429   , 0.164149925 , 0.339962244 , -0.00360137946, -0.0005598935, -0.396856785, 1.1         , 3           , 50          , 0           , 0
-0.0197687075, 0.0298632085, -9.785936   , 0.000933698029, 0.00134296867, -0.000144827311, 0.3954429   , 0.164149925 , 0.339962244 , -0.00359204225, -0.000546469, -0.396858215, 1.11        , 3           , 11          , 0.008485219 , 0.008485222
-0.0208348762, 0.0519870743, -9.786304   , 0.0007853256, 0.002961017 , 0.00134033116, 0.395308077 , 0.163880274 , 0.340636373 , -0.00358419586, -0.000516811, -0.396844864, 1.12        , 3           , 12          , 0.037355978 , 0
-0.00824393053, 0.009884926 , -9.789095   , 0.0004984906, 0.00387419388, 0.00155232742, 0.394566536 , 0.163812861 , 0.3402319   , -0.00357921841, -0.000478013739, -0.3968296  , 1.13        , 3           , 50          , 0           , 0
-0.0013831472, 0.0174490623, -9.781327   , 0.00150363124, 0.000502097362, 0.00141046091, 0.395173252 , 0.164486989 , 0.339894831 , -0.00356418872, -0.000472942484, -0.396815538, 1.14        , 3           , 11          , 0.008485219 , 0.008485222
-0.025879316, 0.0163599718, -9.774739   , -0.0017342933, -0.0015612148, 0.00118026685, 0.395173252 , 0.164486989 , 0.339894831 , -0.00358153717, -0.000488512334, -0.396803617, 1.15        , 3           , 12          , 0.037355978 , 0
-0.0142851705, 0.0396597348, -9.766418   , -0.00104365672, 0.001329597 , -0.0007897552, 0.395510316 , 0.163880274 , 0.340434134 , -0.00359196984, -0.000475244829, -0.396811724, 1.16        , 3           , 50          , 0           , 0
-0.0009009679, 0.0219310671, -9.774073   , 0.00129239308, 7.83100841E-05, -0.00120464945, 0.394971    , 0.163812861 , 0.34056896  , -0.00357903983, -0.000474504923, -0.396823645, 1.17        , 3           , 11          , 0.008485219 , 0.008485222
-0.0157708637, 0.0185940377, -9.803127   , 0.001854659 , 0.0007860471, 0.0003530254, 0.395105839 , 0.164149925 , 0.339827418 , -0.00356049486, -0.0004666319, -0.396820068, 1.18        , 3           , 12          , 0.037355978 , 0
0.02103237  , 0.0218376871, -9.82226849 , 0.00185318349, 0.00106761174, 0.000212190644, 0.395105839 , 0.164149925 , 0.339827418 , -0.003541964, -0.0004559483, -0.396818161, 1.19        , 3           , 50          , 0           , 0
0.000575790647, 0.0282599721, -9.782623   , -0.0003419562, -0.000907096837, -0.000861265464, 0.395645142 , 0.163880274 , 0.340501547 , -0.00340225734, -0.000451391, -0.396826744, 1.2         , 3           , 11          , 0.008405652 , 0.008405654
0.00355840474, 0.0200370234, -9.763199   , 0.0003649931, -0.00111349649, -0.001140836, 0.394499123 , 0.164082512 , 0.3402319   , -0.00339860236, -0.000462564727, -0.39683795 , 1.21        , 3           , 12          , 0.0378937535, 0
-0.007934653, 0.0400410071, -9.767724   , -0.00211585872, 0.0009111407, -0.0003016008, 0.395240664 , 0.163947687 , 0.340029657 , -0.00341975968, -0.0004534636, -0.396841049, 1.22        , 3           , 50          , 0           , 0
-0.0175658017, 0.0280017834, -9.776888   , -0.00140993961, 0.00112709356, 0.00125597313, 0.395240664 , 0.163947687 , 0.340029657 , -0.00343386456, -0.000442149583, -0.396828651, 1.23        , 3           , 11          , 0.008405652 , 0.008405654
-0.002047236, 0.03908018  , -9.770846   , 0.000216190572, 0.000574942736, 0.000203162039, 0.395577729 , 0.163947687 , 0.340636373 , -0.00343170366, -0.000436393253, -0.3968265  , 1.24        , 3           , 12          , 0.0378937535, 0
0.000386254862, 0.0414227471, -9.804718   , -0.00154450594, -0.000422474317, -0.0005129312, 0.395105839 , 0.164419577 , 0.340366721 , -0.00344714615, -0.0004406356, -0.396831751, 1.25        , 3           , 50          , 0           , 0
0.005409387 , 0.02094074  , -9.769961   , -0.00182570168, -0.000705950137, -0.0007972196, 0.395240664 , 0.164082512 , 0.340029657 , -0.00346539961, -0.000447722676, -0.396839619, 1.26        , 3           , 11          , 0.008405652 , 0.008405654
-0.001969654, 0.0431601927, -9.776705   , -0.001896227, -0.0007064272, -0.0006562801, 0.395240664 , 0.164082512 , 0.340029657 , -0.00348435924, -0.000454809662, -0.396846056, 1.27        , 3           , 12          , 0.0378937535, 0
-0.000448575243, 0.05398851  , -9.781621   , -0.00134227693, 0.00140912889, -0.00142736977, 0.3953755   , 0.163678035 , 0.340501547 , -0.00349777541, -0.000440768228, -0.396860361, 1.28        , 3           , 50          , 0           , 0
-0.006331344, 0.04602609  , -9.808366   , -0.00218515284, 0.0006290975, -0.000443632744, 0.394633949 , 0.164217338 , 0.340434134 , -0.003519625, -0.0004344928, -0.3968649  , 1.29        , 3           , 11          , 0.008405652 , 0.008405654
-0.00919929 , 0.000481860276, -9.80722    , -0.004828017, -0.00126625877, 0.000247701944, 0.395105839 , 0.164082512 , 0.34009707  , -0.00361326872, -0.00042135574, -0.396862268, 1.3         , 3           , 12          , 0.0384719744, 0
-0.00350703555, 0.0202672128, -9.806643   , -0.0008875664, 0.00129456178, -0.00142518035, 0.395105839 , 0.164082512 , 0.34009707  , -0.00362213841, -0.000408461754, -0.396876574, 1.31        , 3           , 50          , 0           , 0
0.004248849 , 0.03897099  , -9.760405   , -0.00201063 , -0.000120905, -0.00199769251, 0.395510316 , 0.163812861 , 0.3407712   , -0.003642236, -0.000409743341, -0.3968966  , 1.32        , 3           , 11          , 0.008367361 , 0.008367362
-0.009743601, 0.04051039  , -9.766832   , -0.0003149271, -0.000109439679, -1.20286286E-05, 0.3948362   , 0.1640151   , 0.340366721 , -0.00364538562, -0.0004108382, -0.3968966  , 1.33        , 3           , 12          , 0.0384719744, 0
-0.0269536991, 0.0349063762, -9.784615   , -0.00144595408, 0.000446057558, 0.002526409 , 0.395173252 , 0.164217338 , 0.34009707  , -0.00365985557, -0.00040628534, -0.396871567, 1.34        , 3           , 50          , 0           , 0
-0.00623647962, 0.0207351334, -9.802142   , 0.00250720582, 0.000472793239, 0.00113215821, 0.395173252 , 0.164217338 , 0.34009707  , -0.003634788, -0.000401516183, -0.396860123, 1.35        , 3           , 11          , 0.008367361 , 0.008367362
-0.0232714117, 0.04294678  , -9.77325249 , -0.000588915544, -0.001519168, 0.00252732215, 0.395308077 , 0.163880274 , 0.3407712   , -0.003640687, -0.0004166158, -0.39683485 , 1.36        , 3           , 12          , 0.0384719744, 0
-0.0143673671, 0.0369150341, -9.75513    , 0.0005365353, -0.000948405, -9.37963E-06, 0.394971    , 0.163678035 , 0.3402993   , -0.00363532151, -0.0004261001, -0.39683485 , 1.37        , 3           , 50          , 0           , 0
-0.0164389126, 0.0424536951, -9.784502   , 0.00306959753, 0.00103974494, 0.00170073507, 0.395105839 , 0.164419577 , 0.339827418 , -0.0036046328, -0.000415641174, -0.396817923, 1.38        , 3           , 11          , 0.008367361 , 0.008367362
0.0075876764, 0.0435344875, -9.787026   , -0.0003135331, -0.000391004782, -1.24625649E-05, 0.395105839 , 0.164419577 , 0.339827418 , -0.003607768, -0.000419551681, -0.396818161, 1.39        , 3           , 12          , 0.0384719744, 0
0.00692152558, 0.0598077253, -9.793291   , -0.000897546532, 0.000386006257, -1.4010373E-05, 0.395779967 , 0.163610622 , 0.3407038   , -0.00363375456, -0.000488209917, -0.3968184  , 1.4         , 3           , 50          , 0           , 0
0.00265028048, 0.0440743528, -9.796102   , -0.000620532548, 0.00151417754, 0.000271579542, 0.395105839 , 0.163880274 , 0.340501547 , -0.00363996113, -0.000473058433, -0.396815538, 1.41        , 3           , 11          , 0.008348034 , 0.008348044
0.0188295282, 0.0339652225, -9.798279   , 0.000218962145, 0.0029277287, -0.00113498722, 0.395038426 , 0.164419577 , 0.339894831 , -0.00363776647, -0.0004438226, -0.396826982, 1.42        , 3           , 12          , 0.0390884727, 0
-0.01491557 , 0.021220766 , -9.782319   , -0.0028627296, -0.00187988125, 0.00110344926, 0.395038426 , 0.164419577 , 0.339894831 , -0.00366639858, -0.000462580967, -0.396816015, 1.43        , 3           , 50          , 0           , 0
-0.03143333 , 0.009630793 , -9.767125   , 0.00107616384, 0.0009625038, -0.000851536461, 0.395510316 , 0.1640151   , 0.3407038   , -0.00365563342, -0.0004529872, -0.3968246  , 1.44        , 3           , 11          , 0.008348034 , 0.008348044
-0.0119525334, 0.0392424837, -9.784482   , 0.00276998361, 0.0012555318, 0.0002869488, 0.394768775 , 0.164149925 , 0.340366721 , -0.00362793473, -0.000440421485, -0.396821737, 1.45        , 3           , 12          , 0.0390884727, 0
0.009783024 , 0.0389888361, -9.784768   , -0.000328837137, -0.0004548706, -0.0005777533, 0.395240664 , 0.1640151   , 0.340029657 , -0.00363122066, -0.0004449912, -0.396827459, 1.46        , 3           , 50          , 0           , 0
0.00109198224, 0.03589398  , -9.773548   , -0.002314189, 0.00122115016, -0.0005843682, 0.395240664 , 0.1640151   , 0.340029657 , -0.00365435961, -0.000432801084, -0.39683342 , 1.47        , 3           , 11          , 0.008348034 , 0.008348044
0.000760545 , 0.04626368  , -9.769892   , -0.002588578, -0.0004701519, -0.00115336373, 0.395645142 , 0.163812861 , 0.3407712   , -0.00368024036, -0.000437544833, -0.396844864, 1.48        , 3           , 12          , 0.0390884727, 0
-0.01969378 , 0.03795823  , -9.778218   , -0.00146010157, -0.000180946139, -0.000865124632, 0.394768775 , 0.164082512 , 0.3402993   , -0.00369483768, -0.000439386116, -0.396853447, 1.49        , 3           , 50          , 0           , 0
-0.0238683578, 0.0294447746, -9.781449   , -0.00315571157, -0.00162690156, -0.0008752867, 0.395105839 , 0.163947687 , 0.339962244 , -0.00373566733, -0.000486540142, -0.396862268, 1.5         , 3           , 11          , 0.008331691 , 0.0083317
-0.00623988546, 0.0211787261, -9.799881   , -0.000615679368, -0.001046577, 0.0008326583, 0.395105839 , 0.163947687 , 0.339962244 , -0.003741828, -0.0004969746, -0.3968537  , 1.51        , 3           , 12          , 0.03974113  , 0
-0.003917395, 0.0323583633, -9.778121   , -0.004575884, 5.294057E-05, -0.0003141928, 0.395712554 , 0.163745448 , 0.34056896  , -0.003787585, -0.0004964571, -0.396857023, 1.52        , 3           , 50          , 0           , 0
-0.00423204154, 0.0427416638, -9.778533   , 0.000788669 , 0.000370794267, -0.0005712746, 0.394768775 , 0.164284751 , 0.340434134 , -0.003779696, -0.0004927708, -0.396862745, 1.53        , 3           , 11          , 0.008331691 , 0.0083317
-0.005567448, 0.0409908146, -9.789848   , -0.0006141965, -0.0016097133, -0.00142850936, 0.395105839 , 0.164217338 , 0.339894831 , -0.00378583069, -0.0005089218, -0.3968768  , 1.54        , 3           , 12          , 0.03974113  , 0
-0.00280333776, 0.04456812  , -9.789814   , -0.000897038437, -0.00133005343, 0.0002658324, 0.395105839 , 0.164217338 , 0.339894831 , -0.00379480259, -0.000522212242, -0.3968742  , 1.55        , 3           , 50          , 0           , 0
0.01638059  , 0.02580758  , -9.779348   , -0.00174989493, -0.000209523161, 0.000263617345, 0.395577729 , 0.163745448 , 0.340636373 , -0.0038123033, -0.0005242974, -0.396871567, 1.56        , 3           , 11          , 0.008331691 , 0.0083317
-0.008621884, 0.0153070809, -9.789979   , 0.00106568309, 0.00149896555, -0.000285684451, 0.394768775 , 0.163880274 , 0.340434134 , -0.00380164455, -0.0005093187, -0.396874428, 1.57        , 3           , 12          , 0.03974113  , 0
-0.008314767, 0.0374270976, -9.793954   , -0.00175071077, -0.000209527047, -0.00114906987, 0.395038426 , 0.164149925 , 0.339962244 , -0.00381914573, -0.0005114578, -0.396885872, 1.58        , 3           , 50          , 0           , 0
0.000151875429, 0.0269496273, -9.793931   , 0.00192460511, -0.0007478229, 0.0005624071, 0.395038426 , 0.164149925 , 0.339962244 , -0.00379990274, -0.000518914545, -0.3968804  , 1.59        , 3           , 11          , 0.008331691 , 0.0083317
-0.00260424614, 0.029181337 , -9.77722    , -0.002521121, -0.00104009442, -0.00171936117, 0.395510316 , 0.163610622 , 0.3407038   , -0.003738374, -0.000505788368, -0.396897554, 1.6         , 3           , 12          , 0.0404278375, 0
0.0058422666, 0.046733465 , -9.792901   , -0.00053978787, -0.00187141914, -0.001428907, 0.394768775 , 0.164217338 , 0.340434134 , -0.00374376471, -0.0005245559, -0.396911621, 1.61        , 3           , 50          , 0           , 0
-0.0167414751, 0.0515077338, -9.792151   , -0.00420018472, -0.004148769, -0.00144949858, 0.395240664 , 0.164352164 , 0.34009707  , -0.00378575828, -0.0005660981, -0.396926165, 1.62        , 3           , 11          , 0.008310207 , 0.008310221
-0.002983937, 0.0296922289, -9.793492   , -0.001663029, -0.002723743, 0.00252004829, 0.395240664 , 0.164352164 , 0.34009707  , -0.00380240357, -0.000593239558, -0.396900654, 1.63        , 3           , 12          , 0.0404278375, 0
0.00298103271, 0.04039935  , -9.778034   , 0.0008725094, -0.00186186843, -0.00113978481, 0.395645142 , 0.163947687 , 0.34056896  , -0.00379367149, -0.000611901458, -0.3969121  , 1.64        , 3           , 50          , 0           , 0
-0.0119720437, 0.0329777636, -9.799875   , -0.0030904084, 8.235144E-05, 0.000257502863, 0.394971    , 0.163947687 , 0.340366721 , -0.00382457743, -0.0006110681, -0.396909475, 1.65        , 3           , 11          , 0.008310207 , 0.008310221
0.0161463022, 0.0313461423, -9.815034   , 1.71912252E-05, -0.000178206246, -0.000576057, 0.3949036   , 0.164149925 , 0.340029657 , -0.00382440188, -0.0006128722, -0.3969152  , 1.66        , 3           , 12          , 0.0404278375, 0
0.00450145733, 0.050334435 , -9.78566551 , -0.000562017551, 0.00291519426, 0.001121307 , 0.3949036   , 0.164149925 , 0.340029657 , -0.00383002916, -0.000583677553, -0.39690423 , 1.67        , 3           , 50          , 0           , 0
-0.0100426339, 0.0442110933, -9.792582   , 0.00256231031, -0.0007241444, 0.000282539753, 0.3954429   , 0.163812861 , 0.340636373 , -0.00380440778, -0.000590908166, -0.396901369, 1.68        , 3           , 11          , 0.008310207 , 0.008310221
-0.00429138727, 0.03555198  , -9.78715    , -0.00223525334, -0.00160131138, -0.000588762166, 0.395038426 , 0.163812861 , 0.340434134 , -0.00382675673, -0.000606943737, -0.3969071  , 1.69        , 3           , 12          , 0.0404278375, 0
0.000170635059, 0.0296429247, -9.789852   , -0.00140152429, -0.0004189096, 0.00054726965, 0.394971    , 0.164284751 , 0.339894831 , -0.003851356, -0.0005493007, -0.3969016  , 1.7         , 3           , 50          , 0           , 0
-0.0226778667, 0.0141169047, -9.78964    , 0.0005757897, -0.000405538245, 0.00112156314, 0.394971    , 0.164284751 , 0.339894831 , -0.00384560437, -0.0005533128, -0.3968904  , 1.71        , 3           , 11          , 0.00827815  , 0.008278162
-0.0144497585, 0.0288139656, -9.76104    , -0.000255578343, -0.00379005284, -0.00030028203, 0.3954429   , 0.1640151   , 0.34056896  , -0.00384815829, -0.0005912247, -0.396893263, 1.72        , 3           , 12          , 0.04114656  , 0
-0.0289820954, 0.06369023  , -9.749707   , -0.00225363951, 0.000420052558, -0.000585529, 0.394296885 , 0.164149925 , 0.34056896  , -0.00387069141, -0.0005870468, -0.396898985, 1.73        , 3           , 50          , 0           , 0
-0.01511928 , 0.037942864 , -9.789483   , -0.000828143442, -0.00210447935, 0.00082983746, 0.395173252 , 0.164486989 , 0.340029657 , -0.00387897785, -0.0006080593, -0.396890879, 1.74        , 3           , 11          , 0.00827815  , 0.008278162
0.001502444 , 0.0264810119, -9.793471   , -0.002816031, -0.000146899052, -0.00115410576, 0.395173252 , 0.164486989 , 0.340029657 , -0.00390713057, -0.000609573035, -0.396902323, 1.75        , 3           , 12          , 0.04114656  , 0
-0.0161875729, 0.0271092355, -9.784565   , -0.00140176178, -0.0007004825, -0.002278539, 0.395240664 , 0.163947687 , 0.3407038   , -0.003921135, -0.000616667, -0.396924973, 1.76        , 3           , 50          , 0           , 0
-0.005681334, 0.0306324754, -9.795318   , -0.00113598863, 0.00296178041, 0.000271256315, 0.3949036   , 0.163745448 , 0.340434134 , -0.003932496, -0.0005870388, -0.39692235 , 1.77        , 3           , 11          , 0.00827815  , 0.008278162
-0.007924311, 0.0338004753, -9.790349   , 0.0002874607, 0.0007188105, 0.000556907 , 0.395038426 , 0.1640151   , 0.339894831 , -0.00392962527, -0.0005798291, -0.396916866, 1.78        , 3           , 12          , 0.04114656  , 0
0.0174388   , 0.0330622345, -9.793322   , -0.00140693714, 0.0007073515, 0.000831542944, 0.395038426 , 0.1640151   , 0.339894831 , -0.00394369941, -0.000572722754, -0.396908522, 1.79        , 3           , 50          , 0           , 0
-0.01817352 , 0.0176155046, -9.772415   , -0.0004963066, 0.000439741 , -0.00142524065, 0.395577729 , 0.1640151   , 0.340636373 , -0.003868307, -0.000557924, -0.396922827, 1.8         , 3           , 11          , 0.008234419 , 0.008234426
-0.0255373027, 0.0402936749, -9.781418   , 0.00204962841, -0.000106193125, 0.000846043753, 0.3948362   , 0.164217338 , 0.340366721 , -0.003847815, -0.000558953441, -0.396914482, 1.81        , 3           , 12          , 0.0418953262, 0
-0.00151798036, 0.0467247851, -9.76493549 , 0.00345823262, 0.0007480551, 0.00198408  , 0.395105839 , 0.164486989 , 0.339894831 , -0.00381324417, -0.000551396864, -0.3968947  , 1.82        , 3           , 50          , 0           , 0
-0.0257882439, 0.02357537  , -9.773805   , 0.001765481 , 0.000173460343, 0.0002800857, 0.395105839 , 0.164486989 , 0.339894831 , -0.00379559118, -0.0005496517, -0.396891832, 1.83        , 3           , 11          , 0.008234419 , 0.008234426
-0.02048216 , 0.04520542  , -9.783618   , 0.000338754151, 0.00297955819, -0.0008523094, 0.3953755   , 0.163745448 , 0.340636373 , -0.00379219861, -0.0005198886, -0.396900415, 1.84        , 3           , 12          , 0.0418953262, 0
-0.0194334388, 0.0649502   , -9.75505352 , 7.140945E-05, 0.000162002863, 0.00111979642, 0.395105839 , 0.163880274 , 0.340366721 , -0.00379149 , -0.000518226, -0.3968892  , 1.85        , 3           , 50          , 0           , 0
0.007615433 , 0.0457887352, -9.786564   , 0.00090311846, 0.00298337569, -0.00169728813, 0.395240664 , 0.164284751 , 0.339962244 , -0.00378245069, -0.0004884568, -0.396906376, 1.86        , 3           , 11          , 0.008234419 , 0.008234426
-0.00372347678, 0.03742535  , -9.809285   , -0.000219870868, 0.00184948114, 0.000273470738, 0.395240664 , 0.164284751 , 0.339962244 , -0.00378465024, -0.000469951774, -0.396903753, 1.87        , 3           , 12          , 0.0418953262, 0
-0.024498798, 0.018593736 , -9.772912   , 8.232397E-05, -0.0023720907, -0.00170948368, 0.395510316 , 0.163678035 , 0.340636373 , -0.0037838188, -0.00049373717, -0.396920681, 1.88        , 3           , 50          , 0           , 0
-0.0116523877, 0.03197187  , -9.770497   , -0.00217841053, -0.00182423322, 0.0008236861, 0.394971    , 0.163812861 , 0.340501547 , -0.00380560686, -0.000511948, -0.396912336, 1.89        , 3           , 11          , 0.008234419 , 0.008234426
0.004375168 , 0.0408587456, -9.78525448 , -0.00443142559, -0.000232380058, 0.0005328881, 0.395038426 , 0.164082512 , 0.339962244 , -0.0038302436, -0.0006226952, -0.3969071  , 1.9         , 3           , 12          , 0.0426722169, 0
0.0149549618, 0.0230909176, -9.771687   , 0.00234042667, 0.0009397155, -0.000846457, 0.395038426 , 0.164082512 , 0.339962244 , -0.00380683388, -0.0006133305, -0.396915674, 1.91        , 3           , 50          , 0           , 0
-0.00266450923, 0.0309179053, -9.756873   , -0.0010505789, 0.0011983586, -0.00170943886, 0.3954429   , 0.163812861 , 0.340501547 , -0.003817329, -0.0006014121, -0.39693284 , 1.92        , 3           , 11          , 0.008178481 , 0.008178491
-0.00230436586, 0.04906374  , -9.786627   , 0.000653814233, -0.000479564915, 0.0008386965, 0.394971    , 0.1640151   , 0.34056896  , -0.00381079572, -0.0006061757, -0.396924257, 1.93        , 3           , 12          , 0.0426722169, 0
-0.0108799534, 0.0482941866, -9.796187   , -0.00103738019, -0.00133572379, -0.000583194138, 0.395038426 , 0.164419577 , 0.339894831 , -0.003821166, -0.0006195551, -0.396929979, 1.94        , 3           , 50          , 0           , 0
-0.007100054, 0.0297068022, -9.78358    , -0.00135391578, 0.00541992532, -0.00170424674, 0.395038426 , 0.164419577 , 0.339894831 , -0.00383469486, -0.0005654215, -0.396947384, 1.95        , 3           , 11          , 0.008178481 , 0.008178491
0.009391451 , 0.0461853668, -9.776606   , 0.000924688764, 0.00149329216, -0.00226486125, 0.395577729 , 0.163947687 , 0.3407038   , -0.003825435, -0.0005505753, -0.396970034, 1.96        , 3           , 12          , 0.0426722169, 0
0.0176194254, 0.0403502025, -9.814081   , -0.00131931761, -0.00133763137, 0.000263101159, 0.394971    , 0.1640151   , 0.34056896  , -0.00383863039, -0.0005639416, -0.3969674  , 1.97        , 3           , 50          , 0           , 0
0.00686849747, 0.0210064352, -9.794357   , 0.0012166216, -0.000194183041, -0.000288385432, 0.394971    , 0.1640151   , 0.33976     , -0.0038264622, -0.00056589453, -0.396970272, 1.98        , 3           , 11          , 0.008178481 , 0.008178491
-0.0197425857, 0.0298843663, -9.792263   , -0.0007587203, -0.000770688464, -0.00227623433, 0.394971    , 0.1640151   , 0.33976     , -0.00383403688, -0.000573688536, -0.396992922, 1.99        , 3           , 12          , 0.0426722169, 0
0.00840699  , 0.04032952  , -9.776186   , 0.0006926138, -0.00241180276, -0.000294350233, 0.395577729 , 0.163947687 , 0.3407038   , -0.00378643232, -0.0005447637, -0.396995783, 2           , 3           , 50          , 0           , 0
-0.00767087843, 0.0162259676, -9.798103   , -0.00127658818, -0.00383299426, 0.00110694871, 0.3948362   , 0.164217338 , 0.340434134 , -0.003799205, -0.0005830514, -0.396984577, 2.01        , 3           , 11          , 0.008113146 , 0.008113151
-0.0177389979, 0.0456413068, -9.788567   , -0.001012936, -0.0001707412, -1.624286E-05, 0.3948362   , 0.164217338 , 0.340434134 , -0.003809334, -0.000584759458, -0.396984816, 2.02        , 3           , 12          , 0.04347542  , 0
-0.0139490534, 0.05555435  , -9.797536   , 0.000112915644, 0.000681595469, 0.000555401435, 0.395173252 , 0.164149925 , 0.339827418 , -0.003808208, -0.0005779224, -0.396979332, 2.03        , 3           , 50          , 0           , 0
-0.0199647285, 0.04435979  , -9.802149   , 0.00210196013, -0.00183912273, -0.0002868977, 0.3953755   , 0.164217338 , 0.340636373 , -0.003787187, -0.0005963244, -0.396981955, 2.04        , 3           , 11          , 0.008113146 , 0.008113151
-0.0180247389, 0.0297875144, -9.769651   , -0.0004410235, -0.001856318, -0.00227651256, 0.394971    , 0.1640151   , 0.340636373 , -0.00379158347, -0.000614973658, -0.397004843, 2.05        , 3           , 12          , 0.04347542  , 0
-0.009764906, 0.04451028  , -9.748736   , 0.00293406984, 0.00126382383, 4.363888E-06, 0.394971    , 0.1640151   , 0.340636373 , -0.00376224332, -0.0006023356, -0.397004843, 2.06        , 3           , 50          , 0           , 0
-0.0241377018, 0.04566735  , -9.774153   , -0.00127642509, -0.00383299356, 0.00138948625, 0.395240664 , 0.164082512 , 0.339962244 , -0.003775016, -0.000640612736, -0.396990776, 2.07        , 3           , 11          , 0.008113146 , 0.008113151
-0.0282857362, 0.0402998626, -9.773754   , -0.00129290111, -0.0007357829, -0.000583502639, 0.395510316 , 0.163745448 , 0.3407038   , -0.003787941, -0.0006479925, -0.3969965  , 2.08        , 3           , 12          , 0.04347542  , 0
-0.0245524161, 0.04927431  , -9.77188    , 0.00321846828, 0.0007025997, -0.00140787452, 0.394971    , 0.163812861 , 0.340434134 , -0.00375574687, -0.0006410196, -0.397010565, 2.09        , 3           , 50          , 0           , 0
-0.0256436877, 0.06512893  , -9.786286   , -0.0002333113, 0.003107328 , -0.00142017181, 0.394971    , 0.163812861 , 0.340434134 , -0.00382943847, -0.0007616318, -0.39702487 , 2.1         , 3           , 11          , 0.00803793  , 0.00803794153
0.00178739429, 0.0463513248, -9.799262   , -0.00248494023, 0.00168422691, -2.01894363E-05, 0.394971    , 0.164082512 , 0.339827418 , -0.00385428732, -0.000744790246, -0.3970251  , 2.11        , 3           , 12          , 0.04430319  , 0
-0.00204644725, 0.03506366  , -9.78397    , -0.0005056538, 0.00113446394, -0.0008594513, 0.3953755   , 0.163880274 , 0.340636373 , -0.00385933719, -0.0007334788, -0.39703393 , 2.12        , 3           , 50          , 0           , 0
-0.001076228, 0.0342127159, -9.802499   , -0.00109158061, 0.00535411946, -0.00113811356, 0.395038426 , 0.1640151   , 0.340501547 , -0.003870245, -0.000679982, -0.397045374, 2.13        , 3           , 11          , 0.00803793  , 0.00803794153
-0.00477150548, 0.03642784  , -9.777658   , -0.00107050734, 0.001130644 , -0.000862085144, 0.395038426 , 0.1640151   , 0.340501547 , -0.0038809434, -0.0006687089, -0.397053957, 2.14        , 3           , 12          , 0.04430319  , 0
-0.0102535421, 0.03377414  , -9.774548   , -0.0002047786, -0.00252397056, -0.00029870047, 0.395038426 , 0.163947687 , 0.339827418 , -0.00388298882, -0.000693959941, -0.397056818, 2.15        , 3           , 50          , 0           , 0
-0.006302543, 0.017110806 , -9.797637   , -0.000213468942, -0.000834581559, -0.0008611719, 0.395779967 , 0.163610622 , 0.3407712   , -0.00388511736, -0.000702339166, -0.397065639, 2.16        , 3           , 11          , 0.00803793  , 0.00803794153
0.01798766  , 0.0496497229, -9.763418   , -0.000209450081, -0.00167927763, -0.00114501116, 0.394768775 , 0.163678035 , 0.340366721 , -0.00388720445, -0.000719176431, -0.397076845, 2.17        , 3           , 12          , 0.04430319  , 0
0.009778538 , 0.0354144   , -9.795178   , 0.00119227357, 0.000301224645, -0.00226553879, 0.394768775 , 0.163678035 , 0.340366721 , -0.00387526536, -0.0007162521, -0.3970995  , 2.18        , 3           , 50          , 0           , 0
-0.0249438249, 0.0439731553, -9.803996   , 6.961054E-05, -0.0008326685, 0.0002702948, 0.395105839 , 0.1640151   , 0.33976     , -0.003874571, -0.000724568148, -0.397096872, 2.19        , 3           , 11          , 0.00803793  , 0.00803794153
-0.00618165 , 0.0319383256, -9.779496   , -0.00192137621, -0.000273615267, -0.000303083769, 0.395308077 , 0.163610622 , 0.34056896  , -0.003909908, -0.0007135512, -0.397099972, 2.2         , 3           , 12          , 0.0451538824, 0
0.004879837 , 0.04803707  , -9.774824   , -0.0007924104, 1.55927264E-05, 0.000832767633, 0.395038426 , 0.163880274 , 0.3402319   , -0.003917838, -0.00071336265, -0.397091627, 2.21        , 3           , 50          , 0           , 0
-0.0103569822, 0.0198534653, -9.794042   , -0.0008019164, 0.001704978 , -0.00114239089, 0.395038426 , 0.163880274 , 0.3402319   , -0.00392584968, -0.0006963578, -0.397103071, 2.22        , 3           , 11          , 0.00795682147, 0.007956817
-0.0135296555, 0.0181026943, -9.799045   , -0.00162410492, -0.00336892344, -0.00115415244, 0.394971    , 0.163880274 , 0.339962244 , -0.00394208124, -0.000730092, -0.397114515, 2.23        , 3           , 12          , 0.0451538824, 0
0.006983652 , 0.0580726862, -9.81409    , 5.43806855E-05, 2.1320302E-05, -1.08937866E-05, 0.395308077 , 0.163947687 , 0.340636373 , -0.00394153735, -0.000729879248, -0.397114515, 2.24        , 3           , 50          , 0           , 0
-0.00247452036, 0.0306254961, -9.804332   , -0.0005001367, -0.00223502424, -0.00142968656, 0.394971    , 0.163745448 , 0.34056896  , -0.003946529, -0.0007522857, -0.39712882 , 2.25        , 3           , 11          , 0.00795682147, 0.007956817
-0.03627501 , 0.05123829  , -9.77829    , 0.0006187449, 2.51379079E-05, -0.000855872466, 0.394971    , 0.163745448 , 0.34056896  , -0.003940335, -0.0007520681, -0.3971374  , 2.26        , 3           , 12          , 0.0451538824, 0
-0.0121975215, 0.0581628829, -9.774462   , -0.000507684948, -0.0005456297, -1.4395524E-05, 0.394971    , 0.164352164 , 0.339827418 , -0.003945411, -0.0007575249, -0.3971374  , 2.27        , 3           , 50          , 0           , 0
0.00246120431, 0.0354404934, -9.777607   , -0.00023534245, 0.00142723438, -0.000575116, 0.395510316 , 0.1640151   , 0.3407038   , -0.003947761, -0.0007432754, -0.397143126, 2.28        , 3           , 11          , 0.00795682147, 0.007956817
-0.00129191857, 0.054942254 , -9.793826   , -0.00192351162, 0.000289517979, 0.0008279339, 0.395038426 , 0.163610622 , 0.340501547 , -0.003967002, -0.000740347547, -0.397135019, 2.29        , 3           , 12          , 0.0451538824, 0
-0.006409814, 0.043284405 , -9.797981   , -0.000546262949, -0.0008225824, -1.47781848E-05, 0.395038426 , 0.163610622 , 0.340501547 , -0.004034017, -0.000741482771, -0.397135019, 2.3         , 3           , 50          , 0           , 0
0.0138376942, 0.03401462  , -9.795606   , 0.000861689332, 3.166258E-05, -6.89171247E-06, 0.3949036   , 0.164621815 , 0.339827418 , -0.00402540062, -0.00074116647, -0.397135019, 2.31        , 3           , 11          , 0.007868165 , 0.007868173
0.004828278 , 0.0413000435, -9.783894   , -0.0008302469, -0.0005429281, -0.0002981987, 0.395577729 , 0.163610622 , 0.340636373 , -0.0040337  , -0.000746607548, -0.39713788 , 2.32        , 3           , 12          , 0.04602593  , 0
-0.00355259981, 0.0242474414, -9.782672   , -0.00168900576, 0.0017038614, -0.000863753, 0.394768775 , 0.163678035 , 0.3402993   , -0.00405058358, -0.000729604, -0.3971467  , 2.33        , 3           , 50          , 0           , 0
-0.003788388, 0.00530967675, -9.785915   , -0.00280321576, -0.0014009939, -0.0005912565, 0.394768775 , 0.163678035 , 0.3402993   , -0.00407861173, -0.0007436378, -0.397152424, 2.34        , 3           , 11          , 0.007868165 , 0.007868173
-0.004035469, 0.0264601316, -9.768203   , -0.0019495436, -0.00252152048, 0.0008236458, 0.3948362   , 0.1640151   , 0.339827418 , -0.00409811363, -0.000768818951, -0.397144079, 2.35        , 3           , 12          , 0.04602593  , 0
-0.0187060442, 0.0482802279, -9.76506    , 0.00114681525, -0.000247986172, 0.002254291 , 0.395577729 , 0.163812861 , 0.3407712   , -0.00408666255, -0.000771206571, -0.397121429, 2.36        , 3           , 50          , 0           , 0
-0.0295208078, 0.0181723349, -9.764364   , -0.00110775023, -0.00167110143, -0.00143140135, 0.395173252 , 0.163745448 , 0.3402993   , -0.004097729, -0.000787976, -0.397135735, 2.37        , 3           , 11          , 0.007868165 , 0.007868173
-0.0189002268, 0.0275907665, -9.784132   , -0.00195683981, -0.00111369661, 0.00026074046, 0.395173252 , 0.163745448 , 0.3402993   , -0.0041173  , -0.0007991022, -0.3971331  , 2.38        , 3           , 12          , 0.04602593  , 0
0.0175920315, 0.0136211282, -9.782554   , -0.003088757, -0.0008397752, -0.00115678052, 0.395038426 , 0.164284751 , 0.34009707  , -0.00414817827, -0.0008075479, -0.3971448  , 2.39        , 3           , 50          , 0           , 0
-0.000362351537, 0.0219952986, -9.79486    , -0.000153655536, -0.00165034016, -0.001427467, 0.395510316 , 0.163880274 , 0.340906024 , -0.00397879863, -0.0008000255, -0.3971591  , 2.4         , 3           , 11          , 0.00777603267, 0.00777604245
-0.0253060311, 0.02046945  , -9.790989   , -0.00128484564, -0.00109484361, 0.0008284329, 0.395240664 , 0.163678035 , 0.3408386   , -0.00399165368, -0.0008109409, -0.397150755, 2.41        , 3           , 12          , 0.04691786  , 0
-0.0141235245, 0.04648597  , -9.784016   , -0.00155177538, -0.00419396861, 0.00110488012, 0.395240664 , 0.163678035 , 0.3408386   , -0.004007181, -0.000852836063, -0.397139549, 2.42        , 3           , 50          , 0           , 0
-0.009334026, 0.0324357562, -9.782229   , -0.00157415343, 2.95004E-05 , -0.001431448, 0.394971    , 0.164149925 , 0.339827418 , -0.00402291 , -0.000852598459, -0.397153854, 2.43        , 3           , 11          , 0.00777603267, 0.00777604245
8.428004E-05, 0.0237704031, -9.787617   , -0.00157800957, 0.000874197169, -0.000865071255, 0.3953755   , 0.163610622 , 0.340636373 , -0.004038682, -0.0008438913, -0.397162437, 2.44        , 3           , 12          , 0.04691786  , 0
0.005477639 , 0.0250132009, -9.77356    , -0.0004439569, 3.71426E-05 , -0.0005785678, 0.395038426 , 0.163678035 , 0.340434134 , -0.00404311763, -0.0008435433, -0.397168159, 2.45        , 3           , 50          , 0           , 0
-0.0161768366, 0.03158144  , -9.772794   , 0.0009683405, 4.66932543E-05, -0.000289445627, 0.395038426 , 0.163678035 , 0.340434134 , -0.00403343141, -0.0008430881, -0.397171259, 2.46        , 3           , 11          , 0.00777603267, 0.00777604245
-0.007419182, 0.0365156829, -9.794402   , 0.000130654778, -0.001929993, -0.000578971463, 0.3949036   , 0.164352164 , 0.339962244 , -0.00403212057, -0.000862411456, -0.397176981, 2.47        , 3           , 12          , 0.04691786  , 0
-0.00426670443, 0.03869643  , -9.78307    , -0.0004442832, 3.71410279E-05, -0.0011436427, 0.3954429   , 0.163812861 , 0.3407038   , -0.004036553, -0.000862085959, -0.397188425, 2.48        , 3           , 50          , 0           , 0
-0.0134289665, 0.0333601944, -9.774572   , -0.00270083523, -0.000259696651, 0.001388225 , 0.395038426 , 0.163678035 , 0.340501547 , -0.00406357367, -0.000864626665, -0.397174358, 2.49        , 3           , 11          , 0.00777603267, 0.00777604245
0.01469145  , 0.0370864533, -9.772986   , -0.0009410059, 3.77065735E-05, 0.0002663757, 0.395038426 , 0.163678035 , 0.340501547 , -0.003961139, -0.0008569372, -0.397171736, 2.5         , 3           , 12          , 0.0478282757, 0
-0.00369859859, 0.04592616  , -9.788007   , -0.005748165, 0.00113149593, -0.0003193512, 0.394701362 , 0.164217338 , 0.339827418 , -0.00401861826, -0.0008456351, -0.397175074, 2.51        , 3           , 50          , 0           , 0
-0.0180390477, 0.0555900931, -9.793951   , -0.00517445756, -0.0005540723, 0.0005282913, 0.3954429   , 0.163880274 , 0.340501547 , -0.00407036627, -0.0008511541, -0.397169828, 2.52        , 3           , 11          , 0.0076824273, 0.007682437
-0.00505217351, 0.0147756124, -9.778655   , -0.0017739312, -0.0030652436, -0.00143757311, 0.395240664 , 0.163880274 , 0.340434134 , -0.0040880926, -0.000881865, -0.397184134, 2.53        , 3           , 12          , 0.0478282757, 0
0.000938162149, 0.02193248  , -9.780839   , 0.000180500472, 0.001734738 , 0.000556784449, 0.395240664 , 0.163880274 , 0.340434134 , -0.00408629235, -0.000864494941, -0.3971784  , 2.54        , 3           , 50          , 0           , 0
0.00263217837, 0.0422742739, -9.797464   , 0.002440983 , 0.00146845123, 1.81130736E-06, 0.3948362   , 0.164486989 , 0.339827418 , -0.004061883, -0.0008498107, -0.39717865 , 2.55        , 3           , 11          , 0.0076824273, 0.007682437
-0.01240617 , 0.0329981968, -9.804399   , 0.000451048254, 0.003707593 , -0.00311184814, 0.395577729 , 0.163947687 , 0.3407038   , -0.00405734638, -0.000812861254, -0.397209883, 2.56        , 3           , 12          , 0.0478282757, 0
0.013688786 , 0.0267523546, -9.78253    , -0.0003713177, -0.0008031655, 0.00139785768, 0.395173252 , 0.164082512 , 0.340501547 , -0.00406107074, -0.0008208361, -0.397195816, 2.57        , 3           , 50          , 0           , 0
-0.0009581847, 0.0476988778, -9.787978   , -0.00122146052, -0.0005273374, -0.00114849629, 0.395173252 , 0.164082512 , 0.340501547 , -0.004073276, -0.0008261561, -0.39720726 , 2.58        , 3           , 11          , 0.0076824273, 0.007682437
-0.0237010233, 0.03895373  , -9.791804   , 0.00131619885, 0.000334547542, -0.00113534217, 0.395038426 , 0.164217338 , 0.339894831 , -0.004060105, -0.000822856964, -0.3972187  , 2.59        , 3           , 12          , 0.0478282757, 0
-0.00205391087, 0.0350576155, -9.782164   , -0.000927422661, 0.00371874426, -0.000858066953, 0.395308077 , 0.163812861 , 0.340434134 , -0.00401358958, -0.000750010659, -0.397227526, 2.6         , 3           , 50          , 0           , 0
0.008793651 , 0.0264337622, -9.804715   , 0.00134519057, 0.00119994092, 0.000278712832, 0.395038426 , 0.163880274 , 0.34056896  , -0.00400013942, -0.0007380002, -0.397224665, 2.61        , 3           , 11          , 0.00758681959, 0.007586829
-0.00485818647, 0.030108707 , -9.776781   , 0.00359870214, 0.00234147976, -0.000274090678, 0.395038426 , 0.163880274 , 0.34056896  , -0.003964151, -0.000714596536, -0.397227526, 2.62        , 3           , 12          , 0.04875587  , 0
-0.0108748106, 0.0527618453, -9.783061   , 0.00190660357, 0.00176688808, -0.0008479352, 0.394701362 , 0.164082512 , 0.33976     , -0.0039450787, -0.0006969613, -0.3972361  , 2.63        , 3           , 50          , 0           , 0
-0.0219389163, 0.03309017  , -9.798594   , -0.00146251288, -0.0021979406, -2.22009621E-05, 0.395173252 , 0.163947687 , 0.3402319   , -0.00395970326, -0.0007189413, -0.3972361  , 2.64        , 3           , 11          , 0.00758681959, 0.007586829
-0.0218618959, 0.03895514  , -9.79857    , -0.0006201558, -0.00106594712, 0.00111363526, 0.395038426 , 0.163678035 , 0.34056896  , -0.003965913, -0.0007295566, -0.397225142, 2.65        , 3           , 12          , 0.04875587  , 0
-0.0122527424, 0.018913459 , -9.776432   , -0.00457404274, -0.00137425808, -0.0011655353, 0.395038426 , 0.163678035 , 0.34056896  , -0.004011645, -0.000743345532, -0.3972366  , 2.66        , 3           , 50          , 0           , 0
0.016642794 , 0.010025573 , -9.783481   , -0.00259656529, -0.0013608858, -0.0003087044, 0.3949036   , 0.164217338 , 0.339355528 , -0.00403760839, -0.0007569667, -0.397239685, 2.67        , 3           , 11          , 0.00758681959, 0.007586829
-0.025082292, 0.03314855  , -9.804946   , -0.0003481396, 0.000906915229, -1.21599469E-05, 0.3954429   , 0.163745448 , 0.340434134 , -0.004041089, -0.0007478981, -0.397239685, 2.68        , 3           , 12          , 0.04875587  , 0
-0.0192958228, 0.0267497245, -9.800861   , -0.000915781246, 0.0014662256, -1.39259473E-05, 0.395240664 , 0.163678035 , 0.340366721 , -0.004050247, -0.0007332366, -0.397239923, 2.69        , 3           , 50          , 0           , 0
0.00112776272, 0.0363693237, -9.780778   , 0.001986933 , 0.000334837241, -0.000567752752, 0.395240664 , 0.163678035 , 0.340366721 , -0.00389950257, -0.000773194, -0.397245884, 2.7         , 3           , 11          , 0.00748966262, 0.00748968357
0.00069134403, 0.03326345  , -9.794806   , 0.00200693822, -0.00360707124, 0.000273784419, 0.394971    , 0.164284751 , 0.33976     , -0.003879436, -0.00080925395, -0.397243023, 2.71        , 3           , 12          , 0.04969942  , 0
-0.01231834 , 0.0108259972, -9.78641    , -0.00365209742, -0.001392747, 0.00138106721, 0.395308077 , 0.163678035 , 0.34056896  , -0.00391596835, -0.000823127455, -0.3972292  , 2.72        , 3           , 50          , 0           , 0
-0.01228335 , 0.0153178554, -9.780515   , -0.002515094, -0.002792931, 0.00194924022, 0.395308077 , 0.163610622 , 0.34056896  , -0.00394113548, -0.000850979937, -0.397209644, 2.73        , 3           , 11          , 0.00748966262, 0.00748968357
-0.005416706, 0.0130670248, -9.805783   , 0.0005714323, 0.00116998656, 0.0008396516, 0.395308077 , 0.163610622 , 0.34056896  , -0.003935428, -0.0008392472, -0.3972013  , 2.74        , 3           , 12          , 0.04969942  , 0
-0.0165064074, 0.04195265  , -9.769589   , -0.00394632947, 0.0008578603, 0.000253071747, 0.394701362 , 0.163947687 , 0.339962244 , -0.0039748936, -0.000830658653, -0.397198915, 2.75        , 3           , 50          , 0           , 0
-0.0185744837, 0.0573138446, -9.768186   , -0.00111328182, -0.00109400018, -0.00143202115, 0.395577729 , 0.163880274 , 0.340164483 , -0.003986016, -0.0008416556, -0.397212982, 2.76        , 3           , 11          , 0.00748966262, 0.00748968357
-0.0189008787, 0.0266975444, -9.786847   , 0.001685405 , 0.00399326859, -0.00225865329, 0.3949036   , 0.163610622 , 0.340434134 , -0.003969142, -0.000801813032, -0.39723587 , 2.77        , 3           , 12          , 0.04969942  , 0
-0.0206663925, 0.03300468  , -9.777795   , 0.00113588537, 0.0008922328, -0.00226606056, 0.3949036   , 0.163610622 , 0.340434134 , -0.00395776564, -0.000792980834, -0.39725852 , 2.78        , 3           , 50          , 0           , 0
-0.0265762974, 0.03126918  , -9.777846   , 0.00170499517, 0.00033292966, 0.000278542546, 0.394768775 , 0.164352164 , 0.33976     , -0.00394071732, -0.000789640355, -0.397255659, 2.79        , 3           , 11          , 0.00748966262, 0.00748968357
0.01443268  , 0.04483694  , -9.795555   , 0.00485492  , 0.001988212 , 0.000295305 , 0.395308077 , 0.164082512 , 0.340434134 , -0.00379658281, -0.0008718223, -0.397253275, 2.8         , 3           , 12          , 0.0506577678, 0
-0.00386770442, 0.03909388  , -9.768601   , 0.00232783472, -0.000844624941, 0.001691801 , 0.3953755   , 0.163947687 , 0.3407038   , -0.003773319, -0.000880204432, -0.397236347, 2.81        , 3           , 50          , 0           , 0
-0.0207032487, 0.0285113156, -9.783237   , 0.0003467535, -0.000294870755, -0.0005768496, 0.3953755   , 0.163947687 , 0.3407038   , -0.003769847, -0.000883174944, -0.397242069, 2.82        , 3           , 11          , 0.007392587 , 0.00739261275
-0.00995441247, 0.05008513  , -9.795269   , 0.000621884 , 0.001114863 , -0.00113843789, 0.394768775 , 0.164149925 , 0.3396926   , -0.00376361818, -0.0008720692, -0.3972535  , 2.83        , 3           , 12          , 0.0506577678, 0
-0.0126116108, 0.0274755247, -9.771879   , 0.000903569337, 0.00139834138, -6.537162E-06, 0.3953755   , 0.163812861 , 0.3402993   , -0.003754582, -0.0008580864, -0.397253752, 2.84        , 3           , 50          , 0           , 0
-0.0109823458, 0.0459794626, -9.77857    , 0.002314636 , 0.00168945792, 0.000565556169, 0.395038426 , 0.163812861 , 0.340366721 , -0.00373144075, -0.000841170666, -0.39724803 , 2.85        , 3           , 11          , 0.007392587 , 0.00739261275
-0.0214470122, 0.04829247  , -9.759206   , 6.57207E-05 , -0.000578345847, -0.0005786005, 0.395038426 , 0.163812861 , 0.340366721 , -0.00373077882, -0.0008469759, -0.397253752, 2.86        , 3           , 12          , 0.0506577678, 0
-0.00132543407, 0.0224056765, -9.779498   , -0.000213754975, -0.00114338519, -0.000298247818, 0.394701362 , 0.163880274 , 0.3396926   , -0.00373291364, -0.000858420564, -0.397256851, 2.87        , 3           , 50          , 0           , 0
-0.009084035, 0.0402262732, -9.818354   , 0.00203573867, 0.0008428492, -0.0005672123, 0.395577729 , 0.163812861 , 0.340366721 , -0.00371255167, -0.000850013341, -0.397262335, 2.88        , 3           , 11          , 0.007392587 , 0.00739261275
-0.00452036876, 0.0157270227, -9.794918   , -0.00218967488, -0.00143832155, -0.000872975332, 0.395038426 , 0.163610622 , 0.340366721 , -0.00373444031, -0.000864428759, -0.397271156, 2.89        , 3           , 12          , 0.0506577678, 0
0.000211323626, 0.0368175   , -9.776714   , -0.000475903333, -0.00087265484, -0.0008642686, 0.395038426 , 0.163610622 , 0.340366721 , -0.00369700533, -0.000890288153, -0.397279739, 2.9         , 3           , 50          , 0           , 0
-0.00780273369, 0.0419332981, -9.79393    , -0.0005035314, 0.004477076 , -0.00283378619, 0.394701362 , 0.1640151   , 0.3396926   , -0.00370201562, -0.000845622446, -0.39730835 , 2.91        , 3           , 11          , 0.007296583 , 0.0072966055
0.00425745174, 0.0278192051, -9.798416   , -0.00132564548, -0.000315252953, -0.0003022765, 0.395173252 , 0.163812861 , 0.340434134 , -0.0037152695, -0.0008487862, -0.3973112  , 2.92        , 3           , 12          , 0.05162985  , 0
-0.0042102756, 0.0342786461, -9.81111    , -0.000207416553, 0.00194490631, -0.0008586123, 0.395038426 , 0.163745448 , 0.34056896  , -0.00371733634, -0.0008293692, -0.397320032, 2.93        , 3           , 50          , 0           , 0
0.002297761 , 0.05621237  , -9.78159    , 0.000922943349, 0.00195254933, 0.0002768052, 0.395038426 , 0.163745448 , 0.34056896  , -0.00370810879, -0.0008098335, -0.397317171, 2.94        , 3           , 11          , 0.007296583 , 0.0072966055
-0.0303976759, 0.046698492 , -9.790467   , -0.00018938331, -0.00143386866, 0.00139648013, 0.394701362 , 0.163947687 , 0.339962244 , -0.00371001451, -0.000824120361, -0.3973031  , 2.95        , 3           , 12          , 0.05162985  , 0
-0.01856699 , 0.04973195  , -9.794432   , 0.000367521425, -2.22281087E-05, -0.000293940946, 0.3953755   , 0.164284751 , 0.3407038   , -0.003706337, -0.000824353541, -0.3973062  , 2.96        , 3           , 50          , 0           , 0
-0.007670746, 0.0540917   , -9.7871     , -0.00102837407, -0.00341056124, -0.00115334534, 0.3953755   , 0.163678035 , 0.3407038   , -0.003716611, -0.000858501764, -0.397317648, 2.97        , 3           , 11          , 0.007296583 , 0.0072966055
-0.0217507258, 0.0430623665, -9.812563   , -0.004430947, -0.0006178277, -0.0003171967, 0.3953755   , 0.163678035 , 0.3407038   , -0.00376091735, -0.0008646918, -0.397320747, 2.98        , 3           , 12          , 0.05162985  , 0
-0.0303896554, 0.04491959  , -9.798159   , -0.00358801126, 0.000232596663, -0.0005944816, 0.394566536 , 0.1640151   , 0.33962518  , -0.00379679282, -0.0008623883, -0.3973267  , 2.99        , 3           , 50          , 0           , 0
-0.015394317, 0.0514827222, -9.789429   , 0.000330881681, -6.08941773E-05, 0.0005535341, 0.3953755   , 0.1640151   , 0.3402319   , -0.00386710954, -0.0009396887, -0.397321224, 3           , 3           , 11          , 0.00720195333, 0.00720196636
-0.00341161247, 0.03596679  , -9.779459   , 0.00201782  , 0.00135838811, -0.00056654436, 0.3949036   , 0.163678035 , 0.340434134 , -0.00384692568, -0.0009261266, -0.3973267  , 3.01        , 3           , 12          , 0.05261464  , 0
-0.0125943292, 0.0582135655, -9.788024   , -0.00193582918, 0.00133165007, -1.99064816E-05, 0.3949036   , 0.163678035 , 0.340434134 , -0.00386628346, -0.0009128108, -0.397327185, 3.02        , 3           , 50          , 0           , 0
-0.0158587247, 0.0483541638, -9.796677   , -0.004191878, 0.0004716711, -0.00144443125, 0.394633949 , 0.164082512 , 0.339557767 , -0.003908189, -0.0009081502, -0.3973415  , 3.03        , 3           , 11          , 0.00720195333, 0.00720196636
-0.0103636915, 0.02341883  , -9.780919   , -0.00194124214, 0.00245791115, 0.000264366477, 0.395240664 , 0.1640151   , 0.3402319   , -0.003927604, -0.000883561, -0.3973391  , 3.04        , 3           , 12          , 0.05261464  , 0
-0.02240964 , 0.0442397147, -9.758325   , -0.00136663043, 0.000490775448, 0.0002639628, 0.394971    , 0.163678035 , 0.340434134 , -0.003941272, -0.000878642953, -0.397336245, 3.05        , 3           , 50          , 0           , 0
-0.0162005033, 0.0649643838, -9.770395   , 5.60774679E-05, -0.00147062633, 0.00168019743, 0.394971    , 0.163678035 , 0.340434134 , -0.00394072663, -0.0008932828, -0.397319555, 3.06        , 3           , 11          , 0.00720195333, 0.00720196636
-0.013682818, 0.0478099175, -9.776775   , -0.001072399, -0.00175983214, 0.00139195833, 0.394768775 , 0.163947687 , 0.33962518  , -0.00395146338, -0.0009108261, -0.3973055  , 3.07        , 3           , 12          , 0.05261464  , 0
-0.00314436853, 0.0219742768, -9.779062   , 0.00089540903, -5.70758129E-05, -8.906811E-06, 0.395240664 , 0.163947687 , 0.3402993   , -0.00394250872, -0.0009113972, -0.397305727, 3.08        , 3           , 50          , 0           , 0
-0.0207283851, 0.0298299957, -9.772836   , 4.84548473E-05, -6.28041453E-05, 0.0005522171, 0.395038426 , 0.163947687 , 0.340434134 , -0.003942029, -0.000912003452, -0.3973     , 3.09        , 3           , 11          , 0.00720195333, 0.00720196636
-0.0159455314, 0.0469447747, -9.779961   , -0.000237408458, -0.00206550118, -0.00171256333, 0.395038426 , 0.163947687 , 0.340434134 , -0.003968744, -0.0009938683, -0.397317171, 3.1         , 3           , 12          , 0.05361121  , 0
0.0346419849, 0.036875248 , -9.779615   , -0.0005061472, -0.004601491, 0.0002599767, 0.394633949 , 0.164082512 , 0.33976     , -0.003973809, -0.00103987264, -0.3973143  , 3.11        , 3           , 50          , 0           , 0
-0.009216507, 0.04011893  , -9.786264   , -0.000245283, -0.000376108364, -0.000862347137, 0.395105839 , 0.163745448 , 0.340434134 , -0.0039762524, -0.001043668, -0.3973229  , 3.12        , 3           , 11          , 0.007108983 , 0.00710901059
-0.024298884, 0.03437798  , -9.771036   , 0.00059937255, 0.000192752326, -0.0005749909, 0.395173252 , 0.1634758   , 0.34056896  , -0.003970253, -0.00104176335, -0.397328854, 3.13        , 3           , 12          , 0.05361121  , 0
-0.0108019756, 0.020311445 , -9.794495   , 0.00145214028, -0.0006462066, 0.00168795779, 0.395173252 , 0.1634758   , 0.34056896  , -0.00395575 , -0.00104815851, -0.397311926, 3.14        , 3           , 50          , 0           , 0
-0.0258277226, 0.0155090792, -9.790111   , -0.000245208677, -9.453634E-05, 0.00168092409, 0.394633949 , 0.164082512 , 0.339827418 , -0.00395821966, -0.00104903732, -0.397295   , 3.15        , 3           , 11          , 0.007108983 , 0.00710901059
-0.0191276334, 0.0425082669, -9.791303   , -0.00110494636, 0.00215224829, -0.000579854939, 0.3953755   , 0.163678035 , 0.3402993   , -0.00396926235, -0.00102753821, -0.397300959, 3.16        , 3           , 12          , 0.05361121  , 0
-0.0120397694, 0.03470829  , -9.777721   , 0.0006088043, -0.00177820458, -0.00114310347, 0.395105839 , 0.163408384 , 0.340501547 , -0.003963162, -0.00104536524, -0.3973124  , 3.17        , 3           , 50          , 0           , 0
-0.0103580952, 0.0234233644, -9.782275   , 0.005104262 , 0.00303896284, -0.0005495806, 0.395105839 , 0.163408384 , 0.340501547 , -0.00391211454, -0.00101499748, -0.3973179  , 3.18        , 3           , 11          , 0.007108983 , 0.00710901059
-0.008190015, 0.0473478921, -9.792555   , 0.00229819026, -0.000358910853, 0.00197488  , 0.394633949 , 0.164419577 , 0.33976     , -0.00388915278, -0.00101850973, -0.3972981  , 3.19        , 3           , 12          , 0.05361121  , 0
-0.009284401, 0.07168064  , -9.778903   , 0.00118169957, -9.66097E-05, 0.00027473495, 0.395308077 , 0.163947687 , 0.34056896  , -0.00384433358, -0.00104405475, -0.397295475, 3.2         , 3           , 50          , 0           , 0
-0.008570326, 0.022044111 , -9.780911   , 6.48644636E-05, -0.00263833371, 0.0008306368, 0.395105839 , 0.163678035 , 0.340636373 , -0.0038436933, -0.00107040582, -0.39728713 , 3.21        , 3           , 11          , 0.00701711373, 0.00701715
0.00116197113, 0.002102213 , -9.788603   , 0.00456959  , 0.00020787587, 0.000573509547, 0.395105839 , 0.163678035 , 0.340636373 , -0.003798004, -0.00106830522, -0.3972814  , 3.22        , 3           , 12          , 0.0546186641, 0
-0.0175331924, 0.02668915  , -9.789097   , 0.00231033936, 0.000192596926, 0.00084551156, 0.394701362 , 0.163947687 , 0.339962244 , -0.00377491023, -0.00106634735, -0.397273064, 3.23        , 3           , 50          , 0           , 0
-0.046622552, 0.0505217426, -9.797356   , -0.00134390348, -0.00349258259, -0.0005899369, 0.395308077 , 0.164217338 , 0.3402319   , -0.00378834317, -0.00110129523, -0.3972788  , 3.24        , 3           , 11          , 0.00701711373, 0.00701715
-0.02334775 , 0.0303871147, -9.795001   , -0.000225348151, -0.00123242219, -0.0005811977, 0.395038426 , 0.163678035 , 0.340501547 , -0.00379059045, -0.00111364131, -0.3972845  , 3.25        , 3           , 12          , 0.0546186641, 0
-0.0120916534, 0.0275246426, -9.788147   , -0.000799470348, 0.0007347157, 0.0002668182, 0.395038426 , 0.163678035 , 0.340501547 , -0.003798588, -0.00110628409, -0.3972819  , 3.26        , 3           , 50          , 0           , 0
-0.00699349726, 0.035149347 , -9.792144   , 0.002877165 , -0.000366717228, -0.0005654096, 0.394701362 , 0.164352164 , 0.339962244 , -0.00376980985, -0.0011099726, -0.3972876  , 3.27        , 3           , 11          , 0.00701711373, 0.00701715
-0.007884143, 0.03517207  , -9.795767   , 0.00287405076, 0.000196411391, -0.00112961675, 0.395173252 , 0.163947687 , 0.3402993   , -0.003741057, -0.00110805128, -0.3972988  , 3.28        , 3           , 12          , 0.0546186641, 0
-0.00148940552, 0.03737458  , -9.802036   , -0.00165552984, 0.002699946 , 0.00196113  , 0.395173252 , 0.163610622 , 0.340501547 , -0.003757634, -0.00108097843, -0.3972795  , 3.29        , 3           , 50          , 0           , 0
-0.0219815038, 0.0335020125, -9.786842   , 0.0006286632, 0.000174110522, -0.00114020542, 0.395173252 , 0.163610622 , 0.340501547 , -0.00372069376, -0.00109461055, -0.397290945, 3.3         , 3           , 11          , 0.00692764157, 0.006927663
-0.01742239 , 0.0379376933, -9.780008   , -0.005579077, -0.0007125969, 0.00137235748, 0.394566536 , 0.164082512 , 0.339894831 , -0.003776499, -0.00110168476, -0.397277117, 3.31        , 3           , 12          , 0.0556361973, 0
-0.0147971734, 0.0275656059, -9.790879   , -0.0007814986, -0.00039857332, -0.00256034546, 0.3953755   , 0.163812861 , 0.34009707  , -0.00378428632, -0.00110576733, -0.397302628, 3.32        , 3           , 50          , 0           , 0
0.0150652751, 0.0209485516, -9.80559349 , 5.872303E-05, 0.0012965533, -0.00029349103, 0.3948362   , 0.163610622 , 0.3407712   , -0.00378369587, -0.001092813, -0.397305727, 3.33        , 3           , 11          , 0.00692764157, 0.006927663
-0.008600544, 0.0464947447, -9.80567    , 0.00203972985, 0.000465227058, -0.0005681118, 0.3948362   , 0.163610622 , 0.3407712   , -0.00376329245, -0.00108818209, -0.397311449, 3.34        , 3           , 12          , 0.0556361973, 0
-0.00541360024, 0.04736438  , -9.806997   , -0.0004838266, -0.00321230781, -0.000303067849, 0.394566536 , 0.164419577 , 0.339894831 , -0.00376812671, -0.00112031633, -0.3973143  , 3.35        , 3           , 50          , 0           , 0
-0.0205900241, 0.03797642  , -9.780484   , 0.000345495035, 0.00045376888, -1.09384164E-05, 0.395173252 , 0.163745448 , 0.3402993   , -0.003764672, -0.001115779, -0.3973143  , 3.36        , 3           , 11          , 0.00692764157, 0.006927663
-0.0199797824, 0.0492574349, -9.782694   , -0.00104819075, -0.0032161253, 0.000541910529, 0.395173252 , 0.163880274 , 0.340636373 , -0.00377516 , -0.00114791957, -0.397308826, 3.37        , 3           , 12          , 0.0556361973, 0
-0.0205826536, 0.03530428  , -9.790892   , -0.00106959033, 0.0010073483, -0.0002991927, 0.395173252 , 0.163880274 , 0.340636373 , -0.003785852, -0.00113785756, -0.397311926, 3.38        , 3           , 50          , 0           , 0
-0.0153320543, 0.0275043976, -9.770996   , -0.00247844681, 0.0004346707, 0.000540967 , 0.394499123 , 0.164149925 , 0.3396926   , -0.00381064252, -0.00113349 , -0.397306442, 3.39        , 3           , 11          , 0.00692764157, 0.006927663
1.60299242E-05, 0.0196979381, -9.784019   , 0.00318382424, -0.00122976443, 0.0008471626, 0.395240664 , 0.163812861 , 0.340366721 , -0.003767082, -0.00117558241, -0.3972981  , 3.4         , 3           , 12          , 0.05666303  , 0
0.00256598927, 0.0435597   , -9.777121   , 0.000918670266, -0.000118784716, 0.000555825245, 0.395240664 , 0.163408384 , 0.3407038   , -0.00375790149, -0.00117674924, -0.3972926  , 3.41        , 3           , 50          , 0           , 0
-0.02876857 , 0.03492462  , -9.783724   , -0.000788599835, 0.00240384042, 0.000269291544, 0.395240664 , 0.163408384 , 0.3407038   , -0.00376579049, -0.00115270086, -0.39729    , 3.42        , 3           , 11          , 0.00684026163, 0.00684026955
-0.00805142 , 0.05326275  , -9.807445   , 0.00147622766, 0.00129285944, -4.44593934E-06, 0.394768775 , 0.1640151   , 0.3396926   , -0.003751028, -0.00113977282, -0.39729    , 3.43        , 3           , 12          , 0.05666303  , 0
-0.00146220252, 0.04141377  , -9.79569149 , 0.00120044453, -0.000116877891, -0.0005730075, 0.3953755   , 0.163812861 , 0.3402319   , -0.00373901683, -0.0011409627, -0.3972957  , 3.44        , 3           , 50          , 0           , 0
0.0124568194, 0.03892217  , -9.774353   , -0.00106143183, 0.000430974178, -1.76001486E-05, 0.395038426 , 0.163543209 , 0.3407038   , -0.00374963135, -0.00113665371, -0.397295952, 3.45        , 3           , 11          , 0.00684026163, 0.00684026955
-0.0117262062, 0.0203069523, -9.789983   , -0.0004793607, -0.00294398423, 0.0008274387, 0.395038426 , 0.163543209 , 0.3407038   , -0.00375443441, -0.00116606231, -0.3972876  , 3.46        , 3           , 12          , 0.05666303  , 0
-0.005370912, 0.0496307164, -9.810151   , -0.00190362579, -0.0007010184, -0.000870899239, 0.394768775 , 0.1640151   , 0.339827418 , -0.00377346016, -0.001173105, -0.3972962  , 3.47        , 3           , 50          , 0           , 0
0.00200530887, 0.06125745  , -9.804623   , -0.00135254906, 0.00211845338, -0.0005813884, 0.395173252 , 0.163947687 , 0.3402993   , -0.00378697878, -0.00115194265, -0.3973019  , 3.48        , 3           , 11          , 0.00684026163, 0.00684026955
0.005391679 , 0.0471869074, -9.792      , 0.002317606 , 0.0024248478, -0.0005638343, 0.395173252 , 0.1634758   , 0.340434134 , -0.003763796, -0.00112771569, -0.397307634, 3.49        , 3           , 12          , 0.05666303  , 0
-0.00318735 , 0.0116733927, -9.801703   , 0.00174311851, -0.0009241711, -0.0005714371, 0.395173252 , 0.1634758   , 0.340434134 , -0.00380754052, -0.00105906627, -0.397313118, 3.5         , 3           , 50          , 0           , 0
0.00140073244, 0.0174715966, -9.797577   , 0.000896164333, -0.0009298995, -1.03129732E-05, 0.394701362 , 0.1640151   , 0.339894831 , -0.003798579, -0.00106836553, -0.397313118, 3.51        , 3           , 11          , 0.006754461 , 0.006754477
-0.008914891, 0.0221371166, -9.807129   , -0.001926873, -0.00123056513, -0.00030645373, 0.3954429   , 0.164149925 , 0.3402319   , -0.0038178442, -0.00108068273, -0.397316217, 3.52        , 3           , 12          , 0.05769845  , 0
-0.008494611, 0.0261226147, -9.786318   , -0.000231244383, -0.00150067185, -0.0008640611, 0.394971    , 0.163408384 , 0.340434134 , -0.00382014667, -0.00109572208, -0.3973248  , 3.53        , 3           , 50          , 0           , 0
-0.0194016211, 0.024878595 , -9.780982   , 0.0006111127, -0.000368678535, 0.0002717752, 0.394971    , 0.163408384 , 0.340434134 , -0.003814039, -0.00109939848, -0.397321939, 3.54        , 3           , 11          , 0.006754461 , 0.006754477
0.00288642943, 0.0385372974, -9.760867   , 0.0005912703, 0.003573231 , -0.000287224451, 0.394633949 , 0.164082512 , 0.339557767 , -0.003808123, -0.00106367772, -0.397325039, 3.55        , 3           , 12          , 0.05769845  , 0
0.00652904157, 0.03315504  , -9.78301    , 0.001453885 , 0.000481745083, -0.000288046926, 0.395240664 , 0.163880274 , 0.340366721 , -0.003793581, -0.00105887116, -0.3973279  , 3.56        , 3           , 50          , 0           , 0
-0.0135160694, 0.0239162613, -9.783652   , 0.00145142328, 0.00104487664, 0.000277895684, 0.395038426 , 0.163408384 , 0.340434134 , -0.00377907 , -0.001048412, -0.397325039, 3.57        , 3           , 11          , 0.006754461 , 0.006754477
-0.00327821914, 0.009814361 , -9.785442   , 0.0007492933, 0.000195405577, -0.000150504551, 0.395038426 , 0.163408384 , 0.340434134 , -0.00377157517, -0.00104646361, -0.3973267  , 3.58        , 3           , 12          , 0.05769845  , 0
-0.014079106, 0.05366356  , -9.771782   , 4.396768E-05, -9.093756E-05, -0.00128438079, 0.394701362 , 0.164149925 , 0.339894831 , -0.003771122, -0.00104742136, -0.397339582, 3.59        , 3           , 50          , 0           , 0
-0.0320687778, 0.04951133  , -9.81578    , -0.00120556855, 0.000481265859, -0.0007243423, 0.395105839 , 0.164284751 , 0.3402993   , -0.00372621068, -0.00100041972, -0.397346973, 3.6         , 3           , 11          , 0.00667106034, 0.006671079
-0.00436324161, 0.0265667476, -9.798488   , -0.00218770769, -0.0007924617, -0.0005896355, 0.395173252 , 0.163880274 , 0.3408386   , -0.00374808232, -0.00100836635, -0.397352934, 3.61        , 3           , 12          , 0.0587417781, 0
-0.005131129, 0.0414185   , -9.78442    , -0.00106320565, 0.0002006545, -0.001147924, 0.395173252 , 0.163880274 , 0.3408386   , -0.00375870243, -0.001006403, -0.397364378, 3.62        , 3           , 50          , 0           , 0
-0.0162140224, 0.0266414583, -9.779594   , 5.830069E-05, 0.0018976857, -0.0008575151, 0.3948362   , 0.164284751 , 0.3396926   , -0.00375811057, -0.0009874584, -0.397372961, 3.63        , 3           , 11          , 0.00667106034, 0.006671079
-0.0376922563, 0.0396014079, -9.8014     , -0.000221419716, 0.00133264507, -0.00100096862, 0.3953755   , 0.163812861 , 0.3402993   , -0.00376031525, -0.000974169932, -0.397382975, 3.64        , 3           , 12          , 0.0587417781, 0
-0.0124365808, 0.0347589627, -9.791284   , 0.00160980178, 0.00233053952, -0.0004258149, 0.3953755   , 0.163543209 , 0.340434134 , -0.003744213, -0.0009508805, -0.397387266, 3.65        , 3           , 50          , 0           , 0
0.00551528158, 0.0254900455, -9.781241   , -8.64421963E-05, 0.00274142926, 0.000273277983, 0.3953755   , 0.163543209 , 0.340434134 , -0.00374507974, -0.000923456158, -0.397384644, 3.66        , 3           , 11          , 0.00667106034, 0.006671079
-0.0191697963, 0.0460449047, -9.769592   , -0.0007822988, 0.0006249147, -0.000157074974, 0.394633949 , 0.164217338 , 0.339894831 , -0.00375290075, -0.0009172129, -0.3973863  , 3.67        , 3           , 12          , 0.0587417781, 0
-0.008241704, 0.0455206037, -9.785784   , 0.00190362555, 7.99296249E-05, -4.16323473E-06, 0.3954429   , 0.1640151   , 0.340366721 , -0.00373386475, -0.000916414, -0.3973863  , 3.68        , 3           , 50          , 0           , 0
-0.0172885079, 0.0425096825, -9.798068   , 0.00133544987, 0.000780023343, 0.000276825216, 0.395173252 , 0.163678035 , 0.340636373 , -0.00372051285, -0.000908603368, -0.397383451, 3.69        , 3           , 11          , 0.00667106034, 0.006671079
-0.0237418711, 0.00150134508, -9.791507   , 0.000340859027, 0.000898926752, -0.0005752288, 0.395173252 , 0.163678035 , 0.340636373 , -0.00372916041, -0.000936979, -0.3973894  , 3.7         , 3           , 12          , 0.0597924143, 0
-0.000181098469, 0.0377644263, -9.7884655  , 0.00147675781, -0.000360476784, -0.000713182555, 0.394633949 , 0.163947687 , 0.340029657 , -0.00371438637, -0.0009406103, -0.397396326, 3.71        , 3           , 50          , 0           , 0
0.0135656055, 0.0515740067, -9.783331   , 0.00331867929, -0.00147431961, 0.000282522931, 0.395240664 , 0.164149925 , 0.340434134 , -0.00368120219, -0.000955342955, -0.397393465, 3.72        , 3           , 11          , 0.006589362 , 0.006589377
-0.004742111, 0.04091517  , -9.770407   , 0.00105676556, -0.00106725364, -0.000433705369, 0.395173252 , 0.163812861 , 0.340636373 , -0.00367063028, -0.000966031337, -0.397397757, 3.73        , 3           , 12          , 0.0597924143, 0
-0.0283247847, 0.03535837  , -9.780103   , -0.00106709311, 4.4681452E-05, -0.000583115441, 0.395173252 , 0.163812861 , 0.340636373 , -0.00368129555, -0.000965605956, -0.397403717, 3.74        , 3           , 50          , 0           , 0
-0.03200838 , 0.0255315024, -9.796895   , -0.00120958174, 0.000466077938, 0.000829564349, 0.394633949 , 0.164149925 , 0.34009707  , -0.00369339925, -0.0009609146, -0.397395372, 3.75        , 3           , 11          , 0.006589362 , 0.006589377
-0.0119244168, 0.0343554057, -9.8071     , -0.0007877433, 0.000750505948, 0.000125630046, 0.3953755   , 0.164082512 , 0.340366721 , -0.003701278, -0.000953404931, -0.39739418 , 3.76        , 3           , 12          , 0.0597924143, 0
-0.02128131 , 0.0555683337, -9.776349   , -0.00106893934, 0.000467030128, -0.000158658309, 0.395105839 , 0.163610622 , 0.3407038   , -0.00371196587, -0.0009487405, -0.397395849, 3.77        , 3           , 50          , 0           , 0
-0.0122370655, 0.0224969648, -9.768734   , -0.00134755485, -0.00023879089, 0.000404014776, 0.395105839 , 0.163610622 , 0.3407038   , -0.00372544513, -0.000951113238, -0.397391558, 3.78        , 3           , 11          , 0.006589362 , 0.006589377
-0.0140422462, 0.0153814508, -9.793183   , -7.77834E-05, 5.137024E-05, 0.0008341812, 0.394633949 , 0.164149925 , 0.340164483 , -0.00372623117, -0.0009505685, -0.397383451, 3.79        , 3           , 12          , 0.0597924143, 0
-0.0107515333, 0.0306183677, -9.77366    , 0.000783690135, 0.000458785566, 0.000273564481, 0.395105839 , 0.163812861 , 0.340501547 , -0.0036764096, -0.000998175, -0.397380829, 3.8         , 3           , 50          , 0           , 0
-0.0164033622, 0.0451606065, -9.784492   , 0.003314587 , 0.00258771121, -0.0005589409, 0.395173252 , 0.163812861 , 0.340434134 , -0.00364325754, -0.000972318463, -0.397386551, 3.81        , 3           , 11          , 0.0065097874, 0.006509817
-0.00621477328, 0.0274479836, -9.785843   , 0.004161986 , 0.0027342278, 0.000857914158, 0.395173252 , 0.163812861 , 0.340434134 , -0.00360164582, -0.0009449454, -0.3973782  , 3.82        , 3           , 12          , 0.0608497448, 0
0.0064490363, 0.0308584552, -9.770816   , 0.00107193785, -0.00066556345, 0.0006969519, 0.394701362 , 0.164284751 , 0.340029657 , -0.003590933, -0.0009515757, -0.397371054, 3.83        , 3           , 50          , 0           , 0
0.000937609933, 0.0237174369, -9.774955   , 0.0006505961, -0.001231561, -0.000153503832, 0.395308077 , 0.163880274 , 0.340366721 , -0.00358442543, -0.0009638968, -0.397372484, 3.84        , 3           , 11          , 0.0065097874, 0.006509817
-0.0116608338, 0.0306259822, -9.772763   , 0.0005052823, -0.000387820328, -1.15917492E-05, 0.395240664 , 0.163340971 , 0.340636373 , -0.003579372, -0.0009677755, -0.397372723, 3.85        , 3           , 12          , 0.0608497448, 0
-0.0173454955, 0.0487124063, -9.764144   , -0.0007633844, -0.000818762, 0.00026436866, 0.395240664 , 0.163340971 , 0.340636373 , -0.003587009, -0.000975953531, -0.3973701  , 3.86        , 3           , 50          , 0           , 0
-0.0206093341, 0.0370680653, -9.778681   , -0.00118342089, -0.00138475315, 0.00167421263, 0.394499123 , 0.1640151   , 0.340164483 , -0.00359885977, -0.0009897407, -0.397353172, 3.87        , 3           , 11          , 0.0065097874, 0.006509817
-0.008341772, 0.0387442634, -9.7831     , -0.000337742036, -0.0009566733, 0.002526427 , 0.3953755   , 0.163947687 , 0.34056896  , -0.00360226235, -0.0009992163, -0.3973279  , 3.88        , 3           , 12          , 0.0608497448, 0
-0.0195128229, 0.0456928052, -9.797621   , 0.00191482867, 0.000325646717, 0.0015500338, 0.395645142 , 0.163543209 , 0.3408386   , -0.00358312973, -0.0009959041, -0.3973124  , 3.89        , 3           , 50          , 0           , 0
0.00759844575, 0.0404187627, -9.799694   , 0.0007798235, -0.000114980867, 0.00027268313, 0.395645142 , 0.163543209 , 0.3408386   , -0.00359261059, -0.00102466578, -0.397309542, 3.9         , 3           , 11          , 0.00643232465, 0.00643235352
0.01764961  , 0.0234874953, -9.764885   , -0.000914159347, -0.0004080099, -0.00114833971, 0.394701362 , 0.164082512 , 0.340029657 , -0.00360174035, -0.00102878711, -0.397321   , 3.91        , 3           , 12          , 0.0619132444, 0
-0.0140354373, 0.0144942692, -9.797708   , 0.000348805275, 0.00128997769, -0.000433466368, 0.395308077 , 0.163880274 , 0.340434134 , -0.00359824742, -0.00101590285, -0.397325277, 3.92        , 3           , 50          , 0           , 0
-0.007689862, 0.0585397147, -9.768097   , -0.0007813542, 0.00142312143, -1.47108494E-05, 0.395038426 , 0.163610622 , 0.34056896  , -0.00360606075, -0.00100167224, -0.397325516, 3.93        , 3           , 11          , 0.00643232465, 0.00643235352
-0.0234026462, 0.03435979  , -9.76877    , -0.00191766093, 0.00268252264, -0.0005831009, 0.395038426 , 0.163610622 , 0.34056896  , -0.0036252318, -0.0009748683, -0.397331476, 3.94        , 3           , 12          , 0.0619132444, 0
-0.02638133 , 0.04794212  , -9.7719     , 6.23151645E-05, 0.002273549 , 0.0009794228, 0.394566536 , 0.164217338 , 0.3402319   , -0.00362461829, -0.0009520974, -0.397321939, 3.95        , 3           , 50          , 0           , 0
-0.008127918, 0.0532007627, -9.788915   , -7.183939E-05, 0.0005831974, -0.00128413911, 0.395240664 , 0.163812861 , 0.3402993   , -0.00362532423, -0.000946312037, -0.397334576, 3.96        , 3           , 11          , 0.00643232465, 0.00643235352
-0.00929111149, 0.03247053  , -9.792624   , -7.286271E-05, 0.00072397833, -0.00184899708, 0.395510316 , 0.1634758   , 0.34056896  , -0.00362603576, -0.0009391394, -0.397353172, 3.97        , 3           , 12          , 0.0619132444, 0
-0.009572627, 0.04734418  , -9.78669    , 0.0005035436, -0.00124314858, 0.00125851145, 0.395510316 , 0.1634758   , 0.34056896  , -0.003621012, -0.0009515253, -0.397340536, 3.98        , 3           , 50          , 0           , 0
-0.00286602415, 0.0480881333, -9.763132   , 0.0012057994, -0.0005344625, 0.0006978138, 0.394701362 , 0.1640151   , 0.340029657 , -0.00360896043, -0.0009568446, -0.397333622, 3.99        , 3           , 11          , 0.00643232465, 0.00643235352
-0.0091531  , 0.0477582663, -9.777194   , 0.00103254779, 0.0012939591, -6.295818E-06, 0.395240664 , 0.163947687 , 0.340434134 , -0.00365881273, -0.0009460315, -0.397333384, 4           , 3           , 12          , 0.0629824   , 0
-0.007407887, 0.03920293  , -9.788515   , 0.00160662539, -0.000532393169, 0.000276054954, 0.395240664 , 0.163745448 , 0.340434134 , -0.003642749, -0.000951345253, -0.397330523, 4.01        , 3           , 50          , 0           , 0
-0.009868681, 0.03014298  , -9.76958752 , 0.00203702832, -0.00179656863, 0.00112369  , 0.395240664 , 0.163745448 , 0.340434134 , -0.00362238986, -0.0009692702, -0.397319317, 4.02        , 3           , 11          , 0.006357442 , 0.00635746168
-0.0117004421, 0.02746944  , -9.773229   , 0.00132755784, -0.00109743048, 0.00126275118, 0.394633949 , 0.164284751 , 0.340164483 , -0.00360912643, -0.0009801986, -0.397306681, 4.03        , 3           , 12          , 0.0629824   , 0
-0.00482535735, 0.026564505 , -9.796231   , 0.001894873 , -0.0016567423, 0.000699442346, 0.395038426 , 0.163947687 , 0.340434134 , -0.00359018473, -0.0009967409, -0.397299528, 4.04        , 3           , 50          , 0           , 0
-0.004004826, 0.0224678069, -9.788559   , 0.0003449288, -0.00237116031, 0.0005498457, 0.395308077 , 0.163947687 , 0.3408386   , -0.00358674116, -0.00102043268, -0.397294044, 4.05        , 3           , 11          , 0.006357442 , 0.00635746168
-0.0111453636, 0.0271006618, -9.799441   , -0.000369213085, -0.0008273292, -0.000157403585, 0.395308077 , 0.163947687 , 0.3408386   , -0.003590432, -0.00102871156, -0.397295475, 4.06        , 3           , 12          , 0.0629824   , 0
-0.01836459 , 0.0312233865, -9.7927     , 0.000193223284, -0.0004011632, -0.0007191938, 0.394701362 , 0.164082512 , 0.340164483 , -0.00358849182, -0.001032749, -0.397302628, 4.07        , 3           , 50          , 0           , 0
-0.00573707931, 0.0283555519, -9.789      , 0.0001931417, -0.000401163561, -0.0008604625, 0.395173252 , 0.163880274 , 0.3402993   , -0.00358655141, -0.00103679136, -0.3973112  , 4.08        , 3           , 11          , 0.006357442 , 0.00635746168
-0.007927943, 0.0364756361, -9.780847   , 0.000195803761, -0.0008235085, 0.000127767635, 0.3954429   , 0.163610622 , 0.34056896  , -0.0035845947, -0.00104502181, -0.397310019, 4.09        , 3           , 12          , 0.0629824   , 0
-0.0172164235, 0.0492633432, -9.793972   , 7.16647046E-05, -0.00265113031, -1.698163E-05, 0.3954429   , 0.163610622 , 0.34056896  , -0.00356172817, -0.00106193614, -0.397310019, 4.1         , 3           , 50          , 0           , 0
-0.0323005319, 0.0386111327, -9.794132   , -0.00106496818, -0.0013917305, -0.00115044659, 0.394566536 , 0.164217338 , 0.340029657 , -0.0035723662, -0.00107589446, -0.397321463, 4.11        , 3           , 11          , 0.00628442038, 0.006284452
-0.0261379816, 0.0267886352, -9.78871    , -0.0007879986, -0.000122773854, 0.000265510433, 0.395240664 , 0.164082512 , 0.340164483 , -0.00358024915, -0.00107711274, -0.39731884 , 4.12        , 3           , 12          , 0.06405673  , 0
-0.00612855 , 0.03823025  , -9.772238   , -7.939555E-05, -0.000399558543, 0.00224613119, 0.3953755   , 0.163408384 , 0.34056896  , -0.003581067, -0.00108102791, -0.397296429, 4.13        , 3           , 50          , 0           , 0
-0.00242672581, 0.0449474342, -9.769921   , -0.000222737115, -0.000118951917, 0.0009744882, 0.3953755   , 0.163408384 , 0.34056896  , -0.00358330482, -0.0010821824, -0.397286654, 4.14        , 3           , 11          , 0.00628442038, 0.006284452
0.006638338 , 0.0372607522, -9.796551   , -0.000225725453, 0.0003033914, -0.0005788171, 0.394768775 , 0.164149925 , 0.340164483 , -0.00358555629, -0.00107916957, -0.3972926  , 4.15        , 3           , 12          , 0.06405673  , 0
-0.00619097846, 0.031930767 , -9.777236   , -0.00121524266, 0.0004374874, -0.00114828441, 0.395240664 , 0.163745448 , 0.340366721 , -0.00359769654, -0.00107483589, -0.397304058, 4.16        , 3           , 50          , 0           , 0
-0.002099447, 0.031449914 , -9.782631   , -0.000230767546, 0.00128886837, -0.000859835942, 0.395240664 , 0.163745448 , 0.3407038   , -0.00359999458, -0.001061978, -0.397312641, 4.17        , 3           , 11          , 0.00628442038, 0.006284452
-0.00128405914, 0.0228855554, -9.788083   , 0.000333470642, 0.00143347122, -0.0007157162, 0.395240664 , 0.163745448 , 0.3407038   , -0.0035966523, -0.00104766921, -0.3973198  , 4.18        , 3           , 12          , 0.06405673  , 0
0.00551767275, 0.03129454  , -9.763138   , -8.82417662E-05, 0.001008258 , -0.00100088 , 0.394566536 , 0.1640151   , 0.34009707  , -0.00359752425, -0.00103762269, -0.397330046, 4.19        , 3           , 50          , 0           , 0
-0.0007294696, 0.0345678367, -9.775375   , 0.000624506036, 0.00117122941, -0.0008560588, 0.395308077 , 0.164149925 , 0.340366721 , -0.00357080018, -0.0009770662, -0.397338629, 4.2         , 3           , 11          , 0.006213151 , 0.006213164
-0.0103434948, 0.0229888447, -9.787249   , 0.000487800949, 0.0003255807, -0.000292944169, 0.3954429   , 0.1634758   , 0.340636373 , -0.003565919, -0.000973821, -0.3973415  , 4.21        , 3           , 12          , 0.0651358   , 0
-0.0225681439, 0.0213474166, -9.793224   , 6.473175E-05, 0.000322718464, 0.000693961454, 0.3954429   , 0.1634758   , 0.340636373 , -0.0035652786, -0.000970569265, -0.397334576, 4.22        , 3           , 50          , 0           , 0
0.000216066837, 0.0305724367, -9.797983   , 0.0006279467, 0.000608102244, 0.000273223181, 0.394701362 , 0.164149925 , 0.340164483 , -0.00355900126, -0.000964478357, -0.397331953, 4.23        , 3           , 11          , 0.006213151 , 0.006213164
-0.00420490466, 0.03651475  , -9.805225   , -0.000223145034, 0.00130628364, -0.000294717669, 0.395173252 , 0.164284751 , 0.3402319   , -0.00356123 , -0.000951426, -0.3973348  , 4.24        , 3           , 12          , 0.0651358   , 0
0.00163039938, 0.0306018516, -9.811532   , -0.0009312215, 0.001723857 , -0.000156090377, 0.395510316 , 0.163880274 , 0.340636373 , -0.00357054058, -0.000934193, -0.397336483, 4.25        , 3           , 50          , 0           , 0
0.00343977264, 0.03325726  , -9.802468   , -0.000784595264, 0.000598550658, -0.000439705123, 0.395510316 , 0.163880274 , 0.340636373 , -0.00357838161, -0.000928223133, -0.397341   , 4.26        , 3           , 11          , 0.006213151 , 0.006213164
-0.0268957559, 0.0376314372, -9.790027   , 0.000631884148, -0.000236594089, -0.000151884931, 0.394701362 , 0.163812861 , 0.340366721 , -0.00357206166, -0.000930594862, -0.397342443, 4.27        , 3           , 12          , 0.0651358   , 0
0.00190727133, 0.0246514361, -9.7876     , 0.00105126074, 0.00061096577, -0.000289876421, 0.395173252 , 0.164217338 , 0.3402993   , -0.00356154679, -0.0009244955, -0.3973453  , 4.28        , 3           , 50          , 0           , 0
0.01015155  , 0.0308809429, -9.790222   , 0.00105056376, 0.0007517484, -0.000289659423, 0.395240664 , 0.163543209 , 0.3407712   , -0.00355103845, -0.0009169885, -0.3973484  , 4.29        , 3           , 11          , 0.006213151 , 0.006213164
-0.00197950657, 0.0373496525, -9.793001   , 0.00134661666, 0.000349002134, -0.000288959331, 0.395240664 , 0.163543209 , 0.3407712   , -0.00350439223, -0.000862607, -0.3973515  , 4.3         , 3           , 12          , 0.06621918  , 0
-0.0106396135, 0.0382970162, -9.77634    , 0.0009201882, 0.0009092675, -0.000290066848, 0.395038426 , 0.1640151   , 0.340164483 , -0.00349518773, -0.0008535244, -0.397354364, 4.31        , 3           , 50          , 0           , 0
-0.0180483088, 0.0230731629, -9.7855     , 0.0016269522, 0.000773259962, -0.0002869915, 0.395510316 , 0.164082512 , 0.340434134 , -0.003478916, -0.000845801842, -0.397357225, 4.32        , 3           , 11          , 0.006144039 , 0.00614406075
-0.0124387722, 0.0343108363, -9.79219    , 0.0012042165, 0.000488827354, -0.00113701308, 0.3953755   , 0.163678035 , 0.3407712   , -0.00346686435, -0.0008409533, -0.39736867 , 4.33        , 3           , 12          , 0.06621918  , 0
0.00144195091, 0.030449152 , -9.765884   , 0.000629768 , 0.00245596422, -0.0008540719, 0.3953755   , 0.163678035 , 0.3407712   , -0.00346055976, -0.0008164233, -0.397377253, 4.34        , 3           , 50          , 0           , 0
-0.01245622 , 0.0334039927, -9.790837   , 0.000353940617, 0.001187013 , -0.000292266661, 0.394701362 , 0.164149925 , 0.340366721 , -0.003457018, -0.000804563344, -0.397380352, 4.35        , 3           , 11          , 0.006144039 , 0.00614406075
0.0106109139, 0.032220006 , -9.787502   , 0.00135678262, -0.00162195147, 0.000414346869, 0.395240664 , 0.164082512 , 0.340501547 , -0.00344345323, -0.000820768531, -0.39737606 , 4.36        , 3           , 12          , 0.06621918  , 0
-0.00338581973, 0.03554135  , -9.787144   , 0.0006493586, -0.00120437518, 0.001683124 , 0.395240664 , 0.164082512 , 0.340501547 , -0.00343697378, -0.000832754362, -0.397359133, 4.37        , 3           , 50          , 0           , 0
-0.0198524445, 0.0275636036, -9.772838   , -0.00161960651, 0.0006105158, 0.0008277968, 0.395308077 , 0.163812861 , 0.3408386   , -0.0034531767, -0.00082662073, -0.3973508  , 4.38        , 3           , 11          , 0.006144039 , 0.00614406075
0.00473884866, 0.03631773  , -9.778038   , 6.491446E-05, 0.002452144 , -0.000856705941, 0.3943643   , 0.164284751 , 0.340366721 , -0.00345252058, -0.000802129, -0.3973596  , 4.39        , 3           , 12          , 0.06621918  , 0
-0.0160975866, 0.0303066056, -9.796302   , 0.0017664379, 0.00190957624, -0.000284582638, 0.395105839 , 0.164284751 , 0.340366721 , -0.00342351547, -0.00075621577, -0.397362471, 4.4         , 3           , 50          , 0           , 0
-0.0114057343, 0.0504720956, -9.771323   , 0.0006441458, 0.000634899 , 0.001685959 , 0.395105839 , 0.164284751 , 0.340366721 , -0.00341708655, -0.0007498091, -0.397345781, 4.41        , 3           , 11          , 0.00607659435, 0.006076624
-0.0168582425, 0.0473959669, -9.776801   , 0.000367539673, -0.00049327 , 0.00210671267, 0.395240664 , 0.163610622 , 0.340636373 , -0.003413427, -0.000754669833, -0.3973248  , 4.42        , 3           , 12          , 0.06730648  , 0
0.0006446978, 0.0332256481, -9.783506   , 0.0014968391, -0.000485632, 0.00140563678, 0.394566536 , 0.163947687 , 0.340366721 , -0.00339846965, -0.000759478367, -0.3973105  , 4.43        , 3           , 50          , 0           , 0
-0.0133405142, 0.0370026678, -9.784502   , 0.0030405547, 0.00135504326, 0.000426819519, 0.395240664 , 0.164419577 , 0.340366721 , -0.003368067, -0.000745913363, -0.397306442, 4.44        , 3           , 11          , 0.00607659435, 0.006076624
-0.01577489 , 0.0533319451, -9.801175   , 0.00219364488, 0.00120852911, -0.00014242332, 0.395240664 , 0.164419577 , 0.340366721 , -0.00334612955, -0.000733832945, -0.397307873, 4.45        , 3           , 12          , 0.06730648  , 0
-0.02419319 , 0.0335709266, -9.799513   , 0.000366560766, -0.000493274769, 0.000411487883, 0.395105839 , 0.163812861 , 0.34056896  , -0.00334246713, -0.000738751958, -0.39730382 , 4.46        , 3           , 50          , 0           , 0
0.0129314708, 0.0331320167, -9.798328   , -0.0014587586, -0.00261742761, 0.000399673329, 0.394701362 , 0.164352164 , 0.3402993   , -0.003357058, -0.0007649126, -0.397299528, 4.47        , 3           , 11          , 0.00607659435, 0.006076624
-0.006946855, 0.03518714  , -9.803444   , 0.001078367 , -0.00161475933, 0.000695582 , 0.395173252 , 0.163947687 , 0.340366721 , -0.0033462795, -0.0007810367, -0.3972926  , 4.48        , 3           , 12          , 0.06730648  , 0
-0.0301277768, 0.02869097  , -9.803647   , 0.00304588582, 0.000228781617, 1.27747626E-06, 0.395173252 , 0.163947687 , 0.340366721 , -0.00331582082, -0.0007787488, -0.3972926  , 4.49        , 3           , 50          , 0           , 0
-0.00113943778, 0.0319297463, -9.794373   , -0.00189504668, -0.00206764019, -0.000307764421, 0.3953755   , 0.1634758   , 0.3407038   , -0.00336329383, -0.0008310556, -0.397295237, 4.5         , 3           , 11          , 0.006011415 , 0.006011447
-0.00176326092, 0.0576106422, -9.780711   , -0.00344999577, -0.001655795, 0.0005332557, 0.394768775 , 0.163947687 , 0.34009707  , -0.0033977984, -0.0008475954, -0.39729    , 4.51        , 3           , 12          , 0.06839736  , 0
0.00105983671, 0.0327434875, -9.775822   , -0.001337415, -0.0003744243, 0.00167523546, 0.395173252 , 0.164082512 , 0.340366721 , -0.00341118663, -0.0008512825, -0.397273064, 4.52        , 3           , 50          , 0           , 0
-0.01659597 , -0.0008954024, -9.77474    , -0.00105777581, 0.000190615945, 0.00167742046, 0.395173252 , 0.164082512 , 0.340366721 , -0.00342177856, -0.00084931904, -0.397256374, 4.53        , 3           , 11          , 0.006011415 , 0.006011447
-0.00411979575, 0.00809144  , -9.806698   , -0.0009115575, -0.000934692, 0.000687461754, 0.395173252 , 0.163610622 , 0.3407712   , -0.0034308997, -0.000858642336, -0.39724946 , 4.54        , 3           , 12          , 0.06839736  , 0
0.0006088186, 0.03007213  , -9.784876   , -0.00161975261, -0.000657905359, -0.000586815353, 0.394566536 , 0.1640151   , 0.340366721 , -0.00344709284, -0.0008652416, -0.397255182, 4.55        , 3           , 50          , 0           , 0
-0.00614344748, 0.0306302216, -9.79306    , -0.00177240733, 0.00173444464, 0.000122558413, 0.395173252 , 0.163947687 , 0.340501547 , -0.0034648173, -0.0008478929, -0.397254229, 4.56        , 3           , 11          , 0.006011415 , 0.006011447
-0.000611002557, 0.008403313 , -9.777742   , -0.00162734545, 0.00117227458, 0.00195884262, 0.395173252 , 0.163947687 , 0.340501547 , -0.0034811073, -0.000836102234, -0.397234678, 4.57        , 3           , 12          , 0.06839736  , 0
-0.0040320307, 0.0184286181, -9.794903   , -0.000492633029, 5.36512525E-05, 0.0009734936, 0.3954429   , 0.163543209 , 0.340973437 , -0.00348604168, -0.0008355318, -0.3972249  , 4.58        , 3           , 50          , 0           , 0
0.004986912 , 0.0165071171, -9.791678   , 0.00191303715, -0.000915590965, 0.00126570626, 0.394633949 , 0.164149925 , 0.340366721 , -0.00346692186, -0.0008446437, -0.397212267, 4.59        , 3           , 11          , 0.006011415 , 0.006011447
-0.00605443772, 0.0151542379, -9.753801   , 0.00165996433, -0.0007640142, 0.001829608 , 0.395038426 , 0.164486989 , 0.3402319   , -0.00335851568, -0.0008129843, -0.3971944  , 4.6         , 3           , 12          , 0.06949145  , 0
0.007823529 , 0.029962888 , -9.777589   , 0.00137680327, -0.0007659276, 0.0005568725, 0.395038426 , 0.164486989 , 0.3402319   , -0.00334475213, -0.0008206249, -0.3971889  , 4.61        , 3           , 50          , 0           , 0
0.0201901421, 0.04466351  , -9.764325   , -3.08595663E-05, -0.0017609573, -0.000157574555, 0.3954429   , 0.163745448 , 0.3407038   , -0.0033450597, -0.0008382396, -0.397190332, 4.62        , 3           , 11          , 0.005947953 , 0.00594797172
0.020648757 , 0.0424311645, -9.77292    , -0.00201108772, -0.00107041327, 0.000258097862, 0.394701362 , 0.164082512 , 0.340366721 , -0.00336517277, -0.0008489352, -0.3971877  , 4.63        , 3           , 12          , 0.06949145  , 0
-0.008281638, 0.041917447 , -9.787606   , -0.000322266074, 6.73061659E-05, -1.48022991E-05, 0.395240664 , 0.1640151   , 0.3402993   , -0.00336839561, -0.000848262571, -0.397187948, 4.64        , 3           , 50          , 0           , 0
-0.0331434868, 0.0502776131, -9.771942   , 0.00221732142, 0.0005068427, -0.000284836453, 0.395240664 , 0.1640151   , 0.3402993   , -0.00334622 , -0.000843203743, -0.3971908  , 4.65        , 3           , 11          , 0.005947953 , 0.00594797172
-0.04177842 , 0.04231836  , -9.790121   , 0.00137823471, -0.000906706729, 0.001828074 , 0.395510316 , 0.163745448 , 0.340636373 , -0.00333245331, -0.000852209865, -0.397172451, 4.66        , 3           , 12          , 0.06949145  , 0
-0.0009835539, 0.0512491241, -9.770336   , 0.00124583731, -0.00273783575, 0.0014007889, 0.394633949 , 0.164149925 , 0.340501547 , -0.003320007, -0.0008795414, -0.397158384, 4.67        , 3           , 50          , 0           , 0
0.0001237914, 0.0242487639, -9.795751   , 0.00109753513, -0.001471752, -1.06042762E-05, 0.3953755   , 0.164284751 , 0.340434134 , -0.00330903148, -0.0008942592, -0.397158384, 4.68        , 3           , 11          , 0.005947953 , 0.00594797172
-0.0129552949, 0.0262301937, -9.802622   , -0.00031242636, -0.00190364884, 0.000123428908, 0.3953755   , 0.164284751 , 0.340434134 , -0.00331215723, -0.000913291762, -0.3971572  , 4.69        , 3           , 12          , 0.06949145  , 0
0.008498614 , 0.04575996  , -9.781135   , 0.000243253642, -0.0010518597, -0.0001551452, 0.395240664 , 0.163745448 , 0.3407712   , -0.003324981, -0.0009134662, -0.397158623, 4.7         , 3           , 50          , 0           , 0
0.0121554676, 0.0470845029, -9.785169   , 0.000241162663, -0.0006295122, -0.0001544943, 0.394768775 , 0.164284751 , 0.340501547 , -0.003322568, -0.0009197664, -0.397160053, 4.71        , 3           , 11          , 0.00588607  , 0.005886105
-0.0126508288, 0.05236522  , -9.793019   , -0.0008793649, -0.00232653879, 0.00125032151, 0.395173252 , 0.164217338 , 0.3402993   , -0.00333137368, -0.000942990067, -0.397147417, 4.72        , 3           , 12          , 0.07058845  , 0
-0.0009314111, 0.0486132726, -9.79159    , -0.000670677633, -0.00183237088, 5.128436E-05, 0.395173252 , 0.164217338 , 0.3402993   , -0.0033380806, -0.000961312, -0.39714694 , 4.73        , 3           , 50          , 0           , 0
-0.0105094593, 0.0428659767, -9.793495   , -0.00110202574, -0.000286627939, -1.89387829E-05, 0.3953755   , 0.163610622 , 0.340906024 , -0.00334910071, -0.0009641789, -0.397147179, 4.74        , 3           , 11          , 0.00588607  , 0.005886105
-0.0174324717, 0.034358725 , -9.789063   , -0.00153003319, 0.0006255943, 0.000263033551, 0.394768775 , 0.1640151   , 0.340636373 , -0.0033644035, -0.000957914162, -0.397144556, 4.75        , 3           , 12          , 0.07058845  , 0
-0.0104570193, 0.04826468  , -9.788953   , 0.00115889823, -0.000271340949, 0.00260506826, 0.395240664 , 0.164149925 , 0.340164483 , -0.00335283973, -0.000960539968, -0.39711833 , 4.76        , 3           , 50          , 0           , 0
-0.0171656534, 0.06001689  , -9.77178    , 0.000810458034, -0.00125920749, 0.002107463 , 0.395240664 , 0.164149925 , 0.340164483 , -0.00334475515, -0.0009730615, -0.397097349, 4.77        , 3           , 11          , 0.00588607  , 0.005886105
0.0115402834, 0.03669217  , -9.778889   , 0.0018615725, 1.49895413E-05, -0.0008522893, 0.395577729 , 0.163947687 , 0.3407712   , -0.00332613173, -0.000972939946, -0.397105932, 4.78        , 3           , 12          , 0.07058845  , 0
0.0185827427, 0.0203747451, -9.781614   , 0.0008764785, -0.0005548226, 0.000201748961, 0.394633949 , 0.163947687 , 0.34056896  , -0.003317369, -0.0009784814, -0.3971038  , 4.79        , 3           , 50          , 0           , 0
-0.00704649976, 0.0315356   , -9.790804   , -0.000489094935, 0.000581982138, -1.45745735E-05, 0.395173252 , 0.164149925 , 0.340366721 , -0.00338153727, -0.000909268, -0.3971038  , 4.8         , 3           , 11          , 0.00582584972, 0.005825864
-0.0157224815, 0.0235430934, -9.79904    , -0.001198443, 0.00128112116, 0.000336389639, 0.395173252 , 0.164149925 , 0.340366721 , -0.00339352479, -0.0008964454, -0.397100449, 4.81        , 3           , 12          , 0.07168805  , 0
-0.0136952922, 0.03842645  , -9.803934   , -0.00174949749, -0.00160874333, -0.00051830447, 0.395712554 , 0.163678035 , 0.3408386   , -0.00341101526, -0.0009125505, -0.3971057  , 4.82        , 3           , 50          , 0           , 0
-0.0214090087, 0.0416280068, -9.78996849 , 0.000233144019, -0.00258084759, 0.0008314484, 0.394768775 , 0.1640151   , 0.3402319   , -0.00340869161, -0.0009383303, -0.3970971  , 4.83        , 3           , 11          , 0.00582584972, 0.005825864
-0.00486323051, 0.0283192154, -9.781309   , 0.00113635347, 0.000381792925, 0.0007696503, 0.3953755   , 0.164082512 , 0.3402319   , -0.00339733576, -0.0009344862, -0.397089481, 4.84        , 3           , 12          , 0.07168805  , 0
-0.0008181138, 0.025569    , -9.782645   , -0.0009122385, 0.0002975478, -0.00157094 , 0.3953755   , 0.164082512 , 0.3402319   , -0.0034064434, -0.0009315642, -0.397105217, 4.85        , 3           , 50          , 0           , 0
-0.0223830268, 0.0322098136, -9.803574   , -0.0016107643, -0.0011150497, -0.00058752083, 0.395510316 , 0.163678035 , 0.3408386   , -0.0034225462, -0.0009427347, -0.397111177, 4.86        , 3           , 11          , 0.00582584972, 0.005825864
-0.01942801 , 0.05201044  , -9.798045   , 0.00198412733, 0.000246739131, 0.000420212251, 0.3948362   , 0.164082512 , 0.340366721 , -0.0034027088, -0.000940252969, -0.3971069  , 4.87        , 3           , 12          , 0.07168805  , 0
-0.0184542183, 0.06366019  , -9.777199   , 0.004026735 , 0.00145724264, 0.0020561947, 0.395308077 , 0.164082512 , 0.3402319   , -0.00336246053, -0.0009256111, -0.397086382, 4.88        , 3           , 50          , 0           , 0
-0.009014077, 0.0567979179, -9.782126   , 0.0017662599, 0.00144195778, 0.000209165824, 0.395308077 , 0.164082512 , 0.3402319   , -0.00334479916, -0.0009111845, -0.397084475, 4.89        , 3           , 11          , 0.00582584972, 0.005825864
0.00237455964, 0.0643089041, -9.774323   , 0.00216901046, 0.000312093849, -0.000567471434, 0.395510316 , 0.163745448 , 0.3407038   , -0.00340902735, -0.000929426169, -0.397089481, 4.9         , 3           , 12          , 0.07278995  , 0
0.008397566 , 0.03764378  , -9.782524   , 0.000480373885, -0.0008960175, -0.0005772172, 0.394768775 , 0.1640151   , 0.340636373 , -0.0034042187, -0.0009384059, -0.3970952  , 4.91        , 3           , 50          , 0           , 0
0.0133629786, 0.02953866  , -9.804667   , -0.00255130627, -0.00183163688, -0.0008046876, 0.395173252 , 0.163947687 , 0.3402319   , -0.003429724, -0.0009567496, -0.397103071, 4.92        , 3           , 11          , 0.005767144 , 0.005767153
0.007065886 , 0.0358959362, -9.794745   , -0.00164133462, -0.000136036848, -2.08261336E-05, 0.395173252 , 0.163947687 , 0.3402319   , -0.0034461366, -0.0009581107, -0.3971033  , 4.93        , 3           , 12          , 0.07278995  , 0
0.009045674 , 0.0471700877, -9.799656   , -0.0002317401, 0.0002958585, -0.0007905685, 0.395577729 , 0.1634758   , 0.3407038   , -0.00344844675, -0.000955179334, -0.397111177, 4.94        , 3           , 50          , 0           , 0
0.0153836533, 0.0533437468, -9.77924252 , -0.00142484659, -0.0008385114, 0.00202747318, 0.394633949 , 0.164082512 , 0.340366721 , -0.00346271484, -0.0009634943, -0.3970909  , 4.95        , 3           , 11          , 0.005767144 , 0.005767153
-0.000772777, 0.0238203369, -9.799376   , -0.000225003445, -0.0007600033, 0.00182127557, 0.395105839 , 0.164217338 , 0.340164483 , -0.00346498215, -0.0009710311, -0.397072554, 4.96        , 3           , 12          , 0.07278995  , 0
-0.02392584 , 0.0222565942, -9.79052    , -0.0005096622, -0.0004099592, 0.0009728888, 0.395105839 , 0.164217338 , 0.340164483 , -0.00347008859, -0.000975097, -0.397063017, 4.97        , 3           , 50          , 0           , 0
-0.00359807 , 0.04823937  , -9.805172   , -0.000384372484, 0.00261781574, -0.0006463783, 0.395645142 , 0.163610622 , 0.340973437 , -0.003473926, -0.0009489414, -0.397069454, 4.98        , 3           , 11          , 0.005767144 , 0.005767153
-0.007993741, 0.0230318122, -9.808022   , -0.000236945431, 0.00128133467, -0.00135412463, 0.3948362   , 0.163947687 , 0.3402319   , -0.00347628258, -0.000936175231, -0.397083044, 4.99        , 3           , 12          , 0.07278995  , 0
-0.0172467679, 0.0185147338, -9.774665   , -9.817322E-06, -0.00306787156, -0.000159039322, 0.3953755   , 0.164082512 , 0.3402319   , -0.00349996518, -0.0009209187, -0.397084475, 5           , 3           , 50          , 0           , 0
-0.028279582, 0.0385194458, -9.780994   , -0.000584373251, -0.0008895573, 0.00174881774, 0.3953755   , 0.164082512 , 0.3402319   , -0.003505825, -0.000929752947, -0.39706707 , 5.01        , 3           , 11          , 0.00571010355, 0.005710115
-0.0226765238, 0.05109092  , -9.781803   , -0.00018256258, 0.00340717239, 0.0007685294, 0.395712554 , 0.163880274 , 0.340973437 , -0.003507658, -0.00089565455, -0.397059441, 5.02        , 3           , 12          , 0.0738939345, 0
