Acc X       , Acc Y       , Acc Z       , Gyro X      , Gyro Y      , Gyro Z      , Magn X      , Magn Y      , Magn Z      , Euler X     , Euler Y     , Euler Z     , Time        , Status      , LowRate X   , LowRate Y   , LowRate Z    
-0.105879351, 0.0918088853, -9.792213   , -0.00451769726, -0.00154120044, 0.00121196324, -0.18032898 , -0.164352164, 0.449710131 , -0.009170746, -0.0123549933, 2.43015218  , 0           , 3           , 11          , 0.0346410163, 0.0346410163
-0.0937851444, 0.0808467939, -9.794879   , -0.00184648414, 0.00058867567, -0.00117384014, -0.180261567, -0.164149925, 0.4495079   , -0.009189066, -0.0123492144, 2.43014073  , 0.01        , 3           , 12          , 0.0346410163, 0
-0.123596109, 0.08393477  , -9.804132   , -1.28008651E-05, 0.00102343806, -0.00116462912, -0.179991916, -0.163947687, 0.449777544 , -0.009189049, -0.0123390872, 2.43012881  , 0.02        , 3           , 50          , 0           , 0
-0.120076016, 0.08693388  , -9.769291   , -0.00155868917, -0.000394889881, -0.0003264295, -0.180261567, -0.164082512, 0.4495753   , -0.009204596, -0.0123430667, 2.43012547  , 0.03        , 3           , 11          , 0.0346410163, 0.0346410163
-0.0941506  , 0.08806449  , -9.793043   , -0.0015533577, -0.0015211514, -0.000751971442, -0.180126742, -0.1640151  , 0.449373066 , -0.00922003947, -0.012358347, 2.43011785  , 0.04        , 3           , 12          , 0.0346410163, 0
-0.103432596, 0.099518396 , -9.81205    , -0.0008497524, -0.0009532448, -0.000182736359, -0.180126742, -0.1640151  , 0.449373066 , -0.009228515, -0.0123678958, 2.43011642  , 0.05        , 3           , 50          , 0           , 0
-0.118086547, 0.09107429  , -9.799541   , -0.000714567257, 0.000314754347, 0.000243681061, -0.18032898 , -0.164082512, 0.449373066 , -0.00923569 , -0.0123647256, 2.4301188   , 0.06        , 3           , 11          , 0.0346410163, 0.0346410163
-0.127339482, 0.1065689   , -9.812656   , 0.000132920788, 0.000179699331, -0.000600197469, -0.180194154, -0.164217338, 0.449642718 , -0.009234288, -0.0123629849, 2.430113    , 0.07        , 3           , 12          , 0.0346410163, 0
-0.123762816, 0.1002405   , -9.821694   , 0.00168430328, 0.000471766543, -0.00158140156, -0.18032898 , -0.164217338, 0.4495753   , -0.009217248, -0.0123584121, 2.43009686  , 0.08        , 3           , 50          , 0           , 0
-0.124385178, 0.09787666  , -9.78781    , 0.0015434979, 0.0004708136, -0.000875716563, -0.18032898 , -0.164217338, 0.4495753   , -0.009201704, -0.0123537844, 2.43008828  , 0.09        , 3           , 11          , 0.0346410163, 0.0346410163
-0.126009643, 0.08339379  , -9.769351   , -0.000282110763, -0.00151255494, -0.000180969742, -0.180261567, -0.1640151  , 0.4495079   , -0.009204506, -0.0123689258, 2.43008637  , 0.1         , 3           , 12          , 0.0346410163, 0
-0.1303848  , 0.0831243   , -9.807804   , -0.000567570271, -0.0009513358, -0.0006052249, -0.180059329, -0.164217338, 0.449710131 , -0.009210107, -0.0123784933, 2.43008065  , 0.11        , 3           , 50          , 0           , 0
-0.124543346, 0.07543098  , -9.821351   , 0.00253248075, 0.0004775008, -2.34941363E-05, -0.1804638  , -0.1640151  , 0.4495753   , -0.009184779, -0.0123737222, 2.43008065  , 0.12        , 3           , 11          , 0.0346410163, 0.0346410163
-0.119554408, 0.08162816  , -9.803207   , 0.0009790515, 0.0004669956, -0.00017200601, -0.1804638  , -0.1640151  , 0.4495753   , -0.009174966, -0.0123690665, 2.43007874  , 0.13        , 3           , 12          , 0.0346410163, 0
-0.111637175, 0.09912362  , -9.800364   , -0.00114250847, 0.00101579807, -0.00116989634, -0.18032898 , -0.163880274, 0.449305654 , -0.009186246, -0.0123590156, 2.43006682  , 0.14        , 3           , 50          , 0           , 0
-0.124911353, 0.089341864 , -9.79734    , -1.48920208E-05, 0.00144578575, -0.00116397766, -0.1803964  , -0.163880274, 0.4495753   , -0.009186249, -0.0123446658, 2.430055    , 0.15        , 3           , 11          , 0.0346410163, 0.0346410163
-0.120305166, 0.09694014  , -9.791851   , -0.00114095118, 0.000734234 , -0.000887792732, -0.180126742, -0.1640151  , 0.449440479 , -0.009197548, -0.0123374062, 2.43004632  , 0.16        , 3           , 12          , 0.0346410163, 0
-0.123430438, 0.09879859  , -9.79684    , -0.0007116977, -0.000248375436, 0.000384082436, -0.180126742, -0.1640151  , 0.449440479 , -0.009204712, -0.0123398546, 2.43005013  , 0.17        , 3           , 50          , 0           , 0
-0.114388674, 0.100020006 , -9.789081   , 0.000140254211, -0.00108733855, 0.001234344 , -0.18032898 , -0.164149925, 0.449305654 , -0.009203462, -0.0123506123, 2.43006253  , 0.18        , 3           , 11          , 0.0346410163, 0.0346410163
-0.107179128, 0.103031039 , -9.770481   , -0.000709317566, -0.0008115076, -0.000323129032, -0.18032898 , -0.163880274, 0.4495079   , -0.009210516, -0.0123587567, 2.43005919  , 0.19        , 3           , 12          , 0.0346410163, 0
-0.126423448, 0.0856624246, -9.771605   , 0.000482934236, 0.0009563963, 0.000815333449, -0.180126742, -0.1640151  , 0.449373066 , -0.009205857, -0.012349071, 2.4300673   , 0.2         , 3           , 50          , 0           , 0
-0.111207135, 0.06346599  , -9.798699   , 0.000143062149, -0.00172085967, 0.0006682962, -0.180126742, -0.1640151  , 0.449373066 , -0.009204512, -0.0123662148, 2.430074    , 0.21        , 3           , 11          , 0.03466991  , 0.0346699134
-0.15158093 , 0.0972797   , -9.783953   , -0.0007851985, 0.000384671235, 0.000808539335, -0.180126742, -0.164082512, 0.449238241 , -0.009212464, -0.0123622939, 2.43008256  , 0.22        , 3           , 12          , 0.0346688069, 0
-0.143981889, 0.08773632  , -9.790262   , -0.00036055356, 0.000176362257, 0.000739554933, -0.1803964  , -0.163812861, 0.4495753   , -0.00921616051, -0.0123604629, 2.43008971  , 0.23        , 3           , 50          , 0           , 0
-0.1320131  , 0.06596021  , -9.79704    , 0.00048269314, 0.000815609237, -0.000809474, -0.180261567, -0.164149925, 0.449238241 , -0.009211233, -0.0123523809, 2.43008161  , 0.24        , 3           , 11          , 0.03466991  , 0.0346699134
-0.116921   , 0.08242145  , -9.780134   , -0.00248426036, 0.000936333439, -0.00216513779, -0.180261567, -0.164149925, 0.449238241 , -0.009235808, -0.0123432186, 2.43005967  , 0.25        , 3           , 12          , 0.0346688069, 0
-0.113962665, 0.0991003   , -9.785465   , -0.00120018574, -0.00144836854, 9.73997E-05 , -0.180059329, -0.164082512, 0.449238241 , -0.009247823, -0.0123576913, 2.43006063  , 0.26        , 3           , 50          , 0           , 0
-0.140554532, 0.1062084   , -9.793776   , 0.000429014763, -0.00242286222, 0.0007391627, -0.180194154, -0.164149925, 0.449440479 , -0.009243625, -0.0123818517, 2.43006825  , 0.27        , 3           , 11          , 0.03466991  , 0.0346699134
-0.120154992, 0.113576792 , -9.775057   , -0.0009948016, -0.000179893977, -0.00018219724, -0.179991916, -0.164149925, 0.4495753   , -0.00925355 , -0.0123836678, 2.43006635  , 0.28        , 3           , 12          , 0.0346688069, 0
-0.11770574 , 0.0869934857, -9.795036   , -0.004311964, -0.0004839014, -0.000268739474, -0.18032898 , -0.164284751, 0.449170828 , -0.009296638, -0.0123885311, 2.430064    , 0.29        , 3           , 50          , 0           , 0
-0.108977318, 0.100384705 , -9.782259   , -0.00183920446, -0.00230844 , -0.0006132186, -0.18032898 , -0.164284751, 0.449170828 , -0.00946600549, -0.0126398085, 2.43006015  , 0.3         , 3           , 11          , 0.03475345  , 0.0347534455
-0.121878035, 0.08160636  , -9.788763   , -0.000503127, -0.00131389266, -0.00159432564, -0.180261567, -0.164217338, 0.449305654 , -0.009470837, -0.0126530994, 2.43004441  , 0.31        , 3           , 12          , 0.0347538739, 0
-0.107223965, 0.0851407051, -9.817111   , -0.001919154, -0.0006195316, -0.00230616913, -0.18032898 , -0.163947687, 0.449440479 , -0.00948973652, -0.0126595115, 2.43002152  , 0.32        , 3           , 50          , 0           , 0
-0.0938929543, 0.101217419 , -9.813778   , 0.00117916986, 0.00137244014, 0.000112923139, -0.180059329, -0.164149925, 0.449440479 , -0.009477959, -0.0126457764, 2.43002248  , 0.33        , 3           , 11          , 0.03475345  , 0.0347534455
-0.103061721, 0.104802921 , -9.774962   , 0.00238680257, -9.76590454E-05, 0.000116242045, -0.180059329, -0.164149925, 0.449440479 , -0.009454106, -0.0126467422, 2.43002343  , 0.34        , 3           , 12          , 0.0347538739, 0
-0.1095395  , 0.0936061144, -9.777319   , -0.000368030538, 0.000235677828, 0.00109282555, -0.180126742, -0.163880274, 0.449373066 , -0.009457924, -0.0126442816, 2.4300344   , 0.35        , 3           , 50          , 0           , 0
-0.128297627, 0.106090575 , -9.801366   , -0.00149056048, -0.0013205721, 0.000237558765, -0.1804638  , -0.164352164, 0.449642718 , -0.009472862, -0.0126574645, 2.43003678  , 0.36        , 3           , 11          , 0.03475345  , 0.0347534455
-0.131169036, 0.09349932  , -9.804152   , 0.000757909846, 0.000806443335, -0.0005962636, -0.180059329, -0.164082512, 0.449373066 , -0.00946520548, -0.0126494579, 2.430031    , 0.37        , 3           , 12          , 0.0347538739, 0
-0.116019256, 0.07972962  , -9.787821   , -0.00163232617, -0.001251137, -0.000116163232, -0.180059329, -0.164082512, 0.449373066 , -0.009481516, -0.0126619795, 2.43003     , 0.38        , 3           , 50          , 0           , 0
-0.09442377 , 0.101605855 , -9.793442   , -0.0007882861, -0.0005414932, 0.0003126786, -0.1804638  , -0.163745448, 0.449440479 , -0.009489439, -0.0126673654, 2.430033    , 0.39        , 3           , 11          , 0.03475345  , 0.0347534455
-0.119151272, 0.11007487  , -9.810318   , 0.0002578089, 0.000500014168, 0.000178439921, -0.180261567, -0.164149925, 0.449373066 , -0.009561036, -0.0122120157, 2.43003583  , 0.4         , 3           , 12          , 0.03489535  , 0
-0.1212826  , 0.0955534652, -9.778756   , -0.00192325027, -0.00106339541, 0.0003071158, -0.180126742, -0.164082512, 0.449373066 , -0.009580307, -0.0122226188, 2.43003869  , 0.41        , 3           , 50          , 0           , 0
-0.116630934, 0.07157188  , -9.775205   , 0.00258936523, 0.00030460002, 0.00103659171, -0.180126742, -0.164082512, 0.449373066 , -0.00955454 , -0.0122194728, 2.43004918  , 0.42        , 3           , 11          , 0.0177334081, 0.0177334212
-0.13260074 , 0.0600537024, -9.783058   , 0.00180949923, 0.0007216898, -0.0008735068, -0.180126742, -0.164082512, 0.449170828 , -0.009536338, -0.01221234 , 2.4300406   , 0.43        , 3           , 12          , 0.03489535  , 0
-0.1160533  , 0.08416554  , -9.765204   , 0.00414228626, 0.00024470975, -0.000298326719, -0.18032898 , -0.164082512, 0.4495079   , -0.009494879, -0.0122099221, 2.43003774  , 0.44        , 3           , 50          , 0           , 0
-0.118634529, 0.115923934 , -9.807126   , 0.00328838429, 0.0015764141, -0.0003002162, -0.180261567, -0.163947687, 0.4495079   , -0.009461957, -0.0121941864, 2.4300344   , 0.45        , 3           , 11          , 0.0177334081, 0.0177334212
-0.122401386, 0.09933433  , -9.825303   , 0.000113421869, 0.0009917945, -0.00109287759, -0.180261567, -0.163947687, 0.4495079   , -0.009460689, -0.0121843722, 2.43002343  , 0.46        , 3           , 12          , 0.03489535  , 0
-0.121259227, 0.08932352  , -9.804545   , 0.001382515 , 0.00149313116, -2.66765946E-05, -0.180126742, -0.164082512, 0.449373066 , -0.0094468575, -0.012169444, 2.430023    , 0.47        , 3           , 50          , 0           , 0
-0.120873906, 0.08122923  , -9.814067   , -0.000459880946, 0.002818151 , -3.31753727E-05, -0.180261567, -0.164284751, 0.449440479 , -0.009451452, -0.0121412668, 2.43002248  , 0.48        , 3           , 11          , 0.0177334081, 0.0177334212
-0.122043014, 0.102823332 , -9.79093552 , 0.0006044692, 0.00169905112, -0.000595047546, -0.18032898 , -0.164149925, 0.449642718 , -0.009445332, -0.0121243345, 2.43001628  , 0.49        , 3           , 12          , 0.03489535  , 0
-0.126030192, 0.108298607 , -9.79501152 , -2.42397855E-05, 0.000350034767, -0.00095331145, -0.18032898 , -0.164149925, 0.449642718 , -0.00944385 , -0.0121560171, 2.43000674  , 0.5         , 3           , 50          , 0           , 0
-0.11603111 , 0.1216028   , -9.760982   , -0.000444068719, -0.00035674125, -0.000391296722, -0.180194154, -0.1640151  , 0.449373066 , -0.009448242, -0.0121596213, 2.430003    , 0.51        , 3           , 11          , 0.0134508386, 0.0134508526
-0.131015241, 0.115048751 , -9.772423   , 0.00019362352, -0.0007043979, 0.000458736264, -0.1804638  , -0.164149925, 0.449440479 , -0.009446363, -0.0121666212, 2.43000722  , 0.52        , 3           , 12          , 0.0350921266, 0
-0.131285012, 0.08537103  , -9.801926   , 0.00103836064, -0.000135536626, 0.000887361064, -0.180126742, -0.164419577, 0.449642718 , -0.009436087, -0.0121678915, 2.43001676  , 0.53        , 3           , 50          , 0           , 0
-0.110223062, 0.101384595 , -9.80667    , 0.000817728 , 0.00155241927, 0.00011199907, -0.180126742, -0.164419577, 0.449642718 , -0.009427923, -0.0121523617, 2.43001771  , 0.54        , 3           , 11          , 0.0134508386, 0.0134508526
-0.141582668, 0.09674637  , -9.794274   , 0.000255065534, 0.00119664508, 0.00088580075, -0.179991916, -0.164149925, 0.4495079   , -0.009425478, -0.0121403094, 2.43002629  , 0.55        , 3           , 12          , 0.0350921266, 0
-0.131745636, 0.100099556 , -9.752603   , -0.0005210558, 0.00112100225, 0.00123524258, -0.180666044, -0.164217338, 0.4495753   , -0.009430839, -0.0121289855, 2.43003869  , 0.56        , 3           , 50          , 0           , 0
-0.121213682, 0.09293122  , -9.804078   , -0.0011575321, 0.0009759142, -0.00173458119, -0.180261567, -0.164217338, 0.449642718 , -0.009442204, -0.012119391, 2.430021    , 0.57        , 3           , 11          , 0.0134508386, 0.0134508526
-0.107215419, 0.08916479  , -9.806246   , -0.00150606106, 0.000269618875, 2.85470833E-05, -0.180194154, -0.164149925, 0.449373066 , -0.009457266, -0.0121166911, 2.43002152  , 0.58        , 3           , 12          , 0.0350921266, 0
-0.09903932 , 0.101587944 , -9.772233   , -8.281939E-05, -0.00183256622, 0.00116202736, -0.180194154, -0.164149925, 0.449373066 , -0.00945824 , -0.0121349059, 2.430033    , 0.59        , 3           , 50          , 0           , 0
-0.145527527, 0.111629277 , -9.778423   , 0.00183392537, 0.00177346962, -0.000235369327, -0.18032898 , -0.164149925, 0.449440479 , -0.009564515, -0.0121090552, 2.430032    , 0.6         , 3           , 11          , 0.0113593144, 0.0113593219
-0.0980070457, 0.07140232  , -9.789526   , 0.00148421363, 0.00106716843, -0.0005206378, -0.180261567, -0.164082512, 0.449777544 , -0.00954960752, -0.0120984325, 2.43002677  , 0.61        , 3           , 12          , 0.0353428572, 0
-0.112503782, 0.101397559 , -9.80262    , -0.001967073, -0.000504833064, 0.0008028961, -0.180194154, -0.164419577, 0.4495079   , -0.009569378, -0.0121034039, 2.43003488  , 0.62        , 3           , 50          , 0           , 0
-0.116564043, 0.106367253 , -9.790427   , -0.00450868858, -0.000592414639, 0.0005790319, -0.180194154, -0.164419577, 0.4495079   , -0.009614535, -0.0121092722, 2.4300406   , 0.63        , 3           , 11          , 0.0113593144, 0.0113593219
-0.112417273, 0.0774389   , -9.790063   , -0.0031064346, 0.00138809008, 0.000376751035, -0.180531219, -0.164149925, 0.449440479 , -0.009645645, -0.0120953554, 2.43004441  , 0.64        , 3           , 12          , 0.0353428572, 0
-0.119118713, 0.116350166 , -9.798088   , -0.00141396467, 0.00182189746, 0.000385303516, -0.18032898 , -0.164149925, 0.449710131 , -0.009659828, -0.0120770987, 2.43004823  , 0.65        , 3           , 50          , 0           , 0
-0.111468256, 0.08326602  , -9.781897   , -0.003176626, 0.00110604288, -0.001319237, -0.1803964  , -0.164352164, 0.449440479 , -0.009691434, -0.0120661659, 2.43003488  , 0.66        , 3           , 11          , 0.0113593144, 0.0113593219
-0.133268759, 0.07632543  , -9.788871   , -0.003447144, -0.0012187768, -0.000617790036, -0.1803964  , -0.164352164, 0.449440479 , -0.009725833, -0.0120784128, 2.43002868  , 0.67        , 3           , 12          , 0.0353428572, 0
-0.107180752, 0.09321003  , -9.801709   , -0.000974827, -0.00127245253, 0.0006650433, -0.180261567, -0.164082512, 0.449642718 , -0.009735663, -0.0120910723, 2.43003535  , 0.68        , 3           , 50          , 0           , 0
-0.126698017, 0.0871512145, -9.81047249 , -0.00295134052, -0.00149699871, -0.0003333818, -0.180261567, -0.164149925, 0.449777544 , -0.009765137, -0.012106074, 2.430032    , 0.69        , 3           , 11          , 0.0113593144, 0.0113593219
-0.119211979, 0.07349909  , -9.802336   , -0.00256192149, -0.00100217992, 0.000304269633, -0.179991916, -0.164082512, 0.4495079   , -0.009709319, -0.0121167311, 2.4300344   , 0.7         , 3           , 12          , 0.0356459729, 0
-0.115113221, 0.0752558559, -9.802297   , -0.000230773279, -0.00119759608, 0.000456077483, -0.179991916, -0.164082512, 0.4495079   , -0.009711686, -0.0121286623, 2.43003964  , 0.71        , 3           , 50          , 0           , 0
-0.117992207, 0.102755852 , -9.785028   , 0.00188500329, -0.000479353475, 0.002303533 , -0.180666044, -0.1645544  , 0.449710131 , -0.009693115, -0.0121332314, 2.43006253  , 0.72        , 3           , 11          , 0.0101375477, 0.0101375552
-0.123142138, 0.09062567  , -9.78286    , 0.00152363523, 0.0008556848, -0.0006626955, -0.18032898 , -0.164149925, 0.4495753   , -0.009677798, -0.0121247387, 2.43005586  , 0.73        , 3           , 12          , 0.0356459729, 0
-0.124417752, 0.09160137  , -9.800039   , 0.002516144 , 0.00015845969, 0.000259075721, -0.180261567, -0.164284751, 0.449710131 , -0.009652667, -0.0121231293, 2.43005824  , 0.74        , 3           , 50          , 0           , 0
-0.114855729, 0.100906461 , -9.782753   , 0.000835479063, -0.00252786488, 0.00137720164, -0.180261567, -0.164284751, 0.449710131 , -0.009644482, -0.0121482741, 2.430072    , 0.75        , 3           , 11          , 0.0101375477, 0.0101375552
-0.123860829, 0.09882205  , -9.802265   , 0.00204235548, -0.003927575, 0.0006742853, -0.180126742, -0.164284751, 0.4495079   , -0.009624144, -0.0121874828, 2.4300797   , 0.76        , 3           , 12          , 0.0356459729, 0
-0.12640509 , 0.07764299  , -9.801921   , 0.0005419226, -0.000347647379, 0.0008141728, -0.1803964  , -0.1640151  , 0.449912369 , -0.009618824, -0.01219088 , 2.43008733  , 0.77        , 3           , 50          , 0           , 0
-0.123150721, 0.0941895247, -9.769285   , -0.0010156479, 0.000486542849, 0.0007375971, -0.18032898 , -0.164217338, 0.449844956 , -0.00962907 , -0.0121859442, 2.430095    , 0.78        , 3           , 11          , 0.0101375477, 0.0101375552
-0.118829988, 0.06852657  , -9.800996   , 0.00166849676, 0.000152728055, -0.000380584243, -0.18032898 , -0.164217338, 0.449844956 , -0.009612338, -0.0121844532, 2.43009114  , 0.79        , 3           , 12          , 0.0356459729, 0
-0.120332725, 0.100042239 , -9.775114   , 0.00209476752, 0.00112316571, -0.00157932309, -0.180059329, -0.164486989, 0.449710131 , -0.009460561, -0.0122022713, 2.4300735   , 0.8         , 3           , 50          , 0           , 0
-0.119366333, 0.0965101   , -9.801336   , 0.00103585212, 0.00104561122, -0.00186690746, -0.180261567, -0.164217338, 0.449844956 , -0.009449974, -0.0121919941, 2.430055    , 0.81        , 3           , 11          , 0.009383048 , 0.009383053
-0.1294283  , 0.0813695341, -9.825883   , -0.002202506, -0.000806524, -0.0010372604, -0.1804638  , -0.164217338, 0.449912369 , -0.009471875, -0.0122001553, 2.43004441  , 0.82        , 3           , 12          , 0.03599974  , 0
-0.139864236, 0.08727663  , -9.801984   , -0.0014905401, -0.00178722187, 0.0007303723, -0.180261567, -0.164352164, 0.4495753   , -0.00948687 , -0.0122179575, 2.430052    , 0.83        , 3           , 50          , 0           , 0
-0.135641754, 0.07001472  , -9.782588   , -0.0009289417, -0.001290667, -0.000678921642, -0.180261567, -0.164352164, 0.4495753   , -0.009496079, -0.0122309281, 2.43004537  , 0.84        , 3           , 11          , 0.009383048 , 0.009383053
-0.125045091, 0.07986013  , -9.795121   , -0.000292992, -0.00128636719, 0.0001716538, -0.180194154, -0.164284751, 0.449844956 , -0.009499031, -0.0122437757, 2.43004727  , 0.85        , 3           , 12          , 0.03599974  , 0
-0.127772033, 0.08122279  , -9.788357   , -0.00157004071, -9.831154E-05, -0.000185599958, -0.180194154, -0.164352164, 0.449777544 , -0.00951471 , -0.0122447768, 2.43004537  , 0.86        , 3           , 50          , 0           , 0
-0.117684335, 0.08567178  , -9.804533   , -0.00291160913, -0.000107384054, -0.000262489717, -0.180126742, -0.164217338, 0.4495753   , -0.009543793, -0.0122458758, 2.43004251  , 0.87        , 3           , 11          , 0.009383048 , 0.009383053
-0.125836   , 0.0862125754, -9.802785   , -0.00318899378, -0.00109477108, 1.72118471E-05, -0.180126742, -0.164217338, 0.4495753   , -0.00957568549, -0.0122568216, 2.430043    , 0.88        , 3           , 12          , 0.03599974  , 0
-0.0954687  , 0.0921302   , -9.789872   , -0.00151304086, 0.00243624672, -0.00201785914, -0.18032898 , -0.163947687, 0.449642718 , -0.009590565, -0.0122326529, 2.43002248  , 0.89        , 3           , 50          , 0           , 0
-0.108020589, 0.09639836  , -9.807578   , -0.0010370831, -0.001160126, -0.0001865888, -0.180261567, -0.164082512, 0.449912369 , -0.00945512 , -0.0122566242, 2.43001914  , 0.9         , 3           , 11          , 0.008915808 , 0.008915805
-0.129897267, 0.08984241  , -9.794665   , 0.0005935298, -0.00234579132, 0.001090558 , -0.18032898 , -0.164217338, 0.449912369 , -0.009449323, -0.0122799762, 2.43003     , 0.91        , 3           , 12          , 0.0364022739, 0
-0.115780711, 0.09733057  , -9.789554   , -0.00244876859, -0.00116967375, 0.0005838045, -0.18032898 , -0.164217338, 0.449912369 , -0.009473884, -0.0122916177, 2.43003631  , 0.92        , 3           , 50          , 0           , 0
-0.139935553, 0.08409439  , -9.794766   , -0.00111377763, 3.60472332E-05, -0.000467611244, -0.18032898 , -0.164284751, 0.449777544 , -0.00948496349, -0.012291301, 2.43003154  , 0.93        , 3           , 11          , 0.008915808 , 0.008915805
-0.135195389, 0.09894283  , -9.798737   , -0.0002636275, -0.000521352631, -0.000323259446, -0.18032898 , -0.164217338, 0.4500472   , -0.00948756 , -0.0122965453, 2.4300282   , 0.94        , 3           , 12          , 0.0364022739, 0
-0.103342317, 0.110750325 , -9.797992   , 0.00016345692, -0.00122240058, -0.0003930033, -0.180126742, -0.164284751, 0.449912369 , -0.00948588 , -0.0123088062, 2.43002439  , 0.95        , 3           , 50          , 0           , 0
-0.109166004, 0.0770216   , -9.811283   , -0.0007558649, -0.0009470431, -0.00046748374, -0.180126742, -0.164284751, 0.449912369 , -0.009493381, -0.0123183224, 2.43001962  , 0.96        , 3           , 11          , 0.008915808 , 0.008915805
-0.120397218, 0.08838488  , -9.796859   , 0.000152961147, 0.0008893372, -0.000460383133, -0.18032898 , -0.1645544  , 0.449912369 , -0.009491795, -0.012309473, 2.43001485  , 0.97        , 3           , 12          , 0.0364022739, 0
-0.115299717, 0.09511636  , -9.803572   , -0.000263078662, -0.000450957043, 0.001230805 , -0.18032898 , -0.163947687, 0.449844956 , -0.00949457847, -0.0123138633, 2.43002772  , 0.98        , 3           , 50          , 0           , 0
-0.13775982 , 0.113381319 , -9.789656   , 0.000737798051, -0.00297835818, 0.0009489713, -0.180126742, -0.164486989, 0.449912369 , -0.009487319, -0.0123435566, 2.43003774  , 0.99        , 3           , 11          , 0.008915808 , 0.008915805
-0.09665404 , 0.111925758 , -9.768557   , 0.000492853753, -0.00130374264, 0.0006682199, -0.180126742, -0.164486989, 0.449912369 , -0.009513353, -0.0123732742, 2.43004441  , 1           , 3           , 12          , 0.03685156  , 0
-0.09134512 , 0.0921216756, -9.801592   , -0.00183891016, -0.0009675436, 0.0006578977, -0.180194154, -0.164217338, 0.449710131 , -0.009531825, -0.0123828892, 2.430051    , 1.01        , 3           , 50          , 0           , 0
-0.123307876, 0.108271249 , -9.796347   , -0.000219542242, -0.0002526538, -0.00124057312, -0.18032898 , -0.164149925, 0.449777544 , -0.009533868, -0.0123855323, 2.43003869  , 1.02        , 3           , 11          , 0.008638794 , 0.008638789
-0.116066173, 0.106844835 , -9.799912   , 0.00351543585, 0.00132126338, -0.0003731247, -0.1803964  , -0.164352164, 0.449912369 , -0.009498664, -0.0123723568, 2.43003488  , 1.03        , 3           , 12          , 0.03685156  , 0
-0.122446857, 0.105992757 , -9.792734   , 0.00217837584, 0.000467497332, 0.000113758586, -0.1803964  , -0.164352164, 0.449912369 , -0.009476895, -0.0123676723, 2.43003583  , 1.04        , 3           , 50          , 0           , 0
-0.118848741, 0.10860876  , -9.778232   , 0.000766364 , 0.000457948132, 0.000319077022, -0.1803964  , -0.164149925, 0.449777544 , -0.009469272, -0.0123630594, 2.43003917  , 1.05        , 3           , 11          , 0.008638794 , 0.008638789
-0.0977216437, 0.09439742  , -9.78536    , -0.000717032934, 0.000588703551, 0.0003830144, -0.1803964  , -0.164284751, 0.4500472   , -0.00947648752, -0.0123571372, 2.430043    , 1.06        , 3           , 12          , 0.03685156  , 0
-0.119332552, 0.101893678 , -9.792274   , -0.0015667713, 0.00100531941, -0.000255994557, -0.180194154, -0.164217338, 0.449912369 , -0.009492124, -0.0123471087, 2.4300406   , 1.07        , 3           , 50          , 0           , 0
-0.120106131, 0.114062712 , -9.78545    , -0.000219178546, -0.000111866168, 0.0005961374, -0.1803964  , -0.164149925, 0.449844956 , -0.00949439 , -0.01234817 , 2.43004632  , 1.08        , 3           , 11          , 0.008638794 , 0.008638789
-0.10737548 , 0.117081    , -9.788053   , -0.00141756469, -0.0005423319, 0.00030735202, -0.1803964  , -0.164149925, 0.449844956 , -0.009508604, -0.0123535627, 2.43004918  , 1.09        , 3           , 12          , 0.03685156  , 0
-0.101667538, 0.09767439  , -9.806621   , 0.00165474648, -0.00105561479, 0.000112763541, -0.180733457, -0.164217338, 0.449979782 , -0.0097021265, -0.0122485207, 2.43005347  , 1.1         , 3           , 50          , 0           , 0
-0.125054359, 0.107452191 , -9.814895   , -0.000473909546, 0.00104179839, 0.000106141044, -0.180194154, -0.164149925, 0.4500472   , -0.009706877, -0.0122380937, 2.43005443  , 1.11        , 3           , 11          , 0.008483986 , 0.00848398
-0.124374524, 0.09967069  , -9.784638   , 0.000297206949, 0.002243704 , 0.000747316168, -0.180194154, -0.164419577, 0.449777544 , -0.009703995, -0.0122155854, 2.43006158  , 1.12        , 3           , 12          , 0.0373455323, 0
-0.114455819, 0.09237766  , -9.797249   , 0.00198221765, 0.00408533448, -8.957392E-05, -0.180194154, -0.164419577, 0.449777544 , -0.009684157, -0.0121747432, 2.43006063  , 1.13        , 3           , 50          , 0           , 0
-0.107197858, 0.0927498043, -9.799      , 0.002981122 , 0.00212106714, 0.00104214775, -0.180531219, -0.164082512, 0.449844956 , -0.009654469, -0.0121534318, 2.43007064  , 1.14        , 3           , 11          , 0.008483986 , 0.00848398
-0.140066668, 0.0705976561, -9.806123   , -0.000400763151, 0.0006199305, 0.0008827975, -0.18032898 , -0.164217338, 0.450316846 , -0.00965858251, -0.0121471481, 2.4300797   , 1.15        , 3           , 12          , 0.0373455323, 0
-0.138434738, 0.08508657  , -9.826389   , -0.00118038442, 0.00103702152, -0.0006034949, -0.18032898 , -0.164082512, 0.449912369 , -0.009670312, -0.0121368365, 2.430073    , 1.16        , 3           , 50          , 0           , 0
-0.108215585, 0.08731336  , -9.789086   , -0.00019361444, 0.00146605575, 3.747457E-05, -0.18032898 , -0.164082512, 0.449912369 , -0.00967225153, -0.0121221738, 2.4300735   , 1.17        , 3           , 11          , 0.008483986 , 0.00848398
-0.106952131, 0.07740082  , -9.797705   , 0.00115625514, -0.000143869474, 0.000606309855, -0.1804638  , -0.164352164, 0.4500472   , -0.009660763, -0.0121235531, 2.4300797   , 1.18        , 3           , 12          , 0.0373455323, 0
-0.126163185, 0.102388278 , -9.781477   , 0.00108743145, -0.0004963031, 0.000676072552, -0.1803964  , -0.164284751, 0.4501146   , -0.009649971, -0.0121284528, 2.43008637  , 1.19        , 3           , 50          , 0           , 0
-0.133782923, 0.09897072  , -9.811831   , 0.00118855666, -0.000425712235, -0.000595285848, -0.18032898 , -0.164217338, 0.449912369 , -0.00960205 , -0.0121330833, 2.43008018  , 1.2         , 3           , 11          , 0.008403873 , 0.00840387
-0.112228841, 0.08517952  , -9.811273   , 0.0006163843, 0.00104868447, -0.000595641439, -0.18032898 , -0.164217338, 0.449912369 , -0.009595813, -0.0121226525, 2.430074    , 1.21        , 3           , 12          , 0.03788204  , 0
-0.108474508, 0.107561506 , -9.771377   , -0.001285036, 5.031477E-05, -0.00046478078, -0.180194154, -0.164352164, 0.449912369 , -0.009608606, -0.0121221952, 2.43006921  , 1.22        , 3           , 50          , 0           , 0
-0.13898623 , 0.09036812  , -9.785242   , 0.00111932191, -0.000637362071, -3.08655945E-05, -0.180261567, -0.164217338, 0.4501146   , -0.00959741 , -0.0121285683, 2.43006921  , 1.23        , 3           , 11          , 0.008403873 , 0.00840387
-0.137422651, 0.09810642  , -9.810508   , 0.00104729878, -0.0002858816, 0.0005344225, -0.180261567, -0.164217338, 0.449844956 , -0.009587001, -0.0121313762, 2.43007445  , 1.24        , 3           , 12          , 0.03788204  , 0
-0.117885962, 0.107751779 , -9.79495049 , -0.00141944608, -0.00121768028, 0.000450854626, -0.180261567, -0.164217338, 0.449844956 , -0.009601252, -0.0121435085, 2.43007922  , 1.25        , 3           , 50          , 0           , 0
-0.119179673, 0.08959389  , -9.758426   , -0.0008568839, -0.000932299765, -0.00110003364, -0.180531219, -0.164217338, 0.449979782 , -0.009609687, -0.0121529363, 2.43006825  , 1.26        , 3           , 11          , 0.008403873 , 0.00840387
-0.0966912657, 0.0717982054, -9.777763   , -0.000218394372, -0.00135034532, 0.000526869146, -0.180194154, -0.164149925, 0.449979782 , -0.009611936, -0.0121663893, 2.4300735   , 1.27        , 3           , 12          , 0.03788204  , 0
-0.104742952, 0.07643716  , -9.787297   , -0.00163970818, 0.0003294913, -0.000889799267, -0.180194154, -0.164082512, 0.449979782 , -0.009628226, -0.012163179, 2.43006444  , 1.28        , 3           , 50          , 0           , 0
-0.101583846, 0.107561916 , -9.7952795  , 0.00083831494, -0.00113201572, -0.001798801, -0.180194154, -0.164082512, 0.449979782 , -0.009619625, -0.0121746724, 2.4300468   , 1.29        , 3           , 11          , 0.008403873 , 0.00840387
-0.100684881, 0.106206886 , -9.79799    , -0.000254560553, -0.002396179, 3.079747E-05, -0.1803964  , -0.164217338, 0.4500472   , -0.009589312, -0.012107431, 2.43004727  , 1.3         , 3           , 12          , 0.0384589359, 0
-0.110485211, 0.08465722  , -9.796347   , 0.0009299485, 0.0007795451, -0.000170626867, -0.180261567, -0.164149925, 0.449844956 , -0.009579991, -0.0120996516, 2.43004537  , 1.31        , 3           , 50          , 0           , 0
-0.135277912, 0.0957515   , -9.788806   , -0.000543649658, -0.00106065487, -3.9092738E-05, -0.1803964  , -0.164419577, 0.449979782 , -0.009585424, -0.0121102612, 2.43004537  , 1.32        , 3           , 11          , 0.008365551 , 0.008365547
-0.140429884, 0.113451019 , -9.800976   , -0.002733892, -0.0007938923, -0.000119499273, -0.1803964  , -0.164419577, 0.449979782 , -0.00961275 , -0.012118211, 2.430044    , 1.33        , 3           , 12          , 0.0384589359, 0
-0.1304884  , 0.0817013   , -9.78702    , -0.00280626374, -0.000372020615, 0.000445897254, -0.180126742, -0.164486989, 0.449777544 , -0.009640867, -0.0121218888, 2.43004823  , 1.34        , 3           , 50          , 0           , 0
-0.12518242 , 0.100653164 , -9.805431   , 0.000515755 , -0.0009830982, 0.00109610416, -0.180261567, -0.164149925, 0.450182021 , -0.009635844, -0.0121316137, 2.43005967  , 1.35        , 3           , 11          , 0.008365551 , 0.008365547
-0.121032067, 0.101559043 , -9.820765   , 0.000518417 , -0.00140544283, 0.00208433461, -0.1804638  , -0.164217338, 0.4500472   , -0.009630914, -0.0121454662, 2.43008065  , 1.36        , 3           , 12          , 0.0384589359, 0
-0.12562415 , 0.105577305 , -9.792308   , 0.0003798728, -0.00211031456, 0.000669903762, -0.180261567, -0.164419577, 0.449912369 , -0.0096272  , -0.012166502, 2.43008733  , 1.37        , 3           , 50          , 0           , 0
-0.126309872, 0.0879862159, -9.791934   , 0.00150218012, -0.0006244584, 0.000536180858, -0.180261567, -0.164419577, 0.449912369 , -0.009612244, -0.0121726962, 2.43009257  , 1.38        , 3           , 11          , 0.008365551 , 0.008365547
-0.104241975, 0.1112121   , -9.79799652 , 0.000373525458, -0.00112484384, -0.001871415, -0.18032898 , -0.164217338, 0.4500472   , -0.009608283, -0.0121841226, 2.430074    , 1.39        , 3           , 12          , 0.0384589359, 0
-0.134931117, 0.08851871  , -9.786121   , -0.00166143163, -0.00255434657, -0.000398743985, -0.1803964  , -0.164217338, 0.4501146   , -0.009699562, -0.012219131, 2.430071    , 1.4         , 3           , 50          , 0           , 0
-0.112775378, 0.089572385 , -9.774196   , -0.00215723552, -0.00227612467, -0.000683152, -0.18032898 , -0.164217338, 0.449844956 , -0.009721052, -0.0122419558, 2.43006444  , 1.41        , 3           , 11          , 0.00834643  , 0.008346425
-0.119060174, 0.0923688263, -9.778752   , -0.00216519181, -0.000586732465, 2.57952379E-05, -0.18032898 , -0.164217338, 0.449844956 , -0.009742713, -0.0122478241, 2.43006539  , 1.42        , 3           , 12          , 0.0390740447, 0
-0.113687269, 0.07841914  , -9.808599   , 0.00206448161, 0.0009905292, 0.00167252624, -0.1804638  , -0.164217338, 0.449844956 , -0.009722269, -0.0122377556, 2.43008161  , 1.43        , 3           , 50          , 0           , 0
-0.118248455, 0.07621351  , -9.80774    , 0.00496032834, 0.000517360633, -0.000857571664, -0.18032898 , -0.164217338, 0.4500472   , -0.009672562, -0.012232665, 2.430073    , 1.44        , 3           , 11          , 0.00834643  , 0.008346425
-0.122084811, 0.09921866  , -9.792307   , 0.0009345961, 0.000771709834, -0.000452097738, -0.180261567, -0.164217338, 0.449979782 , -0.00966316 , -0.0122249918, 2.43006825  , 1.45        , 3           , 12          , 0.0390740447, 0
-0.108174257, 0.102969095 , -9.748795   , -0.000193880362, 0.000482504081, -0.000740336836, -0.180261567, -0.164217338, 0.449979782 , -0.009665008, -0.0122202383, 2.430061    , 1.46        , 3           , 50          , 0           , 0
-0.105205946, 0.07777325  , -9.780515   , -0.00103976682, 0.0001952091, -0.0007447216, -0.1803964  , -0.164352164, 0.449912369 , -0.009675315, -0.012218358, 2.43005347  , 1.47        , 3           , 11          , 0.00834643  , 0.008346425
-0.08652994 , 0.08255576  , -9.791652   , -0.00104239176, 0.00075834  , -0.0004613163, -0.1804638  , -0.164149925, 0.4501146   , -0.00968568 , -0.01221082 , 2.43004918  , 1.48        , 3           , 12          , 0.0390740447, 0
-0.111460663, 0.0783623159, -9.799543   , -0.004146462, 0.000174199435, -0.0007592079, -0.1803964  , -0.164149925, 0.449912369 , -0.009727052, -0.0122091519, 2.43004155  , 1.49        , 3           , 50          , 0           , 0
-0.140476018, 0.0764407143, -9.797966   , -0.00205833232, -0.000255413062, -0.00131607638, -0.1803964  , -0.164149925, 0.449912369 , -0.009621749, -0.012072864, 2.43002677  , 1.5         , 3           , 11          , 0.008330408 , 0.008330402
-0.1316206  , 0.09261292  , -9.807323   , -0.00148643437, -0.00137784611, 0.00122765894, -0.1804638  , -0.164284751, 0.449912369 , -0.009636764, -0.01208652 , 2.43003917  , 1.51        , 3           , 12          , 0.03972522  , 0
-0.10798648 , 0.10222856  , -9.797159   , -0.00204931572, -0.00194480026, -0.000188530044, -0.180126742, -0.164149925, 0.449979782 , -0.009657238, -0.0121059865, 2.43003774  , 1.52        , 3           , 50          , 0           , 0
-0.137527764, 0.08954059  , -9.812352   , 0.0004813735, 0.000324909954, -0.000173206165, -0.180126742, -0.164486989, 0.449844956 , -0.009652401, -0.012102752, 2.43003583  , 1.53        , 3           , 11          , 0.008330408 , 0.008330402
-0.110957421, 0.0886639357, -9.778706   , -6.798282E-05, -0.002776125, 0.00010192395, -0.180126742, -0.164486989, 0.449844956 , -0.009653097, -0.0121305035, 2.43003678  , 1.54        , 3           , 12          , 0.03972522  , 0
-0.111904152, 0.0859631151, -9.777369   , 0.001062629 , -0.00305005256, -0.0007408545, -0.180194154, -0.164284751, 0.449979782 , -0.009642383, -0.0121610742, 2.43003     , 1.55        , 3           , 50          , 0           , 0
-0.109460868, 0.1266256   , -9.801136   , -0.0009269048, -0.0005293368, -0.0007461676, -0.1804638  , -0.163880274, 0.449912369 , -0.009651562, -0.0121664405, 2.43002248  , 1.56        , 3           , 11          , 0.008330408 , 0.008330402
-0.11155355 , 0.106332965 , -9.797621   , 0.00189220265, 0.000334453536, -0.00242692139, -0.180194154, -0.164149925, 0.449912369 , -0.009632345, -0.01216333 , 2.42999816  , 1.57        , 3           , 12          , 0.03972522  , 0
-0.13739951 , 0.10169597  , -9.804617   , 0.000479979557, 0.000606475049, -0.000172772227, -0.180194154, -0.164149925, 0.449912369 , -0.009627524, -0.0121572809, 2.42999625  , 1.58        , 3           , 50          , 0           , 0
-0.12828216 , 0.0691301748, -9.813271   , -7.815595E-05, -0.000523599738, 0.00180062035, -0.180126742, -0.164284751, 0.449777544 , -0.009628524, -0.0121623436, 2.43001437  , 1.59        , 3           , 11          , 0.008330408 , 0.008330402
-0.09319841 , 0.09567958  , -9.779898   , -6.266718E-05, 2.1718035E-05, -0.00102429593, -0.180733457, -0.164352164, 0.4500472   , -0.009605375, -0.0121833766, 2.430004    , 1.6         , 3           , 12          , 0.0404103659, 0
-0.106761314, 0.09094594  , -9.800812   , -0.0006175997, -0.00195305655, -0.0007474298, -0.180194154, -0.164217338, 0.449979782 , -0.009611463, -0.0122029809, 2.42999673  , 1.61        , 3           , 50          , 0           , 0
-0.12171109 , 0.0804025754, -9.833512   , -0.002871275, -0.00309459586, -0.0004771635, -0.180194154, -0.164352164, 0.4500472   , -0.00964012 , -0.0122339725, 2.429992    , 1.62        , 3           , 11          , 0.008310498 , 0.00831049
-0.123480037, 0.09474123  , -9.79776    , -0.0003259931, -0.00364053342, 0.0006639708, -0.180194154, -0.164352164, 0.4500472   , -0.009643466, -0.01227031 , 2.429999    , 1.63        , 3           , 12          , 0.0404103659, 0
-0.126683772, 0.093858    , -9.792364   , -0.0009083906, -0.000265576236, -0.0007461431, -0.180194154, -0.164284751, 0.449844956 , -0.009652458, -0.0122730378, 2.429992    , 1.64        , 3           , 50          , 0           , 0
-0.118943378, 0.08889266  , -9.818541   , -0.00147579471, 0.0005753069, 0.00207789941, -0.1803964  , -0.164082512, 0.449979782 , -0.009667473, -0.0122670839, 2.430012    , 1.65        , 3           , 11          , 0.008310498 , 0.00831049
-0.111145578, 0.106291369 , -9.78677    , 0.00161721243, 0.00313039683, 0.000118528726, -0.1803964  , -0.164149925, 0.449777544 , -0.00965131 , -0.0122357709, 2.430013    , 1.66        , 3           , 12          , 0.0404103659, 0
-0.1226233  , 0.09424469  , -9.78736    , 0.000493081 , 0.00199649669, 0.000111525231, -0.1803964  , -0.164149925, 0.449777544 , -0.009646391, -0.012215795, 2.430014    , 1.67        , 3           , 50          , 0           , 0
-0.120332919, 0.09468589  , -9.792312   , -0.002038839, 8.352159E-06, 0.0003791728, -0.180261567, -0.164149925, 0.449912369 , -0.009666825, -0.0122156739, 2.43001771  , 1.68        , 3           , 11          , 0.008310498 , 0.00831049
-0.114053734, 0.0918848962, -9.7864     , 0.001635661 , -0.0005299477, 0.0006779626, -0.180261567, -0.164217338, 0.449979782 , -0.009650552, -0.0122209089, 2.43002486  , 1.69        , 3           , 12          , 0.0404103659, 0
-0.1142656  , 0.07252018  , -9.796878   , -0.000331655552, -0.000236484979, -0.000460853975, -0.18032898 , -0.164284751, 0.449912369 , -0.009639444, -0.012192335, 2.43002     , 1.7         , 3           , 50          , 0           , 0
-0.129306   , 0.10066171  , -9.793712   , 0.00106711674, 0.00230714655, -0.00186305132, -0.18032898 , -0.164284751, 0.449912369 , -0.009628543, -0.0121694431, 2.4300015   , 1.71        , 3           , 11          , 0.008278013 , 0.008278004
-0.129181251, 0.1105825   , -9.792314   , -0.00144832744, -0.00277820788, 0.000377585122, -0.180531219, -0.164284751, 0.449777544 , -0.009643076, -0.0121971872, 2.43000531  , 1.72        , 3           , 12          , 0.04112743  , 0
-0.110799193, 0.09593375  , -9.794043   , 0.0008050219, -0.00163667055, -0.000457755872, -0.18032898 , -0.164149925, 0.449844956 , -0.009634972, -0.0122135971, 2.43000054  , 1.73        , 3           , 50          , 0           , 0
-0.112129271, 0.061231453 , -9.80188    , -0.00173591531, -0.00193542766, -0.00131765462, -0.18032898 , -0.164149925, 0.449844956 , -0.009652172, -0.0122330785, 2.42998815  , 1.74        , 3           , 11          , 0.008278013 , 0.008278004
-0.115057714, 0.07976435  , -9.80137348 , -0.00174797152, 0.0005986604, -0.000466136815, -0.18032898 , -0.164149925, 0.449844956 , -0.009669593, -0.0122271338, 2.42998338  , 1.75        , 3           , 12          , 0.04112743  , 0
-0.125439838, 0.08526867  , -9.791938   , -0.0006259758, 0.00229569385, 0.0006718843, -0.1803964  , -0.164149925, 0.449844956 , -0.009675933, -0.0122041134, 2.42999     , 1.76        , 3           , 50          , 0           , 0
-0.120043486, 0.07535515  , -9.814537   , 0.00162491179, 0.00400036341, 0.000402485835, -0.180126742, -0.164149925, 0.4501146   , -0.009659727, -0.0121640721, 2.42999339  , 1.77        , 3           , 11          , 0.008278013 , 0.008278004
-0.122060493, 0.06672895  , -9.791988   , 0.000511680264, 0.000895513047, 0.00237020734, -0.180126742, -0.164217338, 0.449912369 , -0.009654897, -0.0121548884, 2.43001676  , 1.78        , 3           , 12          , 0.04112743  , 0
-0.0959783345, 0.09342851  , -9.771791   , -0.00118205033, 0.0003209137, -0.00102901191, -0.180126742, -0.164217338, 0.449912369 , -0.009666593, -0.0121517787, 2.43000674  , 1.79        , 3           , 50          , 0           , 0
-0.126433119, 0.08520824  , -9.770702   , 0.000357194222, 0.00121678424, -0.00215246947, -0.180126742, -0.164217338, 0.4495753   , -0.0094951475, -0.0120869558, 2.42998338  , 1.8         , 3           , 11          , 0.008233659 , 0.008233651
-0.116540752, 0.080125615 , -9.769744   , -0.00246658456, 0.00119768688, -0.0013180261, -0.180194154, -0.164082512, 0.449979782 , -0.00951965153, -0.0120751029, 2.42997     , 1.81        , 3           , 12          , 0.0418744273, 0
-0.1277411  , 0.08526501  , -9.782916   , 0.00119929947, 0.002630348 , 0.0009615633, -0.1804638  , -0.164082512, 0.4500472   , -0.009507772, -0.0120487092, 2.42997956  , 1.82        , 3           , 50          , 0           , 0
-0.14048    , 0.103590712 , -9.820453   , 0.00150451972, -0.00187278073, 0.00180354982, -0.1804638  , -0.164082512, 0.4500472   , -0.009492946, -0.0120672658, 2.42999768  , 1.83        , 3           , 11          , 0.008233659 , 0.008233651
-0.114131257, 0.115404516 , -9.802574   , -0.00105781667, 0.00205193576, 0.000102547478, -0.180194154, -0.164284751, 0.449777544 , -0.009503534, -0.0120467367, 2.42999864  , 1.84        , 3           , 12          , 0.0418744273, 0
-0.129933268, 0.0915986449, -9.780194   , 0.0006537985, -0.00131538347, 0.0006703169, -0.1803964  , -0.164082512, 0.449777544 , -0.009497078, -0.0120598255, 2.43000531  , 1.85        , 3           , 50          , 0           , 0
-0.12871848 , 0.111477979 , -9.791855   , 0.00204650569, 0.002354506 , -0.00157775707, -0.180126742, -0.164352164, 0.449912369 , -0.009476419, -0.0120364316, 2.429989    , 1.86        , 3           , 11          , 0.008233659 , 0.008233651
-0.135238186, 0.09399831  , -9.80418    , -0.005012608, 0.00202519237, -0.00132857671, -0.180126742, -0.164149925, 0.449710131 , -0.009526383, -0.0120163048, 2.42997575  , 1.87        , 3           , 12          , 0.0418744273, 0
-0.127631336, 0.0849076   , -9.81094    , -0.00302242138, -0.0004955205, -0.0001931137, -0.180126742, -0.164149925, 0.449710131 , -0.009556585, -0.012021279, 2.42997384  , 1.88        , 3           , 50          , 0           , 0
-0.117607862, 0.0933217   , -9.798625   , -0.00244469568, -0.00302578439, 0.0003706895, -0.18032898 , -0.163880274, 0.449844956 , -0.00958108 , -0.0120514994, 2.42997766  , 1.89        , 3           , 11          , 0.008233659 , 0.008233651
-0.116033293, 0.0783792   , -9.788732   , -0.004704724, -0.00142880983, -0.00161582127, -0.18032898 , -0.164217338, 0.4500472   , -0.009616203, -0.0121676363, 2.429962    , 1.9         , 3           , 12          , 0.0426494442, 0
-0.12771529 , 0.08483957  , -9.790602   , 0.000935611664, 0.00029878068, -0.00130434136, -0.1804638  , -0.164149925, 0.449844956 , -0.009606688, -0.0121647734, 2.429949    , 1.91        , 3           , 50          , 0           , 0
-0.105206668, 0.109389395 , -9.789424   , 8.398609E-05, 0.00113774522, -0.00158952794, -0.1804638  , -0.164149925, 0.449844956 , -0.00960565452, -0.0121535473, 2.42993283  , 1.92        , 3           , 11          , 0.008177547 , 0.008177538
-0.116756268, 0.08835748  , -9.801351   , 0.000381331774, -0.00167599064, 0.000102674363, -0.1803964  , -0.164082512, 0.449710131 , -0.009601856, -0.0121702971, 2.42993379  , 1.93        , 3           , 12          , 0.0426494442, 0
-0.130009934, 0.07859236  , -9.803301   , -0.00385490712, -0.00170463941, 0.000365457818, -0.180194154, -0.163947687, 0.449979782 , -0.009640449, -0.0121873077, 2.4299376   , 1.94        , 3           , 50          , 0           , 0
-0.129972309, 0.08665714  , -9.786543   , -0.000768870465, 0.00225827564, -0.00159174285, -0.180126742, -0.164352164, 0.449912369 , -0.009647941, -0.0121648777, 2.42992139  , 1.95        , 3           , 11          , 0.008177547 , 0.008177538
-0.110164866, 0.07695663  , -9.788692   , 0.0003681332, 0.0008580917, -0.00102357 , -0.180126742, -0.164352164, 0.449912369 , -0.009644133, -0.0121563962, 2.42991138  , 1.96        , 3           , 12          , 0.0426494442, 0
-0.12424162 , 0.102902837 , -9.80677    , 0.000365997723, 0.00142122491, 0.000107447617, -0.180261567, -0.164082512, 0.449844956 , -0.009640484, -0.0121421739, 2.42991233  , 1.97        , 3           , 50          , 0           , 0
-0.10303019 , 0.09947225  , -9.799844   , 0.0009292942, 0.00170660915, -0.000172021813, -0.180194154, -0.164217338, 0.449844956 , -0.009631168, -0.0121251242, 2.42991042  , 1.98        , 3           , 11          , 0.008177547 , 0.008177538
-0.115020759, 0.08693589  , -9.787332   , -0.000756250054, 5.76209277E-06, 0.000947622757, -0.180059329, -0.164352164, 0.449844956 , -0.009638845, -0.0121249761, 2.42991948  , 1.99        , 3           , 12          , 0.0426494442, 0
-0.127718091, 0.11109782  , -9.816256   , -0.00212017237, -0.0014031895, -0.000756786438, -0.180059329, -0.164352164, 0.449844956 , -0.009602102, -0.0121275326, 2.42991185  , 2           , 3           , 50          , 0           , 0
-0.1009043  , 0.09174587  , -9.790819   , -0.001554088, -0.00168093527, -0.00103712408, -0.180261567, -0.164082512, 0.449979782 , -0.009617519, -0.0121444417, 2.42990136  , 2.01        , 3           , 11          , 0.008112355 , 0.008112349
-0.115966544, 0.118084311 , -9.788115   , 0.000150557375, -0.00364042935, -0.00046718496, -0.1804638  , -0.1640151  , 0.4501146   , -0.009615962, -0.01218089 , 2.42989755  , 2.02        , 3           , 12          , 0.0434506461, 0
-0.142246827, 0.09077787  , -9.761761   , 0.00124836573, 0.00284320815, -0.000169399238, -0.180531219, -0.164082512, 0.449912369 , -0.009603454, -0.0121524734, 2.42989564  , 2.03        , 3           , 50          , 0           , 0
-0.111541979, 0.07427928  , -9.792782   , 0.000146375329, -0.00279573444, -0.000465883117, -0.180531219, -0.164082512, 0.449912369 , -0.009601938, -0.0121804727, 2.42989087  , 2.04        , 3           , 11          , 0.008112355 , 0.008112349
-0.110736646, 0.09732349  , -9.804882   , -0.00155081041, -0.00224406319, -0.000190379389, -0.180261567, -0.164217338, 0.449777544 , -0.009617424, -0.0122029306, 2.42988944  , 2.05        , 3           , 12          , 0.0434506461, 0
-0.117444508, 0.105059206 , -9.800835   , 0.00267165224, 0.0006002371, -0.000166286045, -0.180531219, -0.164284751, 0.4500472   , -0.009590687, -0.012196946, 2.42988753  , 2.06        , 3           , 50          , 0           , 0
-0.102798879, 0.114835583 , -9.807011   , 0.001268208 , -0.00109870173, 0.000389600376, -0.18032898 , -0.164149925, 0.449844956 , -0.009578052, -0.0122078946, 2.42989182  , 2.07        , 3           , 11          , 0.008112355 , 0.008112349
-0.1322396  , 0.114726916 , -9.806331   , -0.00269232225, 8.144416E-07, -0.00132232567, -0.18032898 , -0.164149925, 0.449844956 , -0.009604814, -0.0122080129, 2.42987847  , 2.08        , 3           , 12          , 0.0434506461, 0
-0.136304379, 0.08093462  , -9.806954   , 0.00182158384, 0.00115763734, -0.000169368985, -0.180261567, -0.164419577, 0.449912369 , -0.009586576, -0.0121964542, 2.42987657  , 2.09        , 3           , 50          , 0           , 0
-0.106511638, 0.0809563249, -9.783224   , -0.00134537555, 0.00450004  , -0.00159095891, -0.18032898 , -0.164486989, 0.449979782 , -0.009660697, -0.012173499, 2.42986131  , 2.1         , 3           , 11          , 0.008036453 , 0.008036449
-0.112076141, 0.10271091  , -9.792216   , 0.00120917521, 0.00198314479, -0.0013004744, -0.180194154, -0.164352164, 0.449979782 , -0.009648444, -0.0121537941, 2.429848    , 2.11        , 3           , 12          , 0.04427629  , 0
-0.140671819, 0.09629366  , -9.796981   , -0.00329915434, -0.000299938431, -0.00245516677, -0.180194154, -0.164352164, 0.449979782 , -0.009681138, -0.01215703 , 2.42982316  , 2.12        , 3           , 50          , 0           , 0
-0.120909877, 0.0753975362, -9.824035   , -0.0013269271, 0.000839695567, -0.0010315252, -0.180126742, -0.164352164, 0.449777544 , -0.00969428 , -0.0121487342, 2.42981267  , 2.13        , 3           , 11          , 0.008036453 , 0.008036449
-0.102354579, 0.0782968253, -9.811678   , -0.00189924031, 0.00224369857, -0.00187960186, -0.180194154, -0.164082512, 0.449777544 , -0.009713042, -0.01212648 , 2.4297936   , 2.14        , 3           , 12          , 0.04427629  , 0
-0.122242272, 0.08793232  , -9.790095   , 0.002631305 , 0.000303312 , 0.00152888137, -0.180194154, -0.164149925, 0.449979782 , -0.009686914, -0.0121232988, 2.42980886  , 2.15        , 3           , 50          , 0           , 0
-0.1276296  , 0.08981885  , -9.795552   , -0.00104975 , 0.00196786737, -0.000463397475, -0.180194154, -0.164284751, 0.449979782 , -0.00969735347, -0.0121036656, 2.429804    , 2.16        , 3           , 11          , 0.008036453 , 0.008036449
-0.13105011 , 0.105647154 , -9.794156   , -0.0013222557, -4.99730231E-06, -0.000185214434, -0.180194154, -0.164284751, 0.449979782 , -0.009710553, -0.0121037336, 2.42980218  , 2.17        , 3           , 12          , 0.04427629  , 0
-0.1404926  , 0.08178347  , -9.7767     , 0.003197315 , -0.000256006082, -0.00129472732, -0.1803964  , -0.164082512, 0.4495753   , -0.009678423, -0.0121064186, 2.4297893   , 2.18        , 3           , 50          , 0           , 0
-0.09039796 , 0.09794728  , -9.79297352 , 0.000377881224, -0.00111979782, -0.000179048569, -0.180126742, -0.164217338, 0.4501146   , -0.009674625, -0.0121176317, 2.42978787  , 2.19        , 3           , 11          , 0.008036453 , 0.008036449
-0.111166038, 0.09868681  , -9.806237   , -0.000163662364, -0.000286416267, -0.000745848, -0.180261567, -0.164149925, 0.449912369 , -0.009634956, -0.0121316668, 2.42978024  , 2.2         , 3           , 12          , 0.04512471  , 0
-0.141486555, 0.105751254 , -9.788812   , 0.000405625178, -0.00140886172, -0.00272271247, -0.180261567, -0.164149925, 0.449912369 , -0.00963057 , -0.0121460175, 2.42975259  , 2.21        , 3           , 50          , 0           , 0
-0.112616591, 0.09505725  , -9.795416   , 0.00208780356, 0.00113668421, -0.002428368, -0.180261567, -0.163947687, 0.449844956 , -0.009609395, -0.0121348836, 2.42972875  , 2.22        , 3           , 11          , 0.007953832 , 0.007953826
-0.106278144, 0.09676778  , -9.789484   , 0.00152753235, 0.0005697427, 0.000676042633, -0.180194154, -0.164082512, 0.449979782 , -0.009594201, -0.0121291215, 2.42973542  , 2.23        , 3           , 12          , 0.04512471  , 0
-0.107860453, 0.07874826  , -9.792735   , 0.000403727347, -0.000564156042, 0.00123411417, -0.180126742, -0.164352164, 0.4501146   , -0.009590314, -0.0121346451, 2.42974782  , 2.24        , 3           , 50          , 0           , 0
-0.123850413, 0.09525969  , -9.816291   , -0.000158990908, -0.00113110919, 0.000100462363, -0.180126742, -0.164352164, 0.4501146   , -0.009591917, -0.0121459467, 2.42974877  , 2.25        , 3           , 11          , 0.007953832 , 0.007953826
-0.119023934, 0.08838104  , -9.800465   , -0.002706898, -2.20408547E-05, -0.0007572665, -0.18032898 , -0.164082512, 0.449777544 , -0.009618893, -0.012146241, 2.42974114  , 2.26        , 3           , 12          , 0.04512471  , 0
-0.105197057, 0.07465601  , -9.792731   , -0.00327797979, 0.00110039639, -0.00188831473, -0.1803964  , -0.1640151  , 0.449979782 , -0.009651444, -0.0121354191, 2.429722    , 2.27        , 3           , 50          , 0           , 0
-0.117095985, 0.0675501   , -9.78517    , -0.00101840217, 0.001115677 , -0.00159524172, -0.18032898 , -0.164419577, 0.450249434 , -0.009661433, -0.0121244164, 2.42970586  , 2.28        , 3           , 11          , 0.007953832 , 0.007953826
-0.132392019, 0.07004252  , -9.801999   , -0.000160874362, -0.0008495466, -0.0007467159, -0.18032898 , -0.164419577, 0.450249434 , -0.009662952, -0.0121329837, 2.42969823  , 2.29        , 3           , 12          , 0.04512471  , 0
-0.127957821, 0.0943886042, -9.811356   , 0.00163626345, 8.68248753E-06, -0.0004562246, -0.180194154, -0.164486989, 0.449777544 , -0.009482356, -0.012129725, 2.429692    , 2.3         , 3           , 50          , 0           , 0
-0.14107044 , 0.106608942 , -9.777054   , -0.00232747 , 0.00195289857, -0.000471624138, -0.18032898 , -0.1640151  , 0.450182021 , -0.009505572, -0.0121102426, 2.42968726  , 2.31        , 3           , 11          , 0.007865451 , 0.007865447
-0.116665952, 0.09200147  , -9.81173    , -0.000907876354, 0.0005546252, 0.000380403071, -0.180194154, -0.164486989, 0.449979782 , -0.009514697, -0.0121046575, 2.429691    , 2.32        , 3           , 12          , 0.0459943376, 0
-0.109429866, 0.09815844  , -9.789503   , 0.000504509546, 0.0002826045, -0.00159120827, -0.180194154, -0.164486989, 0.449979782 , -0.009509457, -0.0121019837, 2.42967534  , 2.33        , 3           , 50          , 0           , 0
-0.1370345  , 0.0989414155, -9.79197    , -0.000912221556, 0.00139931962, 9.916738E-05, -0.180194154, -0.164284751, 0.449979782 , -0.009518592, -0.0120879821, 2.42967582  , 2.34        , 3           , 11          , 0.007865451 , 0.007865447
-0.128162161, 0.0852960348, -9.790604   , -0.00119341759, 0.00111584389, -0.000185120734, -0.18032898 , -0.164082512, 0.4501146   , -0.00953050051, -0.01207684 , 2.429674    , 2.35        , 3           , 12          , 0.0459943376, 0
-0.114140615, 0.0802094   , -9.80272    , -0.00118841988, 0.0002711525, 0.00122626475, -0.180194154, -0.164284751, 0.450182021 , -0.009542534, -0.0120740114, 2.42968631  , 2.36        , 3           , 50          , 0           , 0
-0.1263023  , 0.09067044  , -9.785143   , -0.0011919348, 0.0005527074, -0.00244628848, -0.180194154, -0.164284751, 0.450182021 , -0.009554157, -0.01206872 , 2.42966151  , 2.37        , 3           , 11          , 0.007865451 , 0.007865447
-0.105613947, 0.1130024   , -9.7889595  , -0.0011803821, -0.00141823944, 0.000658586156, -0.180194154, -0.164352164, 0.449710131 , -0.009566043, -0.01208284 , 2.42966866  , 2.38        , 3           , 12          , 0.0459943376, 0
-0.1089707  , 0.0941411555, -9.803979   , 0.0005034419, 0.0005641711, -0.00102569954, -0.1804638  , -0.164352164, 0.4500472   , -0.009560883, -0.0120772952, 2.42965817  , 2.39        , 3           , 50          , 0           , 0
-0.119618714, 0.08291509  , -9.783317   , -0.002312564, -0.0005819737, -0.0018882358, -0.1804638  , -0.164756641, 0.4500472   , -0.009578697, -0.0120845456, 2.429639    , 2.4         , 3           , 11          , 0.007773194 , 0.00777318748
-0.114430167, 0.09686195  , -9.789095   , -0.00402443158, 0.00306691672, -0.0004778088, -0.180194154, -0.164486989, 0.449912369 , -0.00961888 , -0.0120539237, 2.42963433  , 2.41        , 3           , 12          , 0.04688368  , 0
-0.09506648 , 0.08672771  , -9.794865   , -0.000322955835, -0.00282111717, 0.000660348451, -0.180194154, -0.164486989, 0.449912369 , -0.009622194, -0.01208207 , 2.429641    , 2.42        , 3           , 50          , 0           , 0
-0.118261173, 0.1118371   , -9.800813   , 0.00136217335, -0.000838700566, 0.00123636262, -0.180194154, -0.164149925, 0.4501146   , -0.009608721, -0.0120903384, 2.42965341  , 2.43        , 3           , 11          , 0.007773194 , 0.00777318748
-0.121704794, 0.0991543755, -9.774677   , -0.00176870916, 0.003926894 , 0.0003816407, -0.18032898 , -0.164352164, 0.4501146   , -0.009626451, -0.0120510357, 2.42965722  , 2.44        , 3           , 12          , 0.04688368  , 0
-0.106677055, 0.09904851  , -9.795354   , -5.340137E-05, -0.000285123242, 0.00010049581, -0.180059329, -0.164149925, 0.449979782 , -0.009626998, -0.0120538743, 2.42965817  , 2.45        , 3           , 50          , 0           , 0
-0.0987176  , 0.08049796  , -9.808024   , 0.001928673 , -0.001398016, -0.0007396336, -0.180059329, -0.164149925, 0.449979782 , -0.009607623, -0.0120679261, 2.42965055  , 2.46        , 3           , 11          , 0.007773194 , 0.00777318748
-0.108162023, 0.08914215  , -9.79631    , -0.000899124658, -0.0005724175, 0.000378648547, -0.1804638  , -0.164217338, 0.4500472   , -0.009616661, -0.0120736128, 2.42965436  , 2.47        , 3           , 12          , 0.04688368  , 0
-0.125443161, 0.08839045  , -9.781077   , -0.000893222343, -0.00169867626, 0.000941987848, -0.180261567, -0.1640151  , 0.449979782 , -0.009625711, -0.01209051 , 2.429664    , 2.48        , 3           , 50          , 0           , 0
-0.138551861, 0.0881161243, -9.787959   , -0.000915363256, 0.002806366 , 0.00123146828, -0.18032898 , -0.164689228, 0.449979782 , -0.009635009, -0.0120623261, 2.42967629  , 2.49        , 3           , 11          , 0.007773194 , 0.00777318748
-0.127823383, 0.07984212  , -9.780228   , 0.00222361577, 0.000861035543, -0.00101762777, -0.18032898 , -0.164689228, 0.449979782 , -0.009573046, -0.0120461285, 2.4296658   , 2.5         , 3           , 12          , 0.0477913357, 0
-0.129339144, 0.09617135  , -9.800058   , -0.00230062637, 0.00195673713, -0.0007544255, -0.18032898 , -0.164352164, 0.450182021 , -0.009595959, -0.0120266331, 2.4296577   , 2.51        , 3           , 50          , 0           , 0
-0.130004764, 0.118247584 , -9.787768   , -0.00284777326, -0.00142585882, 0.000932958152, -0.1803964  , -0.164149925, 0.4501146   , -0.009624551, -0.0120408013, 2.42966723  , 2.52        , 3           , 11          , 0.00767841749, 0.00767841237
-0.118007161, 0.0675562   , -9.783819   , -0.0011566527, -0.0008512723, -0.0001884221, -0.18032898 , -0.164284751, 0.4500472   , -0.009636096, -0.0120493332, 2.42966533  , 2.53        , 3           , 12          , 0.0477913357, 0
-0.0885258  , 0.0997608751, -9.801991   , 0.00137961272, 0.0002921778, -0.000174833956, -0.18032898 , -0.164284751, 0.4500472   , -0.009622279, -0.0120464284, 2.429664    , 2.54        , 3           , 50          , 0           , 0
-0.112600252, 0.09953398  , -9.785001   , 0.003634029 , 0.00115214894, -0.00157568417, -0.18032898 , -0.164284751, 0.4500472   , -0.009585746, -0.0120350588, 2.42964768  , 2.55        , 3           , 11          , 0.00767841749, 0.00767841237
-0.124388158, 0.101445056 , -9.775592   , 0.000521432143, 0.00225739786, -0.00215350976, -0.180261567, -0.164149925, 0.449912369 , -0.00958027 , -0.0120126922, 2.42962575  , 2.56        , 3           , 12          , 0.0477913357, 0
-0.1323204  , 0.0812593251, -9.78342    , 0.00223918748, -0.00195460743, 0.00180340756, -0.18032898 , -0.164352164, 0.449912369 , -0.00955809653, -0.0120320655, 2.42964387  , 2.57        , 3           , 50          , 0           , 0
-0.128907323, 0.100612536 , -9.7806015  , 0.00308098062, -0.00110418862, -0.000451639527, -0.18032898 , -0.164352164, 0.449912369 , -0.009527233, -0.0120431529, 2.42964     , 2.58        , 3           , 11          , 0.00767841749, 0.00767841237
-0.1399737  , 0.113002107 , -9.803234   , 0.00137666159, 0.0008553072, -0.0004565036, -0.18032898 , -0.164217338, 0.449912369 , -0.009513412, -0.0120346406, 2.42963529  , 2.59        , 3           , 12          , 0.0477913357, 0
-0.08719993 , 0.09614779  , -9.805612   , 0.00134149077, 0.001932387 , -0.00101993931, -0.180531219, -0.163947687, 0.449979782 , -0.009550324, -0.0121002225, 2.42962575  , 2.6         , 3           , 50          , 0           , 0
-0.110589728, 0.109494    , -9.801668   , 0.000220636808, 0.000235359083, -0.0001801982, -0.1803964  , -0.164352164, 0.4501146   , -0.009548095, -0.0120978868, 2.42962384  , 2.61        , 3           , 11          , 0.00758304261, 0.00758303748
-0.103086829, 0.09853366  , -9.789      , 0.00303006079, 0.00335167721, 0.0006853567, -0.1803964  , -0.164352164, 0.4501146   , -0.009517873, -0.0120643061, 2.42963052  , 2.62        , 3           , 12          , 0.04871599  , 0
-0.136282772, 0.08496928  , -9.799254   , 0.002480956 , -3.09285242E-05, -0.00101770915, -0.18032898 , -0.164149925, 0.449979782 , -0.00949294 , -0.01206471 , 2.42962     , 2.63        , 3           , 50          , 0           , 0
-0.10999313 , 0.08736183  , -9.79723549 , -0.00061753823, -0.00174132956, -0.00131733646, -0.180261567, -0.1640151  , 0.4500472   , -0.00949895848, -0.0120822489, 2.42960715  , 2.64        , 3           , 11          , 0.00758304261, 0.00758303748
-0.0968826562, 0.08495949  , -9.799405   , -0.00147573324, 0.000787034165, 0.00150799286, -0.1803964  , -0.164217338, 0.449979782 , -0.009513897, -0.012074233, 2.429622    , 2.65        , 3           , 12          , 0.04871599  , 0
-0.131207   , 0.09257585  , -9.797828   , -0.0031629086, -0.0009138208, -0.000197737128, -0.180261567, -0.164149925, 0.449710131 , -0.009545504, -0.01208339 , 2.42962     , 2.66        , 3           , 50          , 0           , 0
-0.126619324, 0.0876613259, -9.828096   , -0.00231209933, -0.00175278937, -0.001325238, -0.180261567, -0.164149925, 0.449710131 , -0.009568467, -0.0121010439, 2.42960715  , 2.67        , 3           , 11          , 0.00758304261, 0.00758303748
-0.125681728, 0.09571093  , -9.809977   , -0.00289072958, 0.00105904229, -0.00104099512, -0.1804638  , -0.164284751, 0.449912369 , -0.00959724747, -0.0120905563, 2.42959666  , 2.68        , 3           , 12          , 0.04871599  , 0
-0.1288812  , 0.1006337   , -9.786929   , -0.006557192, -9.2049886E-05, -0.00190746342, -0.180261567, -0.164284751, 0.449912369 , -0.00966259 , -0.012091659, 2.429578    , 2.69        , 3           , 50          , 0           , 0
-0.138970867, 0.09350501  , -9.7789     , -0.00175189343, -7.665338E-05, -0.0016027221, -0.18032898 , -0.164149925, 0.449710131 , -0.009672969, -0.0121231042, 2.42956185  , 2.7         , 3           , 11          , 0.00748633174, 0.00748632569
-0.109208055, 0.08323642  , -9.780975   , -0.000340752769, 0.000496035151, 0.00151264272, -0.18032898 , -0.164149925, 0.449710131 , -0.00967656 , -0.0121179968, 2.42957664  , 2.71        , 3           , 12          , 0.0496564023, 0
-0.114225172, 0.106847763 , -9.80713    , -0.00203162129, -0.000360122242, 0.0006558268, -0.180261567, -0.1640151  , 0.449710131 , -0.009696956, -0.0121215358, 2.42958331  , 2.72        , 3           , 50          , 0           , 0
-0.136267185, 0.08587462  , -9.800154   , -0.00201505632, -0.00373890414, 0.000368082081, -0.18032898 , -0.163880274, 0.449912369 , -0.009717157, -0.0121588875, 2.4295876   , 2.73        , 3           , 11          , 0.00748633174, 0.00748632569
-0.143230781, 0.0728709549, -9.8002615  , 0.0019169416, 0.0007928785, 0.000958537159, -0.180194154, -0.164149925, 0.449777544 , -0.009698103, -0.0121508678, 2.42959714  , 2.74        , 3           , 12          , 0.0496564023, 0
-0.110271305, 0.07419228  , -9.771528   , 0.00303698  , 0.00248990254, -0.00129389123, -0.180194154, -0.164149925, 0.449777544 , -0.0096675735, -0.0121260937, 2.42958379  , 2.75        , 3           , 50          , 0           , 0
-0.0944291651, 0.106957689 , -9.774888   , -0.00119089556, 0.00077186327, -0.00103371136, -0.18032898 , -0.164149925, 0.449777544 , -0.009679356, -0.0121184755, 2.4295733   , 2.76        , 3           , 11          , 0.00748633174, 0.00748632569
-0.136267781, 0.09524749  , -9.769833   , 0.003314646 , 0.003618077 , 0.000121848643, -0.180531219, -0.164082512, 0.449710131 , -0.009646219, -0.0120822852, 2.42957425  , 2.77        , 3           , 12          , 0.0496564023, 0
-0.125231266, 0.100167252 , -9.795038   , -0.00176624861, 0.00302056735, 9.72759663E-05, -0.180261567, -0.164082512, 0.449710131 , -0.009663889, -0.0120520713, 2.4295752   , 2.78        , 3           , 50          , 0           , 0
-0.143374816, 0.09722936  , -9.797449   , 0.00276119681, 0.00108016562, -0.001862453, -0.180261567, -0.164082512, 0.449710131 , -0.009636053, -0.01204145 , 2.42955613  , 2.79        , 3           , 11          , 0.00748633174, 0.00748632569
-0.1422851  , 0.0818198547, -9.781235   , 0.000223237963, 0.001853761 , 0.00123435562, -0.18032898 , -0.1640151  , 0.449710131 , -0.009622323, -0.0121226739, 2.42956853  , 2.8         , 3           , 12          , 0.0506114177, 0
-0.09643243 , 0.09164737  , -9.777227   , -0.0006109183, -0.0009676237, -0.00018662175, -0.180194154, -0.164082512, 0.4500472   , -0.00962841 , -0.0121323671, 2.42956662  , 2.81        , 3           , 50          , 0           , 0
-0.120023549, 0.08474468  , -9.789187   , 0.00277156  , 0.000463123 , 0.000396425865, -0.180194154, -0.164149925, 0.449710131 , -0.009600743, -0.0121276984, 2.42957044  , 2.82        , 3           , 11          , 0.007393461 , 0.007393456
-0.129395962, 0.0898764   , -9.806413   , 0.00248028  , 0.002150601 , -0.0004498997, -0.180194154, -0.164149925, 0.449710131 , -0.009575882, -0.0121062379, 2.42956567  , 2.83        , 3           , 12          , 0.0506114177, 0
-0.102659866, 0.123875253 , -9.811943   , 0.00078801706, 0.00157600862, -0.00130628154, -0.180261567, -0.164082512, 0.4495079   , -0.009567842, -0.0120906029, 2.42955279  , 2.84        , 3           , 50          , 0           , 0
-0.110377476, 0.0967959762, -9.78364    , 0.000510424958, 0.0007294067, -0.0001787504, -0.18032898 , -0.164082512, 0.449777544 , -0.009562714, -0.0120833265, 2.429551    , 2.85        , 3           , 11          , 0.007393461 , 0.007393456
-0.129844129, 0.0885463953, -9.811845   , 0.000518625835, -0.000959984667, -0.0004638915, -0.18032898 , -0.164217338, 0.449642718 , -0.009557474, -0.0120929694, 2.42954659  , 2.86        , 3           , 12          , 0.0506114177, 0
-0.146712974, 0.08597116  , -9.79255    , 0.000518789 , -0.000959983852, -0.000181354015, -0.18032898 , -0.164217338, 0.449642718 , -0.009552265, -0.0121025871, 2.42954469  , 2.87        , 3           , 50          , 0           , 0
-0.0893280059, 0.086092554 , -9.760471   , 0.00135909952, 0.000453571556, -0.000175233537, -0.18032898 , -0.164149925, 0.449710131 , -0.00953865051, -0.0120980684, 2.42954278  , 2.88        , 3           , 11          , 0.007393461 , 0.007393456
-0.12310046 , 0.09914009  , -9.765647   , 0.00136483868, -0.000672688067, 0.000105567975, -0.1804638  , -0.164352164, 0.449710131 , -0.009525017, -0.0121047841, 2.42954373  , 2.89        , 3           , 12          , 0.0506114177, 0
-0.103247479, 0.09304729  , -9.767329   , -0.00288497726, 0.00182427838, -0.000475395937, -0.180194154, -0.1640151  , 0.449642718 , -0.009554841, -0.0121028256, 2.429539    , 2.9         , 3           , 50          , 0           , 0
-0.09438357 , 0.07805601  , -9.768227   , 0.0030354124, 0.00383533956, -0.00185739028, -0.180194154, -0.1640151  , 0.449642718 , -0.009524257, -0.0120646507, 2.42952     , 2.91        , 3           , 11          , 0.007297817 , 0.007297811
-0.113586895, 0.093230024 , -9.785487   , -0.00259804213, 0.0009814947, 8.96939455E-05, -0.180126742, -0.164217338, 0.4495753   , -0.009550247, -0.0120548261, 2.42952085  , 2.92        , 3           , 12          , 0.0515799336, 0
-0.108110137, 0.0963258   , -9.785885   , 0.000508326455, 0.00100250286, -0.000460894546, -0.18032898 , -0.164284751, 0.449710131 , -0.009545107, -0.012044847, 2.429516    , 2.93        , 3           , 50          , 0           , 0
-0.113130689, 0.08519319  , -9.812183   , -0.000333956181, 0.000152081571, 0.0009465401, -0.180194154, -0.164082512, 0.449642718 , -0.009548561, -0.0120432368, 2.42952561  , 2.94        , 3           , 11          , 0.007297817 , 0.007297811
-0.1355242  , 0.07010998  , -9.811062   , -0.00173591706, -0.00210999348, -0.00075874076, -0.1803964  , -0.164149925, 0.449373066 , -0.009565831, -0.0120644076, 2.42951846  , 2.95        , 3           , 12          , 0.0515799336, 0
-0.106810354, 0.0851036459, -9.807615   , -0.00286948 , -0.0012729367, -0.000197631729, -0.1803964  , -0.164149925, 0.449373066 , -0.009594502, -0.0120771555, 2.42951655  , 2.96        , 3           , 50          , 0           , 0
-0.09827758 , 0.08851661  , -9.779061   , -0.002312086, 0.0001387063, -0.00104044075, -0.180531219, -0.164082512, 0.4495753   , -0.009617498, -0.0120758712, 2.429506    , 2.97        , 3           , 11          , 0.007297817 , 0.007297811
-0.12362586 , 0.08658877  , -9.788303   , -0.00315313786, -0.0009932809, 8.402254E-05, -0.1803964  , -0.164082512, 0.449777544 , -0.009649039, -0.0120857935, 2.429507    , 2.98        , 3           , 12          , 0.0515799336, 0
-0.12433777 , 0.101485871 , -9.787795   , -0.000332235883, -0.0001294819, 0.00151118112, -0.180261567, -0.164082512, 0.449844956 , -0.009652545, -0.0120869409, 2.42952228  , 2.99        , 3           , 50          , 0           , 0
-0.113404542, 0.105429254 , -9.790859   , 0.002817023 , -0.002625835, 0.000108921522, -0.180261567, -0.164082512, 0.449844956 , -0.0095632365, -0.0120799961, 2.42952275  , 3           , 3           , 11          , 0.007202548 , 0.00720253959
-0.110846035, 0.0905396044, -9.79994    , -0.000862964138, -0.001242846, -0.00244886614, -0.180261567, -0.1640151  , 0.4495079   , -0.009571572, -0.0120926592, 2.429499    , 3.01        , 3           , 12          , 0.0525609367, 0
-0.132614285, 0.0894276947, -9.796043   , -0.00171140116, -0.0006854381, 0.0003734256, -0.180261567, -0.164149925, 0.449642718 , -0.009588731, -0.0120994775, 2.42950273  , 3.02        , 3           , 50          , 0           , 0
-0.114348419, 0.0612943172, -9.812744   , -0.00368806254, -0.0006988063, 0.000929282047, -0.180261567, -0.164284751, 0.449777544 , -0.009625727, -0.0121063758, 2.42951179  , 3.03        , 3           , 11          , 0.007202548 , 0.00720253959
-0.128714651, 0.07138369  , -9.811004   , 0.00250253431, 0.00384825235, 0.000117585092, -0.180261567, -0.164284751, 0.449777544 , -0.00960071 , -0.0120678851, 2.42951274  , 3.04        , 3           , 12          , 0.0525609367, 0
-0.113740459, 0.112224504 , -9.797613   , -0.00368748419, -0.0009803753, -0.0004838391, -0.1803964  , -0.164486989, 0.4495079   , -0.009637529, -0.0120777357, 2.429508    , 3.05        , 3           , 50          , 0           , 0
-0.1205619  , 0.07486093  , -9.80008    , -0.00311886356, -0.00153968076, 0.00121315161, -0.18032898 , -0.163947687, 0.449844956 , -0.009668866, -0.0120930141, 2.42952037  , 3.06        , 3           , 11          , 0.007202548 , 0.00720253959
-0.1288099  , 0.0686284   , -9.796553   , -0.0005771856, -0.00152249169, 0.000942466548, -0.1803964  , -0.164352164, 0.4495753   , -0.009674755, -0.0121081471, 2.42953     , 3.07        , 3           , 12          , 0.0525609367, 0
-0.12614122 , 0.09928162  , -9.796857   , 0.00195301464, 0.000747216167, 0.000110177927, -0.1803964  , -0.164352164, 0.4495753   , -0.009655236, -0.012100664, 2.42953086  , 3.08        , 3           , 50          , 0           , 0
-0.134414569, 0.0890114   , -9.800127   , 0.00168411271, -0.00178877474, 0.00180018076, -0.18032898 , -0.164217338, 0.449642718 , -0.009638615, -0.0121183787, 2.42954946  , 3.09        , 3           , 11          , 0.007202548 , 0.00720253959
-0.116190389, 0.102727011 , -9.782755   , 0.00115131389, 0.0007157341, -0.000742134, -0.180261567, -0.164082512, 0.4495753   , -0.009532546, -0.0121640675, 2.42954087  , 3.1         , 3           , 12          , 0.0535534769, 0
-0.117177695, 0.09552981  , -9.785956   , -0.00110514963, 0.00013732494, -0.000470999861, -0.180126742, -0.164284751, 0.4495753   , -0.00954354 , -0.0121627394, 2.429536    , 3.11        , 3           , 50          , 0           , 0
-0.118508026, 0.08798051  , -9.817184   , -0.00166844588, -0.000148059218, -0.000191530155, -0.180126742, -0.164284751, 0.4495753   , -0.009560202, -0.0121642388, 2.4295342   , 3.12        , 3           , 11          , 0.00710867671, 0.00710866973
-0.1119031  , 0.114902586 , -9.795327   , 0.0005833459, 0.00127504265, -0.00130897493, -0.180261567, -0.164419577, 0.449710131 , -0.009554207, -0.0121516157, 2.42952085  , 3.13        , 3           , 12          , 0.0535534769, 0
-0.128406137, 0.09796835  , -9.800948   , 0.004270555 , -0.00179734186, -0.0007315531, -0.1804638  , -0.164149925, 0.449777544 , -0.009511415, -0.0121696582, 2.42951369  , 3.14        , 3           , 50          , 0           , 0
-0.100094341, 0.08853334  , -9.7777195  , 0.00228404673, 0.000441816723, 0.00208807457, -0.18032898 , -0.164217338, 0.449777544 , -0.009488827, -0.0121650416, 2.42953467  , 3.15        , 3           , 11          , 0.00710867671, 0.00710866973
-0.111755908, 0.0923321545, -9.793161   , -0.0002613985, 0.0009877533, 0.0006644025, -0.18032898 , -0.164217338, 0.449777544 , -0.009491522, -0.0121551  , 2.42954087  , 3.16        , 3           , 12          , 0.0535534769, 0
-0.135318562, 0.123764485 , -9.799538   , 0.0008643786, 0.0015585178, -0.001307224, -0.18032898 , -0.164082512, 0.449642718 , -0.009482716, -0.0121396407, 2.429528    , 3.17        , 3           , 50          , 0           , 0
-0.137951612, 0.0984963551, -9.790624   , 0.00113663252, 0.00381295336, 0.000392789021, -0.1803964  , -0.163947687, 0.4495753   , -0.009471393, -0.0121014742, 2.42953134  , 3.18        , 3           , 11          , 0.00710867671, 0.00710866973
-0.112638429, 0.0932541639, -9.795876   , -0.000257053325, 0.0001430588, 0.0009456381, -0.18032898 , -0.164352164, 0.449710131 , -0.009474078, -0.0120999543, 2.42954087  , 3.19        , 3           , 12          , 0.0535534769, 0
-0.142671391, 0.0885743   , -9.775785   , 0.0005652406, -0.000146149832, -0.000463334116, -0.1803964  , -0.1645544  , 0.449642718 , -0.009522491, -0.01212977 , 2.429537    , 3.2         , 3           , 50          , 0           , 0
-0.129344076, 0.0970600545, -9.795987   , 0.0005693338, -0.000709273852, 0.00179609761, -0.1803964  , -0.1645544  , 0.449642718 , -0.009517017, -0.0121366922, 2.42955518  , 3.21        , 3           , 11          , 0.007017034 , 0.007017024
-0.120715953, 0.105906487 , -9.773286   , 0.00140136911, 0.0021121006, -0.000455911824, -0.180261567, -0.1640151  , 0.449642718 , -0.009502945, -0.0121156145, 2.42955041  , 3.22        , 3           , 12          , 0.0545566566, 0
-0.113107674, 0.09369249  , -9.790453   , 0.000270430959, 0.00238602655, -0.000178208167, -0.180261567, -0.164419577, 0.449710131 , -0.009500215, -0.0120917726, 2.4295485   , 3.23        , 3           , 50          , 0           , 0
-0.127954558, 0.09885476  , -9.797777   , -0.00197323458, -0.00100803887, -0.00188917585, -0.180194154, -0.164419577, 0.449642718 , -0.00951971952, -0.012102033, 2.42952943  , 3.24        , 3           , 11          , 0.007017034 , 0.007017024
-0.126888588, 0.114150025 , -9.787762   , 0.00113353482, -0.00070545706, 0.000668581633, -0.180194154, -0.164419577, 0.449642718 , -0.009508466, -0.0121090235, 2.429536    , 3.25        , 3           , 12          , 0.0545566566, 0
-0.116975233, 0.104620866 , -9.806256   , -0.00112989859, 0.000123959268, 0.0009418854, -0.18032898 , -0.164217338, 0.4495753   , -0.009519879, -0.0121076955, 2.42954564  , 3.26        , 3           , 50          , 0           , 0
-0.1180001  , 0.099625    , -9.793178   , -0.00141502463, 0.000403608166, -0.00131929724, -0.1804638  , -0.163947687, 0.449777544 , -0.00953387 , -0.0121037839, 2.42953229  , 3.27        , 3           , 11          , 0.007017034 , 0.007017024
-0.135551542, 0.07098053  , -9.801566   , 0.00113206648, -0.000705464161, -0.00187425583, -0.180261567, -0.164217338, 0.449710131 , -0.009522323, -0.0121110175, 2.42951417  , 3.28        , 3           , 12          , 0.0545566566, 0
-0.115620427, 0.07477072  , -9.790551   , 0.00168477476, 0.00211401517, 0.00124062982, -0.180261567, -0.164217338, 0.449710131 , -0.009505624, -0.0120897591, 2.429526    , 3.29        , 3           , 50          , 0           , 0
-0.1104468  , 0.08870548  , -9.792713   , -0.00141308317, 0.0006617269, -0.0004714728, -0.18032898 , -0.164217338, 0.4495079   , -0.00951346848, -0.0121344086, 2.4295218   , 3.3         , 3           , 11          , 0.00692669  , 0.00692668045
-0.126298144, 0.0937982649, -9.77609    , -0.000833799946, -0.00215010159, 0.000374434 , -0.180531219, -0.164082512, 0.449844956 , -0.009521854, -0.0121558728, 2.42952561  , 3.31        , 3           , 12          , 0.0555696338, 0
-0.133887842, 0.0957612544, -9.796479   , 0.00339079741, 0.000131065433, -0.000732490269, -0.1803964  , -0.163947687, 0.4495753   , -0.009487856, -0.0121546322, 2.429518    , 3.32        , 3           , 50          , 0           , 0
-0.124497935, 0.0839484259, -9.805044   , -0.00141094776, 9.859359E-05, -0.00160249055, -0.1803964  , -0.163947687, 0.4495753   , -0.00950177 , -0.0121537978, 2.42950177  , 3.33        , 3           , 11          , 0.00692669  , 0.00692668045
-0.110813841, 0.103956208 , -9.764629   , 0.00169467949, 0.000401169877, -0.00102249545, -0.1804638  , -0.164284751, 0.449777544 , -0.009484699, -0.0121498844, 2.42949176  , 3.34        , 3           , 12          , 0.0555696338, 0
-0.129011989, 0.08758358  , -9.796927   , 0.0008612502, -0.00213863933, 0.00122994813, -0.1803964  , -0.164082512, 0.4495079   , -0.009476238, -0.012171152, 2.42950416  , 3.35        , 3           , 50          , 0           , 0
-0.11683628 , 0.0860609   , -9.789157   , 0.00310542  , 0.000692284841, -0.00101547688, -0.1804638  , -0.164149925, 0.449642718 , -0.00944506 , -0.0121643264, 2.42949414  , 3.36        , 3           , 11          , 0.00692669  , 0.00692668045
-0.09975768 , 0.110230923 , -9.790282   , -0.00195948826, -0.00300243753, 8.532696E-05, -0.1804638  , -0.164149925, 0.449642718 , -0.009464668, -0.0121943438, 2.429495    , 3.37        , 3           , 12          , 0.0555696338, 0
-0.119077653, 0.116383441 , -9.808031   , 0.00226731924, -0.00100283162, 0.000390656 , -0.180261567, -0.164284751, 0.449642718 , -0.009442045, -0.0122043313, 2.429499    , 3.38        , 3           , 50          , 0           , 0
-0.120147154, 0.10644152  , -9.799946   , 0.000288121577, -0.000734640344, -0.00103081588, -0.1804638  , -0.1640151  , 0.449710131 , -0.00943904 , -0.0122117754, 2.429489    , 3.39        , 3           , 11          , 0.00692669  , 0.00692668045
-0.109446019, 0.0990380645, -9.78272    , 0.000807848061, 0.00152576086, -0.0015892745, -0.180733457, -0.164149925, 0.449642718 , -0.009506569, -0.0121875275, 2.429474    , 3.4         , 3           , 12          , 0.05659164  , 0
-0.0981152654, 0.09623607  , -9.793943   , 0.00109601417, 0.000401411351, -0.00130715594, -0.180733457, -0.164149925, 0.449642718 , -0.009495449, -0.0121836374, 2.42946076  , 3.41        , 3           , 50          , 0           , 0
-0.109790258, 0.09957769  , -9.807578   , 0.00023372595, 0.00349289877, -0.000741258555, -0.1803964  , -0.164284751, 0.449305654 , -0.009493017, -0.01214878 , 2.42945313  , 3.42        , 3           , 11          , 0.0068389955, 0.006838985
-0.120404787, 0.08570065  , -9.803649   , 0.0005364845, -0.00044709834, 0.000666670559, -0.180261567, -0.164149925, 0.4495753   , -0.009487732, -0.012153185, 2.42945981  , 3.43        , 3           , 12          , 0.05659164  , 0
-0.130061716, 0.07408689  , -9.805128   , 0.00109838706, 0.000119851 , 0.000387634733, -0.180261567, -0.164149925, 0.449710131 , -0.009476796, -0.01215195 , 2.42946362  , 3.44        , 3           , 50          , 0           , 0
-0.127617419, 0.09116776  , -9.794189   , -0.00201929687, 0.00235136272, 0.0006591575, -0.18032898 , -0.1640151  , 0.4495753   , -0.009497065, -0.0121283745, 2.4294703   , 3.45        , 3           , 11          , 0.0068389955, 0.006838985
-0.133741677, 0.104360342 , -9.804578   , -0.00255455 , -0.00356532237, 0.00121248607, -0.18032898 , -0.1640151  , 0.4495753   , -0.009522763, -0.0121639119, 2.4294827   , 3.46        , 3           , 12          , 0.05659164  , 0
-0.12319766 , 0.08611718  , -9.783781   , -0.000309238734, -0.0007343926, 0.0009448232, -0.1803964  , -0.164419577, 0.449844956 , -0.009525973, -0.0121711688, 2.42949224  , 3.47        , 3           , 50          , 0           , 0
-0.1151272  , 0.08417153  , -9.770169   , 0.0005337853, -0.000165539444, -0.00159319513, -0.18032898 , -0.164352164, 0.449710131 , -0.009520438, -0.0121729737, 2.429476    , 3.48        , 3           , 11          , 0.0068389955, 0.006838985
-0.10381785 , 0.07510331  , -9.796335   , 0.00165422389, 0.00181305828, -0.0007372775, -0.18032898 , -0.164419577, 0.4495079   , -0.009503805, -0.0121549135, 2.42946887  , 3.49        , 3           , 12          , 0.05659164  , 0
-0.112547137, 0.0982380062, -9.802181   , -0.0011468383, 0.0006733999, -0.00131739222, -0.18032898 , -0.164419577, 0.4495079   , -0.009473442, -0.0121350642, 2.429455    , 3.5         , 3           , 50          , 0           , 0
-0.11133565 , 0.121239096 , -9.802981   , 0.000541078858, 0.00209268648, -0.000742246048, -0.1803964  , -0.164082512, 0.449642718 , -0.009467939, -0.0121142082, 2.42944741  , 3.51        , 3           , 11          , 0.00675288541, 0.00675287237
-0.107246675, 0.08467595  , -9.813045   , 0.00168431108, -0.000433754438, 0.000954340969, -0.1803964  , -0.164284751, 0.449912369 , -0.009451212, -0.012118456, 2.429457    , 3.52        , 3           , 12          , 0.0576219447, 0
-0.122703075, 0.08971654  , -9.782408   , -1.4758175E-05, 0.000399479381, 0.000382666185, -0.1803964  , -0.164486989, 0.449710131 , -0.009451406, -0.0121144261, 2.42946076  , 3.53        , 3           , 50          , 0           , 0
-0.13698405 , 0.101660416 , -9.795575   , -0.00114200381, -0.000171292166, -0.00018854416, -0.1803964  , -0.164486989, 0.449710131 , -0.009462803, -0.0121161565, 2.42945886  , 3.54        , 3           , 11          , 0.00675288541, 0.00675287237
-0.09201783 , 0.107050553 , -9.810576   , 0.0005418203, 0.00181111833, -0.00187282986, -0.1803964  , -0.164217338, 0.449710131 , -0.009457155, -0.0120982239, 2.42943978  , 3.55        , 3           , 12          , 0.0576219447, 0
-0.103773072, 0.0751396   , -9.807182   , -0.000293166144, -0.000447126571, 9.750996E-05, -0.1804638  , -0.1640151  , 0.449710131 , -0.009460099, -0.0121026859, 2.42944074  , 3.56        , 3           , 50          , 0           , 0
-0.119374663, 0.0902544558, -9.819442   , -0.000290956377, -0.0007286878, 0.00150976353, -0.180194154, -0.1645544  , 0.449710131 , -0.009463192, -0.0121098282, 2.429456    , 3.57        , 3           , 11          , 0.00675288541, 0.00675287237
-0.115348212, 0.09507705  , -9.791821   , -0.000306038448, 0.00208695745, -0.000463659351, -0.180194154, -0.1645544  , 0.449710131 , -0.009466194, -0.0120890029, 2.42945123  , 3.58        , 3           , 12          , 0.0576219447, 0
-0.111839727, 0.08735438  , -9.788662   , -0.000295464677, 0.000116005918, 0.000945990265, -0.180531219, -0.164284751, 0.449844956 , -0.009469263, -0.0120877549, 2.42946076  , 3.59        , 3           , 50          , 0           , 0
-0.105412483, 0.08556606  , -9.815739   , 0.00027674032, -0.0009864661, -0.00103066931, -0.1803964  , -0.1640151  , 0.449777544 , -0.009459414, -0.0120499907, 2.42945075  , 3.6         , 3           , 11          , 0.00666930526, 0.006669292
-0.105775639, 0.09591006  , -9.804399   , -0.0002949203, 0.0004175403, -0.0007485959, -0.180126742, -0.164217338, 0.449844956 , -0.009462274, -0.0120458864, 2.4294436   , 3.61        , 3           , 12          , 0.0586598478, 0
-0.112401024, 0.07923746  , -9.788248   , 0.000844960043, -0.001827345, -0.00244202465, -0.180126742, -0.164217338, 0.449844956 , -0.009453533, -0.012064388, 2.4294188   , 3.62        , 3           , 50          , 0           , 0
-0.137342051, 0.0736966   , -9.797953   , 0.00054678414, 0.00154953031, -0.0007429094, -0.180261567, -0.164217338, 0.449710131 , -0.009447972, -0.0120489644, 2.42941117  , 3.63        , 3           , 11          , 0.00666930526, 0.006669292
-0.139428213, 0.07966979  , -9.822351   , -9.379146E-06, -0.000143678277, -0.000183071912, -0.1804638  , -0.164284751, 0.449710131 , -0.009448043, -0.0120504191, 2.42940974  , 3.64        , 3           , 12          , 0.0586598478, 0
-0.104805842, 0.0746008   , -9.777813   , 0.00196474651, 0.0001512495, -0.002716257, -0.180194154, -0.164419577, 0.449912369 , -0.009428069, -0.0120491637, 2.42938256  , 3.65        , 3           , 50          , 0           , 0
-0.09736942 , 0.117000356 , -9.798823   , -0.0003068137, 0.00295162946, 0.000385459134, -0.180194154, -0.164419577, 0.449912369 , -0.009431181, -0.012019611, 2.42938638  , 3.66        , 3           , 11          , 0.00666930526, 0.006669292
-0.119238511, 0.105540678 , -9.803559   , -4.381407E-06, -0.0009883698, 0.00122831343, -0.1804638  , -0.164352164, 0.449710131 , -0.009431374, -0.0120293777, 2.42939878  , 3.67        , 3           , 12          , 0.0586598478, 0
-0.12758714 , 0.0943167657, -9.791465   , 0.00393409654, 0.002135585 , 0.0009689864, -0.180261567, -0.163947687, 0.449777544 , -0.009392147, -0.0120079312, 2.42940831  , 3.68        , 3           , 50          , 0           , 0
-0.113614939, 0.118128791 , -9.809339   , 0.00167969475, 0.0007124705, -0.00243416848, -0.1803964  , -0.164352164, 0.449710131 , -0.009375057, -0.0120010348, 2.42938352  , 3.69        , 3           , 11          , 0.00666930526, 0.006669292
-0.13379249 , 0.101194732 , -9.802332   , 0.00026625552, -0.00267048832, -0.000467895326, -0.1803964  , -0.164352164, 0.449710131 , -0.009419488, -0.0120145995, 2.4293797   , 3.7         , 3           , 12          , 0.05970473  , 0
-0.141729251, 0.08502249  , -9.796132   , -0.00200603134, -0.000151683635, -0.00103960047, -0.1804638  , -0.164284751, 0.449642718 , -0.009439424, -0.0120162126, 2.42936921  , 3.71        , 3           , 50          , 0           , 0
-0.128218   , 0.08034092  , -9.792884   , 0.00279251114, 0.000725488062, 0.00152692653, -0.1803964  , -0.164149925, 0.449844956 , -0.009411681, -0.0120088169, 2.42938447  , 3.72        , 3           , 11          , 0.006587497 , 0.006587485
-0.118985333, 0.097785674 , -9.779633   , 0.001106566 , -0.00125693285, -0.000461774878, -0.180126742, -0.164352164, 0.449844956 , -0.009400562, -0.012021427, 2.42938018  , 3.73        , 3           , 12          , 0.05970473  , 0
-0.127640367, 0.09293458  , -9.782884   , -0.002281325, -0.00156141818, -0.0007605495, -0.180059329, -0.164284751, 0.449642718 , -0.009423285, -0.0120371124, 2.429373    , 3.74        , 3           , 50          , 0           , 0
-0.134470552, 0.08896606  , -9.786568   , 0.0008246285, -0.00125884044, 0.000384520419, -0.180059329, -0.164284751, 0.449642718 , -0.009415086, -0.0120496629, 2.42937684  , 3.75        , 3           , 11          , 0.006587497 , 0.006587485
-0.12228246 , 0.09414865  , -9.760239   , -0.000321969885, 0.00211229967, 0.000101922364, -0.180261567, -0.164149925, 0.449710131 , -0.009418316, -0.0120285312, 2.42937779  , 3.76        , 3           , 12          , 0.05970473  , 0
-0.136088356, 0.103427179 , -9.787424   , 0.00110500888, -0.0009753687, -0.0007438784, -0.180531219, -0.164352164, 0.449912369 , -0.009407178, -0.0120383557, 2.42937016  , 3.77        , 3           , 50          , 0           , 0
-0.120545633, 0.11184705  , -9.795858   , -0.00172278879, -0.000149769767, 0.000374403724, -0.180261567, -0.164352164, 0.449777544 , -0.00942445 , -0.012039816, 2.429374    , 3.78        , 3           , 11          , 0.006587497 , 0.006587485
-0.107486837, 0.107617408 , -9.791257   , 0.000837011554, -0.00379292667, 9.80774857E-05, -0.180261567, -0.164352164, 0.449777544 , -0.009416097, -0.0120777348, 2.42937541  , 3.79        , 3           , 12          , 0.05970473  , 0
-0.101879239, 0.09125395  , -9.775462   , 0.002761771 , 0.00127048069, 0.000397825352, -0.1804638  , -0.164284751, 0.449710131 , -0.009457518, -0.0121108349, 2.42938018  , 3.8         , 3           , 50          , 0           , 0
-0.121735036, 0.08841746  , -9.80184    , -0.000366650027, 0.00547294365, -0.00102283922, -0.18032898 , -0.164082512, 0.449844956 , -0.009461057, -0.0120562054, 2.42936921  , 3.81        , 3           , 11          , 0.00650839834, 0.006508386
-0.122958109, 0.09747004  , -9.80588    , 0.00415889733, 0.00437724777, 0.0009742583, -0.180194154, -0.164217338, 0.449777544 , -0.009419579, -0.0120123429, 2.42937875  , 3.82        , 3           , 12          , 0.060755983 , 0
-0.115675375, 0.103664823 , -9.79495049 , 0.00164632965, -0.00155280821, 0.000953293231, -0.180194154, -0.164217338, 0.449777544 , -0.00940323249, -0.01202778 , 2.42938828  , 3.83        , 3           , 50          , 0           , 0
-0.105842158, 0.0967488661, -9.785414   , -0.00146545179, -0.000447555358, 0.00178815518, -0.1803964  , -0.164217338, 0.449710131 , -0.009418102, -0.01203209 , 2.4294064   , 3.84        , 3           , 11          , 0.00650839834, 0.006508386
-0.135297462, 0.09707473  , -9.77976    , 0.00107564835, -0.00014879735, 0.00293059135, -0.180261567, -0.1640151  , 0.449912369 , -0.0094077  , -0.0120332986, 2.429436    , 3.85        , 3           , 12          , 0.060755983 , 0
-0.125779971, 0.0965240449, -9.783306   , 0.0007858506, 0.000975544332, -0.000176901856, -0.18032898 , -0.164217338, 0.449777544 , -0.009399819, -0.0120235607, 2.429434    , 3.86        , 3           , 50          , 0           , 0
-0.110494673, 0.089559406 , -9.778246   , 0.00162911229, 0.00182597036, 0.000110887995, -0.18032898 , -0.164217338, 0.449777544 , -0.009383539, -0.0120052919, 2.429435    , 3.87        , 3           , 11          , 0.00650839834, 0.006508386
-0.11870873 , 0.07621278  , -9.805936   , -0.0023132218, -0.000453287677, 0.0009365918, -0.180598632, -0.164217338, 0.449912369 , -0.009406784, -0.0120097371, 2.42944455  , 3.88        , 3           , 12          , 0.060755983 , 0
-0.133277267, 0.0647134259, -9.824174   , -0.0003362339, -0.000439917785, 0.000945810461, -0.18032898 , -0.164217338, 0.449844956 , -0.00941026 , -0.0120140463, 2.429454    , 3.89        , 3           , 50          , 0           , 0
-0.113168351, 0.0847163349, -9.804502   , 0.00108831888, -0.000163422257, 0.000387503271, -0.180261567, -0.164082512, 0.4500472   , -0.009362695, -0.0120536  , 2.429458    , 3.9         , 3           , 11          , 0.00643179473, 0.00643178029
-0.130980149, 0.0794433057, -9.784774   , -0.00200738735, -0.0024369536, 8.700807E-05, -0.180261567, -0.164082512, 0.4500472   , -0.009382783, -0.01207796 , 2.42945886  , 3.91        , 3           , 12          , 0.0618130565, 0
-0.148560658, 0.08953361  , -9.772209   , -0.000613375334, 0.00123294245, 9.923389E-05, -0.1804638  , -0.164419577, 0.449710131 , -0.009388928, -0.0120656211, 2.42945981  , 3.92        , 3           , 50          , 0           , 0
-0.137267858, 0.113407746 , -9.799144   , 0.00250184722, -0.000435437571, 0.000393654045, -0.180194154, -0.164217338, 0.449844956 , -0.009363958, -0.01206994 , 2.42946362  , 3.93        , 3           , 11          , 0.00643179473, 0.00643178029
-0.127449483, 0.0739703253, -9.779797   , -0.0003288131, 0.0006717192, -0.00103046687, -0.18032898 , -0.164352164, 0.449912369 , -0.009367121, -0.0120633189, 2.42945313  , 3.94        , 3           , 12          , 0.0618130565, 0
-0.1237312  , 0.08025451  , -9.782906   , -0.00145868352, 0.0006640786, -0.00131827209, -0.18032898 , -0.164352164, 0.449912369 , -0.009381547, -0.0120568033, 2.42943978  , 3.95        , 3           , 50          , 0           , 0
-0.101719588, 0.102988414 , -9.776768   , -0.002165611, 0.0008000853, -0.00160388486, -0.180261567, -0.164621815, 0.449642718 , -0.00940301 , -0.0120489523, 2.429424    , 3.96        , 3           , 11          , 0.00643179473, 0.00643178029
-0.14042151 , 0.08719728  , -9.776677   , -0.000193257176, 0.001798934 , -0.00116934138, -0.180261567, -0.164217338, 0.449979782 , -0.0094048  , -0.0120310746, 2.42941213  , 3.97        , 3           , 12          , 0.0618130565, 0
-0.132175446, 0.09075013  , -9.788351   , -0.000754217966, 0.00109120342, -0.0004667164, -0.180194154, -0.164149925, 0.449979782 , -0.009412285, -0.0120202079, 2.42940736  , 3.98        , 3           , 50          , 0           , 0
-0.111159839, 0.107172504 , -9.780438   , -0.00231002714, 0.00164383056, 9.19833255E-05, -0.179991916, -0.164352164, 0.449844956 , -0.009435394, -0.0120037626, 2.42940831  , 3.99        , 3           , 11          , 0.00643179473, 0.00643178029
-0.11516498 , 0.105937943 , -9.801718   , -0.00033240483, 0.00149137957, -0.000181774783, -0.179991916, -0.164352164, 0.449844956 , -0.009438409, -0.0120556336, 2.4294064   , 4           , 3           , 12          , 0.0628754348, 0
-0.132513255, 0.09754387  , -9.794653   , 0.00137269264, -0.000608898466, -3.585908E-05, -0.180261567, -0.164352164, 0.449912369 , -0.009424677, -0.0120617263, 2.42940545  , 4.01        , 3           , 50          , 0           , 0
-0.132579863, 0.0957044959, -9.784266   , 0.0006732249, -0.00188071467, 0.000523970753, -0.1803964  , -0.164486989, 0.449912369 , -0.009418011, -0.0120804822, 2.42941117  , 4.02        , 3           , 11          , 0.006356376 , 0.00635636272
-0.120052427, 0.08606032  , -9.777883   , -0.000742802047, -0.00118635374, -0.000187872691, -0.180059329, -0.164284751, 0.449979782 , -0.009425417, -0.0120923631, 2.42940927  , 4.03        , 3           , 12          , 0.0628754348, 0
-0.1394345  , 0.08635995  , -9.799273   , 0.0002396263, -5.341093E-05, -0.00102914008, -0.180059329, -0.164284751, 0.449979782 , -0.009422897, -0.0120929945, 2.42939878  , 4.04        , 3           , 50          , 0           , 0
-0.104937345, 0.09316682  , -9.7967205  , -0.000461235322, -0.001043662, -0.000468876184, -0.180194154, -0.164419577, 0.449979782 , -0.009427454, -0.0121034756, 2.42939448  , 4.05        , 3           , 11          , 0.006356376 , 0.00635636272
-0.124295607, 0.09794924  , -9.809504   , -0.00173051725, -0.00133382075, -5.14301755E-05, -0.180531219, -0.164284751, 0.449979782 , -0.009444753, -0.01211682 , 2.429394    , 4.06        , 3           , 12          , 0.0628754348, 0
-0.116183877, 0.09380528  , -9.813075   , -0.00144612556, -0.00161347329, 0.000938333862, -0.180261567, -0.164486989, 0.449642718 , -0.009459332, -0.0121328644, 2.42940354  , 4.07        , 3           , 50          , 0           , 0
-0.115403526, 0.0883370042, -9.799984   , -0.00116718363, -0.0009076506, 0.000940735568, -0.180261567, -0.164486989, 0.449642718 , -0.009471119, -0.0121418517, 2.429413    , 4.08        , 3           , 11          , 0.006356376 , 0.00635636272
-0.143151581, 0.0791840553, -9.799331   , -0.000320926483, -0.000761139556, 0.000379828474, -0.18032898 , -0.164284751, 0.449844956 , -0.009474375, -0.0121494271, 2.429417    , 4.09        , 3           , 12          , 0.0628754348, 0
-0.108693182, 0.08908397  , -9.777331   , -0.0005869009, -0.002472494, 0.000799497531, -0.1804638  , -0.164486989, 0.4500472   , -0.009458868, -0.0122289555, 2.42942548  , 4.1         , 3           , 50          , 0           , 0
-0.099628374, 0.09121679  , -9.772281   , -0.000446629245, -0.00233075768, 0.00037656675, -0.18032898 , -0.164352164, 0.449979782 , -0.009463384, -0.0122522237, 2.42942929  , 4.11        , 3           , 11          , 0.006283553 , 0.00628354168
-0.100619614, 0.07866019  , -9.791776   , 0.000819946232, -0.00147746841, 0.000101257319, -0.18032898 , -0.164352164, 0.449979782 , -0.009455199, -0.0122669879, 2.42943072  , 4.12        , 3           , 12          , 0.06394261  , 0
-0.105064705, 0.079673104 , -9.808981   , 0.00279435352, -0.00104175345, -0.0007364857, -0.18032898 , -0.164284751, 0.449912369 , -0.009427166, -0.0122774737, 2.42942357  , 4.13        , 3           , 50          , 0           , 0
-0.105039187, 0.0890671462, -9.7849865  , 0.000673898146, -0.0006337313, -0.00102824927, -0.1803964  , -0.164217338, 0.4500472   , -0.009420301, -0.0122839082, 2.429413    , 4.14        , 3           , 11          , 0.006283553 , 0.00628354168
-0.119502306, 0.0941681638, -9.775584   , -0.000885722344, 0.0006228067, -0.00103353965, -0.180598632, -0.164149925, 0.449979782 , -0.009429031, -0.0122777773, 2.42940259  , 4.15        , 3           , 12          , 0.06394261  , 0
-0.114987269, 0.084284924 , -9.804066   , -4.0080613E-05, 0.0009101005, -0.00145296124, -0.180598632, -0.164149925, 0.449979782 , -0.009429252, -0.0122688115, 2.42938828  , 4.16        , 3           , 50          , 0           , 0
-0.105484091, 0.09220331  , -9.776841   , 0.000105270512, 0.000207145931, -0.0003232377, -0.1804638  , -0.164419577, 0.449844956 , -0.009428159, -0.01226677 , 2.429385    , 4.17        , 3           , 11          , 0.006283553 , 0.00628354168
-0.115875751, 0.0923437   , -9.782345   , -0.0004581891, -7.82390562E-05, -0.000326305482, -0.18032898 , -0.164284751, 0.4501146   , -0.009432702, -0.012267583, 2.42938161  , 4.18        , 3           , 12          , 0.06394261  , 0
-0.137431651, 0.09854547  , -9.80689049 , -0.00131354446, 0.001464637 , -0.00103421323, -0.1803964  , -0.164352164, 0.449979782 , -0.009445708, -0.0122530367, 2.429371    , 4.19        , 3           , 50          , 0           , 0
-0.139748812, 0.09718987  , -9.798326   , -0.000178237926, 0.001763717 , 0.000525507145, -0.1803964  , -0.164352164, 0.449979782 , -0.009430449, -0.01220764 , 2.42937636  , 4.2         , 3           , 11          , 0.006212176 , 0.006212163
-0.166055441, 0.09701528  , -9.789036   , -0.00101465546, -0.000353749376, 0.00122464541, -0.180194154, -0.164284751, 0.449912369 , -0.009440746, -0.0122110629, 2.42938828  , 4.21        , 3           , 12          , 0.06501411  , 0
-0.126614526, 0.09927031  , -9.791889   , -0.00200015376, -0.00106434943, 0.000371338829, -0.180261567, -0.164352164, 0.449979782 , -0.009460795, -0.0122216744, 2.429392    , 4.22        , 3           , 50          , 0           , 0
-0.08236531 , 0.125355989 , -9.78647    , 0.0013797438, 0.00078874256, 0.000107425229, -0.179991916, -0.164419577, 0.4501146   , -0.009447009, -0.012213774, 2.429393    , 4.23        , 3           , 11          , 0.006212176 , 0.006212163
-0.117813341, 0.112720475 , -9.796738   , 0.0023597104, 0.00248481729, -0.000167899256, -0.18032898 , -0.1645544  , 0.4500472   , -0.009423388, -0.0121889431, 2.42939162  , 4.24        , 3           , 12          , 0.06501411  , 0
-0.122681342, 0.08884145  , -9.790545   , -0.000324122782, 0.00260745478, -0.0003214619, -0.18032898 , -0.1645544  , 0.4500472   , -0.009426587, -0.0121629  , 2.42938828  , 4.25        , 3           , 50          , 0           , 0
-0.0988926962, 0.105723895 , -9.794814   , -0.000461154152, 0.00176180445, -0.0003234222, -0.1804638  , -0.164284751, 0.4500472   , -0.009431159, -0.0121453144, 2.42938447  , 4.26        , 3           , 11          , 0.006212176 , 0.006212163
-0.120344862, 0.0911054   , -9.800914   , 0.000109275476, 0.000639364065, -0.000322524051, -0.18032898 , -0.164149925, 0.450182021 , -0.009430026, -0.0121389516, 2.42938161  , 4.27        , 3           , 12          , 0.06501411  , 0
-0.114308961, 0.094282046 , -9.82707    , -0.00172219088, -0.000358531222, -0.00132148422, -0.18032898 , -0.164352164, 0.449844956 , -0.00944708753, -0.012142662, 2.42936826  , 4.28        , 3           , 50          , 0           , 0
-0.111130409, 0.104071885 , -9.797627   , -0.00115836062, -0.000213930325, -0.00188370841, -0.18032898 , -0.164352164, 0.449844956 , -0.009458444, -0.0121449828, 2.42934918  , 4.29        , 3           , 11          , 0.006212176 , 0.006212163
-0.09899402 , 0.10742721  , -9.764525   , 0.0007907323, 0.00163873273, -0.0007411755, -0.180261567, -0.164419577, 0.4501146   , -0.009506524, -0.0121024391, 2.42934251  , 4.3         , 3           , 12          , 0.0660895258, 0
-0.1301305  , 0.10698694  , -9.79324    , 0.000229237645, 0.00107178546, 0.000244203868, -0.1803964  , -0.164352164, 0.450182021 , -0.0095042605, -0.0120916963, 2.429345    , 4.31        , 3           , 50          , 0           , 0
-0.117642909, 0.0612302162, -9.782487   , 0.00108308042, -0.000330311974, -0.000460358569, -0.1803964  , -0.164419577, 0.449844956 , -0.009493376, -0.0120950462, 2.4293406   , 4.32        , 3           , 11          , 0.006143048 , 0.006143033
-0.1241355  , 0.04511158  , -9.797067   , 0.00192802527, 9.77643649E-05, -0.000879563, -0.1803964  , -0.164419577, 0.449844956 , -0.00947399 , -0.01209415 , 2.42933154  , 4.33        , 3           , 12          , 0.0660895258, 0
-0.117762677, 0.08560829  , -9.78555    , 0.000935594 , 0.000935775868, -0.000459064177, -0.180126742, -0.164352164, 0.449777544 , -0.009464579, -0.0120848361, 2.42932725  , 4.34        , 3           , 50          , 0           , 0
-0.118053094, 0.09601125  , -9.791837   , 0.000233627186, 8.630518E-05, -0.0006049271, -0.18032898 , -0.164217338, 0.4500472   , -0.009462169, -0.0120840324, 2.42932057  , 4.35        , 3           , 11          , 0.006143048 , 0.006143033
-0.126639739, 0.0903228745, -9.814526   , 0.00122941751, -0.00131483364, -3.74126E-05, -0.180261567, -0.164486989, 0.449710131 , -0.009449872, -0.0120971827, 2.42932057  , 4.36        , 3           , 12          , 0.0660895258, 0
-0.117056631, 0.09785965  , -9.808092   , 0.000803723466, -0.0007545648, 0.00123289844, -0.180261567, -0.164486989, 0.449710131 , -0.009441985, -0.012104609, 2.429333    , 4.37        , 3           , 50          , 0           , 0
-0.141558424, 0.09676603  , -9.80015    , -0.000901166757, 0.00120492815, 0.000239153276, -0.180194154, -0.164217338, 0.449844956 , -0.009451024, -0.0120925382, 2.42933536  , 4.38        , 3           , 11          , 0.006143048 , 0.006143033
-0.123882346, 0.09746556  , -9.801367   , 0.0006444767, 0.002623255 , -0.00102285249, -0.18032898 , -0.164217338, 0.4500472   , -0.009444452, -0.0120664043, 2.42932487  , 4.39        , 3           , 12          , 0.0660895258, 0
-0.132925108, 0.102492206 , -9.78876    , 0.00135879649, 0.00120715075, -0.000880528765, -0.180261567, -0.1645544  , 0.449912369 , -0.009427209, -0.0120928977, 2.42931628  , 4.4         , 3           , 50          , 0           , 0
-0.113980338, 0.100425042 , -9.776873   , 0.000380179263, -0.0006297035, 0.0005247288, -0.180261567, -0.1645544  , 0.449912369 , -0.009423471, -0.012099144, 2.42932153  , 4.41        , 3           , 11          , 0.006075793 , 0.0060757813
-0.135575563, 0.0687293   , -9.802932   , 0.000661538332, -0.000346226851, 0.00109155441, -0.180733457, -0.1645544  , 0.449912369 , -0.009416989, -0.0121025043, 2.42933249  , 4.42        , 3           , 12          , 0.06716845  , 0
-0.124872491, 0.0889269859, -9.80819    , 0.0006555544, 0.0007800316, 0.000386946544, -0.180194154, -0.164082512, 0.4501146   , -0.009410479, -0.0120946681, 2.42933631  , 4.43        , 3           , 50          , 0           , 0
-0.107218944, 0.09451813  , -9.788145   , 0.0007945952, 0.00120333373, 0.000246987271, -0.18032898 , -0.164284751, 0.450182021 , -0.009402561, -0.0120826121, 2.42933869  , 4.44        , 3           , 11          , 0.006075793 , 0.0060757813
-0.131228283, 0.08898781  , -9.804171   , 0.00192709058, 0.0006478435, 0.0002513872, -0.18032898 , -0.164284751, 0.450182021 , -0.009383321, -0.0120761106, 2.429341    , 4.45        , 3           , 12          , 0.06716845  , 0
-0.105958328, 0.08326422  , -9.800385   , 0.00193098374, -5.60672561E-05, 0.000956646 , -0.180059329, -0.164352164, 0.4500472   , -0.009364125, -0.0120765818, 2.42935061  , 4.46        , 3           , 50          , 0           , 0
-0.109072663, 0.0873633   , -9.800844   , 0.0005229498, -0.0009103127, 0.0008074907, -0.180531219, -0.164149925, 0.449979782 , -0.009358993, -0.0120856073, 2.42935872  , 4.47        , 3           , 11          , 0.006075793 , 0.0060757813
-0.140708029, 0.09269354  , -9.799707   , 0.000663466344, -0.000768575235, 0.0008083661, -0.180194154, -0.164486989, 0.450182021 , -0.009352457, -0.0120932171, 2.4293673   , 4.48        , 3           , 12          , 0.06716845  , 0
-0.09110084 , 0.0874839   , -9.765451   , -0.00018738069, -7.039281E-05, 0.0006642314, -0.180194154, -0.164486989, 0.450182021 , -0.009354412, -0.01209386 , 2.429374    , 4.49        , 3           , 50          , 0           , 0
-0.112238541, 0.09231328  , -9.785933   , -0.00145462563, 0.0003465063, -0.000329970935, -0.1804638  , -0.164419577, 0.449912369 , -0.009349785, -0.012080919, 2.42937016  , 4.5         , 3           , 11          , 0.0060105524, 0.00601054
-0.131035924, 0.102087826 , -9.809087   , -0.001029799, 0.000208591111, 0.000519399939, -0.180194154, -0.164352164, 0.4500472   , -0.009360145, -0.0120787853, 2.42937541  , 4.51        , 3           , 12          , 0.06825051  , 0
-0.115157738, 0.108175561 , -9.796285   , 0.0005341667, -0.00189264107, 0.000805926 , -0.180261567, -0.164284751, 0.449979782 , -0.009354902, -0.0120976334, 2.42938352  , 4.52        , 3           , 50          , 0           , 0
-0.118721232, 0.07441724  , -9.808656   , 0.00138259656, -0.00216847775, 0.000385636726, -0.180194154, -0.164284751, 0.449844956 , -0.009341126, -0.012119283, 2.42938733  , 4.53        , 3           , 11          , 0.0060105524, 0.00601054
-0.138851464, 0.09360176  , -9.807826   , 0.000393116439, -0.00189359568, 0.001087805 , -0.180194154, -0.164284751, 0.449844956 , -0.009337329, -0.0121381152, 2.42939878  , 4.54        , 3           , 12          , 0.06825051  , 0
-0.104784273, 0.1035569   , -9.800744   , -0.00228710612, -0.002615656, -5.59404725E-05, -0.18032898 , -0.164419577, 0.4500472   , -0.009360195, -0.0121642742, 2.4293983   , 4.55        , 3           , 50          , 0           , 0
-0.122581996, 0.08445844  , -9.828982   , -0.00215581385, -0.0006437464, -0.000334782031, -0.180261567, -0.164217338, 0.449979782 , -0.009381714, -0.0121707432, 2.429395    , 4.56        , 3           , 11          , 0.0060105524, 0.00601054
-0.138470426, 0.08728942  , -9.81056    , -0.001168306, -0.000355494471, 0.000376604759, -0.18032898 , -0.164352164, 0.449844956 , -0.009393443, -0.0121742627, 2.42939878  , 4.57        , 3           , 12          , 0.06825051  , 0
-0.122453868, 0.101523571 , -9.805408   , 0.000663494051, 0.000360830658, -0.000461362652, -0.18032898 , -0.164352164, 0.449844956 , -0.009386752, -0.0121706976, 2.429394    , 4.58        , 3           , 50          , 0           , 0
-0.1487197  , 0.103613809 , -9.7988205  , 0.002495865 , 0.00107715849, -0.000310449, -0.18032898 , -0.164217338, 0.449979782 , -0.009361753, -0.0121599557, 2.42939115  , 4.59        , 3           , 11          , 0.0060105524, 0.00601054
-0.129928648, 0.09026334  , -9.7856245  , 0.0006649224, -0.00134884845, 0.000948705769, -0.180261567, -0.164149925, 0.449844956 , -0.009379164, -0.0122360438, 2.42940164  , 4.6         , 3           , 12          , 0.06933534  , 0
-0.117539406, 0.102750525 , -9.785027   , 0.001086227 , -0.000923637, 0.000527526 , -0.1804638  , -0.164486989, 0.449979782 , -0.009368368, -0.01224523 , 2.4294064   , 4.61        , 3           , 50          , 0           , 0
-0.149407521, 0.08825277  , -9.790752   , 0.00108458835, -0.00064207305, 0.000104153674, -0.1804638  , -0.164486989, 0.449979782 , -0.009357536, -0.01225164 , 2.42940784  , 4.62        , 3           , 11          , 0.005946733 , 0.005946717
-0.112342112, 0.08330235  , -9.789587   , -0.00145470991, -0.001222394, -0.0003323729, -0.180126742, -0.164217338, 0.449979782 , -0.009372042, -0.0122638931, 2.4294045   , 4.63        , 3           , 12          , 0.06933534  , 0
-0.111082032, 0.109020948 , -9.793538   , -0.001320548, 0.00018638582, -0.000470813538, -0.1804638  , -0.164352164, 0.4500472   , -0.009385189, -0.0122620733, 2.42939973  , 4.64        , 3           , 50          , 0           , 0
-0.1124253  , 0.0792178   , -9.782372   , 0.000792195729, 0.00146775728, 0.000953703537, -0.18032898 , -0.164149925, 0.449844956 , -0.009377383, -0.0122473082, 2.42940927  , 4.65        , 3           , 11          , 0.005946733 , 0.005946717
-0.123609625, 0.08838733  , -9.786488   , 0.00136774918, -0.0006401597, 0.00137688918, -0.18032898 , -0.164149925, 0.449844956 , -0.009363876, -0.0122535788, 2.429423    , 4.66        , 3           , 12          , 0.06933534  , 0
-0.143870428, 0.09987809  , -9.778459   , 0.0002476812, -0.00275954162, -4.43204954E-05, -0.18032898 , -0.164352164, 0.449912369 , -0.009361397, -0.0122811766, 2.429423    , 4.67        , 3           , 50          , 0           , 0
-0.133770972, 0.1025512   , -9.80323    , 9.995001E-05, -0.00149345491, -0.0004668324, -0.1804638  , -0.164352164, 0.4501146   , -0.009360342, -0.0122961523, 2.4294188   , 4.68        , 3           , 11          , 0.005946733 , 0.005946717
-0.121400371, 0.09010185  , -9.76748    , -0.00145336043, -0.00136317348, 0.000797560031, -0.18032898 , -0.164486989, 0.450249434 , -0.009374974, -0.01230971 , 2.42942643  , 4.69        , 3           , 12          , 0.06933534  , 0
-0.116031177, 0.111336693 , -9.794019   , -0.0015992535, -0.001520014, 0.00136173936, -0.18032898 , -0.164486989, 0.450249434 , -0.009409159, -0.0123725152, 2.42944074  , 4.7         , 3           , 50          , 0           , 0
-0.1313291  , 0.121415541 , -9.785957   , -0.00103247212, -0.00193854247, 0.00108118472, -0.1803964  , -0.164419577, 0.4500472   , -0.009419621, -0.0123917982, 2.42945218  , 4.71        , 3           , 11          , 0.00588497147, 0.00588495424
-0.136115   , 0.09760303  , -9.799652   , -0.001591379, -0.00320940674, 0.0005115233, -0.180261567, -0.164149925, 0.450249434 , -0.0094356  , -0.0124238422, 2.429457    , 4.72        , 3           , 12          , 0.0704226047, 0
-0.1283516  , 0.10113699  , -9.804098   , -0.002159755, -0.00265009981, -0.0007616615, -0.180194154, -0.164217338, 0.449912369 , -0.009457107, -0.0124504147, 2.4294498   , 4.73        , 3           , 50          , 0           , 0
-0.1025887  , 0.09677969  , -9.805727   , -0.002871235, -0.001528614, -0.0004806806, -0.180194154, -0.164217338, 0.449912369 , -0.009485762, -0.0124657461, 2.42944551  , 4.74        , 3           , 11          , 0.00588497147, 0.00588495424
-0.127732858, 0.08125454  , -9.797848   , -0.00244747568, -0.0013849627, 0.000934199139, -0.180194154, -0.164419577, 0.449979782 , -0.009510355, -0.0124795064, 2.429455    , 4.75        , 3           , 12          , 0.0704226047, 0
-0.1262383  , 0.0889368951, -9.806393   , 0.0005252205, -0.00277273171, 0.00136966363, -0.180598632, -0.164217338, 0.450182021 , -0.009505275, -0.0125071015, 2.42946839  , 4.76        , 3           , 50          , 0           , 0
-0.113782369, 0.105941661 , -9.807582   , 0.0034856603, -0.00176720007, 0.00110247266, -0.180126742, -0.164217338, 0.4501146   , -0.009470559, -0.0125246681, 2.42947984  , 4.77        , 3           , 11          , 0.00588497147, 0.00588495424
-0.126845017, 0.115078017 , -9.795442   , 0.0022040396, 0.0003359416, 0.00067599467, -0.180261567, -0.1645544  , 0.449979782 , -0.009448603, -0.0125212437, 2.42948651  , 4.78        , 3           , 12          , 0.0704226047, 0
-0.116990954, 0.108625285 , -9.789516   , 0.000366136926, 0.000605088368, -0.0006035501, -0.180261567, -0.1645544  , 0.449979782 , -0.00944486447, -0.0125152515, 2.42948031  , 4.79        , 3           , 50          , 0           , 0
-0.110803686, 0.09235932  , -9.804453   , -0.0009255677, 0.000174574059, -0.00159870472, -0.180261567, -0.164082512, 0.4500472   , -0.009526007, -0.012512262, 2.42946553  , 4.8         , 3           , 11          , 0.00582477776, 0.005824758
-0.121134788, 0.0987976938, -9.804504   , -0.00148517883, -0.000673936, 0.000233853279, -0.180261567, -0.164149925, 0.450182021 , -0.009540889, -0.0125189787, 2.429468    , 4.81        , 3           , 12          , 0.07151197  , 0
-0.135293558, 0.08458007  , -9.820944   , -0.00162659981, -0.000534106046, 0.0010810243, -0.1804638  , -0.164082512, 0.4500472   , -0.009557293, -0.0125242164, 2.429479    , 4.82        , 3           , 50          , 0           , 0
-0.142923549, 0.09008123  , -9.820075   , -0.00120213651, -0.000812809, 9.36845E-05 , -0.1804638  , -0.164082512, 0.4500472   , -0.00956932548, -0.012532332, 2.42947984  , 4.83        , 3           , 11          , 0.00582477776, 0.005824758
-0.120788231, 0.0937964544, -9.794579   , 6.813152E-05, -0.000804217241, -0.00103053916, -0.180126742, -0.164419577, 0.4500472   , -0.009568516, -0.0125404727, 2.42946935  , 4.84        , 3           , 12          , 0.07151197  , 0
-0.11631918 , 0.08476866  , -9.809046   , 0.00147801149, -0.0003723205, -0.001305841, -0.180194154, -0.164082512, 0.4501146   , -0.009553573, -0.01254432 , 2.429457    , 4.85        , 3           , 50          , 0           , 0
-0.0977945849, 0.0813941658, -9.809369   , 0.0003547403, -0.00164700253, -0.00103052391, -0.180194154, -0.164419577, 0.4501146   , -0.009549898, -0.012560891, 2.42944646  , 4.86        , 3           , 11          , 0.00582477776, 0.005824758
-0.123823032, 0.112243183 , -9.7683115  , 0.001198699 , -0.0009373591, -0.0007429509, -0.180194154, -0.164419577, 0.4501146   , -0.00953782 , -0.0125703318, 2.42943931  , 4.87        , 3           , 12          , 0.07151197  , 0
-0.118860021, 0.105921507 , -9.784119   , 0.00245949067, 0.00118297536, -0.0001686953, -0.180194154, -0.164284751, 0.449912369 , -0.009513202, -0.012558518, 2.4294374   , 4.88        , 3           , 50          , 0           , 0
-0.1327964  , 0.110184439 , -9.79550648 , 0.000201551826, 0.000886130962, -3.83959559E-05, -0.180126742, -0.163947687, 0.450182021 , -0.00951118 , -0.0125496611, 2.429437    , 4.89        , 3           , 11          , 0.00582477776, 0.005824758
-0.127034023, 0.07393478  , -9.770754   , -0.0005252735, 0.002150337 , -0.000604513451, -0.180194154, -0.164419577, 0.4500472   , -0.009563131, -0.0125218062, 2.42943215  , 4.9         , 3           , 12          , 0.0726031438, 0
-0.130360261, 0.0911785   , -9.787884   , -0.000242602051, 0.002152248 , -0.000179390379, -0.180194154, -0.164419577, 0.4500472   , -0.009565532, -0.0125003057, 2.42943025  , 4.91        , 3           , 50          , 0           , 0
-0.142575666, 0.08686645  , -9.804718   , -0.00305252266, -0.000682500366, 0.0005094446, -0.1803964  , -0.164284751, 0.449979782 , -0.009596122, -0.0125070792, 2.429435    , 4.92        , 3           , 11          , 0.00576596241, 0.00576594
-0.100347623, 0.101198092 , -9.785805   , -0.00290860259, -0.001244676, 0.000367966422, -0.180059329, -0.164284751, 0.4500472   , -0.009625255, -0.0125194909, 2.42943883  , 4.93        , 3           , 12          , 0.0726031438, 0
-0.1355554  , 0.07588725  , -9.784823   , 5.08952326E-05, -9.83629652E-05, -0.000322813634, -0.180194154, -0.164352164, 0.449912369 , -0.009624707, -0.0125205042, 2.429436    , 4.94        , 3           , 50          , 0           , 0
-0.146379456, 0.08095934  , -9.779461   , 0.0007580671, -0.00023436865, 0.000386605418, -0.180194154, -0.164352164, 0.449912369 , -0.009617175, -0.012522812, 2.42943978  , 4.95        , 3           , 11          , 0.00576596241, 0.00576594
-0.0981787145, 0.09618467  , -9.778577   , 5.728698E-05, -0.00122461934, 0.001088138 , -0.180126742, -0.164621815, 0.449912369 , -0.009616739, -0.0125349518, 2.42945075  , 4.96        , 3           , 12          , 0.0726031438, 0
-0.08697304 , 0.118202813 , -9.790152   , -0.000509450037, -0.0009468765, 0.000238325549, -0.1804638  , -0.1640151  , 0.4500472   , -0.009621865, -0.0125443973, 2.42945313  , 4.97        , 3           , 50          , 0           , 0
-0.125812992, 0.0947118849, -9.781055   , -9.064449E-05, -9.931946E-05, -0.000888547162, -0.180059329, -0.164217338, 0.4500472   , -0.009622659, -0.0125454767, 2.42944455  , 4.98        , 3           , 11          , 0.00576596241, 0.00576594
-0.138040692, 0.0863727257, -9.807849   , -9.2283226E-05, 0.0001822444, -0.00131191942, -0.180059329, -0.164217338, 0.4500472   , -0.009623419, -0.0125437817, 2.4294312   , 4.99        , 3           , 12          , 0.0726031438, 0
-0.138422176, 0.0971482247, -9.790632   , 0.00119039707, -0.00177821447, 0.000244985247, -0.180059329, -0.164352164, 0.449777544 , -0.009607825, -0.0125551373, 2.429434    , 5           , 3           , 50          , 0           , 0
-0.143915311, 0.09716363  , -9.776211   , 0.00133472483, -0.002340388, 0.000809850637, -0.180261567, -0.164352164, 0.4500472   , -0.009594583, -0.0125784595, 2.42944264  , 5.01        , 3           , 11          , 0.005708738 , 0.005708715
-0.1394696  , 0.07918991  , -9.81376648 , -9.479004E-05, 0.0010288402, -0.0003216766, -0.18032898 , -0.164419577, 0.4501146   , -0.009595488, -0.0125682028, 2.42943883  , 5.02        , 3           , 12          , 0.07369589  , 0
-0.126704589, 0.0858068243, -9.81318951 , -9.749647E-05, 0.00159197068, -0.000179539944, -0.18032898 , -0.164486989, 0.449844956 , -0.009596439, -0.0125523005, 2.429437    , 5.03        , 3           , 50          , 0           , 0
-0.113927305, 0.0964508355, -9.802651   , -0.000509450852, -0.0008041983, -0.0004677413, -0.18032898 , -0.164486989, 0.449844956 , -0.009601476, -0.0125603881, 2.42943263  , 5.04        , 3           , 11          , 0.005708738 , 0.005708715
-0.107935935, 0.0724381953, -9.794569   , 0.0004813788, -0.00121985993, -3.997675E-05, -0.18032898 , -0.1640151  , 0.449979782 , -0.009596659, -0.0125725884, 2.42943215  , 5.05        , 3           , 12          , 0.07369589  , 0
-0.12639612 , 0.08479187  , -9.7811     , 0.00245290948, 6.055664E-05, 0.0013838819, -0.180261567, -0.164284751, 0.4501146   , -0.009572302, -0.0125718508, 2.42944646  , 5.06        , 3           , 50          , 0           , 0
-0.119812474, 0.108125888 , -9.765585   , 0.00160903228, -0.000649086141, 0.00123757753, -0.180261567, -0.164217338, 0.449912369 , -0.00955637 , -0.012578221, 2.42945886  , 5.07        , 3           , 11          , 0.005708738 , 0.005708715
-0.127286181, 0.1182172   , -9.7882     , 0.000338319078, -0.000798466, 0.000383822015, -0.180261567, -0.164217338, 0.449912369 , -0.009553035, -0.01258617 , 2.42946267  , 5.08        , 3           , 12          , 0.07369589  , 0
