Acc X       , Acc Y       , Acc Z       , Gyro X      , Gyro Y      , Gyro Z      , Magn X      , Magn Y      , Magn Z      , Euler X     , Euler Y     , Euler Z     , Time        , Status      , LowRate X   , LowRate Y   , LowRate Z    
-0.109062716, 0.060664475 , -9.778357   , -0.0006100635, -0.00218491978, -0.0003996883, -0.228326812, -0.133949041, 0.4527437   , -0.008941313, -0.00903656 , 2.631923    , 0           , 3           , 11          , 0.0346410163, 0.0346410163
-0.08933314 , 0.08162489  , -9.773598   , -0.000343868131, 0.000914201839, -0.00194755418, -0.228596464, -0.133949041, 0.452608883 , -0.008944576, -0.009027593, 2.631903    , 0.01        , 3           , 12          , 0.0346410163, 0
-0.09239207 , 0.112475716 , -9.812364   , 0.000784853 , 0.00120340881, -0.001235509, -0.228394225, -0.133881629, 0.4527437   , -0.008936615, -0.009015668, 2.63189054  , 0.02        , 3           , 50          , 0           , 0
-0.08823839 , 0.0929263   , -9.783487   , -0.000195239772, -0.0003518808, 2.89136678E-05, -0.228394225, -0.133881629, 0.4527437   , -0.00893857051, -0.009019185, 2.631891    , 0.03        , 3           , 11          , 0.0346410163, 0.0346410163
-0.07682188 , 0.09778176  , -9.791062   , 0.0009289732, 0.000782020041, 0.0001771859, -0.228596464, -0.13415128 , 0.452541471 , -0.008929297, -0.00901135 , 2.63189244  , 0.04        , 3           , 12          , 0.0346410163, 0
-0.06955619 , 0.07100696  , -9.771231   , 0.00035645254, 0.002326808 , 0.000176938658, -0.228326812, -0.1337468  , 0.4526763   , -0.008925745, -0.008988066, 2.63189435  , 0.05        , 3           , 50          , 0           , 0
-0.0808579251, 0.110359035 , -9.760306   , -0.00132904749, 0.000485174969, 0.000166216458, -0.22873129 , -0.133949041, 0.4527437   , -0.00893905 , -0.00898319948, 2.63189626  , 0.06        , 3           , 11          , 0.0346410163, 0.0346410163
-0.104333788, 0.100425273 , -9.810245   , -0.00117893622, -0.00134404388, -0.000118483025, -0.22873129 , -0.133949041, 0.4527437   , -0.00895082951, -0.008996649, 2.6318953   , 0.07        , 3           , 12          , 0.0346410163, 0
-0.111954048, 0.091204755 , -9.859156   , 0.00121386175, 0.000220797985, -0.0003874398, -0.228461638, -0.134016454, 0.452608883 , -0.008938656, -0.008994477, 2.631891    , 0.08        , 3           , 50          , 0           , 0
-0.08739931 , 0.0861665457, -9.788932   , 0.00304156123, 0.00178181881, -0.00108283677, -0.228596464, -0.133881629, 0.4527437   , -0.008908142, -0.008976755, 2.63188     , 0.09        , 3           , 11          , 0.0346410163, 0.0346410163
-0.09260938 , 0.07086319  , -9.782256   , 0.00219993829, 0.000649829 , -0.000947253953, -0.228394225, -0.1342187  , 0.452811122 , -0.008886058, -0.008970342, 2.63187051  , 0.1         , 3           , 12          , 0.0346410163, 0
-0.1113478  , 0.09496874  , -9.77371    , 0.000939428166, -0.00132971816, 0.000173932131, -0.228394225, -0.1342187  , 0.452811122 , -0.008876681, -0.008983623, 2.63187242  , 0.11        , 3           , 50          , 0           , 0
-0.0871435553, 0.106905892 , -9.784776   , 0.00221252115, -0.00174347067, 0.00032047616, -0.2282594  , -0.1342187  , 0.452608883 , -0.008854587, -0.009001029, 2.63187575  , 0.12        , 3           , 11          , 0.0346410163, 0.0346410163
-0.106958151, 0.07427147  , -9.806306   , 0.00121849577, -0.000764680968, -0.000812764163, -0.228461638, -0.134016454, 0.452811122 , -0.008842329, -0.009008746, 2.63186765  , 0.13        , 3           , 12          , 0.0346410163, 0
-0.069085896, 0.09950811  , -9.794613   , -0.0004883219, 0.00161716051, -0.00152332091, -0.228326812, -0.134016454, 0.4526763   , -0.008847073, -0.008992709, 2.63185239  , 0.14        , 3           , 50          , 0           , 0
-0.0629998147, 0.0800357   , -9.795099   , 0.00106350589, 0.00205001584, -0.0005265458, -0.228326812, -0.134016454, 0.4526763   , -0.00883639 , -0.008972256, 2.63184667  , 0.15        , 3           , 11          , 0.0346410163, 0.0346410163
-0.100885883, 0.0939925462, -9.788098   , -0.001185209, -7.700096E-05, -0.000116529533, -0.2282594  , -0.13415128 , 0.4526763   , -0.008848231, -0.008973037, 2.63184571  , 0.16        , 3           , 12          , 0.0346410163, 0
-0.117500015, 0.100550711 , -9.801758   , -0.00217185682, -0.0005060347, -0.000545595831, -0.228394225, -0.133949041, 0.452811122 , -0.008869901, -0.008978145, 2.63184047  , 0.17        , 3           , 50          , 0           , 0
-0.09723285 , 0.0926358849, -9.799828   , -0.0008987634, -0.0009197871, -0.0003990519, -0.228394225, -0.134083867, 0.4526763   , -0.008878853, -0.008987377, 2.63183618  , 0.18        , 3           , 11          , 0.0346410163, 0.0346410163
-0.08240924 , 0.0887938142, -9.782556   , -0.002027366, -0.00106820755, 0.000301807 , -0.228394225, -0.134083867, 0.4526763   , -0.008899156, -0.008998032, 2.63183951  , 0.19        , 3           , 12          , 0.0346410163, 0
-0.0784007  , 0.08958477  , -9.763538   , -0.0016073758, -0.000361432729, 2.232921E-05, -0.228529051, -0.1342187  , 0.452541471 , -0.008915293, -0.00900170952, 2.63184     , 0.2         , 3           , 50          , 0           , 0
-0.0842332542, 0.09416084  , -9.762207   , -4.800013E-05, -0.001617972, -0.0003961865, -0.228529051, -0.133949041, 0.4527437   , -0.008915738, -0.009017923, 2.63183618  , 0.21        , 3           , 11          , 0.0346699171, 0.0346699171
-0.08345305 , 0.07574827  , -9.790753   , 0.0006578594, -0.00147241214, 0.000454935216, -0.2282594  , -0.134353518, 0.4526763   , -0.008909203, -0.009032607, 2.631841    , 0.22        , 3           , 12          , 0.03466876  , 0
-0.0902961344, 0.102046952 , -9.80470848 , -0.000196309484, -7.031628E-05, 0.0005944227, -0.2282594  , -0.134353518, 0.4526763   , -0.00891122 , -0.009033257, 2.63184667  , 0.23        , 3           , 50          , 0           , 0
-0.0996835455, 0.0795669854, -9.796285   , -0.0011208331, 0.00104973151, -0.00124461518, -0.2282594  , -0.1342861  , 0.452406645 , -0.008922316, -0.009022873, 2.63183427  , 0.24        , 3           , 11          , 0.0346699171, 0.0346699171
-0.07984999 , 0.07747558  , -9.780323   , -0.00203220267, -0.00022351752, -0.0008270416, -0.228326812, -0.133814216, 0.452541471 , -0.008942562, -0.009025181, 2.63182569  , 0.25        , 3           , 12          , 0.03466876  , 0
-0.09185014 , 0.09208467  , -9.788941   , 1.66190148E-05, -0.000350450282, 0.000100535886, -0.228394225, -0.134555757, 0.452811122 , -0.008942405, -0.009028677, 2.63182664  , 0.26        , 3           , 50          , 0           , 0
-0.116473116, 0.07571691  , -9.800497   , 0.0001687584, -0.002531624, 0.0003097344, -0.228394225, -0.134555757, 0.452811122 , -0.008940747, -0.009053963, 2.63183045  , 0.27        , 3           , 11          , 0.0346699171, 0.0346699171
-0.08927563 , 0.0812251344, -9.788966   , 0.000164105528, -0.00161653815, 9.92415953E-05, -0.228461638, -0.13415128 , 0.452474058 , -0.008939117, -0.00907012 , 2.63183141  , 0.28        , 3           , 12          , 0.03466876  , 0
-0.06849795 , 0.113449164 , -9.782799   , -0.00145905162, -0.00169790955, 0.0008685389, -0.228394225, -0.1342187  , 0.452541471 , -0.008953787, -0.009087019, 2.63184     , 0.29        , 3           , 50          , 0           , 0
-0.07388614 , 0.109086119 , -9.808168   , -0.00013096146, -0.000633063144, 0.0005233191, -0.228326812, -0.13415128 , 0.452811122 , -0.00912005 , -0.009095231, 2.63184667  , 0.3         , 3           , 11          , 0.0347534567, 0.03475345
-0.0742291659, 0.108734012 , -9.836197   , -0.0005608081, 0.000419936172, -0.00117225386, -0.228326812, -0.13415128 , 0.452811122 , -0.009125551, -0.009091137, 2.63183522  , 0.31        , 3           , 12          , 0.0347537734, 0
-0.0717342347, 0.09870271  , -9.814071   , 0.000353901734, 0.00105966465, -0.00123763189, -0.228191987, -0.134420931, 0.452541471 , -0.0091219  , -0.009080654, 2.63182282  , 0.32        , 3           , 50          , 0           , 0
-0.103293858, 0.08318999  , -9.78771    , 0.00226932182, -0.000687223161, -0.0006663796, -0.228529051, -0.133949041, 0.452608883 , -0.009099146, -0.009087587, 2.63181615  , 0.33        , 3           , 11          , 0.0347534567, 0.03475345
-0.111627474, 0.074656345 , -9.770633   , 0.00276321662, -0.0004727036, 0.0005370347, -0.228394225, -0.134016454, 0.4526763   , -0.009071564, -0.009092266, 2.63182187  , 0.34        , 3           , 12          , 0.0347537734, 0
-0.08581724 , 0.106417626 , -9.77843952 , -0.000417555217, 0.000420900877, 0.002360123 , -0.228394225, -0.134016454, 0.4526763   , -0.009075954, -0.009087841, 2.63184524  , 0.35        , 3           , 50          , 0           , 0
-0.07579342 , 0.107690416 , -9.789206   , -0.00125611969, -0.00148539641, 0.001152459 , -0.228191987, -0.1342861  , 0.452608883 , -0.00908862147, -0.00910259 , 2.63185716  , 0.36        , 3           , 11          , 0.0347534567, 0.03475345
-0.08609879 , 0.08610373  , -9.77491    , 0.0002961487, -0.00154528988, -0.0013126093, -0.228596464, -0.1342861  , 0.4527437   , -0.00908554252, -0.009118162, 2.63184381  , 0.37        , 3           , 12          , 0.0347537734, 0
-0.09024012 , 0.07717088  , -9.787635   , 0.000161330754, -0.002813287, -0.00110331737, -0.228596464, -0.134083867, 0.452541471 , -0.009083831, -0.009146394, 2.63183331  , 0.38        , 3           , 50          , 0           , 0
-0.0917305648, 0.105125718 , -9.776231   , 0.002057891 , -0.0007590466, -0.000596841332, -0.228326812, -0.1342187  , 0.452339232 , -0.009063198, -0.009154038, 2.631827    , 0.39        , 3           , 11          , 0.0347534567, 0.03475345
-0.06268899 , 0.109746672 , -9.77553749 , 0.00083208963, -0.000337983016, -0.0005308806, -0.228326812, -0.1342187  , 0.452339232 , -0.009270606, -0.009094545, 2.63182378  , 0.4         , 3           , 12          , 0.034895204 , 0
-0.0567541756, 0.112395048 , -9.778645   , -0.00128400174, -0.0007042624, 9.440916E-05, -0.2282594  , -0.134016454, 0.452541471 , -0.009283455, -0.009101579, 2.63182473  , 0.41        , 3           , 50          , 0           , 0
-0.0877178758, 0.09119046  , -9.805637   , 0.000119382479, 0.000924283 , -0.00116792961, -0.2282594  , -0.1342187  , 0.452608883 , -0.009282154, -0.00909244549, 2.63181281  , 0.42        , 3           , 11          , 0.0177178048, 0.017717829
-0.08557488 , 0.08392429  , -9.799322   , 0.00202108873, 0.001922654 , -0.000804349664, -0.2282594  , -0.133949041, 0.452608883 , -0.00926187 , -0.009073293, 2.6318047   , 0.43        , 3           , 12          , 0.034895204 , 0
-0.07993935 , 0.100092873 , -9.796501   , 0.00245200284, 0.000588088064, 0.000325714354, -0.2282594  , -0.133949041, 0.452608883 , -0.009237376, -0.009067382, 2.63180757  , 0.44        , 3           , 50          , 0           , 0
-0.0935652256, 0.0908447   , -9.81653    , 0.00329702534, 0.0011569506, 0.00124877994, -0.228461638, -0.133949041, 0.452541471 , -0.00920452 , -0.009055697, 2.63182     , 0.45        , 3           , 11          , 0.0177178048, 0.017717829
-0.09120059 , 0.09848769  , -9.816481   , -2.2676295E-05, 0.00127528864, 0.000385910331, -0.228326812, -0.13415128 , 0.4527437   , -0.009204781, -0.009042912, 2.63182378  , 0.46        , 3           , 12          , 0.034895204 , 0
-0.0846360847, 0.0910821855, -9.784371   , 0.00174275856, 0.00121683429, 0.000252763944, -0.228461638, -0.1342187  , 0.452541471 , -0.009187375, -0.009030721, 2.63182664  , 0.47        , 3           , 50          , 0           , 0
-0.1108612  , 0.09275908  , -9.78908348 , 0.00104650878, -0.000688503031, 0.000952886359, -0.228461638, -0.1342187  , 0.452541471 , -0.009176996, -0.009037518, 2.63183618  , 0.48        , 3           , 11          , 0.0177178048, 0.017717829
-0.09451867 , 0.09170925  , -9.802071   , 0.000478885719, -5.879966E-05, 0.001586938 , -0.2282594  , -0.134083867, 0.4526763   , -0.00917235 , -0.00903796 , 2.631852    , 0.49        , 3           , 12          , 0.034895204 , 0
-0.078474015, 0.108644262 , -9.795098   , -0.00230506528, 0.000126267943, 0.000444464124, -0.22873129 , -0.133949041, 0.452608883 , -0.00933312252, -0.009072669, 2.63185763  , 0.5         , 3           , 50          , 0           , 0
-0.103331685, 0.112544328 , -9.79482    , -0.00153246988, 0.0009058232, 2.54728675E-05, -0.228191987, -0.134353518, 0.4526763   , -0.009348449, -0.009063606, 2.63185763  , 0.51        , 3           , 11          , 0.0134484824, 0.0134485075
-0.0736879557, 0.102625594 , -9.766612   , -0.00181481137, 0.000763127755, -0.00103557645, -0.228191987, -0.134353518, 0.4526763   , -0.009366501, -0.009056073, 2.63184762  , 0.52        , 3           , 12          , 0.0350919329, 0
-0.08894636 , 0.105594859 , -9.791122   , 0.00023468872, 0.000425019447, -0.000744033547, -0.228191987, -0.13415128 , 0.452541471 , -0.009364087, -0.009051893, 2.63184     , 0.53        , 3           , 50          , 0           , 0
-0.1089881  , 0.103500426 , -9.769589   , -0.000685497, 0.0009819445, 0.000100166573, -0.228326812, -0.13415128 , 0.4527437   , -0.00937095 , -0.009042066, 2.631841    , 0.54        , 3           , 11          , 0.0134484824, 0.0134485075
-0.09163327 , 0.07805133  , -9.776342   , 0.0006524045, 0.00162453589, -0.000740214, -0.228124574, -0.1342187  , 0.4527437   , -0.009364358, -0.00902589 , 2.63183331  , 0.55        , 3           , 12          , 0.0350919329, 0
-0.09603373 , 0.08401028  , -9.788555   , -0.000190004226, 0.0009148999, 0.00165631867, -0.228124574, -0.1342187  , 0.4527437   , -0.009366406, -0.009016586, 2.63184953  , 0.56        , 3           , 50          , 0           , 0
-0.09901252 , 0.094914414 , -9.800284   , -0.000469695224, -2.10505959E-06, -0.00145432085, -0.22873129 , -0.134016454, 0.4526763   , -0.00937097147, -0.009016743, 2.63183522  , 0.57        , 3           , 11          , 0.0134484824, 0.0134485075
-0.074750945, 0.0837619454, -9.788845   , 0.0008804002, -0.00168242247, -0.00109749683, -0.228394225, -0.134083867, 0.4527437   , -0.009362069, -0.009033669, 2.63182425  , 0.58        , 3           , 12          , 0.0350919329, 0
-0.0762851238, 0.0805109739, -9.756327   , 0.0004582355, -0.00196685176, -0.000958637334, -0.228461638, -0.134083867, 0.452474058 , -0.009357401, -0.009053427, 2.6318152   , 0.59        , 3           , 50          , 0           , 0
-0.09491004 , 0.104262136 , -9.77671051 , 0.00206945674, 0.000864339934, -0.001511769, -0.228461638, -0.134083867, 0.452474058 , -0.009331984, -0.009031287, 2.6318      , 0.6         , 3           , 11          , 0.0113578364, 0.0113578532
-0.117367685, 0.07038024  , -9.820413   , 0.00312572462, 0.001575418 , -0.000375595846, -0.2282594  , -0.133949041, 0.452474058 , -0.009300694, -0.00901556853, 2.63179612  , 0.61        , 3           , 12          , 0.03534261  , 0
-0.10715501 , 0.0651849657, -9.787362   , -0.000542650349, 0.001057853 , 0.000877943356, -0.228529051, -0.133881629, 0.4527437   , -0.009306198, -0.009004909, 2.6318047   , 0.62        , 3           , 50          , 0           , 0
-0.1209986  , 0.08157456  , -9.782428   , -0.0009536186, -0.00161988288, -0.00011703551, -0.228326812, -0.134016454, 0.452608883 , -0.009315725, -0.009021117, 2.63180375  , 0.63        , 3           , 11          , 0.0113578364, 0.0113578532
-0.08453719 , 0.09116232  , -9.808324   , -0.00131679594, 0.000278290448, -0.00138717133, -0.228326812, -0.134016454, 0.452608883 , -0.009328767, -0.009018463, 2.63178945  , 0.64        , 3           , 12          , 0.03534261  , 0
-0.08974864 , 0.106581882 , -9.813272   , 0.00100551778, 0.00184265536, -0.00144455431, -0.2282594  , -0.134488344, 0.452608883 , -0.009318579, -0.009000172, 2.63177514  , 0.65        , 3           , 50          , 0           , 0
-0.103281565, 0.07962916  , -9.802188   , -0.00131468615, -7.36642542E-05, -0.0007520043, -0.228394225, -0.13415128 , 0.4526763   , -0.009331659, -0.009000981, 2.63176751  , 0.66        , 3           , 11          , 0.0113578364, 0.0113578532
-0.09968814 , 0.08090229  , -9.790855   , -0.00301203527, 0.000478006055, -0.0007590381, -0.228326812, -0.133949041, 0.452878535 , -0.009361711, -0.008996271, 2.63176     , 0.67        , 3           , 12          , 0.03534261  , 0
-0.08008133 , 0.08703369  , -9.803787   , -0.00046322745, -0.00077184377, 0.0004516458, -0.228326812, -0.133949041, 0.452878535 , -0.009366385, -0.009003947, 2.63176465  , 0.68        , 3           , 50          , 0           , 0
-0.0934114  , 0.0874726847, -9.754169   , -0.0008178997, -0.0004926673, 2.66274255E-05, -0.2282594  , -0.134016454, 0.452406645 , -0.009374566, -0.00900887 , 2.63176465  , 0.69        , 3           , 11          , 0.0113578364, 0.0113578532
-0.0803969949, 0.103665061 , -9.7838335  , -0.001619548, 0.00014003196, -0.0008955377, -0.228461638, -0.134016454, 0.4526763   , -0.009285528, -0.009146232, 2.631755    , 0.7         , 3           , 12          , 0.03564567  , 0
-0.08949041 , 0.0930284262, -9.809258   , -0.0009126429, 7.441796E-05, -4.47415878E-05, -0.228326812, -0.1342861  , 0.452474058 , -0.00929465 , -0.009145491, 2.63175464  , 0.71        , 3           , 50          , 0           , 0
-0.0920887  , 0.09940516  , -9.817841   , -0.00381280459, 0.00104031665, -0.0007630652, -0.228326812, -0.1342861  , 0.452474058 , -0.009332708, -0.009135159, 2.63174653  , 0.72        , 3           , 11          , 0.0101372981, 0.0101373084
-0.105645396, 0.1031572   , -9.812956   , -0.0006310541, 0.000146716862, -0.0008909285, -0.228191987, -0.1342187  , 0.452474058 , -0.009338936, -0.009133774, 2.631738    , 0.73        , 3           , 12          , 0.03564567  , 0
-0.111563876, 0.104985565 , -9.799434   , 0.00289329328, 0.00143763574, -0.0003780735, -0.228394225, -0.134016454, 0.452474058 , -0.009309967, -0.009119434, 2.63173413  , 0.74        , 3           , 50          , 0           , 0
-0.07969035 , 0.08921003  , -9.781629   , -0.00168083026, -0.00162022409, 0.000160936368, -0.228326812, -0.134016454, 0.452541471 , -0.009326794, -0.00913562 , 2.631736    , 0.75        , 3           , 11          , 0.0101372981, 0.0101373084
-0.1102878  , 0.09954673  , -9.796735   , 0.00015319798, -0.0011150674, 0.00137104013, -0.228326812, -0.134016454, 0.452541471 , -0.009325386, -0.009146642, 2.63174939  , 0.76        , 3           , 12          , 0.03564567  , 0
-0.10201177 , 0.07329256  , -9.800848   , 0.0007093834, 0.0005077486, 0.000246019335, -0.2282594  , -0.133881629, 0.452474058 , -0.009318314, -0.009141541, 2.63175225  , 0.77        , 3           , 50          , 0           , 0
-0.07655342 , 0.08289754  , -9.793834   , -0.0018400806, 0.00189838139, -0.0008938134, -0.228461638, -0.134083867, 0.4526763   , -0.009336633, -0.009122642, 2.63174272  , 0.78        , 3           , 11          , 0.0101372981, 0.0101373084
-0.07832877 , 0.1261696   , -9.774232   , 0.00076017  , 0.00437974371, -0.000877834857, -0.2282594  , -0.1342861  , 0.4526763   , -0.00932894647, -0.009078928, 2.63173413  , 0.79        , 3           , 12          , 0.03564567  , 0
-0.08975872 , 0.0856694   , -9.767256   , 0.00183563179, 0.0044250004, -0.0012254524, -0.228326812, -0.134083867, 0.452339232 , -0.009399447, -0.009089098, 2.63172174  , 0.8         , 3           , 50          , 0           , 0
-0.09969208 , 0.0755429044, -9.807149   , -5.77957071E-05, 0.00187802361, -0.0005319033, -0.228326812, -0.134083867, 0.452339232 , -0.009399976, -0.009070369, 2.63171649  , 0.81        , 3           , 11          , 0.009381357 , 0.009381359
-0.105518259, 0.076107    , -9.820299   , -0.00278679538, -0.0031383785, -0.0006937145, -0.228461638, -0.1342187  , 0.452608883 , -0.009427782, -0.009101816, 2.63170981  , 0.82        , 3           , 12          , 0.03599938  , 0
-0.09474084 , 0.07099711  , -9.814363   , -0.00201473385, -0.00221804064, -0.00082995143, -0.228596464, -0.133949041, 0.4527437   , -0.009447856, -0.009124074, 2.63170171  , 0.83        , 3           , 50          , 0           , 0
-0.084810406, 0.112291604 , -9.784284   , -0.003223986, -0.000395984447, -0.0006208247, -0.228326812, -0.134353518, 0.452406645 , -0.009480039, -0.009128093, 2.63169551  , 0.84        , 3           , 11          , 0.009381357 , 0.009381359
-0.07294564 , 0.08596771  , -9.780234   , -0.00187973387, -0.000879649655, -0.000120888188, -0.228326812, -0.134353518, 0.452406645 , -0.009498826, -0.009136903, 2.631694    , 0.85        , 3           , 12          , 0.03599938  , 0
-0.06888713 , 0.08367471  , -9.783377   , -0.00377688743, -0.0028635  , -0.00105106167, -0.228596464, -0.133949041, 0.452541471 , -0.009536501, -0.009165635, 2.631684    , 0.86        , 3           , 50          , 0           , 0
-0.0745621  , 0.0946273655, -9.800098   , -0.00378008676, -0.002159586, -0.0005555362, -0.228394225, -0.134016454, 0.4526763   , -0.009574252, -0.009187283, 2.63167882  , 0.87        , 3           , 11          , 0.009381357 , 0.009381359
-0.0912373438, 0.09667249  , -9.813325   , -0.004983808, -0.00132300437, 0.000782221556, -0.228529051, -0.1342861  , 0.452339232 , -0.009624163, -0.009200438, 2.63168645  , 0.88        , 3           , 12          , 0.03599938  , 0
-0.101041935, 0.0871708542, -9.771857   , -0.00124988682, 0.000110122142, -0.00138782489, -0.228529051, -0.1342861  , 0.452339232 , -0.009636534, -0.009199469, 2.631673    , 0.89        , 3           , 50          , 0           , 0
-0.06667643 , 0.08226594  , -9.774777   , 5.059755E-06, 0.0003544303, -0.0003226462, -0.228461638, -0.133949041, 0.452541471 , -0.009559341, -0.0091609275, 2.63166928  , 0.9         , 3           , 11          , 0.008917319 , 0.008917325
-0.0656816661, 0.0894691944, -9.773384   , 0.00269651576, -0.00117602944, 0.00095889665, -0.228461638, -0.133949041, 0.452608883 , -0.009532464, -0.009172595, 2.63167882  , 0.91        , 3           , 12          , 0.036401853 , 0
-0.10861557 , 0.0855760649, -9.807628   , -0.001258279, -0.00106198713, 0.0007287735, -0.2282594  , -0.134016454, 0.4526763   , -0.009545115, -0.009183146, 2.631686    , 0.92        , 3           , 50          , 0           , 0
-0.107569076, 0.08701867  , -9.837444   , -0.0009901371, 0.0016851793, -0.000466462923, -0.2282594  , -0.134016454, 0.4526763   , -0.009554971, -0.009166339, 2.6316812   , 0.93        , 3           , 11          , 0.008917319 , 0.008917325
-0.08315343 , 0.105450168 , -9.768479   , -0.0007739719, 0.0008419172, -0.00018423966, -0.228461638, -0.1342187  , 0.452474058 , -0.009562694, -0.009157939, 2.6316793   , 0.94        , 3           , 12          , 0.036401853 , 0
-0.0670154244, 0.08995141  , -9.777912   , -6.480552E-05, 7.238458E-05, -0.00145355938, -0.228394225, -0.134083867, 0.452474058 , -0.00956321 , -0.009157353, 2.63166451  , 0.95        , 3           , 50          , 0           , 0
-0.10543029 , 0.09180055  , -9.791306   , 0.000214914879, 0.000637425 , -0.00131010555, -0.228394225, -0.134083867, 0.452541471 , -0.009560938, -0.009151106, 2.63165116  , 0.96        , 3           , 11          , 0.008917319 , 0.008917325
-0.122711942, 0.08524585  , -9.794629   , 0.000854246 , 8.204609E-06, -3.67003631E-05, -0.228394225, -0.134083867, 0.452541471 , -0.009552392, -0.009151026, 2.63165116  , 0.97        , 3           , 12          , 0.036401853 , 0
-0.105274118, 0.09371249  , -9.823387   , 0.00108322408, -0.00343953446, 0.000100240337, -0.2282594  , -0.134016454, 0.452541471 , -0.009541571, -0.00918541 , 2.63165259  , 0.98        , 3           , 50          , 0           , 0
-0.06341891 , 0.0827464   , -9.794639   , 0.0006554834, -0.0025977036, 0.000240835448, -0.2282594  , -0.133949041, 0.452541471 , -0.0095350435, -0.009211363, 2.631655    , 0.99        , 3           , 11          , 0.008917319 , 0.008917325
-0.07312709 , 0.1076177   , -9.776982   , 0.0009865925, -0.00112060411, -0.0005330783, -0.228529051, -0.134016454, 0.452541471 , -0.00945427 , -0.009226416, 2.63164926  , 1           , 3           , 12          , 0.036851082 , 0
-0.07136515 , 0.07147635  , -9.770338   , 0.000276933 , -0.000210288141, 0.00108963  , -0.228529051, -0.134016454, 0.452541471 , -0.009451602, -0.009228417, 2.63166022  , 1.01        , 3           , 50          , 0           , 0
-0.0703214  , 0.07425578  , -9.795177   , -0.000438599323, 0.001474322 , -0.0008181866, -0.228461638, -0.134083867, 0.452339232 , -0.009455911, -0.009213751, 2.631652    , 1.02        , 3           , 11          , 0.008638876 , 0.008638883
-0.08523124 , 0.11009106  , -9.7992115  , 0.00111673528, 0.00113287172, -0.000387679815, -0.228326812, -0.134083867, 0.452474058 , -0.009444706, -0.009202459, 2.6316483   , 1.03        , 3           , 12          , 0.036851082 , 0
-0.07306178 , 0.107670628 , -9.792801   , 0.00295562763, 0.0004413721, -0.00101591367, -0.228326812, -0.13415128 , 0.452339232 , -0.009415056, -0.009198139, 2.63163781  , 1.04        , 3           , 50          , 0           , 0
-0.06563082 , 0.08504689  , -9.80007    , 0.0010488166, 0.000498870737, -0.00116596336, -0.228326812, -0.13415128 , 0.452339232 , -0.009404461, -0.009193263, 2.63162637  , 1.05        , 3           , 11          , 0.008638876 , 0.008638883
-0.09415137 , 0.0920809954, -9.779919   , -0.0009992745, 0.0007665928, 0.000378878845, -0.228461638, -0.1342187  , 0.4522044   , -0.00941448752, -0.00918556 , 2.63163018  , 1.06        , 3           , 12          , 0.036851082 , 0
-0.0836431757, 0.09828393  , -9.782525   , 6.338894E-05, 0.000210628728, 0.00172500266, -0.228529051, -0.134016454, 0.452608883 , -0.009414012, -0.009183291, 2.63164735  , 1.07        , 3           , 50          , 0           , 0
-0.08477913 , 0.07400497  , -9.80433    , 0.000568443036, -0.002108944, 0.0005229429, -0.228461638, -0.134016454, 0.452541471 , -0.009408377, -0.009204331, 2.63165259  , 1.08        , 3           , 11          , 0.008638876 , 0.008638883
-0.09884618 , 0.0678959638, -9.817117   , 0.00140440825, 0.0001493057, 0.000247827731, -0.228461638, -0.134016454, 0.452541471 , -0.009394355, -0.009202813, 2.631655    , 1.09        , 3           , 12          , 0.036851082 , 0
-0.08983764 , 0.0619488731, -9.824306   , -0.000343010121, -0.00112309644, -0.0009635877, -0.228596464, -0.134016454, 0.4522044   , -0.009300775, -0.009123064, 2.63164449  , 1.1         , 3           , 50          , 0           , 0
-0.0771744251, 0.07473224  , -9.778956   , -0.0018977517, -0.000852036232, -0.00097039697, -0.228529051, -0.134016454, 0.452474058 , -0.009319665, -0.009131674, 2.631635    , 1.11        , 3           , 11          , 0.008483699 , 0.008483696
-0.0770161152, 0.09226817  , -9.761256   , 0.000355697674, 0.000359894882, -0.0010286516, -0.228191987, -0.1342187  , 0.452474058 , -0.009316014, -0.00912817 , 2.631625    , 1.12        , 3           , 12          , 0.03734499  , 0
-0.075452   , 0.0982215   , -9.792406   , 0.00183109788, 0.00191853184, -0.000454276073, -0.228191987, -0.1342187  , 0.452474058 , -0.00929766 , -0.009109029, 2.63162017  , 1.13        , 3           , 50          , 0           , 0
-0.0901836157, 0.08301921  , -9.782639   , 0.00268372823, 0.0008683932, -0.000240049427, -0.2282594  , -0.13415128 , 0.452406645 , -0.009270799, -0.009100367, 2.63161778  , 1.14        , 3           , 11          , 0.008483699 , 0.008483696
-0.105165273, 0.0849478245, -9.767377   , -0.00133177429, -0.000918604, 0.000374181371, -0.228461638, -0.133881629, 0.452474058 , -0.009284154, -0.00910951849, 2.6316216   , 1.15        , 3           , 12          , 0.03734499  , 0
-0.104601517, 0.08369338  , -9.798565   , -0.00232204818, -0.000714118534, -0.000901521, -0.228663877, -0.134083867, 0.452406645 , -0.009307291, -0.009116744, 2.63161254  , 1.16        , 3           , 50          , 0           , 0
-0.09640267 , 0.08899336  , -9.79305649 , 0.00120978151, -0.0009014155, -0.000108406814, -0.228663877, -0.134083867, 0.452406645 , -0.009295185, -0.009125766, 2.63161159  , 1.17        , 3           , 11          , 0.008483699 , 0.008483696
-0.0871332  , 0.100665353 , -9.807402   , 0.00212406134, -0.000191296029, -0.000314945, -0.228326812, -0.134420931, 0.452339232 , -0.009273916, -0.009127708, 2.63160825  , 1.18        , 3           , 12          , 0.03734499  , 0
-0.07850567 , 0.0761092   , -9.781221   , 0.00162958831, -0.000124246639, -0.000105238134, -0.228461638, -0.13415128 , 0.4526763   , -0.00925761 , -0.009128962, 2.63160729  , 1.19        , 3           , 50          , 0           , 0
-0.09171467 , 0.0712901056, -9.778178   , 0.000287927978, -0.0003982733, -0.0006071652, -0.228326812, -0.134083867, 0.452474058 , -0.00917574 , -0.009113553, 2.63160062  , 1.2         , 3           , 11          , 0.008403483 , 0.008403473
-0.110183731, 0.07158515  , -9.801371   , -0.001838044, 0.00120640232, -0.00019074099, -0.228326812, -0.134083867, 0.452474058 , -0.009194102, -0.009101507, 2.63159871  , 1.21        , 3           , 12          , 0.0378814377, 0
-0.09777289 , 0.0881070048, -9.79307    , -0.001551454, 0.000293223973, -0.000826543546, -0.228394225, -0.13415128 , 0.452474058 , -0.009209542, -0.009098651, 2.63159013  , 1.22        , 3           , 50          , 0           , 0
-0.0844002962, 0.110019952 , -9.781126   , -0.001693961, 0.0006442275, -4.968162E-05, -0.228326812, -0.133881629, 0.4526763   , -0.009226477, -0.009092213, 2.63158965  , 1.23        , 3           , 11          , 0.008403483 , 0.008403473
-0.08614269 , 0.0847291052, -9.768588   , 0.000489841856, 0.00178529264, 0.0009511416, -0.228596464, -0.1342187  , 0.452608883 , -0.009221663, -0.00907427352, 2.63159871  , 1.24        , 3           , 12          , 0.0378814377, 0
-0.09770325 , 0.0614565574, -9.785046   , -0.000837085652, -0.00132099888, -0.0003313057, -0.228326812, -0.1342187  , 0.452541471 , -0.00923000649, -0.009087512, 2.63159585  , 1.25        , 3           , 50          , 0           , 0
-0.0988019854, 0.07730512  , -9.797644   , -0.00133428373, -0.0007612119, -0.0006152799, -0.228326812, -0.1342187  , 0.452541471 , -0.009243292, -0.009095182, 2.63158965  , 1.26        , 3           , 11          , 0.008403483 , 0.008403473
-0.0817071348, 0.09568579  , -9.821392   , -0.00232902844, 0.0004287531, -0.00118311984, -0.228394225, -0.133949041, 0.452474058 , -0.009266475, -0.009091003, 2.63157773  , 1.27        , 3           , 12          , 0.0378814377, 0
-0.08547327 , 0.09025553  , -9.803815   , -0.00143008272, 0.0042360886, -0.00138488482, -0.228529051, -0.1342187  , 0.4526763   , -0.009280646, -0.009048774, 2.63156343  , 1.28        , 3           , 50          , 0           , 0
-0.07965675 , 0.08923725  , -9.789763   , -0.0001506943, 0.00248490041, -0.00180547708, -0.2282594  , -0.13415128 , 0.452541471 , -0.009281989, -0.009024095, 2.63154531  , 1.29        , 3           , 11          , 0.008403483 , 0.008403473
-0.08920936 , 0.0902058259, -9.776274   , 0.00128541177, -0.0006067649, -0.0008864978, -0.2282594  , -0.13415128 , 0.452541471 , -0.009180317, -0.00903421 , 2.63153577  , 1.3         , 3           , 12          , 0.0384582542, 0
-0.08800414 , 0.112309173 , -9.778433   , 0.00248320843, -0.000246694923, -0.00222241157, -0.228326812, -0.133949041, 0.452541471 , -0.009155283, -0.009036881, 2.63151383  , 1.31        , 3           , 50          , 0           , 0
-0.0854046  , 0.09745279  , -9.797458   , -0.00252702064, -0.0007733339, -0.00154020276, -0.228461638, -0.13415128 , 0.452608883 , -0.009180415, -0.009044753, 2.63149858  , 1.32        , 3           , 11          , 0.008365468 , 0.008365453
-0.109260477, 0.07024979  , -9.809956   , -0.00238047587, -0.0018986403, -0.00196508621, -0.228394225, -0.134016454, 0.452474058 , -0.009204045, -0.009063921, 2.63147855  , 1.33        , 3           , 12          , 0.0384582542, 0
-0.09685369 , 0.08632202  , -9.802111   , -0.00174686546, -0.00133120827, -0.000336665, -0.228394225, -0.134016454, 0.452474058 , -0.009221484, -0.009077264, 2.63147569  , 1.34        , 3           , 50          , 0           , 0
-0.0805322751, 0.0946284458, -9.779804   , 0.00184444129, 0.000664100051, -0.00010493325, -0.228394225, -0.13415128 , 0.452541471 , -0.00920303 , -0.009070633, 2.63147473  , 1.35        , 3           , 11          , 0.008365468 , 0.008365453
-0.09104343 , 0.0844059661, -9.789419   , 0.00156879891, -0.0006752433, 0.000174225992, -0.228596464, -0.1342187  , 0.452608883 , -0.009187358, -0.009077368, 2.63147616  , 1.36        , 3           , 12          , 0.0384582542, 0
-0.08741813 , 0.115982607 , -9.799204   , 0.00212942972, 0.000173271677, 0.00010752723, -0.228124574, -0.134083867, 0.452271819 , -0.009166074, -0.009075626, 2.63147759  , 1.37        , 3           , 50          , 0           , 0
-0.06583071 , 0.104450196 , -9.799539   , 0.000571143755, 0.0010778514, -0.0006046491, -0.228124574, -0.134083867, 0.452271819 , -0.009160306, -0.00906490348, 2.631471    , 1.38        , 3           , 11          , 0.008365468 , 0.008365453
-0.079278186, 0.10962978  , -9.816794   , 0.000149631684, 0.0007934249, 0.0006643602, -0.2282594  , -0.13415128 , 0.452474058 , -0.009158869, -0.009056908, 2.63147759  , 1.39        , 3           , 12          , 0.0384582542, 0
-0.07710008 , 0.109533653 , -9.795988   , 0.00223784335, -0.0005454053, -0.000315004349, -0.228191987, -0.13415128 , 0.4527437   , -0.009257959, -0.009000868, 2.63147569  , 1.4         , 3           , 50          , 0           , 0
-0.0815397948, 0.08786122  , -9.776676   , -0.000445252226, -0.000563550158, -0.000398149539, -0.228394225, -0.134083867, 0.452608883 , -0.009262376, -0.009006539, 2.63147187  , 1.41        , 3           , 11          , 0.00834678  , 0.008346776
-0.08883646 , 0.08299419  , -9.779917   , -8.957542E-05, -0.00105390069, -4.40911135E-05, -0.228394225, -0.134083867, 0.452608883 , -0.009263269, -0.009017083, 2.63147187  , 1.42        , 3           , 12          , 0.03907329  , 0
-0.0725152045, 0.0783563256, -9.799246   , 0.00019590625, -0.00168551237, -0.000185019177, -0.228461638, -0.13415128 , 0.452474058 , -0.009261295, -0.009033955, 2.63147     , 1.43        , 3           , 50          , 0           , 0
-0.102443   , 0.06706643  , -9.826189   , -0.00116335019, 0.00175458472, -0.00131610886, -0.228394225, -0.134083867, 0.4526763   , -0.009272809, -0.00901653152, 2.63145661  , 1.44        , 3           , 11          , 0.00834678  , 0.008346776
-0.09642768 , 0.085402295 , -9.798495   , 0.00116115471, 0.00296699535, -0.0005970561, -0.228461638, -0.134016454, 0.452474058 , -0.00926114153, -0.008986918, 2.63145     , 1.45        , 3           , 12          , 0.03907329  , 0
-0.07808729 , 0.105014622 , -9.790591   , -0.001020969, 0.00154436589, -0.00110387267, -0.228461638, -0.134016454, 0.452474058 , -0.00927125 , -0.008971577, 2.631439    , 1.46        , 3           , 50          , 0           , 0
-0.07856749 , 0.09562439  , -9.81413651 , -0.001289619, -0.00127319549, -0.00139206648, -0.2282594  , -0.134083867, 0.452474058 , -0.009284022, -0.008984437, 2.63142514  , 1.47        , 3           , 11          , 0.00834678  , 0.008346776
-0.08431657 , 0.112319566 , -9.794223   , -0.00298942951, -0.000158393435, -0.0008331574, -0.228461638, -0.13415128 , 0.452608883 , -0.009313843, -0.008986099, 2.631417    , 1.48        , 3           , 12          , 0.03907329  , 0
-0.09267077 , 0.0935031846, -9.805213   , -0.00213845656, -0.0009973613, -0.00167812093, -0.228394225, -0.134083867, 0.452541471 , -0.009335077, -0.008996228, 2.63140035  , 1.49        , 3           , 50          , 0           , 0
-0.09086732 , 0.095707424 , -9.79615    , 7.520619E-05, -0.000386143685, -0.0002533146, -0.228394225, -0.134083867, 0.452541471 , -0.009384954, -0.008962173, 2.63139844  , 1.5         , 3           , 11          , 0.00833021849, 0.008330213
-0.08487358 , 0.1024207   , -9.800597   , 0.000360910519, -0.0009473615, 0.0005947467, -0.2282594  , -0.1342187  , 0.452474058 , -0.009381399, -0.008971591, 2.63140416  , 1.51        , 3           , 12          , 0.0397243835, 0
-0.0837982744, 0.07494804  , -9.819686   , -0.004155131, -0.00154105108, 0.0005728079, -0.228461638, -0.134083867, 0.452541471 , -0.00942300353, -0.008986946, 2.63141036  , 1.52        , 3           , 50          , 0           , 0
-0.09842949 , 0.0669686943, -9.811242   , -0.00105055666, -0.00152005185, -0.00308569288, -0.228191987, -0.1342187  , 0.452474058 , -0.009433231, -0.009002437, 2.63137937  , 1.53        , 3           , 11          , 0.00833021849, 0.008330213
-0.07031931 , 0.07202572  , -9.802872   , 0.000638665748, -0.000100758713, -0.000250246783, -0.228191987, -0.1342187  , 0.452474058 , -0.009426821, -0.009003469, 2.631377    , 1.54        , 3           , 12          , 0.0397243835, 0
-0.105970427, 0.0845934749, -9.793148   , 0.00177058263, -0.000374679978, 0.00116727431, -0.228191987, -0.134083867, 0.452541471 , -0.009409222, -0.009007105, 2.631389    , 1.55        , 3           , 50          , 0           , 0
-0.10789796 , 0.07336167  , -9.800893   , -0.001608944, -0.00236855587, 0.0008658959, -0.228191987, -0.133881629, 0.4527437   , -0.00942539051, -0.009030708, 2.63139749  , 1.56        , 3           , 11          , 0.00833021849, 0.008330213
-0.104287863, 0.0719702244, -9.802227   , 0.00118818553, 0.00300027733, -0.00024283964, -0.228461638, -0.13415128 , 0.452541471 , -0.00941348448, -0.009000729, 2.63139462  , 1.57        , 3           , 12          , 0.0397243835, 0
-0.0723309144, 0.100823171 , -9.772032   , -0.0004912046, -0.00010839937, -0.000538052, -0.228461638, -0.13415128 , 0.452541471 , -0.009418347, -0.009001866, 2.63138986  , 1.58        , 3           , 50          , 0           , 0
-0.07370472 , 0.09502405  , -9.786983   , -0.00161131693, -0.0020869954, -0.0008288947, -0.228529051, -0.1342861  , 0.452541471 , -0.009434387, -0.0090228105, 2.63138127  , 1.59        , 3           , 11          , 0.00833021849, 0.008330213
-0.08742013 , 0.07811537  , -9.809756   , -0.000414941722, 0.00159226672, 0.0014416721, -0.228529051, -0.133949041, 0.452474058 , -0.009339494, -0.008993356, 2.63139462  , 1.6         , 3           , 12          , 0.0404094458, 0
-0.08107292 , 0.0816184   , -9.800202   , -0.00153069431, -0.0017941671, -0.00337194 , -0.2282594  , -0.1342861  , 0.452811122 , -0.009354499, -0.009011612, 2.63136125  , 1.61        , 3           , 50          , 0           , 0
-0.0571665019, 0.07903102  , -9.785114   , -0.00265270472, -0.00292805722, 0.000294043624, -0.2282594  , -0.1342861  , 0.452811122 , -0.009381058, -0.009040863, 2.63136458  , 1.62        , 3           , 11          , 0.008308963 , 0.008308961
-0.07481423 , 0.113988355 , -9.786913   , -0.0003953369, -0.00263121561, -0.0008251367, -0.228394225, -0.13415128 , 0.452406645 , -0.009384938, -0.009067251, 2.63135648  , 1.63        , 3           , 12          , 0.0404094458, 0
-0.09403308 , 0.0957476646, -9.797078   , -0.0006818713, -0.00150685827, 0.00171811925, -0.2282594  , -0.133881629, 0.4526763   , -0.009391911, -0.009082157, 2.63137412  , 1.64        , 3           , 50          , 0           , 0
-0.07880035 , 0.08829408  , -9.780722   , 0.000723870937, -0.000371052, 0.0003137522, -0.228461638, -0.1342187  , 0.452608883 , -0.009384702, -0.009085838, 2.63137746  , 1.65        , 3           , 11          , 0.008308963 , 0.008308961
-0.08116192 , 0.07976088  , -9.784391   , 0.0021264106, 0.00160945428, 0.000605911948, -0.2282594  , -0.134353518, 0.452474058 , -0.009363491, -0.009069689, 2.63138318  , 1.66        , 3           , 12          , 0.0404094458, 0
-0.0976146758, 0.102964759 , -9.783969   , 0.0007187844, 0.00075521064, 0.00116310047, -0.2282594  , -0.134353518, 0.452474058 , -0.009356408, -0.009062027, 2.63139462  , 1.67        , 3           , 50          , 0           , 0
-0.09673369 , 0.102487862 , -9.779444   , 0.004102745 , 0.00162282086, -0.00051501923, -0.228663877, -0.134083867, 0.452474058 , -0.009315332, -0.00904585 , 2.631389    , 1.68        , 3           , 11          , 0.008308963 , 0.008308961
-0.0838444  , 0.08071322  , -9.789831   , -0.00294300634, -0.00124057464, 0.00114294281, -0.228461638, -0.134083867, 0.4527437   , -0.009344867, -0.009058147, 2.63140082  , 1.69        , 3           , 12          , 0.0404094458, 0
-0.101472087, 0.0849627554, -9.784525   , -0.001237637, -0.0006303827, -0.0005432938, -0.228394225, -0.1342187  , 0.452541471 , -0.009339329, -0.009020837, 2.63139558  , 1.7         , 3           , 50          , 0           , 0
-0.085029155, 0.09113589  , -9.798837   , 0.000457339047, -0.000900492654, -0.002231051, -0.228394225, -0.1342187  , 0.452541471 , -0.009334556, -0.009030051, 2.63137317  , 1.71        , 3           , 11          , 0.008277253 , 0.008277248
-0.107432105, 0.07336694  , -9.804053   , -0.000379945966, -0.002595605, 0.00058776926, -0.228394225, -0.133881629, 0.452608883 , -0.00933841 , -0.00905595 , 2.63137937  , 1.72        , 3           , 12          , 0.0411264226, 0
-0.09633914 , 0.09172295  , -9.799825   , 0.000743784651, -0.00174327858, -0.00251357327, -0.228461638, -0.133881629, 0.452811122 , -0.009330744, -0.009073617, 2.63135457  , 1.73        , 3           , 50          , 0           , 0
-0.06644006 , 0.09183083  , -9.801856   , 0.0007415605, -0.000898574246, 0.0008781781, -0.2282594  , -0.13415128 , 0.452474058 , -0.009323409, -0.009082519, 2.63136315  , 1.74        , 3           , 11          , 0.008277253 , 0.008277248
-0.05049365 , 0.06680347  , -9.795057   , -0.00236947974, -7.48893362E-05, 0.0005824562, -0.2282594  , -0.13415128 , 0.452474058 , -0.009347157, -0.009083213, 2.63136888  , 1.75        , 3           , 12          , 0.0411264226, 0
-0.08577865 , 0.07304677  , -9.784454   , -0.00688076066, -0.00179484312, -0.000853905571, -0.228461638, -0.134353518, 0.452541471 , -0.009415888, -0.009101241, 2.63136029  , 1.76        , 3           , 50          , 0           , 0
-0.07574612 , 0.108621433 , -9.79779    , -0.0009680826, 0.00190561113, -0.00110314647, -0.228663877, -0.134016454, 0.4526763   , -0.009425467, -0.009082289, 2.63134933  , 1.77        , 3           , 11          , 0.008277253 , 0.008277248
-0.0851597041, 0.0758542   , -9.816076   , -0.000107855412, -0.000341170671, 0.002005245 , -0.228394225, -0.134083867, 0.4527437   , -0.00942673 , -0.009085512, 2.63136935  , 1.78        , 3           , 12          , 0.0411264226, 0
-0.116972886, 0.07523781  , -9.79056    , -0.00208861 , 0.000208584956, 0.000301669468, -0.228394225, -0.134083867, 0.4527437   , -0.009447642, -0.009083398, 2.63137269  , 1.79        , 3           , 50          , 0           , 0
-0.0802248344, 0.0744195953, -9.809264   , -0.00227443082, 0.00332213985, -0.000825852156, -0.228663877, -0.134083867, 0.452339232 , -0.00932729 , -0.00902706 , 2.63136268  , 1.8         , 3           , 11          , 0.008234187 , 0.008234178
-0.09751294 , 0.104386248 , -9.8043     , 0.00309962779, 0.00195060787, 0.0008922245, -0.228461638, -0.1342187  , 0.452608883 , -0.00929637253, -0.009007473, 2.63137174  , 1.81        , 3           , 12          , 0.0418733247, 0
-0.087838605, 0.08930723  , -9.782143   , 0.0045236554, -0.000573931, -0.000235245854, -0.228124574, -0.134420931, 0.452608883 , -0.009251116, -0.009013233, 2.63136935  , 1.82        , 3           , 50          , 0           , 0
-0.08116817 , 0.0788631141, -9.785751   , 0.000855220831, -0.00116188941, 0.000311840849, -0.228124574, -0.134420931, 0.452608883 , -0.009242591, -0.009024823, 2.63137269  , 1.83        , 3           , 11          , 0.008234187 , 0.008234178
-0.0903949  , 0.09705708  , -9.796593   , -0.002252705, -0.0009013331, 0.0005803261, -0.228394225, -0.13415128 , 0.452608883 , -0.009265172, -0.00903378148, 2.63137841  , 1.84        , 3           , 12          , 0.0418733247, 0
-0.103072114, 0.100777321 , -9.785376   , -0.000853280129, 0.00164230168, 0.0003082786, -0.228394225, -0.1342187  , 0.452608883 , -0.009273732, -0.009017331, 2.63138127  , 1.85        , 3           , 50          , 0           , 0
-0.0910486  , 0.08752623  , -9.778107   , -0.000283992558, 0.0005198559, -0.00166858535, -0.228326812, -0.134353518, 0.4526763   , -0.009276421, -0.00901228748, 2.63136458  , 1.86        , 3           , 11          , 0.008234187 , 0.008234178
-0.0864376  , 0.099145554 , -9.760848   , -0.00197560247, -5.47333E-05, -0.00139481737, -0.228326812, -0.134353518, 0.4526763   , -0.009296051, -0.009012963, 2.63135076  , 1.87        , 3           , 12          , 0.0418733247, 0
-0.09672844 , 0.1096337   , -9.757719   , 1.20480181E-05, -0.00229388638, -0.00223668269, -0.228394225, -0.133949041, 0.452608883 , -0.009295731, -0.009036109, 2.63132882  , 1.88        , 3           , 50          , 0           , 0
-0.09018853 , 0.07631998  , -9.803005   , -0.00562788732, -0.003739903, 0.0005601835, -0.228326812, -0.134016454, 0.452608883 , -0.009352064, -0.009073454, 2.63133454  , 1.89        , 3           , 11          , 0.008234187 , 0.008234178
-0.07810038 , 0.069816485 , -9.789832   , -0.004503597, -0.00093884347, 0.00141714246, -0.228394225, -0.134016454, 0.452474058 , -0.009386633, -0.009112021, 2.63134885  , 1.9         , 3           , 12          , 0.04264824  , 0
-0.0572100766, 0.07810302  , -9.777435   , 0.0005575445, 0.003319004 , -0.00137801841, -0.228394225, -0.134016454, 0.452474058 , -0.009380929, -0.009078963, 2.63133454  , 1.91        , 3           , 50          , 0           , 0
-0.07307435 , 0.07827547  , -9.773487   , 0.002537409 , 0.00248767249, -0.00363040133, -0.228394225, -0.1342187  , 0.452541471 , -0.009355222, -0.009054427, 2.6312983   , 1.92        , 3           , 11          , 0.008178169 , 0.00817816053
-0.08877829 , 0.0834876746, -9.792569   , 0.000583289133, -0.00174916384, -0.000255679275, -0.228394225, -0.134083867, 0.452608883 , -0.00934936851, -0.00907194149, 2.631296    , 1.93        , 3           , 12          , 0.04264824  , 0
-0.104721449, 0.0777936354, -9.788195   , -0.0016585819, -0.005143221, 0.00114126527, -0.228394225, -0.1342861  , 0.4526763   , -0.00936606247, -0.009123265, 2.63130784  , 1.94        , 3           , 50          , 0           , 0
-0.08798359 , 0.104737878 , -9.807842   , 0.000565003953, 0.00191118126, -0.00053257565, -0.228394225, -0.1342861  , 0.4526763   , -0.009360362, -0.009104203, 2.631302    , 1.95        , 3           , 11          , 0.008178169 , 0.00817816053
-0.08140953 , 0.09510836  , -9.785233   , -0.000844757247, 0.00162007089, 0.00115563045, -0.228191987, -0.134016454, 0.4527437   , -0.009368913, -0.009087894, 2.63131356  , 1.96        , 3           , 12          , 0.04264824  , 0
-0.09100765 , 0.0848813057, -9.796648   , -0.000276537379, 0.000779191847, -0.000255724677, -0.228326812, -0.133949041, 0.4526763   , -0.009371654, -0.009080126, 2.6313107   , 1.97        , 3           , 50          , 0           , 0
-0.08929065 , 0.0785348639, -9.793949   , 0.00226702448, 0.000514818 , 0.000320768566, -0.228326812, -0.1342861  , 0.452811122 , -0.009349014, -0.009074949, 2.63131452  , 1.98        , 3           , 11          , 0.008178169 , 0.00817816053
-0.0936017  , 0.09706405  , -9.787579   , -0.00366631174, 0.0007562691, -0.00140167784, -0.228326812, -0.1342861  , 0.452811122 , -0.009385548, -0.009067518, 2.63130021  , 1.99        , 3           , 12          , 0.04264824  , 0
-0.08795243 , 0.063773036 , -9.836487   , -0.00248239352, -0.000354962278, 0.003969728 , -0.228191987, -0.13462317 , 0.452608883 , -0.009348335, -0.009060585, 2.63133931  , 2           , 3           , 50          , 0           , 0
-0.08500174 , 0.09294351  , -9.799733   , 7.709512E-05, -0.004561265, -0.00167567818, -0.228461638, -0.134083867, 0.452878535 , -0.00934741553, -0.009106352, 2.631323    , 2.01        , 3           , 11          , 0.008116758 , 0.008116751
-0.07867014 , 0.103129156 , -9.764839   , -0.0007901908, -0.000625085551, -0.00252116635, -0.228191987, -0.134016454, 0.452608883 , -0.00935509 , -0.009112838, 2.63129783  , 2.02        , 3           , 12          , 0.04344934  , 0
-0.07881698 , 0.118558295 , -9.790088   , 0.0003310636, 0.001353516 , -0.000252561062, -0.228191987, -0.134016454, 0.452608883 , -0.009351754, -0.009099329, 2.63129544  , 2.03        , 3           , 50          , 0           , 0
-0.0822480246, 0.09249525  , -9.810109   , -0.00191810366, -0.0006327169, 0.0005814782, -0.228529051, -0.134083867, 0.4526763   , -0.009370987, -0.00910559949, 2.63130116  , 2.04        , 3           , 11          , 0.008116758 , 0.008116751
-0.101639457, 0.100375235 , -9.804801   , -0.00474195648, -0.0009333865, -0.00112734991, -0.228394225, -0.133949041, 0.4526763   , -0.009418306, -0.00911504 , 2.63128972  , 2.05        , 3           , 12          , 0.04344934  , 0
-0.112234026, 0.08829978  , -9.79996    , -0.000234442632, 0.00134969293, -0.00138534489, -0.228596464, -0.1342187  , 0.452608883 , -0.009420524, -0.009101674, 2.631276    , 2.06        , 3           , 50          , 0           , 0
-0.08180715 , 0.10676349  , -9.761232   , 0.00316836755, -0.00116146763, 0.000604315137, -0.228596464, -0.1342187  , 0.452608883 , -0.009388896, -0.009113231, 2.631282    , 2.07        , 3           , 11          , 0.008116758 , 0.008116751
-0.0933332741, 0.0897677541, -9.765911   , -0.0005090837, -6.00384337E-05, 2.38556968E-05, -0.228461638, -0.134420931, 0.452474058 , -0.009393988, -0.009113829, 2.631282    , 2.08        , 3           , 12          , 0.04344934  , 0
-0.10406588 , 0.087326    , -9.807134   , 0.00146151241, 0.00107958762, -0.0013778772, -0.2287987  , -0.134353518, 0.4527437   , -0.009379247, -0.009103163, 2.63126874  , 2.09        , 3           , 50          , 0           , 0
-0.08935597 , 0.09581545  , -9.8332     , -0.00364599982, 0.00241661468, -0.00196466 , -0.228663877, -0.134353518, 0.4526763   , -0.009439075, -0.009131076, 2.63124871  , 2.1         , 3           , 11          , 0.008041888 , 0.008041885
-0.08834948 , 0.108830765 , -9.815964   , -0.0005274999, 0.000185106517, -0.000823495, -0.228461638, -0.134420931, 0.452339232 , -0.009444274, -0.009129303, 2.63124061  , 2.11        , 3           , 12          , 0.044274874 , 0
-0.074034065, 0.1031637   , -9.791019   , 0.0005976991, 0.00103744  , -0.00138200051, -0.228461638, -0.134420931, 0.452339232 , -0.009438169, -0.009119059, 2.63122678  , 2.12        , 3           , 50          , 0           , 0
-0.06862601 , 0.106650166 , -9.773335   , 0.0039915815, -6.590455E-05, -0.00278062047, -0.228461638, -0.1342187  , 0.4526763   , -0.009398001, -0.009119979, 2.63119912  , 2.13        , 3           , 11          , 0.008041888 , 0.008041885
-0.0741652548, 0.06965526  , -9.755905   , 0.00116583006, 0.0004781322, -0.000532622, -0.228326812, -0.134016454, 0.452811122 , -0.009386294, -0.00911525 , 2.6311934   , 2.14        , 3           , 12          , 0.044274874 , 0
-0.07506769 , 0.0963753   , -9.781564   , 0.0011886236, -0.00402690656, 0.00030804734, -0.228191987, -0.13415128 , 0.452474058 , -0.009374438, -0.009155485, 2.63119721  , 2.15        , 3           , 50          , 0           , 0
-0.09141209 , 0.114757143 , -9.823195   , -0.00335209421, 0.000166005266, -0.00140173931, -0.228191987, -0.13415128 , 0.452474058 , -0.00940783 , -0.00915395748, 2.631183    , 2.16        , 3           , 11          , 0.008041888 , 0.008041885
-0.108039081, 0.08388558  , -9.843337   , -0.00108152791, -0.00207123556, -0.00139467535, -0.228394225, -0.1342861  , 0.4527437   , -0.009418519, -0.00917480048, 2.63116956  , 2.17        , 3           , 12          , 0.044274874 , 0
-0.09374516 , 0.05194059  , -9.786862   , 0.00653284462, 0.000232854189, -0.00135564664, -0.228529051, -0.134083867, 0.4527437   , -0.009353066, -0.009172601, 2.63115573  , 2.18        , 3           , 50          , 0           , 0
-0.0852218643, 0.08517718  , -9.770839   , 0.003987548 , 0.0013419349, 0.002307224 , -0.228326812, -0.1342861  , 0.452474058 , -0.009313402, -0.009158964, 2.631179    , 2.19        , 3           , 11          , 0.008041888 , 0.008041885
-0.0893018246, 0.113713339 , -9.788832   , -0.00162861764, 0.000757541857, -0.00195816928, -0.228326812, -0.1342861  , 0.452474058 , -0.009282054, -0.009126452, 2.631159    , 2.2         , 3           , 12          , 0.04512317  , 0
-0.100676022, 0.09282354  , -9.843244   , -0.0007794536, 0.000481709052, -0.00110704 , -0.228529051, -0.13415128 , 0.452878535 , -0.009289749, -0.009121737, 2.63114762  , 2.21        , 3           , 50          , 0           , 0
-0.0710154  , 0.0855966061, -9.810504   , -0.0007822417, 0.00104483915, -0.0011061721, -0.228596464, -0.134016454, 0.452878535 , -0.009297469, -0.009111392, 2.63113618  , 2.22        , 3           , 11          , 0.00795851648, 0.007958514
-0.0678904  , 0.0935576558, -9.773837   , 0.0009115777, 0.00133786711, 3.2313168E-05, -0.228394225, -0.1342861  , 0.452811122 , -0.009288355, -0.009098014, 2.63113666  , 2.23        , 3           , 12          , 0.04512317  , 0
-0.09944265 , 0.0753728   , -9.757881   , 0.00147659471, 0.00134168786, 0.000317484519, -0.228394225, -0.1342861  , 0.452811122 , -0.009273617, -0.0090845665, 2.63114     , 2.24        , 3           , 50          , 0           , 0
-0.07354534 , 0.07380252  , -9.783454   , 7.34028E-05 , -0.000638821337, -0.001104825, -0.228529051, -0.1342861  , 0.452878535 , -0.009272783, -0.009091057, 2.63112855  , 2.25        , 3           , 11          , 0.00795851648, 0.007958514
-0.0923168957, 0.0755636841, -9.838732   , -0.0007824937, 0.00132640963, 0.000872024 , -0.228529051, -0.1342187  , 0.452878535 , -0.009280687, -0.009077714, 2.63113713  , 2.26        , 3           , 12          , 0.04512317  , 0
-0.104197644, 0.07293603  , -9.821205   , -0.00161616027, -0.0014949725, 0.000298658881, -0.228394225, -0.134083867, 0.4527437   , -0.009296875, -0.009092634, 2.63114047  , 2.27        , 3           , 50          , 0           , 0
-0.104535885, 0.08419291  , -9.813026   , 0.001197534 , 0.000495078857, -0.00109782151, -0.228394225, -0.134083867, 0.4527437   , -0.009284802, -0.009087784, 2.6311295   , 2.28        , 3           , 11          , 0.00795851648, 0.007958514
-0.08019531 , 0.07399716  , -9.817854   , 0.00148045039, 0.000496991153, -0.000248892, -0.228596464, -0.1342187  , 0.4527437   , -0.009269973, -0.009082837, 2.631127    , 2.29        , 3           , 12          , 0.04512317  , 0
-0.0865192339, 0.09461591  , -9.755444   , 0.00185200339, 0.0002138922, -0.00109643245, -0.228596464, -0.13415128 , 0.4527437   , -0.009115458, -0.009086072, 2.6311152   , 2.3         , 3           , 50          , 0           , 0
-0.07514802 , 0.0936321   , -9.770727   , -0.00238546659, 0.000466809317, -0.000550677534, -0.2282594  , -0.134353518, 0.452811122 , -0.009139261, -0.009081455, 2.63110948  , 2.31        , 3           , 11          , 0.007871649 , 0.007871639
-0.09122248 , 0.06908498  , -9.794908   , -0.00323061179, -0.000102053891, -0.00168564625, -0.2282594  , -0.134353518, 0.452811122 , -0.009171415, -0.00908263 , 2.63109231  , 2.32        , 3           , 12          , 0.0459926724, 0
-0.10345646 , 0.06743598  , -9.798623   , -0.004358436, -0.0003912565, -0.000843735237, -0.228529051, -0.134353518, 0.4526763   , -0.009214923, -0.009086621, 2.6310842   , 2.33        , 3           , 50          , 0           , 0
-0.0805186555, 0.09285408  , -9.788852   , -0.00182135473, 0.000752197462, 0.000582540059, -0.228394225, -0.1342861  , 0.4527437   , -0.009233187, -0.009079046, 2.63109     , 2.34        , 3           , 11          , 0.007871649 , 0.007871639
-0.07883086 , 0.0873766541, -9.776205   , 0.00128935929, -7.14889E-05, 0.000313187018, -0.228394225, -0.134083867, 0.453013361 , -0.009220323, -0.009079731, 2.63109326  , 2.35        , 3           , 12          , 0.0459926724, 0
-0.075564146, 0.0927744359, -9.782486   , 0.00298441  , -6.00267376E-05, 0.0011687011, -0.228394225, -0.134083867, 0.453013361 , -0.00919058453, -0.009080224, 2.63110471  , 2.36        , 3           , 50          , 0           , 0
-0.08415298 , 0.08663793  , -9.806081   , -0.0001190822, -0.0009257364, -0.0005423117, -0.228663877, -0.1342187  , 0.4527437   , -0.009191727, -0.00908952951, 2.63109946  , 2.37        , 3           , 11          , 0.007871649 , 0.007871639
-0.08543664 , 0.09698046  , -9.791132   , -0.0018098763, -0.00150032167, 0.00114414352, -0.228596464, -0.13415128 , 0.452878535 , -0.009209931, -0.009104427, 2.63111138  , 2.38        , 3           , 12          , 0.0459926724, 0
-0.09082775 , 0.0636764243, -9.798091   , 0.0007231118, 0.000206256242, 0.000310987059, -0.228461638, -0.13415128 , 0.4527437   , -0.009202727, -0.009102336, 2.63111424  , 2.39        , 3           , 50          , 0           , 0
-0.106045313, 0.06891054  , -9.825305   , -0.001751886, -0.0009087355, -0.001963184, -0.228461638, -0.13415128 , 0.4527437   , -0.009119931, -0.009066025, 2.63109422  , 2.4         , 3           , 11          , 0.007778579 , 0.00777857052
-0.08138871 , 0.103159539 , -9.764408   , -0.000341071456, -0.000336048251, 0.000587105751, -0.228529051, -0.134353518, 0.452608883 , -0.009123392, -0.009069332, 2.6311      , 2.41        , 3           , 12          , 0.0468818769, 0
-0.0934531838, 0.119055569 , -9.753135   , -0.00230600266, -0.002883506, -0.00027363043, -0.228663877, -0.134016454, 0.452878535 , -0.00914643 , -0.009098191, 2.631097    , 2.42        , 3           , 50          , 0           , 0
-0.1004286  , 0.09756167  , -9.777684   , -0.00119515869, 0.00106604793, 0.0008678621, -0.228326812, -0.134353518, 0.453013361 , -0.00915845949, -0.009087451, 2.63110566  , 2.43        , 3           , 11          , 0.007778579 , 0.00777857052
-0.09682551 , 0.0917010456, -9.791693   , -0.00147479773, 0.0005010079, 0.0008656772, -0.228326812, -0.134353518, 0.453013361 , -0.009173286, -0.009082361, 2.63111424  , 2.44        , 3           , 12          , 0.0468818769, 0
-0.08066491 , 0.08157681  , -9.789351   , 0.00275816419, 0.00109278434, -0.000243850547, -0.228461638, -0.1342861  , 0.452608883 , -0.009145682, -0.009071457, 2.63111186  , 2.45        , 3           , 50          , 0           , 0
-0.07546571 , 0.09731769  , -9.791958   , 0.00220306846, -0.000881990942, -0.000249521952, -0.228529051, -0.134083867, 0.4527437   , -0.00912363 , -0.0090803  , 2.63110948  , 2.46        , 3           , 11          , 0.007778579 , 0.00777857052
-0.0989349261, 0.09899443  , -9.806142   , 0.0007889621, -0.0003284068, 0.00115744851, -0.228663877, -0.134016454, 0.4527437   , -0.009115846, -0.009083479, 2.631121    , 2.47        , 3           , 12          , 0.0468818769, 0
-0.08960997 , 0.07998737  , -9.82197    , 0.000511785 , -0.00145657873, 0.000589320844, -0.228663877, -0.134016454, 0.4527437   , -0.009110782, -0.009097991, 2.631127    , 2.48        , 3           , 50          , 0           , 0
-0.0981202051, 0.08953684  , -9.814311   , 0.00134865474, 0.000520103669, -0.000533840561, -0.228461638, -0.134083867, 0.4526763   , -0.009097246, -0.00909284 , 2.63112187  , 2.49        , 3           , 11          , 0.007778579 , 0.00777857052
-0.08855258 , 0.09884647  , -9.79838    , 0.00190538948, 0.0005095034, 3.383562E-05, -0.228529051, -0.133814216, 0.453013361 , -0.009092227, -0.009111713, 2.63112235  , 2.5         , 3           , 12          , 0.04778939  , 0
-0.110126019, 0.076541774 , -9.799541   , -0.00205760263, 0.002172151 , -0.00111214758, -0.2282594  , -0.1342861  , 0.452878535 , -0.009112698, -0.009090092, 2.63111138  , 2.51        , 3           , 50          , 0           , 0
-0.07664235 , 0.108639628 , -9.800056   , -0.0012070447, 0.00161475327, -0.000261452165, -0.228326812, -0.1342187  , 0.452541471 , -0.009124743, -0.009073971, 2.63110852  , 2.52        , 3           , 11          , 0.007682844 , 0.00768283848
-0.07496605 , 0.0777851045, -9.7554245  , -0.001477252, -0.000921244035, -0.0008317496, -0.228326812, -0.1342187  , 0.452541471 , -0.009139442, -0.009083258, 2.6311      , 2.53        , 3           , 12          , 0.04778939  , 0
-0.0839787051, 0.0730164349, -9.781729   , 0.00190915633, -5.3622065E-05, 0.00172819279, -0.228461638, -0.134083867, 0.452811122 , -0.009120507, -0.009083635, 2.631117    , 2.54        , 3           , 50          , 0           , 0
-0.06972766 , 0.0935577452, -9.767522   , 0.00161582942, 0.00191541784, -0.0002478489, -0.228596464, -0.134083867, 0.452945948 , -0.009104326, -0.009064506, 2.63111472  , 2.55        , 3           , 11          , 0.007682844 , 0.00768283848
-0.0986850262, 0.086773254 , -9.79579449 , -7.52021E-05, 0.00105925975, -0.0013872023, -0.228326812, -0.13415128 , 0.4527437   , -0.009104949, -0.00905404 , 2.631101    , 2.56        , 3           , 12          , 0.04778939  , 0
-0.0875043  , 0.0726909637, -9.806615   , 0.00220134133, -0.00202266756, 0.00172647217, -0.228326812, -0.13415128 , 0.4527437   , -0.009083095, -0.009074108, 2.631118    , 2.57        , 3           , 50          , 0           , 0
-0.07426534 , 0.08021244  , -9.808291   , 0.000484149874, 0.00247091241, 0.00116043841, -0.2287987  , -0.134016454, 0.452945948 , -0.009078356, -0.00904929452, 2.6311295   , 2.58        , 3           , 11          , 0.007682844 , 0.00768283848
-0.07764518 , 0.0680277348, -9.796164   , 0.00106196455, -0.00034092323, -0.000536491745, -0.228461638, -0.1342861  , 0.452945948 , -0.00906769 , -0.00905275252, 2.63112426  , 2.59        , 3           , 12          , 0.04778939  , 0
-0.0800880641, 0.0554114953, -9.793071   , -0.00170913409, -0.0003220885, -0.0008323342, -0.228394225, -0.1342187  , 0.452878535 , -0.0089927325, -0.008990608, 2.6311152   , 2.6         , 3           , 50          , 0           , 0
-0.108419649, 0.0684013   , -9.800014   , 0.000545030634, 0.0008194531, -0.000254987972, -0.228394225, -0.1342187  , 0.452878535 , -0.00898726 , -0.008982438, 2.63111234  , 2.61        , 3           , 11          , 0.00758592039, 0.007585912
-0.0988404155, 0.08084479  , -9.776838   , 0.00477339467, 0.002537495 , 0.000332444382, -0.228529051, -0.13415128 , 0.452878535 , -0.008939554, -0.008957033, 2.6311152   , 2.62        , 3           , 12          , 0.0487138927, 0
-0.0946589261, 0.09114925  , -9.769531   , 0.00533989444, 0.001978179 , -0.00164355186, -0.2282594  , -0.1342861  , 0.452945948 , -0.008886007, -0.008937399, 2.631099    , 2.63        , 3           , 50          , 0           , 0
-0.08137441 , 0.09469047  , -9.795178   , -0.00143244653, 0.000806081 , -0.00111181906, -0.228394225, -0.1342861  , 0.452878535 , -0.00890023 , -0.008929437, 2.63108754  , 2.64        , 3           , 11          , 0.00758592039, 0.007585912
-0.0711032  , 0.08284735  , -9.797861   , -0.00254772417, -0.00201720721, -0.000273813581, -0.228394225, -0.1342861  , 0.452878535 , -0.008925684, -0.008949635, 2.63108516  , 2.65        , 3           , 12          , 0.0487138927, 0
-0.08519089 , 0.08163147  , -9.789837   , -0.00142326683, -0.0008833056, 0.0002982646, -0.228529051, -0.134083867, 0.452811122 , -0.008939944, -0.00895844 , 2.6310885   , 2.66        , 3           , 50          , 0           , 0
-0.1041461  , 0.08726099  , -9.7877     , -0.00199664757, 0.0008022641, 1.56968745E-05, -0.228326812, -0.13415128 , 0.4531482   , -0.008959913, -0.008950416, 2.6310885   , 2.67        , 3           , 11          , 0.00758592039, 0.007585912
-0.08065899 , 0.08202796  , -9.78935    , 0.00167071924, 0.00167178886, 3.41188133E-05, -0.228461638, -0.134420931, 0.452945948 , -0.008943206, -0.008933696, 2.6310885   , 2.68        , 3           , 12          , 0.0487138927, 0
-0.08483548 , 0.0811009258, -9.76769    , -0.000305690366, 0.00137685018, -0.00138822093, -0.228461638, -0.134420931, 0.452945948 , -0.008946138, -0.008920051, 2.63107467  , 2.69        , 3           , 50          , 0           , 0
-0.07207078 , 0.0796833038, -9.79291    , 0.001156447 , -0.0008637646, -0.00110291131, -0.228394225, -0.1342187  , 0.4526763   , -0.008865287, -0.008924563, 2.63106275  , 2.7         , 3           , 11          , 0.007488499 , 0.00748849148
-0.0744417459, 0.103651911 , -9.800511   , 0.00229001  , -0.00170082122, -0.00166402024, -0.228461638, -0.134016454, 0.453013361 , -0.00884224 , -0.008941717, 2.63104653  , 2.71        , 3           , 12          , 0.0496541448, 0
-0.08711982 , 0.101122551 , -9.809207   , -0.003352298, -0.002865278, -0.0005619448, -0.228663877, -0.1342187  , 0.452878535 , -0.008875716, -0.008970419, 2.63104081  , 2.72        , 3           , 50          , 0           , 0
-0.09497289 , 0.0948378444, -9.791666   , -0.0022186602, -0.00342076248, 0.00142021733, -0.228663877, -0.1342187  , 0.452878535 , -0.008898032, -0.009004499, 2.631056    , 2.73        , 3           , 11          , 0.007488499 , 0.00748849148
-0.09937389 , 0.102581747 , -9.797995   , 0.0008647516, 0.00110528339, -0.000253578241, -0.2282594  , -0.134016454, 0.4526763   , -0.008889361, -0.008993469, 2.63105321  , 2.74        , 3           , 12          , 0.0496541448, 0
-0.121375978, 0.0852117538, -9.789196   , -0.0005529586, 0.00222199387, -0.000258427172, -0.228596464, -0.134083867, 0.452878535 , -0.008894865, -0.008971272, 2.63105035  , 2.75        , 3           , 50          , 0           , 0
-0.09576258 , 0.100298591 , -9.802497   , 0.001435018 , -1.71576976E-05, -0.0005352176, -0.228326812, -0.134420931, 0.452878535 , -0.008880466, -0.008971491, 2.63104463  , 2.76        , 3           , 11          , 0.007488499 , 0.00748849148
-0.07792009 , 0.07665784  , -9.81195    , 0.000851716148, 0.00363936671, -0.00109728542, -0.228326812, -0.134420931, 0.452878535 , -0.008871848, -0.008935199, 2.63103366  , 2.77        , 3           , 12          , 0.0496541448, 0
-0.08018853 , 0.08069791  , -9.797938   , 0.00114209182, 0.00223345612, 0.0005970867, -0.228461638, -0.13415128 , 0.452811122 , -0.008860478, -0.00891281 , 2.63103938  , 2.78        , 3           , 50          , 0           , 0
-0.09723736 , 0.09664936  , -9.785799   , 0.006499348 , 0.00395913376, -0.000222900213, -0.228394225, -0.13415128 , 0.452945948 , -0.008795461, -0.00887324 , 2.631037    , 2.79        , 3           , 11          , 0.007488499 , 0.00748849148
-0.09954838 , 0.09351336  , -9.784474   , 0.00506727025, 0.00364291971, 0.00174782716, -0.228394225, -0.1342861  , 0.452878535 , -0.008786581, -0.008883178, 2.63105416  , 2.8         , 3           , 12          , 0.0506089851, 0
-0.091067   , 0.0776916146, -9.805265   , 0.002248415 , 0.00249755918, 0.00145038473, -0.228394225, -0.1342861  , 0.452878535 , -0.008764224, -0.008858077, 2.63106847  , 2.81        , 3           , 50          , 0           , 0
-0.08731997 , 0.087569885 , -9.80384    , 0.000571160461, -0.00117425108, 2.415445E-05, -0.228596464, -0.13415128 , 0.453013361 , -0.008758516, -0.008869817, 2.631069    , 2.82        , 3           , 11          , 0.00739170471, 0.00739169959
-0.0780149847, 0.10953673  , -9.7937355  , 0.001399088 , 0.00277339132, 0.000316717837, -0.228461638, -0.13415128 , 0.453013361 , -0.008744551, -0.008842059, 2.63107228  , 2.83        , 3           , 12          , 0.0506089851, 0
-0.06875698 , 0.08824366  , -9.800531   , 0.0008366961, 0.00220643939, -0.000251858641, -0.228394225, -0.1342861  , 0.453013361 , -0.008736159, -0.008820016, 2.63106942  , 2.84        , 3           , 50          , 0           , 0
-0.06569383 , 0.08812029  , -9.774746   , 0.00282123243, 0.0005304147, -0.00165793125, -0.228394225, -0.1342861  , 0.453013361 , -0.008707802, -0.008814857, 2.63105226  , 2.85        , 3           , 11          , 0.00739170471, 0.00739169959
-0.09863972 , 0.09261252  , -9.788087   , 0.0008438293, 0.0007986147, 2.85089336E-05, -0.228529051, -0.13415128 , 0.452811122 , -0.008699365, -0.008806868, 2.63105273  , 2.86        , 3           , 12          , 0.0506089851, 0
-0.09082122 , 0.0975301862, -9.801567   , -0.0002838314, 0.000509412843, 0.00115295721, -0.228529051, -0.134016454, 0.452945948 , -0.008702304, -0.008801676, 2.63106418  , 2.87        , 3           , 50          , 0           , 0
-0.08638231 , 0.12321911  , -9.807754   , -0.000292521669, 0.00219880184, 0.0005904859, -0.228461638, -0.133949041, 0.452945948 , -0.00870528 , -0.00877963752, 2.63107     , 2.88        , 3           , 11          , 0.00739170471, 0.00739169959
-0.08052384 , 0.09597433  , -9.777538   , -0.000838348758, -0.00174693123, -0.000265835319, -0.228461638, -0.133949041, 0.452945948 , -0.008713642, -0.008797128, 2.63106751  , 2.89        , 3           , 12          , 0.0506089851, 0
-0.09430955 , 0.112410814 , -9.786616   , 0.0004900413, 0.000239713641, 0.0017222747, -0.228326812, -0.1342187  , 0.4527437   , -0.00885300152, -0.008782831, 2.631086    , 2.9         , 3           , 50          , 0           , 0
-0.08371055 , 0.09287313  , -9.783453   , 0.0035750994, 0.00420262432, -0.00193015113, -0.228394225, -0.13415128 , 0.453013361 , -0.00881707948, -0.008740977, 2.63106656  , 2.91        , 3           , 11          , 0.00730000576, 0.007299998
-0.105119012, 0.0742728859, -9.813071   , -0.0009197942, -0.000332968659, 0.000867209747, -0.228529051, -0.134083867, 0.452945948 , -0.008826352, -0.00874423049, 2.63107514  , 2.92        , 3           , 12          , 0.0515773222, 0
-0.08991212 , 0.09216621  , -9.819661   , -0.00148743589, 0.000226341523, 0.0008654437, -0.228529051, -0.134083867, 0.452945948 , -0.008841301, -0.008741889, 2.63108373  , 2.93        , 3           , 50          , 0           , 0
-0.08490961 , 0.06898939  , -9.788531   , 0.00103374734, 0.00418543676, -0.001094391, -0.228326812, -0.1342187  , 0.452878535 , -0.008830867, -0.008700133, 2.63107228  , 2.94        , 3           , 11          , 0.00730000576, 0.007299998
-0.09613926 , 0.07231965  , -9.800355   , 0.00190832978, -0.001158566, 0.0003140023, -0.228326812, -0.134083867, 0.452945948 , -0.008811811, -0.00871169 , 2.631076    , 2.95        , 3           , 12          , 0.0515773222, 0
-0.0836628154, 0.09692896  , -9.782079   , -0.0006403186, 0.000232070626, 0.0005868571, -0.228461638, -0.13415128 , 0.452945948 , -0.008818264, -0.00870932 , 2.63108182  , 2.96        , 3           , 50          , 0           , 0
-0.0812341645, 0.102838419 , -9.803279   , -0.00120533525, 0.0002282499, 0.000301685737, -0.228461638, -0.134555757, 0.453080773 , -0.008830344, -0.008707009, 2.63108468  , 2.97        , 3           , 11          , 0.00730000576, 0.007299998
-0.09897846 , 0.0904784948, -9.822902   , -0.002903085, 0.0004983466, -0.002813694, -0.228461638, -0.134555757, 0.453080773 , -0.008859129, -0.008702275, 2.631056    , 2.98        , 3           , 12          , 0.0515773222, 0
-0.09273179 , 0.09166834  , -9.796182   , 0.00358074973, 0.0033579364, 0.0006113844, -0.228529051, -0.1342187  , 0.453080773 , -0.008823372, -0.008668643, 2.63106227  , 2.99        , 3           , 50          , 0           , 0
-0.1070199  , 0.104052775 , -9.806183   , 0.00356621388, 0.000511294638, 0.000607033668, -0.228461638, -0.1342187  , 0.452945948 , -0.008844248, -0.008724968, 2.631069    , 3           , 3           , 11          , 0.00720433146, 0.007204325
-0.09693082 , 0.07777886  , -9.810735   , 0.00131049159, -0.000348682661, -0.000252415921, -0.228394225, -0.13415128 , 0.452878535 , -0.008831121, -0.008728477, 2.63106656  , 3.01        , 3           , 12          , 0.05255813  , 0
-0.09310689 , 0.09843185  , -9.793445   , -0.00348363188, -0.00178897672, 5.56376472E-06, -0.228394225, -0.13415128 , 0.452878535 , -0.008865961, -0.008746365, 2.63106656  , 3.02        , 3           , 50          , 0           , 0
-0.105746463, 0.102628954 , -9.789907   , -0.00235269265, -0.00206290255, -0.000272139674, -0.228529051, -0.1342187  , 0.453013361 , -0.008889466, -0.008767018, 2.63106418  , 3.03        , 3           , 11          , 0.00720433146, 0.007204325
-0.09404279 , 0.06769387  , -9.774143   , 0.0001844769, -0.00120102032, -0.001106598, -0.228529051, -0.1342187  , 0.453080773 , -0.008887524, -0.008779125, 2.63105321  , 3.04        , 3           , 12          , 0.05255813  , 0
-0.0843160748, 0.08293498  , -9.778074   , -0.00207108166, -0.0020609966, -0.00168351026, -0.228326812, -0.134353518, 0.452945948 , -0.008908087, -0.00879988447, 2.63103652  , 3.05        , 3           , 50          , 0           , 0
-0.0788724348, 0.08154043  , -9.784818   , -0.004041352, -0.003200621, 0.000283297733, -0.228326812, -0.134353518, 0.452945948 , -0.00894853 , -0.008831863, 2.63103986  , 3.06        , 3           , 11          , 0.00720433146, 0.007204325
-0.07836711 , 0.08961198  , -9.771673   , -0.00433665048, -0.0006684471, -0.000279188534, -0.228663877, -0.13415128 , 0.453080773 , -0.008991871, -0.00883857347, 2.631037    , 3.07        , 3           , 12          , 0.05255813  , 0
-0.09083608 , 0.1077842   , -9.764913   , 0.00130696211, 0.000496015651, 0.000879035564, -0.228394225, -0.134083867, 0.453013361 , -0.00897888 , -0.008833536, 2.63104558  , 3.08        , 3           , 50          , 0           , 0
-0.07429132 , 0.118057005 , -9.790958   , -0.000390713, 0.00104768435, 0.0003069269, -0.228326812, -0.1342187  , 0.452945948 , -0.008982814, -0.008823031, 2.63104844  , 3.09        , 3           , 11          , 0.00720433146, 0.007204325
-0.08546725 , 0.09338486  , -9.795215   , 0.00238991436, 0.001063118 , -0.001092263, -0.228326812, -0.1342187  , 0.452945948 , -0.009046629, -0.00882002 , 2.63103843  , 3.1         , 3           , 12          , 0.05355046  , 0
-0.09220596 , 0.0645689741, -9.790415   , 0.00126676168, -7.077743E-05, 0.0005959583, -0.228394225, -0.134083867, 0.453013361 , -0.009034013, -0.008820673, 2.63104463  , 3.11        , 3           , 50          , 0           , 0
-0.09014952 , 0.0888493955, -9.772218   , -0.0004307502, 0.000480892137, 0.000306387024, -0.228529051, -0.134016454, 0.452945948 , -0.009038348, -0.008815837, 2.63104749  , 3.12        , 3           , 11          , 0.007111825 , 0.00711182458
-0.102691844, 0.09089355  , -9.799424   , 0.000413415924, 0.00104975048, -0.000253869046, -0.228326812, -0.134083867, 0.452878535 , -0.009034189, -0.008805362, 2.63104463  , 3.13        , 3           , 12          , 0.05355046  , 0
-0.09897127 , 0.100304037 , -9.79303    , 0.001272916 , -0.00147860684, -0.0008188986, -0.228326812, -0.134083867, 0.452878535 , -0.009021389, -0.008820222, 2.631037    , 3.14        , 3           , 50          , 0           , 0
-0.0701693445, 0.09089395  , -9.778837   , -0.00156340864, 0.00103638158, 1.94496824E-05, -0.228461638, -0.1342861  , 0.4527437   , -0.009037024, -0.008809857, 2.631037    , 3.15        , 3           , 11          , 0.007111825 , 0.00711182458
-0.06986492 , 0.09917494  , -9.826711   , -0.00297898334, 0.00158995879, -0.00111641688, -0.228326812, -0.134083867, 0.452878535 , -0.009066713, -0.00879406 , 2.63102555  , 3.16        , 3           , 12          , 0.05355046  , 0
-0.0779594  , 0.08153583  , -9.786619   , 0.000418991927, -7.650969E-05, -0.000255604769, -0.228596464, -0.134353518, 0.453080773 , -0.009062502, -0.008794847, 2.63102269  , 3.17        , 3           , 50          , 0           , 0
-0.1022207  , 0.06553531  , -9.774668   , 0.005201473 , 0.00361630274, -0.00135772559, -0.228596464, -0.134353518, 0.453080773 , -0.009010365, -0.008758808, 2.63100934  , 3.18        , 3           , 11          , 0.007111825 , 0.00711182458
-0.0911241844, 0.0785379857, -9.78854    , 0.003520927 , 0.00107076415, 0.00117330439, -0.228394225, -0.134083867, 0.453013361 , -0.008975258, -0.008747994, 2.63102078  , 3.19        , 3           , 12          , 0.05355046  , 0
-0.07420216 , 0.090083316 , -9.791979   , -0.000422349578, 0.0010326464, -0.0016706842, -0.228663877, -0.134016454, 0.452811122 , -0.008953219, -0.008761888, 2.631004    , 3.2         , 3           , 50          , 0           , 0
-0.07699478 , 0.0806803554, -9.80379    , -0.0006926455, -0.00122177962, 1.97521586E-05, -0.228326812, -0.134016454, 0.453080773 , -0.008960149, -0.008774105, 2.63100457  , 3.21        , 3           , 11          , 0.007019315 , 0.00701931445
-0.0872345641, 0.08451463  , -9.834587   , 0.00156151934, -8.02378345E-05, 0.0005970984, -0.228326812, -0.134016454, 0.453080773 , -0.008944587, -0.008774854, 2.63101029  , 3.22        , 3           , 12          , 0.0545534156, 0
-0.0796500146, 0.0780839548, -9.827325   , -0.0012597976, -0.00066246686, 0.0008655986, -0.228461638, -0.1342861  , 0.453013361 , -0.008957261, -0.00878140051, 2.63101888  , 3.23        , 3           , 50          , 0           , 0
-0.07934954 , 0.114035457 , -9.785139   , -0.00126135477, -0.00038090258, 0.00058349513, -0.228529051, -0.1342187  , 0.4531482   , -0.008969924, -0.008785157, 2.6310246   , 3.24        , 3           , 11          , 0.007019315 , 0.00701931445
-0.0941516  , 0.09431258  , -9.772678   , 0.00183706509, 0.00104792614, -0.00166014861, -0.228461638, -0.1342187  , 0.452878535 , -0.008951407, -0.008774827, 2.63100839  , 3.25        , 3           , 12          , 0.0545534156, 0
-0.107689835, 0.09272338  , -9.789512   , 0.00381036  , 0.00190599356, -0.0008020158, -0.228461638, -0.1342187  , 0.452878535 , -0.008913232, -0.00875584 , 2.6309998   , 3.26        , 3           , 50          , 0           , 0
-0.107121564, 0.08745543  , -9.834728   , -0.0026760248, -0.000108892862, -0.00140041788, -0.228394225, -0.13415128 , 0.452945948 , -0.008939871, -0.008757055, 2.63098645  , 3.27        , 3           , 11          , 0.007019315 , 0.00701931445
-0.08504141 , 0.07952086  , -9.833236   , -0.00210043415, -0.00207602349, 0.000294403173, -0.228663877, -0.13415128 , 0.452945948 , -0.008960904, -0.008777787, 2.63098931  , 3.28        , 3           , 12          , 0.0545534156, 0
-0.117706195, 0.09145663  , -9.780553   , 0.00211579935, 0.00189453375, -0.0008099174, -0.228394225, -0.134083867, 0.452945948 , -0.008939672, -0.008758916, 2.63098073  , 3.29        , 3           , 50          , 0           , 0
-0.105499759, 0.07128629  , -9.72947    , 0.00295439619, 0.0026984578, 0.0008902581, -0.228394225, -0.134083867, 0.452945948 , -0.008922158, -0.008833464, 2.63099027  , 3.3         , 3           , 11          , 0.006929735 , 0.006929732
-0.07204108 , 0.09220516  , -9.759862   , 0.0012645066, 0.00184230483, 0.00172866718, -0.228596464, -0.134690583, 0.452878535 , -0.008909662, -0.008814888, 2.63100743  , 3.31        , 3           , 12          , 0.05556616  , 0
-0.08025168 , 0.106014557 , -9.811846   , -0.0015563952, 0.0009785059, 0.0003015086, -0.228596464, -0.13415128 , 0.4531482   , -0.008925255, -0.008805077, 2.63101029  , 3.32        , 3           , 50          , 0           , 0
-0.08846687 , 0.09623784  , -9.827768   , -0.00439337268, 0.00349349156, 9.707175E-06, -0.228529051, -0.134353518, 0.453080773 , -0.008969187, -0.008770141, 2.63101029  , 3.33        , 3           , 11          , 0.006929735 , 0.006929732
-0.0994164646, 0.09540565  , -9.81068    , -0.0009977702, 0.00210858323, -0.0008242714, -0.228529051, -0.134353518, 0.453080773 , -0.00897909 , -0.008749131, 2.63100171  , 3.34        , 3           , 12          , 0.05556616  , 0
-0.07938044 , 0.0850717947, -9.759949   , 0.00156071037, -0.00097143685, 0.00144310738, -0.228529051, -0.134353518, 0.4527437   , -0.008963611, -0.008758714, 2.631016    , 3.35        , 3           , 50          , 0           , 0
-0.08099816 , 0.102211095 , -9.752206   , 0.002689439 , -0.0009638016, -0.000246849639, -0.228326812, -0.1342861  , 0.452945948 , -0.008936694, -0.008768373, 2.63101363  , 3.36        , 3           , 11          , 0.006929735 , 0.006929732
-0.09667424 , 0.06958026  , -9.789072   , -0.00182135263, -0.00268375315, -0.0008355992, -0.228394225, -0.1342861  , 0.452945948 , -0.008954836, -0.008795285, 2.63100553  , 3.37        , 3           , 12          , 0.05556616  , 0
-0.11821112 , 0.0513223   , -9.786148   , -0.00155377039, 0.000415375049, 1.81032519E-05, -0.228461638, -0.134353518, 0.452878535 , -0.008970375, -0.008791129, 2.63100553  , 3.38        , 3           , 50          , 0           , 0
-0.094302766, 0.07633607  , -9.793545   , 0.002683863 , 0.000162458746, -0.000245113915, -0.228461638, -0.134353518, 0.452878535 , -0.008943514, -0.008789526, 2.63100314  , 3.39        , 3           , 11          , 0.006929735 , 0.006929732
-0.0965301841, 0.0804094   , -9.789477   , 0.002149725 , -0.000445054146, -0.000531695143, -0.228866115, -0.133881629, 0.453013361 , -0.008858665, -0.008885393, 2.630998    , 3.4         , 3           , 12          , 0.0565879159, 0
-0.08584215 , 0.105504744 , -9.77528    , 0.00157764961, 0.00124052167, 0.00144603685, -0.2287987  , -0.134016454, 0.452878535 , -0.008843015, -0.008872858, 2.6310122   , 3.41        , 3           , 50          , 0           , 0
-0.0747915059, 0.1144531   , -9.79097748 , -0.000115918141, 0.000665923231, -0.00167064485, -0.228394225, -0.1342861  , 0.452878535 , -0.008844026, -0.008866346, 2.630995    , 3.42        , 3           , 11          , 0.0068416   , 0.006841596
-0.0814916939, 0.08477573  , -9.798384   , -0.000107064661, -0.00102346507, -0.000825636, -0.228394225, -0.1342861  , 0.452878535 , -0.008845023, -0.008876653, 2.63098741  , 3.43        , 3           , 12          , 0.0565879159, 0
-0.07241677 , 0.0828995854, -9.808718   , 0.00214931  , -0.000163484423, 0.00116396346, -0.228663877, -0.1342861  , 0.453013361 , -0.008823633, -0.008878185, 2.63099885  , 3.44        , 3           , 50          , 0           , 0
-0.07173766 , 0.106734224 , -9.787371   , 0.00270842458, 0.000966594962, 0.000885795569, -0.228461638, -0.1342187  , 0.452811122 , -0.008796629, -0.008868443, 2.63100743  , 3.45        , 3           , 11          , 0.0068416   , 0.006841596
-0.08069481 , 0.106474064 , -9.812751   , 0.0007468596, -0.00242556212, -0.00138892978, -0.228461638, -0.13415128 , 0.4527437   , -0.00878904 , -0.008892819, 2.630994    , 3.46        , 3           , 12          , 0.0565879159, 0
-0.09002571 , 0.08984242  , -9.799332   , 0.0010163252, 0.0003920035, 0.000311951153, -0.228461638, -0.13415128 , 0.4527437   , -0.008778904, -0.008888871, 2.630997    , 3.47        , 3           , 50          , 0           , 0
-0.0874684751, 0.0910203457, -9.75637    , -0.000126580708, 0.00291844644, -0.0008195609, -0.228663877, -0.134083867, 0.452811122 , -0.008780093, -0.008859759, 2.63098836  , 3.48        , 3           , 11          , 0.0068416   , 0.006841596
-0.09181877 , 0.09925168  , -9.773543   , 0.00156232982, 0.003774594 , -0.00335319457, -0.228529051, -0.1342861  , 0.453013361 , -0.008764171, -0.008822312, 2.630955    , 3.49        , 3           , 12          , 0.0565879159, 0
-0.110230304, 0.09914698  , -9.812104   , -0.00239371229, -0.00300835236, -0.0008389162, -0.228394225, -0.134488344, 0.452945948 , -0.00887389947, -0.008849353, 2.63094735  , 3.5         , 3           , 50          , 0           , 0
-0.109401233, 0.09907436  , -9.793567   , -0.00184328819, -0.000188884136, -0.00167955551, -0.228394225, -0.134488344, 0.452945948 , -0.008892182, -0.008851391, 2.63093019  , 3.51        , 3           , 11          , 0.00675563  , 0.00675562955
-0.108483322, 0.07058146  , -9.777405   , 0.000131149 , 0.000669188739, 0.00115633954, -0.228529051, -0.1342187  , 0.452811122 , -0.008890972, -0.008844596, 2.63094163  , 3.52        , 3           , 12          , 0.05761795  , 0
-0.08675185 , 0.07746611  , -9.753708   , 0.00126454874, -0.000167868988, 0.000312693 , -0.228529051, -0.133949041, 0.452878535 , -0.008878355, -0.008846248, 2.630945    , 3.53        , 3           , 50          , 0           , 0
-0.07811761 , 0.109453574 , -9.768877   , -0.000728588668, 0.00291597354, -0.00110443949, -0.228394225, -0.1342861  , 0.452945948 , -0.00888554 , -0.008817187, 2.630934    , 3.54        , 3           , 11          , 0.00675563  , 0.00675562955
-0.09099073 , 0.122760661 , -9.789712   , 0.000956051052, 0.00489838747, -0.00137603784, -0.228394225, -0.1342861  , 0.452945948 , -0.008875856, -0.008768327, 2.63091969  , 3.55        , 3           , 12          , 0.05761795  , 0
-0.09517431 , 0.114686266 , -9.789325   , 0.00239360379, -0.00016023223, -0.000812188955, -0.228394225, -0.1342187  , 0.452811122 , -0.00885184947, -0.008770001, 2.630911    , 3.56        , 3           , 50          , 0           , 0
-0.0900015756, 0.09477182  , -9.789368   , -0.000156928174, 0.00151196693, -0.00138651277, -0.228394225, -0.134016454, 0.452878535 , -0.008853297, -0.008755004, 2.63089776  , 3.57        , 3           , 11          , 0.00675563  , 0.00675562955
-0.09449738 , 0.0952973   , -9.795728   , -0.0004343572, 0.00066536566, 2.35556945E-05, -0.228461638, -0.134353518, 0.452878535 , -0.00885764 , -0.008748348, 2.63089776  , 3.58        , 3           , 12          , 0.05761795  , 0
-0.111586362, 0.10228923  , -9.802609   , 0.00155919534, -0.00270004617, -0.000254970219, -0.228461638, -0.134353518, 0.452878535 , -0.008842029, -0.008775369, 2.63089538  , 3.59        , 3           , 50          , 0           , 0
-0.0846786648, 0.09149404  , -9.772617   , -0.000485661352, -0.000220702248, 0.0005874507, -0.228326812, -0.13415128 , 0.4527437   , -0.008980292, -0.008876425, 2.63090253  , 3.6         , 3           , 11          , 0.006673191 , 0.00667318655
-0.108591542, 0.08782728  , -9.806262   , -0.00161839416, 5.321513E-05, -0.002242758, -0.228529051, -0.134488344, 0.452878535 , -0.008996277, -0.008876094, 2.63088     , 3.61        , 3           , 12          , 0.05865558  , 0
-0.1005076  , 0.106350519 , -9.840927   , -0.000770624261, 5.8947393E-05, -0.00139119453, -0.228461638, -0.134420931, 0.4526763   , -0.009003861, -0.00887563 , 2.63086629  , 3.62        , 3           , 50          , 0           , 0
-0.08494677 , 0.09923695  , -9.792927   , 0.00260922941, 0.002052825 , -0.0005247413, -0.228461638, -0.134420931, 0.4526763   , -0.00897772 , -0.008855148, 2.63086057  , 3.63        , 3           , 11          , 0.006673191 , 0.00667318655
-0.09023913 , 0.07851072  , -9.783561   , 0.000357852143, 0.000348153117, -0.00110295543, -0.228394225, -0.134083867, 0.452811122 , -0.008974042, -0.008851767, 2.63085     , 3.64        , 3           , 12          , 0.05865558  , 0
-0.09133605 , 0.101948738 , -9.772173   , -0.00049886 , 0.00231338036, -0.0005387936, -0.228663877, -0.13415128 , 0.4527437   , -0.008978983, -0.008828681, 2.63084435  , 3.65        , 3           , 50          , 0           , 0
-0.08005275 , 0.103125453 , -9.758974   , 0.00317638158, 0.00149351242, -0.00137058774, -0.228326812, -0.1342187  , 0.452945948 , -0.008947098, -0.00881387 , 2.63083053  , 3.66        , 3           , 11          , 0.006673191 , 0.00667318655
-0.0781035647, 0.110804    , -9.767968   , -0.003303864, -0.00136606 , 0.00142015808, -0.228326812, -0.1342187  , 0.452945948 , -0.008980264, -0.008827402, 2.63084483  , 3.67        , 3           , 12          , 0.05865558  , 0
-0.0811236948, 0.07086485  , -9.822393   , 0.002887726 , 0.00261786  , -0.002500319, -0.228394225, -0.1342861  , 0.452945948 , -0.008951163, -0.008801449, 2.63081956  , 3.68        , 3           , 50          , 0           , 0
-0.06340362 , 0.07561719  , -9.821336   , -0.000485661352, -0.000220702248, 0.0005874507, -0.228663877, -0.134083867, 0.452878535 , -0.008956071, -0.008803603, 2.63082528  , 3.69        , 3           , 11          , 0.006673191 , 0.00667318655
-0.09602319 , 0.08312611  , -9.79398251 , 0.00259643164, 0.00121679727, 3.92644433E-05, -0.228461638, -0.134083867, 0.452945948 , -0.008972666, -0.008770137, 2.63082623  , 3.7         , 3           , 12          , 0.0597001649, 0
-0.07267901 , 0.106269509 , -9.78014851 , 0.0017526804, 0.000366369 , -0.00109613792, -0.228461638, -0.134083867, 0.452945948 , -0.008955045, -0.008766572, 2.63081479  , 3.71        , 3           , 50          , 0           , 0
-0.112796858, 0.08062797  , -9.797737   , 0.00401816051, -0.0007446092, -0.000239725661, -0.228326812, -0.1342187  , 0.452878535 , -0.008914842, -0.008774039, 2.630813    , 3.72        , 3           , 11          , 0.00659154076, 0.00659153843
-0.08118232 , 0.0748345   , -9.795259   , 0.0011941297, -0.000482135918, 0.00257291319, -0.228596464, -0.133949041, 0.452878535 , -0.008903126, -0.008778629, 2.63083863  , 3.73        , 3           , 12          , 0.0597001649, 0
-0.09311992 , 0.09083333  , -9.814718   , 0.00147664535, -0.000761797361, 0.000313496683, -0.228529051, -0.1342861  , 0.4526763   , -0.008888389, -0.008786219, 2.630842    , 3.74        , 3           , 50          , 0           , 0
-0.08805008 , 0.09798873  , -9.813295   , -0.00163857685, 0.000906582631, 1.90765131E-05, -0.228529051, -0.1342861  , 0.4526763   , -0.008904776, -0.008777153, 2.630842    , 3.75        , 3           , 11          , 0.00659154076, 0.00659153843
-0.09637962 , 0.08990474  , -9.795765   , 4.70417872E-05, 0.00288900221, 0.00144270319, -0.228191987, -0.1342187  , 0.452811122 , -0.00890443 , -0.00874813553, 2.6308558   , 3.76        , 3           , 12          , 0.0597001649, 0
-0.08914295 , 0.08668885  , -9.803859   , 0.002034366 , 0.0006498472, 3.57627E-05 , -0.2282594  , -0.13415128 , 0.452811122 , -0.008884088, -0.008741635, 2.63085675  , 3.77        , 3           , 50          , 0           , 0
-0.0690392852, 0.107133836 , -9.781472   , -0.00135705457, 0.00119005993, 0.0008684398, -0.228326812, -0.1342187  , 0.453013361 , -0.008897733, -0.008729656, 2.63086534  , 3.78        , 3           , 11          , 0.00659154076, 0.00659153843
-0.06715678 , 0.08537337  , -9.758044   , -0.0005076387, 0.0006326567, -0.00025862694, -0.228326812, -0.1342187  , 0.453013361 , -0.008902786, -0.008723356, 2.63086247  , 3.79        , 3           , 12          , 0.0597001649, 0
-0.116741419, 0.0607699528, -9.782933   , 0.002300695 , 0.000660573132, 0.000884871 , -0.228394225, -0.1342187  , 0.452608883 , -0.008921794, -0.0086944  , 2.630871    , 3.8         , 3           , 50          , 0           , 0
-0.1056313  , 0.07199826  , -9.805853   , 0.0008776607, 0.00262197363, -0.00109643838, -0.228394225, -0.133814216, 0.452878535 , -0.00891292 , -0.008668279, 2.63086     , 3.81        , 3           , 11          , 0.0065114256, 0.006511427
-0.08824991 , 0.0924706161, -9.782132   , 0.00483351946, 0.00236715027, -0.000230822741, -0.228461638, -0.133949041, 0.452878535 , -0.008864563, -0.008644628, 2.63085771  , 3.82        , 3           , 12          , 0.0607511029, 0
-0.08028497 , 0.0712464154, -9.804758   , -0.00108638045, 0.0003560915, 0.00199878379, -0.228326812, -0.134083867, 0.452541471 , -0.008875599, -0.008640889, 2.63087773  , 3.83        , 3           , 50          , 0           , 0
-0.108724535, 0.08191696  , -9.792728   , -0.00221091229, -0.00105938246, -0.00111656578, -0.228326812, -0.134083867, 0.452541471 , -0.008897613, -0.00865158252, 2.63086629  , 3.84        , 3           , 11          , 0.0065114256, 0.006511427
-0.105813883, 0.104806088 , -9.766396   , 0.00260033947, -0.00271629565, 0.00172859326, -0.228394225, -0.134016454, 0.452811122 , -0.00887176 , -0.008678591, 2.630884    , 3.85        , 3           , 12          , 0.0607511029, 0
-0.07982285 , 0.114024155 , -9.78017    , 0.000326406327, 0.000365644461, 0.0031355184, -0.228596464, -0.134083867, 0.4527437   , -0.008868768, -0.008674657, 2.6309154   , 3.86        , 3           , 50          , 0           , 0
-0.095689036, 0.09634103  , -9.833247   , 0.00144702266, 0.00178109948, -0.0005300313, -0.228326812, -0.1342861  , 0.4526763   , -0.008854251, -0.008656893, 2.63091016  , 3.87        , 3           , 11          , 0.0065114256, 0.006511427
-0.09451085 , 0.0845739841, -9.826959   , 6.219036E-05, -0.00357818278, 0.0008678265, -0.228326812, -0.1342861  , 0.4526763   , -0.008853708, -0.008692597, 2.63091874  , 3.88        , 3           , 12          , 0.0607511029, 0
-0.08193558 , 0.08166381  , -9.810603   , 5.354441E-05, -0.0020295796, -0.0008250116, -0.228596464, -0.134083867, 0.4527437   , -0.008853102, -0.008712964, 2.630911    , 3.89        , 3           , 50          , 0           , 0
-0.10084299 , 0.0588397868, -9.80089951 , 0.000331413728, -0.0030351677, -0.001390343, -0.228394225, -0.134083867, 0.453013361 , -0.008873319, -0.008800634, 2.63089776  , 3.9         , 3           , 11          , 0.006433608 , 0.006433604
-0.105913304, 0.0561474934, -9.787842   , 0.00159732939, -0.00190030993, -0.000393799855, -0.228326812, -0.1342187  , 0.452541471 , -0.008857313, -0.008819672, 2.630894    , 3.91        , 3           , 12          , 0.0618078448, 0
-0.102446333, 0.077776134 , -9.790889   , 0.001869546 , 0.000213339066, 3.45778062E-05, -0.228326812, -0.1342187  , 0.452541471 , -0.008838621, -0.008817536, 2.63089442  , 3.92        , 3           , 50          , 0           , 0
-0.06650906 , 0.08418696  , -9.809571   , 0.000733031833, 0.00161352544, 0.0003140172, -0.228529051, -0.134083867, 0.452541471 , -0.008831317, -0.008801373, 2.63089728  , 3.93        , 3           , 11          , 0.006433608 , 0.006433604
-0.072608836, 0.09516762  , -9.83307648 , 2.37689619E-05, 0.002171879 , -0.000394750823, -0.228529051, -0.13415128 , 0.452878535 , -0.008831042, -0.00877969 , 2.630893    , 3.94        , 3           , 12          , 0.0618078448, 0
-0.0816957355, 0.101051211 , -9.806907   , -0.0009545962, 5.345403E-05, -0.0009676897, -0.228596464, -0.134016454, 0.452608883 , -0.008840503, -0.00877924 , 2.63088346  , 3.95        , 3           , 50          , 0           , 0
-0.08974917 , 0.08344539  , -9.776757   , -0.00165852788, -0.0005144542, -0.002102   , -0.228596464, -0.134016454, 0.452608883 , -0.008856905, -0.008784571, 2.63086247  , 3.96        , 3           , 11          , 0.006433608 , 0.006433604
-0.09691848 , 0.09207207  , -9.767736   , 0.00115212658, 0.00232029776, -0.00151941611, -0.228326812, -0.1342187  , 0.4527437   , -0.008845247, -0.008761503, 2.63084722  , 3.97        , 3           , 12          , 0.0618078448, 0
-0.114457577, 0.09505432  , -9.78819752 , 0.0008736743, 0.00161447714, -0.000674205367, -0.228529051, -0.134016454, 0.4527437   , -0.00883645 , -0.008745417, 2.63084054  , 3.98        , 3           , 50          , 0           , 0
-0.109541863, 0.0802136958, -9.81986    , 0.000173020089, 0.000483441429, -0.000961770944, -0.228394225, -0.13415128 , 0.4526763   , -0.008834635, -0.008740668, 2.63083053  , 3.99        , 3           , 11          , 0.006433608 , 0.006433604
-0.105478078, 0.07747861  , -9.825716   , 0.00214045448, 0.002431156 , -0.000949744135, -0.228394225, -0.13415128 , 0.4526763   , -0.008812573, -0.008814085, 2.63082147  , 4           , 3           , 12          , 0.06286986  , 0
-0.115066715, 0.08020341  , -9.797755   , 0.0024281682, 0.00144759042, -0.000243602291, -0.228326812, -0.1342187  , 0.452406645 , -0.00878827 , -0.008799631, 2.63081861  , 4.01        , 3           , 50          , 0           , 0
-0.0874509  , 0.08701743  , -9.77356148 , 0.002438742 , -0.000523361261, 0.00116604753, -0.228394225, -0.13415128 , 0.4526763   , -0.008763985, -0.008804763, 2.63083053  , 4.02        , 3           , 11          , 0.00635815039, 0.00635813642
-0.11137256 , 0.0891461   , -9.78639    , 0.00286172982, -0.0005204994, 3.78729055E-05, -0.228394225, -0.133949041, 0.452608883 , -0.00873537 , -0.008809963, 2.630831    , 4.03        , 3           , 12          , 0.06286986  , 0
-0.0939644352, 0.06775737  , -9.793126   , 0.00102361955, -0.000110567817, -0.0003938425, -0.228394225, -0.133949041, 0.452608883 , -0.008725099, -0.008811103, 2.63082719  , 4.04        , 3           , 50          , 0           , 0
-0.0737527758, 0.0905216038, -9.789713   , -0.00136905967, -0.00153462321, 0.00128801877, -0.228394225, -0.1342861  , 0.4526763   , -0.008738907, -0.008826337, 2.63084     , 4.05        , 3           , 11          , 0.00635815039, 0.00635813642
-0.0732539  , 0.09233903  , -9.795126   , -0.0010849497, -0.00195506285, 0.0005823413, -0.228461638, -0.134016454, 0.452541471 , -0.008749808, -0.008845838, 2.63084626  , 4.06        , 3           , 12          , 0.06286986  , 0
-0.063466996, 0.0858318955, -9.77293    , -0.002079346, -0.000835488958, 1.43927655E-05, -0.228394225, -0.13415128 , 0.4526763   , -0.008770604, -0.00885419 , 2.63084626  , 4.07        , 3           , 50          , 0           , 0
-0.0811720341, 0.08376984  , -9.769007   , -0.00123386725, -0.000548195967, -0.000687566237, -0.228394225, -0.13415128 , 0.4526763   , -0.008782884, -0.008859731, 2.63083959  , 4.08        , 3           , 11          , 0.00635815039, 0.00635813642
-0.0909789056, 0.0884754062, -9.792113   , 0.00173386862, -0.0009504882, -0.000391851878, -0.228663877, -0.13415128 , 0.452474058 , -0.00876551 , -0.008869271, 2.63083577  , 4.09        , 3           , 12          , 0.06286986  , 0
-0.09828348 , 0.08047752  , -9.803501   , -0.00038023456, -0.00152868452, 0.0007275699, -0.228461638, -0.134016454, 0.452608883 , -0.00876758 , -0.008886531, 2.6308434   , 4.1         , 3           , 50          , 0           , 0
-0.09399311 , 0.0917629   , -9.819694   , -0.00264108018, -0.00140318519, -0.000554167258, -0.228461638, -0.133949041, 0.4526763   , -0.008793941, -0.00890061 , 2.63083768  , 4.11        , 3           , 11          , 0.006284592 , 0.006284578
-0.112530857, 0.09244862  , -9.824805   , 0.0008838046, -0.0003938355, -0.00152506784, -0.228461638, -0.133949041, 0.4526763   , -0.008784967, -0.008904681, 2.63082242  , 4.12        , 3           , 12          , 0.06393665  , 0
-0.0909765139, 0.0942799   , -9.77401    , 0.00243362249, 0.000461367716, -0.000386373082, -0.228394225, -0.13415128 , 0.452406645 , -0.008760596, -0.008900102, 2.63081861  , 4.13        , 3           , 50          , 0           , 0
-0.08098158 , 0.104456283 , -9.749032   , 3.41814957E-05, 0.000304352754, 0.000449828367, -0.228461638, -0.134016454, 0.452811122 , -0.008760292, -0.008897019, 2.630823    , 4.14        , 3           , 11          , 0.006284592 , 0.006284578
-0.08235426 , 0.08749931  , -9.800188   , -0.00108933426, -0.0009703302, 0.000301339169, -0.2282594  , -0.134016454, 0.452541471 , -0.008771213, -0.008906695, 2.63082623  , 4.15        , 3           , 12          , 0.06393665  , 0
-0.08230774 , 0.0924468562, -9.795647   , -0.00179703988, -0.000693541253, -0.000125325343, -0.2282594  , -0.134016454, 0.452541471 , -0.008789174, -0.008913641, 2.6308248   , 4.16        , 3           , 50          , 0           , 0
-0.08861324 , 0.08987031  , -9.812428   , -0.0018051964, 0.0008550641, -0.000970551, -0.2282594  , -0.1342861  , 0.452339232 , -0.008807138, -0.008905176, 2.63081479  , 4.17        , 3           , 11          , 0.006284592 , 0.006284578
-0.07106204 , 0.0855588   , -9.799205   , -0.00109314558, -0.000266419433, -0.000262650923, -0.228529051, -0.13415128 , 0.4526763   , -0.008818047, -0.008907864, 2.63081241  , 4.18        , 3           , 12          , 0.06393665  , 0
-0.04287182 , 0.0679909661, -9.772395   , 0.00158827007, 3.32892341E-05, -0.000673512346, -0.228596464, -0.13415128 , 0.452541471 , -0.008802105, -0.008907589, 2.63080573  , 4.19        , 3           , 50          , 0           , 0
-0.06413596 , 0.0758423358, -9.752186   , 0.00285731955, 0.000350599759, -0.00123204093, -0.228596464, -0.13415128 , 0.452541471 , -0.008773867, -0.0088279685, 2.63079286  , 4.2         , 3           , 11          , 0.006213345 , 0.00621332275
-0.0577214845, 0.08207799  , -9.750303   , 3.40749466E-05, 0.000190719045, -0.00068035227, -0.228326812, -0.134083867, 0.452406645 , -0.008773467, -0.008826122, 2.63078618  , 4.21        , 3           , 12          , 0.065007776 , 0
-0.0726996362, 0.103574723 , -9.783775   , -0.00208687712, 0.0008803104, 0.000582274166, -0.228461638, -0.133814216, 0.452339232 , -0.008794386, -0.008817268, 2.630792    , 4.22        , 3           , 50          , 0           , 0
-0.09947044 , 0.090452075 , -9.813414   , -0.000108332191, 0.0006121159, 0.000873596233, -0.228191987, -0.134016454, 0.4527437   , -0.00879554451, -0.008811069, 2.630801    , 4.23        , 3           , 11          , 0.006213345 , 0.00621332275
-0.0932498351, 0.0840328038, -9.804804   , 0.00228172215, 0.00259930245, -0.000524859643, -0.228461638, -0.1342187  , 0.4526763   , -0.008772679, -0.008785124, 2.63079572  , 4.24        , 3           , 12          , 0.065007776 , 0
-0.08782667 , 0.0928877145, -9.77354    , 0.00271007814, 0.00161668891, -0.0008069405, -0.228461638, -0.1342187  , 0.4526763   , -0.008745506, -0.008769027, 2.63078713  , 4.25        , 3           , 50          , 0           , 0
-0.07783577 , 0.09502652  , -9.773455   , 0.00258239685, -0.001199919, -0.00151828211, -0.228326812, -0.133949041, 0.452541471 , -0.00871955 , -0.008781158, 2.63077188  , 4.26        , 3           , 11          , 0.006213345 , 0.00621332275
-0.1027873  , 0.08278191  , -9.802171   , -0.000245319272, -0.000374319963, -0.000258730957, -0.228326812, -0.13415128 , 0.4526763   , -0.008721981, -0.008784924, 2.63076949  , 4.27        , 3           , 12          , 0.065007776 , 0
-0.101901032, 0.08186293  , -9.80036    , -0.0032104745, -0.0003943731, 0.000292516226, -0.228461638, -0.13415128 , 0.452339232 , -0.008754113, -0.008788843, 2.63077283  , 4.28        , 3           , 50          , 0           , 0
-0.09832337 , 0.11206194  , -9.802919   , -0.00109263672, -0.000520836, -0.00153431727, -0.228461638, -0.13415128 , 0.452339232 , -0.008764903, -0.008794186, 2.630757    , 4.29        , 3           , 11          , 0.006213345 , 0.00621332275
-0.113193475, 0.08603501  , -9.794101   , 0.00157224026, -8.87989954E-05, -0.000673465, -0.228394225, -0.1342861  , 0.452541471 , -0.008796819, -0.008819482, 2.630751    , 4.3         , 3           , 12          , 0.0660827756, 0
-0.0709450245, 0.06251755  , -9.791163   , 0.00228084368, -0.0003655837, 0.0013071557, -0.228461638, -0.133814216, 0.4526763   , -0.008774123, -0.008823023, 2.63076425  , 4.31        , 3           , 50          , 0           , 0
-0.06126779 , 0.0763795152, -9.787416   , 0.00213466934, 0.0006189387, 0.0011667473, -0.228461638, -0.134083867, 0.452474058 , -0.008752879, -0.008816732, 2.63077569  , 4.32        , 3           , 11          , 0.00614396343, 0.00614394341
-0.07692568 , 0.0910024047, -9.787476   , 0.00156629342, 0.00117824529, -0.000106437255, -0.228461638, -0.134083867, 0.452474058 , -0.00873720553, -0.008804959, 2.63077474  , 4.33        , 3           , 12          , 0.0660827756, 0
-0.06250666 , 0.08675834  , -9.783316   , 0.00114851841, -9.166447E-05, -0.000816708955, -0.228326812, -0.134016454, 0.452406645 , -0.008725649, -0.008805947, 2.63076615  , 4.34        , 3           , 50          , 0           , 0
-0.0749708638, 0.073764056 , -9.767193   , 0.001157253 , -0.001921839, -0.00138460472, -0.228529051, -0.134083867, 0.452608883 , -0.008713955, -0.008825286, 2.6307528   , 4.35        , 3           , 11          , 0.00614396343, 0.00614394341
-0.08863727 , 0.07028558  , -9.758724   , 0.00341703836, -0.00204734318, -0.00193936122, -0.228461638, -0.133949041, 0.452541471 , -0.008679615, -0.008845926, 2.63073373  , 4.36        , 3           , 12          , 0.0660827756, 0
-0.112321489, 0.0859971642, -9.785959   , 0.002140579 , -0.0007888918, -0.000671916059, -0.228461638, -0.133949041, 0.452541471 , -0.00865815 , -0.008853872, 2.630727    , 4.37        , 3           , 50          , 0           , 0
-0.10787861 , 0.109457567 , -9.800291   , -0.00210266747, 0.000449498766, -0.00167859835, -0.228461638, -0.13415128 , 0.452608883 , -0.008679027, -0.008849523, 2.63071     , 4.38        , 3           , 11          , 0.00614396343, 0.00614394341
-0.101485617, 0.106748804 , -9.821949   , -0.000133383946, 0.00187069061, -0.00293862866, -0.228124574, -0.133949041, 0.4527437   , -0.008680101, -0.008831073, 2.63068032  , 4.39        , 3           , 12          , 0.0660827756, 0
-0.08281571 , 0.08839031  , -9.795216   , 0.002395028 , 0.001873606 , -0.00123151462, -0.228394225, -0.134083867, 0.452608883 , -0.008698505, -0.008854552, 2.63066888  , 4.4         , 3           , 50          , 0           , 0
-0.109591514, 0.09133223  , -9.771905   , 0.00211768062, 0.001027005 , 0.00031982272, -0.228394225, -0.134083867, 0.452608883 , -0.008677356, -0.00884425547, 2.63067174  , 4.41        , 3           , 11          , 0.0060765706, 0.00607655244
-0.110871077, 0.09453647  , -9.780941   , 0.00310662668, 0.000892906159, -9.959122E-05, -0.228663877, -0.134083867, 0.452541471 , -0.008646281, -0.008835334, 2.63067079  , 4.42        , 3           , 12          , 0.06716127  , 0
-0.07134721 , 0.103107594 , -9.783767   , 0.00325370533, -0.000373183459, -0.000807229, -0.228394225, -0.133949041, 0.452608883 , -0.008613672, -0.008839136, 2.6306622   , 4.43        , 3           , 50          , 0           , 0
-0.07388339 , 0.107749283 , -9.813146   , 0.0011293944, 0.0008795354, -0.0005326159, -0.228394225, -0.1342187  , 0.452339232 , -0.00860233 , -0.008830388, 2.63065743  , 4.44        , 3           , 11          , 0.0060765706, 0.00607655244
-0.100768991, 0.0931945741, -9.819287   , -0.000146323961, 0.00185641856, -0.0003957546, -0.228394225, -0.1342187  , 0.452339232 , -0.008603757, -0.008811858, 2.63065314  , 4.45        , 3           , 12          , 0.06716127  , 0
-0.0941778  , 0.08402529  , -9.799388   , 0.00170092867, -0.000383685634, 0.000174408779, -0.228326812, -0.134083867, 0.452474058 , -0.008586764, -0.00881568 , 2.63065457  , 4.46        , 3           , 50          , 0           , 0
-0.08722369 , 0.06674358  , -9.783587   , 0.002129856 , -0.00136629643, 0.000881209155, -0.228326812, -0.13415128 , 0.452406645 , -0.008565546, -0.008829267, 2.630664    , 4.47        , 3           , 11          , 0.0060765706, 0.00607655244
-0.09259917 , 0.06953241  , -9.789041   , 0.00213173917, -0.00164785923, 0.00172838755, -0.228663877, -0.1342187  , 0.452406645 , -0.008544383, -0.00884559751, 2.63068128  , 4.48        , 3           , 12          , 0.06716127  , 0
-0.07056253 , 0.0882694647, -9.801902   , -0.000127223029, -0.00180392258, 0.001293829 , -0.228663877, -0.1342187  , 0.452406645 , -0.00854577 , -0.008863525, 2.63069463  , 4.49        , 3           , 50          , 0           , 0
-0.09438459 , 0.101637594 , -9.802932   , -0.002391632, -0.00238524773, 0.000152321532, -0.228461638, -0.134083867, 0.452339232 , -0.008591224, -0.008896161, 2.63069654  , 4.5         , 3           , 11          , 0.00601145625, 0.006011426
-0.101303995, 0.0980431139, -9.78356552 , 0.000287856354, -0.00166319078, 2.46484888E-05, -0.228191987, -0.134016454, 0.452541471 , -0.00858835 , -0.008912791, 2.63069654  , 4.51        , 3           , 12          , 0.06824286  , 0
-0.076059185, 0.09363821  , -9.769379   , 0.0017038834, -0.002357552, 0.000736491929, -0.228394225, -0.13415128 , 0.452474058 , -0.00857138 , -0.008936302, 2.63070416  , 4.52        , 3           , 50          , 0           , 0
-0.09077517 , 0.106940851 , -9.782544   , 0.00128061371, -0.00250120112, 0.000169224732, -0.228394225, -0.13415128 , 0.452474058 , -0.00855859 , -0.0089613  , 2.630706    , 4.53        , 3           , 11          , 0.00601145625, 0.006011426
-0.0895656943, 0.09207471  , -9.793896   , -0.000417387724, -0.00194953359, -0.000967958942, -0.228124574, -0.13415128 , 0.452406645 , -0.008562677, -0.008980877, 2.63069654  , 4.54        , 3           , 12          , 0.06824286  , 0
-0.0734218955, 0.08193686  , -9.787486   , -0.00225402229, -0.00182116637, -0.0012588395, -0.228394225, -0.134083867, 0.452811122 , -0.00858510751, -0.008999195, 2.63068414  , 4.55        , 3           , 50          , 0           , 0
-0.0760095641, 0.09010762  , -9.792896   , -0.000287571049, 0.000303940848, -0.00138763525, -0.228529051, -0.134016454, 0.452406645 , -0.008587858, -0.008996274, 2.63067079  , 4.56        , 3           , 11          , 0.00601145625, 0.006011426
-0.09069291 , 0.0771762   , -9.787639   , 0.001968848 , 0.0010231355, -0.0005284025, -0.228529051, -0.134016454, 0.452406645 , -0.008568119, -0.008986088, 2.630665    , 4.57        , 3           , 12          , 0.06824286  , 0
-0.0983225554, 0.08312396  , -9.785411   , 0.001824068 , 0.00172609289, -0.000669245, -0.228326812, -0.1342861  , 0.452339232 , -0.008549817, -0.008968885, 2.63065839  , 4.58        , 3           , 50          , 0           , 0
-0.08961374 , 0.08757228  , -9.796627   , 0.0005584785, 0.0005912365, -0.001100713, -0.2282594  , -0.1342187  , 0.452541471 , -0.008544132, -0.008963068, 2.630647    , 4.59        , 3           , 11          , 0.00601145625, 0.006011426
-0.103200018, 0.08148064  , -9.816191   , -0.0009958316, -0.00153181667, -0.0005460749, -0.228461638, -0.1342861  , 0.452541471 , -0.008590329, -0.008980953, 2.63064218  , 4.6         , 3           , 12          , 0.06932719  , 0
-0.0869486853, 0.07812517  , -9.814273   , -0.000435160036, -0.000683301361, -0.000542139169, -0.228461638, -0.1342861  , 0.452541471 , -0.008594633, -0.008987831, 2.63063645  , 4.61        , 3           , 50          , 0           , 0
-0.07400712 , 0.0742469   , -9.779839   , -0.000158842973, 0.0005856522, -0.000256332161, -0.2282594  , -0.134488344, 0.452339232 , -0.008596197, -0.008981998, 2.63063359  , 4.62        , 3           , 11          , 0.00594773376, 0.005947692
-0.09078979 , 0.072187826 , -9.779976   , -0.00100891141, 0.00114305248, -0.00025941513, -0.228394225, -0.134083867, 0.452339232 , -0.00860626251, -0.008970589, 2.63063121  , 4.63        , 3           , 12          , 0.06932719  , 0
-0.116015717, 0.0743762851, -9.80592251 , -0.000726892438, 0.00114496041, -0.000964441744, -0.228394225, -0.13415128 , 0.452608883 , -0.008613442, -0.00895922352, 2.63062119  , 4.64        , 3           , 50          , 0           , 0
-0.08362639 , 0.09829754  , -9.78659248 , -1.98392863E-05, 0.000868168368, -0.00166792714, -0.228394225, -0.13415128 , 0.452608883 , -0.00861349 , -0.008950684, 2.630605    , 4.65        , 3           , 11          , 0.00594773376, 0.005947692
-0.08618678 , 0.0779981241, -9.779465   , 0.00126026117, -0.000812623359, -0.000251917227, -0.228394225, -0.1342187  , 0.452339232 , -0.00860086549, -0.008958832, 2.63060212  , 4.66        , 3           , 12          , 0.06932719  , 0
-0.101245   , 0.06959864  , -9.77871    , 0.001124253 , -0.00179905456, 0.0003109806, -0.2282594  , -0.134016454, 0.452406645 , -0.008589652, -0.008976795, 2.63060546  , 4.67        , 3           , 50          , 0           , 0
-0.0759678259, 0.06611267  , -9.769492   , -0.000147320257, -0.00180765276, -0.000825095456, -0.228326812, -0.134083867, 0.452541471 , -0.008591054, -0.008994942, 2.63059735  , 4.68        , 3           , 11          , 0.00594773376, 0.005947692
-0.0624666  , 0.0854517445, -9.797332   , -0.00155429333, -0.002661893, 0.0008622428, -0.228326812, -0.134016454, 0.4522044   , -0.008606676, -0.009021485, 2.63060641  , 4.69        , 3           , 12          , 0.06932719  , 0
-0.08998433 , 0.09032229  , -9.807918   , -0.000695507, -0.00236638961, 0.00129040086, -0.228326812, -0.134016454, 0.4522044   , -0.008573756, -0.009019083, 2.63061929  , 4.7         , 3           , 50          , 0           , 0
-0.0985831842, 0.09087293  , -9.8075285  , -0.00210899138, -0.00223515974, 0.000153883317, -0.228596464, -0.134016454, 0.452541471 , -0.00859486 , -0.009041422, 2.63062119  , 4.71        , 3           , 11          , 0.00588563131, 0.00588558335
-0.0883627  , 0.07854237  , -9.799367   , -0.00295533 , -0.00238167122, 0.0005735218, -0.2282594  , -0.133881629, 0.452541471 , -0.008624467, -0.009065188, 2.630627    , 4.72        , 3           , 12          , 0.07041394  , 0
-0.0955342  , 0.08672094  , -9.791252   , -0.0005620423, -0.000816827058, 0.00115217734, -0.228529051, -0.134083867, 0.452406645 , -0.008630194, -0.009073259, 2.63063836  , 4.73        , 3           , 50          , 0           , 0
-0.08637194 , 0.09205716  , -9.799747   , -0.00127590226, 0.0008677911, 0.00214036973, -0.228529051, -0.134083867, 0.452406645 , -0.008643146, -0.009064395, 2.63065934  , 4.74        , 3           , 11          , 0.00588563131, 0.00588558335
-0.083451584, 0.107812524 , -9.798756   , -0.0008473387, -0.00025560736, 0.0010104595, -0.228326812, -0.133949041, 0.452474058 , -0.00865171 , -0.009066863, 2.63066983  , 4.75        , 3           , 12          , 0.07041394  , 0
-0.09967392 , 0.08760908  , -9.772748   , 0.00212872378, -0.002488076, 3.193477E-05, -0.228326812, -0.133814216, 0.452406645 , -0.008630428, -0.00909174047, 2.63067031  , 4.76        , 3           , 50          , 0           , 0
-0.0633797646, 0.09036609  , -9.779692   , 0.00367821567, -0.00163287425, 0.0006055546, -0.228326812, -0.134083867, 0.452406645 , -0.008593702, -0.009108016, 2.63067651  , 4.77        , 3           , 11          , 0.00588563131, 0.00588558335
-0.08825673 , 0.09335779  , -9.777609   , 0.00395264942, -8.23579758E-05, 4.418331E-05, -0.228326812, -0.134083867, 0.452406645 , -0.008554178, -0.009108835, 2.630677    , 4.78        , 3           , 12          , 0.07041394  , 0
-0.06584343 , 0.104886211 , -9.795017   , 0.00197783438, -0.000518075, 0.0001755826, -0.228596464, -0.13415128 , 0.452474058 , -0.00853441749, -0.009114   , 2.63067842  , 4.79        , 3           , 50          , 0           , 0
-0.09346759 , 0.09940446  , -9.812879   , 0.000266636256, -0.00107656256, 0.00157972134, -0.228394225, -0.13415128 , 0.452406645 , -0.008597328, -0.00907262 , 2.63069463  , 4.8         , 3           , 11          , 0.00582561363, 0.00582556752
-0.113376312, 0.103220366 , -9.804879   , 0.0006885933, -0.000651348, 0.00228869147, -0.228124574, -0.1342861  , 0.452271819 , -0.00859065 , -0.009078937, 2.63071752  , 4.81        , 3           , 12          , 0.07150277  , 0
-0.09644724 , 0.08672552  , -9.789451   , -0.000867290248, -0.0003802932, 0.00030412004, -0.228124574, -0.1342861  , 0.452271819 , -0.008599351, -0.009082713, 2.63072038  , 4.82        , 3           , 50          , 0           , 0
-0.10909225 , 0.0610868931, -9.769767   , -0.00185369316, -0.0008093257, 0.000298859959, -0.228191987, -0.13415128 , 0.452339232 , -0.008617915, -0.009090779, 2.63072371  , 4.83        , 3           , 11          , 0.00582561363, 0.00582556752
-0.100325152, 0.06870687  , -9.785034   , -0.0007209531, -0.00136481482, 0.000727066 , -0.228529051, -0.133881629, 0.452406645 , -0.008625193, -0.00910436548, 2.63073087  , 4.84        , 3           , 12          , 0.07150277  , 0
-0.104106113, 0.0756882951, -9.834753   , 0.0008324389, -0.00149509567, -0.000396057585, -0.228461638, -0.133814216, 0.452137    , -0.008616833, -0.00911935 , 2.630727    , 4.85        , 3           , 50          , 0           , 0
-0.08971758 , 0.105714343 , -9.823671   , 0.00153617  , -0.00106797414, -0.000815920648, -0.228461638, -0.133814216, 0.452137    , -0.008601398, -0.0091301  , 2.63071942  , 4.86        , 3           , 11          , 0.00582561363, 0.00582556752
-0.09783916 , 0.0867142454, -9.781325   , 0.003646993 , 0.000354173884, -0.00151021767, -0.228596464, -0.134083867, 0.452271819 , -0.00856479 , -0.009126687, 2.63070416  , 4.87        , 3           , 12          , 0.07150277  , 0
-0.062279813, 0.07362579  , -9.77026    , 0.006180308 , 0.00206075353, -0.00177829922, -0.228394225, -0.133949041, 0.452608883 , -0.008502821, -0.009106233, 2.630686    , 4.88        , 3           , 50          , 0           , 0
-0.08134923 , 0.06845035  , -9.774948   , 0.004065303 , 0.00148330047, -0.00108270021, -0.228394225, -0.134083867, 0.4522044   , -0.00846207 , -0.00909149 , 2.63067555  , 4.89        , 3           , 11          , 0.00582561363, 0.00582556752
-0.08159471 , 0.07397985  , -9.807921   , 0.000543015252, 0.000193015265, -0.0002534987, -0.228394225, -0.134083867, 0.4522044   , -0.008452371, -0.009087502, 2.63067269  , 4.9         , 3           , 12          , 0.0725934058, 0
-0.08113819 , 0.07397756  , -9.808822   , -0.00143016118, -0.0005242657, 0.000301272754, -0.228596464, -0.1342187  , 0.452339232 , -0.0084667  , -0.009092717, 2.63067555  , 4.91        , 3           , 50          , 0           , 0
-0.08099874 , 0.08614202  , -9.803799   , -0.00298359012, -0.000534770952, 0.000152760869, -0.228461638, -0.133949041, 0.452406645 , -0.00849655 , -0.009098052, 2.63067746  , 4.92        , 3           , 11          , 0.00576691749, 0.00576686254
-0.104826309, 0.102183782 , -9.794873   , -0.00242193253, 3.21772532E-05, -0.000550081, -0.228394225, -0.1342187  , 0.452339232 , -0.008520721, -0.009097777, 2.63067174  , 4.93        , 3           , 12          , 0.0725934058, 0
-0.08332912 , 0.0972735   , -9.751793   , 0.000121221325, -0.000232198465, -0.000679931254, -0.228394225, -0.1342187  , 0.452339232 , -0.008519447, -0.009100158, 2.630665    , 4.94        , 3           , 50          , 0           , 0
-0.09244172 , 0.08081876  , -9.791252   , 0.000972023932, -0.0007895951, 0.000594570243, -0.228394225, -0.134083867, 0.452271819 , -0.008509781, -0.009108002, 2.63067126  , 4.95        , 3           , 11          , 0.00576691749, 0.00576686254
-0.0936512649, 0.08541879  , -9.812938   , 0.000411841756, -0.001638108, 0.00143824692, -0.228461638, -0.133814216, 0.452474058 , -0.008505795, -0.00912426 , 2.63068557  , 4.96        , 3           , 12          , 0.0725934058, 0
-0.07165861 , 0.08276951  , -9.773006   , 0.00196059956, -0.00078291 , 0.0007404482, -0.228461638, -0.1342861  , 0.452339232 , -0.008486257, -0.009132026, 2.6306932   , 4.97        , 3           , 50          , 0           , 0
-0.0873624459, 0.09065992  , -9.783489   , 0.002088696 , 0.00175212813, -0.0002438691, -0.228461638, -0.1342861  , 0.452339232 , -0.008465346, -0.009114527, 2.63069034  , 4.98        , 3           , 11          , 0.00576691749, 0.00576686254
-0.08300917 , 0.07886019  , -9.778533   , 0.00152228493, 0.0020298725, -0.0005286065, -0.228529051, -0.134083867, 0.452069581 , -0.008450073, -0.009094274, 2.630685    , 4.99        , 3           , 12          , 0.0725934058, 0
-0.0915904  , 0.0856740251, -9.762299   , 0.00110455335, 6.274208E-05, 0.00116167648, -0.228596464, -0.13415128 , 0.452339232 , -0.008455431, -0.00907099247, 2.63069654  , 5           , 3           , 50          , 0           , 0
-0.0948296338, 0.07449596  , -9.781353   , 0.000122740385, -0.00121098373, 0.0018614583, -0.228057161, -0.134083867, 0.452339232 , -0.008454373, -0.009082944, 2.63071561  , 5.01        , 3           , 11          , 0.005710423 , 0.005710358
-0.09372489 , 0.079110235 , -9.815224   , -0.00101532356, 0.000189195227, -0.0005432084, -0.228057161, -0.134083867, 0.452339232 , -0.008464477, -0.009081097, 2.63071     , 5.02        , 3           , 12          , 0.07368555  , 0
-0.09142675 , 0.08759202  , -9.796188   , -0.0007357664, 0.0007542351, -0.0006822924, -0.228461638, -0.13415128 , 0.452137    , -0.008471772, -0.009073614, 2.63070321  , 5.03        , 3           , 50          , 0           , 0
-0.09452602 , 0.09438138  , -9.791664   , 0.000957482 , 0.00104726024, -0.000532688049, -0.228394225, -0.1342187  , 0.452339232 , -0.008462149, -0.009063188, 2.63069749  , 5.04        , 3           , 11          , 0.005710423 , 0.005710358
-0.0877578259, 0.08758729  , -9.80746    , 0.00166990375, -0.0002150072, -0.000390079658, -0.228394225, -0.1342187  , 0.452406645 , -0.008445416, -0.009065371, 2.63069367  , 5.05        , 3           , 12          , 0.07368555  , 0
-0.08040363 , 0.0920545757, -9.819589   , 0.00139383157, -0.00148395973, -0.000252080528, -0.228394225, -0.1342187  , 0.452406645 , -0.008431454, -0.009080231, 2.63069129  , 5.06        , 3           , 50          , 0           , 0
-0.07534839 , 0.09964451  , -9.813191   , -0.0001627119, -0.0009313364, -0.000964799547, -0.228596464, -0.13415128 , 0.452137    , -0.00843299553, -0.009089625, 2.63068175  , 5.07        , 3           , 11          , 0.005710423 , 0.005710358
-0.0983016  , 0.08626539  , -9.780427   , 0.000115243805, 5.60532972E-05, -0.000255620049, -0.228394225, -0.1342187  , 0.452406645 , -0.008431819, -0.009089085, 2.63067937  , 5.08        , 3           , 12          , 0.07368555  , 0
-0.0987523049, 0.08404064  , -9.788124   , 0.000259779074, -0.0006469052, -0.000538583845, -0.228461638, -0.1342187  , 0.452406645 , -0.008429174, -0.0090956  , 2.63067365  , 5.09        , 3           , 50          , 0           , 0
-0.102559023, 0.074114    , -9.775085   , -0.0005889777, -0.00248453417, 0.0005848795, -0.2282594  , -0.1342187  , 0.452339232 , -0.00847367849, -0.00912636053, 2.63068032  , 5.1         , 3           , 11          , 0.00565486262, 0.00565480534
