Acc X       , Acc Y       , Acc Z       , Gyro X      , Gyro Y      , Gyro Z      , Magn X      , Magn Y      , Magn Z      , Euler X     , Euler Y     , Euler Z     , Time        , Status      , LowRate X   , LowRate Y   , LowRate Z    
0.382716775 , 0.05582876  , -9.785011   , -0.00083368097, -0.00150220736, 0.0009317934, -0.185452342, -0.159700692, 0.422677636 , -0.00248488761, 0.0395273045, 2.38653731  , 0           , 3           , 11          , 0.0346410163, 0.0346410163
0.379925132 , 0.047765635 , -9.792749   , -0.001961579, -0.00207298226, -0.000769567036, -0.185519755, -0.159296215, 0.422745049 , -0.00250480673, 0.0395065546, 2.38652968  , 0.01        , 3           , 12          , 0.0346410163, 0
0.360640079 , 0.0383983   , -9.758133   , 0.0008551036, -0.000505274045, -0.0006127423, -0.185317516, -0.159093976, 0.422610223 , -0.00249649771, 0.0395014845, 2.38652349  , 0.02        , 3           , 50          , 0           , 0
0.37343964  , 0.03879435  , -9.786056   , 0.00324818282, 0.001200355 , 0.0008137426, -0.1857894  , -0.15943104 , 0.422812462 , -0.00246369629, 0.0395135134, 2.38653159  , 0.03        , 3           , 11          , 0.0346410163, 0.0346410163
0.397736132 , 0.0218676273, -9.80176    , 0.0029656745, 0.00119844475, 0.000671157 , -0.185384929, -0.159498453, 0.422677636 , -0.00243377476, 0.0395255126, 2.38653827  , 0.04        , 3           , 12          , 0.0346410163, 0
0.3942414   , 0.03808205  , -9.780928   , 0.00240119221, 0.00105384085, 0.000103231243, -0.185384929, -0.159498453, 0.422677636 , -0.00240972266, 0.0395360664, 2.3865397   , 0.05        , 3           , 50          , 0           , 0
0.381320119 , 0.0192870721, -9.782462   , 0.00154989283, 0.001892807 , 0.000383119739, -0.1852501  , -0.159363627, 0.4225428   , -0.00239407457, 0.0395549946, 2.386543    , 0.06        , 3           , 11          , 0.0346410163, 0.0346410163
0.386269    , 0.0192028955, -9.774739   , -0.000281536544, 0.00103569753, 0.0006557952, -0.185384929, -0.159026563, 0.422812462 , -0.00239663222, 0.03956537  , 2.38654923  , 0.07        , 3           , 12          , 0.0346410163, 0
0.376665175 , 0.0138810566, -9.768959   , 0.0004313819, -0.000508139259, -0.0007559865, -0.185384929, -0.159498453, 0.422677636 , -0.00239261729, 0.03956027  , 2.386542    , 0.08        , 3           , 50          , 0           , 0
0.3939699   , 0.013759193 , -9.792784   , 0.00100033591, -0.00134901493, -0.0008959232, -0.185384929, -0.159498453, 0.422677636 , -0.00238296576, 0.0395467542, 2.386533    , 0.09        , 3           , 11          , 0.0346410163, 0.0346410163
0.381411761 , -0.007791852, -9.781217   , 0.00156117056, -0.000500499154, -0.0006094496, -0.185452342, -0.159363627, 0.422610223 , -0.00236759568, 0.0395417362, 2.3865273   , 0.1         , 3           , 12          , 0.0346410163, 0
0.367655    , 0.0100071328, -9.792999   , 0.002260186 , 0.0009121008, -0.000745256257, -0.185452342, -0.159363627, 0.422879875 , -0.00234529073, 0.03955084  , 2.38651967  , 0.11        , 3           , 50          , 0           , 0
0.3817376   , 0.0143432822, -9.789709   , -0.0001399525, 0.0008958684, 9.116218E-05, -0.185587168, -0.159363627, 0.422610223 , -0.00234665512, 0.0395597965, 2.38652062  , 0.12        , 3           , 11          , 0.0346410163, 0.0346410163
0.412106335 , 0.0171376336, -9.787207   , -0.000697999436, -0.0005157778, -0.000196178837, -0.185587168, -0.159363627, 0.422610223 , -0.002353714, 0.0395546332, 2.38651872  , 0.13        , 3           , 12          , 0.0346410163, 0
0.3894637   , 0.0530345626, -9.78271    , -0.001684239, -0.000944809464, 8.109851E-05, -0.1852501  , -0.15943104 , 0.4225428   , -0.00237052469, 0.03954519  , 2.38651919  , 0.14        , 3           , 50          , 0           , 0
0.384424984 , 0.0476898   , -9.785935   , -0.002385635, -0.00179427722, 0.000924116641, -0.185384929, -0.159161389, 0.422610223 , -0.00239401334, 0.03952727  , 2.38652825  , 0.15        , 3           , 11          , 0.0346410163, 0.0346410163
0.396828234 , 0.03392781  , -9.762394   , -0.0009731742, -0.00178472581, 0.00149577635, -0.185519755, -0.159565866, 0.422879875 , -0.00240315031, 0.0395094566, 2.38654351  , 0.16        , 3           , 12          , 0.0346410163, 0
0.382802427 , 0.0256204978, -9.792367   , 0.000433917885, -0.00078969897, 0.00122134236, -0.185519755, -0.159565866, 0.422879875 , -0.002398329, 0.0395015925, 2.386556    , 0.17        , 3           , 50          , 0           , 0
0.3895906   , 0.028215928 , -9.782812   , 0.00368117332, -0.0007677375, 0.000106337189, -0.185317516, -0.159633279, 0.4225428   , -0.00236147339, 0.03949391  , 2.38655686  , 0.18        , 3           , 11          , 0.0346410163, 0.0346410163
0.3823036   , 0.0238030739, -9.786954   , 0.0032569177, -0.0006298195, 0.0002458475, -0.185452342, -0.15943104 , 0.422812462 , -0.002328808, 0.03948762  , 2.38655972  , 0.19        , 3           , 12          , 0.0346410163, 0
0.392299771 , 0.0254998021, -9.789583   , 0.00141642557, 0.000343244377, 0.000521344948, -0.185587168, -0.15943104 , 0.422745049 , -0.002314504, 0.0394910648, 2.38656449  , 0.2         , 3           , 50          , 0           , 0
0.4026598   , 0.020423945 , -9.792236   , 0.0012704148, 0.00132776762, 0.000663473969, -0.185384929, -0.159363627, 0.4225428   , -0.00230153953, 0.03950436  , 2.38657117  , 0.21        , 3           , 11          , 0.03466991  , 0.03466991
0.371925622 , 0.0248472858, -9.792905   , 0.00169381045, 0.00133063132, 0.000241643269, -0.185384929, -0.159363627, 0.4225428   , -0.00228450657, 0.03951767  , 2.38657355  , 0.22        , 3           , 12          , 0.0346688256, 0
0.3639009   , 0.03575699  , -9.788854   , 0.00113268651, 0.0006228999, 0.0006617308, -0.185587168, -0.159296215, 0.422745049 , -0.00227291975, 0.0395239145, 2.38658023  , 0.23        , 3           , 50          , 0           , 0
0.369573027 , 0.0234629586, -9.775753   , 0.00128623832, -0.0017694456, 0.00150631333, -0.185587168, -0.159363627, 0.422812462 , -0.00225946 , 0.0395062566, 2.386595    , 0.24        , 3           , 11          , 0.03466991  , 0.03466991
0.3839616   , 0.0459011   , -9.78911    , 0.00213692221, -0.0024676288, 0.00136791042, -0.185317516, -0.159296215, 0.422745049 , -0.00223754859, 0.0394816063, 2.38660932  , 0.25        , 3           , 12          , 0.0346688256, 0
0.378124982 , 0.0500275344, -9.788234   , 0.00169397355, 0.00133063237, 0.0005241808, -0.185317516, -0.159296215, 0.422745049 , -0.002220403, 0.03949492  , 2.386614    , 0.26        , 3           , 50          , 0           , 0
0.391758621 , 0.0245408341, -9.77106    , 0.00168774487, 0.00245688949, -0.0006042333, -0.185519755, -0.1592288  , 0.422610223 , -0.002203766, 0.03951948  , 2.38660836  , 0.27        , 3           , 11          , 0.03466991  , 0.03466991
0.38997525  , 0.0192284025, -9.795052   , 0.0002823732, 0.001180299 , 0.000234841616, -0.185452342, -0.159565866, 0.4230147   , -0.00220085261, 0.03953129  , 2.38661027  , 0.28        , 3           , 12          , 0.0346688256, 0
0.395196438 , 0.006941202 , -9.782407   , -0.00140952563, 0.000746494334, 0.00121517025, -0.185182691, -0.1592288  , 0.422745049 , -0.002214466, 0.03953879  , 2.38662267  , 0.29        , 3           , 50          , 0           , 0
0.379901826 , 0.0138982758, -9.785206   , -0.0005771954, 0.0003248283, -0.000336135243, -0.185182691, -0.1592288  , 0.422745049 , -0.00255339826, 0.0394381136, 2.38660645  , 0.3         , 3           , 11          , 0.0347534642, 0.03475346
0.3880281   , 0.0494171046, -9.775505   , -0.000716725655, -9.847634E-05, -0.00104378816, -0.185587168, -0.159363627, 0.422812462 , -0.002560978, 0.0394371   , 2.386596    , 0.31        , 3           , 12          , 0.0347539075, 0
0.380108416 , 0.0337050855, -9.772015   , -0.0005722348, -0.0006606492, -0.00019638511, -0.185654581, -0.159296215, 0.422812462 , -0.00256677764, 0.0394304879, 2.386594    , 0.32        , 3           , 50          , 0           , 0
0.3850591   , 0.0309442431, -9.773344   , -9.472205E-06, -0.000234481515, -0.00019310035, -0.185587168, -0.159363627, 0.422745049 , -0.002566949, 0.0394281335, 2.38659215  , 0.33        , 3           , 11          , 0.0347534642, 0.03475346
0.391596466 , 0.0119116176, -9.77201748 , 0.000269388052, 0.000471340783, -0.0003319673, -0.185587168, -0.159363627, 0.422745049 , -0.00256438716, 0.0394328423, 2.38658834  , 0.34        , 3           , 12          , 0.0347539075, 0
0.391598374 , 0.0145913074, -9.76387    , 0.00238603237, 0.0007672298, -0.000604193832, -0.185587168, -0.159498453, 0.422745049 , -0.00254076719, 0.0394404978, 2.38658261  , 0.35        , 3           , 50          , 0           , 0
0.397367    , 0.00416084751, -9.76839    , 0.00217665127, 0.000273058424, -0.000605940935, -0.185587168, -0.1592288  , 0.422812462 , -0.00251923851, 0.0394432135, 2.38657641  , 0.36        , 3           , 11          , 0.0347534642, 0.03475346
0.399212748 , -0.00208128244, -9.796876   , 0.00118014193, 0.00188537268, -0.0006080551, -0.185519755, -0.1592288  , 0.4229473   , -0.002507682, 0.0394620523, 2.38657022  , 0.37        , 3           , 12          , 0.0347539075, 0
0.3787772   , 0.027494112 , -9.7987175  , -0.0003004039, 0.00138260529, -0.00103953469, -0.185519755, -0.1592288  , 0.4229473   , -0.00251109642, 0.03947585  , 2.38655972  , 0.38        , 3           , 50          , 0           , 0
0.381347775 , 0.0188631341, -9.790598   , 0.000981465 , -0.000861321168, -0.0013902518, -0.1857894  , -0.159296215, 0.422407985 , -0.00250183116, 0.0394672044, 2.386546    , 0.39        , 3           , 11          , 0.0347534642, 0.03475346
0.382127732 , 0.0102700461, -9.787463   , -0.00140659686, 0.00187178748, 1.649362E-05, -0.185587168, -0.15895915 , 0.422879875 , -0.0022823764, 0.03952348  , 2.38655543  , 0.4         , 3           , 12          , 0.0348954052, 0
0.379269838 , 0.0284137763, -9.80549    , 0.0005700832, 0.00195554853, 9.645519E-05, -0.185587168, -0.15895915 , 0.4229473   , -0.00227663782, 0.03954303  , 2.38655639  , 0.41        , 3           , 50          , 0           , 0
0.3895929   , 0.0313422345, -9.773308   , 0.00113530736, 0.00181858416, -0.000466202822, -0.185587168, -0.15895915 , 0.4229473   , -0.00226547243, 0.0395612046, 2.38655162  , 0.42        , 3           , 11          , 0.01770776  , 0.0177076031
0.3870235   , 0.0114818746, -9.762563   , -6.162168E-05, 0.00103616063, -0.00124997133, -0.185519755, -0.159161389, 0.422610223 , -0.0022665842, 0.0395715423, 2.38653874  , 0.43        , 3           , 12          , 0.0348954052, 0
0.410488755 , 0.00444575027, -9.764672   , 0.0006503219, 0.000125855542, 0.0010828448, -0.185722   , -0.159498453, 0.422745049 , -0.00225965166, 0.0395728238, 2.38655019  , 0.44        , 3           , 50          , 0           , 0
0.387191623 , 0.0169743113, -9.786041   , -0.00174520107, -0.00094624894, 0.000858120562, -0.185587168, -0.159363627, 0.4229473   , -0.00227676262, 0.03956338  , 2.38655877  , 0.45        , 3           , 11          , 0.01770776  , 0.0177076031
0.388913631 , 0.01241734  , -9.778816   , 0.00050168985, 0.00153272366, 0.000307377981, -0.1857894  , -0.159498453, 0.422407985 , -0.00227162545, 0.03957872  , 2.38656163  , 0.46        , 3           , 12          , 0.0348954052, 0
0.408769637 , 0.0379436947, -9.790309   , 0.000296921324, 0.000123466263, 0.000445489335, -0.1857894  , -0.159498453, 0.422407985 , -0.00226848084, 0.03957996  , 2.386566    , 0.47        , 3           , 50          , 0           , 0
0.409124345 , 0.02625381  , -9.803915   , -0.0003349761, -0.000443957571, 0.00178371137, -0.185519755, -0.15895915 , 0.422610223 , -0.002271122, 0.0395755619, 2.38658357  , 0.48        , 3           , 11          , 0.01770776  , 0.0177076031
0.391949475 , -0.00201135082, -9.792412   , -0.00272900122, -0.00186801958, 0.00113463856, -0.185519755, -0.159161389, 0.4230147   , -0.00229796115, 0.0395569168, 2.386595    , 0.49        , 3           , 12          , 0.0348954052, 0
0.38678965  , 0.0201452356, -9.788292   , -0.0013544797, -0.00167038932, 0.000577501953, -0.185384929, -0.159565866, 0.422677636 , -0.00214734 , 0.03977011  , 2.386608    , 0.5         , 3           , 50          , 0           , 0
0.377872825 , 0.03420096  , -9.777454   , 0.00125343411, -0.00059685 , 0.00179209537, -0.185384929, -0.159565866, 0.422677636 , -0.00213409238, 0.0397641771, 2.38662553  , 0.51        , 3           , 11          , 0.0134421447, 0.0134421317
0.3805067   , 0.022943195 , -9.7933     , 0.000207331876, -0.00327888154, 0.001359228 , -0.1862613  , -0.159565866, 0.422677636 , -0.00213147583, 0.03973142  , 2.38663936  , 0.52        , 3           , 12          , 0.0350921936, 0
0.392243683 , 0.022776261 , -9.784623   , -0.0005836897, -0.000468485465, 0.000653602 , -0.185654581, -0.159565866, 0.422879875 , -0.00213705236, 0.0397267453, 2.386646    , 0.53        , 3           , 50          , 0           , 0
0.373099    , 0.009059187 , -9.798387   , -0.00214283587, 0.000576876046, -0.000340894825, -0.185654581, -0.1597681  , 0.422745049 , -0.00215861714, 0.0397325046, 2.38664269  , 0.54        , 3           , 11          , 0.0134421447, 0.0134421317
0.370299459 , 0.00545314373, -9.789834   , -0.002628044, -0.00118624629, 0.000219163267, -0.185654581, -0.1597681  , 0.422745049 , -0.00218480662, 0.039720647 , 2.3866446   , 0.55        , 3           , 12          , 0.0350921936, 0
0.405046672 , 0.030316649 , -9.790369   , 0.000121739642, -0.000252534664, 0.00136356358, -0.185587168, -0.159565866, 0.422745049 , -0.00218304782, 0.03971815  , 2.38665843  , 0.56        , 3           , 50          , 0           , 0
0.391975462 , 0.03542893  , -9.789092   , -0.0006571439, 2.3774026E-05, -5.23113158E-05, -0.185654581, -0.159161389, 0.422879875 , -0.00218963949, 0.0397183858, 2.386658    , 0.57        , 3           , 11          , 0.0134421447, 0.0134421317
0.384075373 , 0.05358125  , -9.792242   , 0.00110797945, 0.000176496978, 0.00108628627, -0.185384929, -0.15943104 , 0.4229473   , -0.00217813044, 0.0397201739, 2.38666844  , 0.58        , 3           , 12          , 0.0350921936, 0
0.3809052   , 0.05272523  , -9.794981   , 0.00041258987, -0.00186962192, 0.00206872914, -0.185384929, -0.15943104 , 0.4229473   , -0.00217317836, 0.0397015251, 2.38668942  , 0.59        , 3           , 50          , 0           , 0
0.372488022 , 0.0293943081, -9.805086   , -0.000167960636, -0.0009064712, 8.69562E-05 , -0.185519755, -0.15943104 , 0.422677636 , -0.002415186, 0.0396357253, 2.38668084  , 0.6         , 3           , 11          , 0.011357408 , 0.0113574211
0.417828441 , 0.001759626 , -9.796266   , -0.00250572688, 0.000485593249, -0.00126379181, -0.185654581, -0.159633279, 0.4230821   , -0.00244074571, 0.0396405458, 2.38666844  , 0.61        , 3           , 12          , 0.03534294  , 0
0.375889868 , -0.0216366537, -9.804367   , -0.000321883155, 0.00162665872, -0.000192334526, -0.185587168, -0.15943104 , 0.422812462 , -0.002444039, 0.039656803 , 2.38666654  , 0.62        , 3           , 50          , 0           , 0
0.3597566   , -0.0123829581, -9.816204   , 0.000667797052, 0.0014925634, 0.0006596703, -0.185587168, -0.15943104 , 0.422812462 , -0.00243709935, 0.0396717452, 2.38667321  , 0.63        , 3           , 11          , 0.011357408 , 0.0113574211
0.3386011   , -0.0186526068, -9.757182   , -0.00228122342, -0.00183588022, 0.0007820125, -0.185587168, -0.1592288  , 0.4225428   , -0.00245960057, 0.0396534055, 2.38668084  , 0.64        , 3           , 12          , 0.03534294  , 0
0.356841475 , -0.0134045519, -9.771032   , -0.00116061431, -0.000138853691, -0.0004815348, -0.1857894  , -0.159498453, 0.4230147   , -0.002471398, 0.03965201  , 2.386676    , 0.65        , 3           , 50          , 0           , 0
0.395642728 , -0.02691787 , -9.778927   , 0.000814367668, 0.000156078269, -0.00153139792, -0.185587168, -0.15943104 , 0.4230147   , -0.00246386277, 0.03965353  , 2.38666081  , 0.66        , 3           , 11          , 0.011357408 , 0.0113574211
0.411874771 , -0.006260247, -9.805836   , 0.000612568867, -0.00174591551, -0.000475798966, -0.185587168, -0.15943104 , 0.4230147   , -0.00245792465, 0.03963606  , 2.386656    , 0.67        , 3           , 12          , 0.03534294  , 0
0.417364359 , 0.03426524  , -9.79975    , 0.001247859 , -0.00146004732, 0.001646629 , -0.185384929, -0.159363627, 0.422677636 , -0.00244479068, 0.0396215   , 2.38667226  , 0.68        , 3           , 50          , 0           , 0
0.41184786  , 0.06811021  , -9.781573   , 0.00236321846, 0.00136324146, 0.0009498924, -0.185654581, -0.1592288  , 0.4230147   , -0.002420783, 0.0396351479, 2.3866818   , 0.69        , 3           , 11          , 0.011357408 , 0.0113574211
0.385719419 , 0.07700702  , -9.786709   , 0.0006199553, 0.00138456584, 0.0015807848, -0.185654581, -0.159363627, 0.4229473   , -0.00221856753, 0.039720457 , 2.38670564  , 0.7         , 3           , 12          , 0.0356460735, 0
0.3864338   , 0.09551402  , -9.791146   , -0.00198566727, 2.94655147E-05, 0.0019197138, -0.185587168, -0.159363627, 0.422812462 , -0.0022376636, 0.0397208035, 2.38672471  , 0.71        , 3           , 50          , 0           , 0
0.4177555   , 0.101906933 , -9.78862    , 0.00246368558, -0.000292411773, 0.000880397449, -0.185587168, -0.159363627, 0.422812462 , -0.002212675, 0.039717894 , 2.38673329  , 0.72        , 3           , 11          , 0.0101369452, 0.0101369321
0.435129017 , 0.0764729753, -9.799892   , -0.0004978738, -0.00136834173, -0.00139535731, -0.185587168, -0.159565866, 0.422879875 , -0.00221820618, 0.03970419  , 2.38672     , 0.73        , 3           , 12          , 0.0356460735, 0
0.437426627 , 0.0190427955, -9.771185   , -0.000789691461, 0.0006007056, -0.000757927366, -0.185722   , -0.15943104 , 0.423149526 , -0.00222640345, 0.03971017  , 2.38671231  , 0.74        , 3           , 50          , 0           , 0
0.425016046 , -0.007298555, -9.811165   , 0.00153956644, 0.0009684239, 0.0009487046, -0.185587168, -0.159296215, 0.4230147   , -0.00221063313, 0.0397198722, 2.38672185  , 0.75        , 3           , 11          , 0.0101369452, 0.0101369321
0.375653476 , 0.0289074555, -9.805516   , 0.001752395 , 0.0006178965, -0.000322268781, -0.185587168, -0.159296215, 0.4230147   , -0.00219323765, 0.03972605  , 2.386718    , 0.76        , 3           , 12          , 0.0356460735, 0
0.344990015 , 0.00311043859, -9.809924   , -8.0654514E-05, 0.000112744216, 0.000162852244, -0.185587168, -0.159161389, 0.422677636 , -0.00219398062, 0.0397271775, 2.38672     , 0.77        , 3           , 50          , 0           , 0
0.359251767 , -0.007063606, -9.786355   , -0.0010737197, 0.00102114549, 8.901903E-05, -0.185654581, -0.1592288  , 0.4230821   , -0.00220468221, 0.0397373922, 2.386721    , 0.78        , 3           , 11          , 0.0101369452, 0.0101369321
0.368873775 , 0.0103244111, -9.757734   , -0.0005726881, -0.000312945485, 0.000371799862, -0.185722   , -0.159093976, 0.4230821   , -0.0022102606, 0.0397342667, 2.38672471  , 0.79        , 3           , 12          , 0.0356460735, 0
0.39169988  , -0.009355255, -9.754929   , -0.00396140851, -0.00283693359, -0.0001427676, -0.185722   , -0.159093976, 0.4230821   , -0.00226902822, 0.03964397  , 2.3867228   , 0.8         , 3           , 50          , 0           , 0
0.385082364 , -0.005563505, -9.785699   , -0.00198122812, -0.00324590621, 0.001772928 , -0.185722   , -0.159498453, 0.422879875 , -0.0022881364, 0.0396115519, 2.38674045  , 0.81        , 3           , 11          , 0.00938230753, 0.009382314
0.394652545 , 0.0322404951, -9.789537   , 0.0035128186, -0.0008153654, -0.0006699064, -0.185722   , -0.1592288  , 0.4229473   , -0.002253272, 0.03960339  , 2.38673377  , 0.82        , 3           , 12          , 0.0359998569, 0
0.40470627  , 0.0362156555, -9.798935   , 0.00118436944, -0.0009015082, 0.0014381517, -0.185654581, -0.1592288  , 0.4229473   , -0.00224086 , 0.0395944081, 2.386748    , 0.83        , 3           , 50          , 0           , 0
0.371462852 , 0.0315397419, -9.768926   , 0.00181728648, -0.000334079319, 0.00186578871, -0.185654581, -0.1592288  , 0.4229473   , -0.00222194917, 0.03959111  , 2.38676667  , 0.84        , 3           , 11          , 0.00938230753, 0.009382314
0.387458861 , 0.04575727  , -9.75880051 , 0.00160727545, -0.000898646656, 0.0001687084, -0.185654581, -0.159161389, 0.422879875 , -0.00220580981, 0.0395821258, 2.38676858  , 0.85        , 3           , 12          , 0.0359998569, 0
0.3921844   , 0.0534523129, -9.782236   , 0.00110565056, 0.000505834352, -0.0005377702, -0.185856819, -0.159363627, 0.4229473   , -0.00219496433, 0.03958718  , 2.38676286  , 0.86        , 3           , 50          , 0           , 0
0.396976829 , 0.06566489  , -9.80746    , 0.00102698745, 0.00212435587, -0.0006062387, -0.185654581, -0.159161389, 0.4229473   , -0.00218493678, 0.039608404 , 2.38675714  , 0.87        , 3           , 11          , 0.00938230753, 0.009382314
0.3955464   , 0.03400574  , -9.780935   , 0.002520899 , -4.77444264E-05, 3.3021337E-05, -0.185654581, -0.159161389, 0.4229473   , -0.00215971447, 0.0396079272, 2.38675714  , 0.88        , 3           , 12          , 0.0359998569, 0
0.3868943   , 0.03317419  , -9.771966   , -0.00142668129, -0.00134152628, 0.000224534626, -0.185856819, -0.1592288  , 0.422677636 , -0.00217388966, 0.0395945162, 2.38676     , 0.89        , 3           , 50          , 0           , 0
0.3904856   , 0.0366773829, -9.752939   , 0.000711184461, 0.00131067226, -0.000827096752, -0.1857894  , -0.159296215, 0.4229473   , -0.002417625, 0.03965235  , 2.38674188  , 0.9         , 3           , 11          , 0.008914987 , 0.00891499
0.376553744 , 0.0369268358, -9.778356   , 0.00198548986, 0.000544961 , -0.0015993421, -0.185722   , -0.1592288  , 0.4229473   , -0.00239840429, 0.0396577641, 2.38672566  , 0.91        , 3           , 12          , 0.0364024   , 0
0.3633091   , 0.026722651 , -9.783924   , 0.00114269543, -0.000235069776, -0.0004743361, -0.185722   , -0.1592288  , 0.4229473   , -0.00238716649, 0.03965541  , 2.386721    , 0.92        , 3           , 50          , 0           , 0
0.356813967 , 0.0172971971, -9.776329   , -0.00125211175, -0.00137756369, -6.345957E-05, -0.185991645, -0.159161389, 0.422677636 , -0.00239971047, 0.0396416262, 2.38672     , 0.93        , 3           , 11          , 0.008914987 , 0.00891499
0.372441024 , -0.0062776613, -9.797551   , -0.0002645782, -0.00130049046, -0.00111825753, -0.185924232, -0.158756912, 0.422879875 , -0.00240279734, 0.0396285951, 2.38670945  , 0.94        , 3           , 12          , 0.0364024   , 0
0.366163731 , -0.00347517245, -9.803914   , -0.0026721356, 9.110039E-05, -0.00105664728, -0.185924232, -0.1592288  , 0.422879875 , -0.002429938, 0.039629478 , 2.386699    , 0.95        , 3           , 50          , 0           , 0
0.3888219   , 0.004308713 , -9.782466   , -0.00133261736, 0.000522520742, -0.0009084723, -0.185722   , -0.159093976, 0.422879875 , -0.00244362466, 0.0396346822, 2.38668942  , 0.96        , 3           , 11          , 0.008914987 , 0.00891499
0.391957253 , 0.00602923939, -9.768423   , 0.000283829228, 0.002222898 , 0.0005850254, -0.185722   , -0.159093976, 0.422879875 , -0.00244055665, 0.0396569259, 2.38669515  , 0.97        , 3           , 12          , 0.0364024   , 0
0.394939959 , 0.0254059266, -9.771031   , 0.00331403362, 0.00344008184, 0.000671660935, -0.186059058, -0.159026563, 0.422812462 , -0.00240715127, 0.0396913439, 2.38670182  , 0.98        , 3           , 50          , 0           , 0
0.394093    , 0.07181032  , -9.746891   , 0.001482727 , 0.002582973 , 0.00115623977, -0.185924232, -0.159026563, 0.4230821   , -0.002391867, 0.0397172   , 2.38671327  , 0.99        , 3           , 11          , 0.008914987 , 0.00891499
0.394       , 0.0543273   , -9.780411   , -0.000948196161, 0.00026171506, 0.000716043171, -0.186059058, -0.159093976, 0.422812462 , -0.00245285057, 0.03965394  , 2.386719    , 1           , 3           , 12          , 0.03685171  , 0
0.41092813  , 0.0289046858, -9.793494   , -0.0005938724, 5.292992E-05, 0.00114117016, -0.186059058, -0.159093976, 0.422812462 , -0.00245833583, 0.0396544933, 2.38673043  , 1.01        , 3           , 50          , 0           , 0
0.3840158   , 0.04862312  , -9.793619   , -0.00220739027, -0.00214018323, 0.00049452536, -0.185924232, -0.159026563, 0.422812462 , -0.002480211, 0.0396331027, 2.3867352   , 1.02        , 3           , 11          , 0.00863731  , 0.008637297
0.372048974 , 0.0303034354, -9.805537   , -0.00431042025, -0.005251725, 0.000197337577, -0.185991645, -0.158756912, 0.422812462 , -0.00252322946, 0.03958059  , 2.386737    , 1.03        , 3           , 12          , 0.03685171  , 0
0.400228381 , 0.0158513244, -9.766059   , -0.00102121662, 0.000542797847, -0.00104971137, -0.186059058, -0.159093976, 0.422745049 , -0.00253385631, 0.03958599  , 2.38672662  , 1.04        , 3           , 50          , 0           , 0
0.3633293   , 0.008959155 , -9.735183   , 0.002364721 , 0.00148081034, 0.00129843631, -0.186059058, -0.159093976, 0.422745049 , -0.00250969687, 0.0396008343, 2.38674     , 1.05        , 3           , 11          , 0.00863731  , 0.008637297
0.360755771 , 0.03090411  , -9.810594   , 0.00053766265, -0.000432172063, 8.616306E-05, -0.1857894  , -0.158891737, 0.422812462 , -0.00250428612, 0.0395965166, 2.386741    , 1.06        , 3           , 12          , 0.03685171  , 0
0.409600556 , 0.0454605222, -9.747786   , 0.00137941178, 0.000559032545, -0.00103851734, -0.1862613  , -0.158824325, 0.422745049 , -0.00249090418, 0.03960208  , 2.38673043  , 1.07        , 3           , 50          , 0           , 0
0.377830774 , -0.00235970644, -9.77399    , 0.00235842238, 0.00295903231, 0.00306657352, -0.186059058, -0.159026563, 0.422677636 , -0.00246610725, 0.0396317467, 2.386761    , 1.08        , 3           , 11          , 0.00863731  , 0.008637297
0.4048277   , 0.02381625  , -9.868592   , -0.00299412571, -0.00024487442, -0.000636317, -0.186059058, -0.159026563, 0.422677636 , -0.00249630073, 0.03962928  , 2.38675427  , 1.09        , 3           , 12          , 0.03685171  , 0
0.400478452 , 0.0588294   , -9.799778   , 0.00384020316, 0.001058024 , -0.00229792576, -0.185991645, -0.158756912, 0.422610223 , -0.00246736826, 0.0396275148, 2.38673139  , 1.1         , 3           , 50          , 0           , 0
0.381416738 , -0.00109262019, -9.760849   , 0.00526111247, 1.17217724E-05, 0.00385222118, -0.185856819, -0.159026563, 0.422745049 , -0.00241323 , 0.0396277234, 2.38677     , 1.11        , 3           , 11          , 0.008483527 , 0.008483512
0.409538358 , 0.0190754272, -9.817501   , 0.000113188893, -0.001712535, 0.0003644998, -0.186193883, -0.158824325, 0.422745049 , -0.00241195038, 0.039610602 , 2.38677382  , 1.12        , 3           , 12          , 0.0373457   , 0
0.4098122   , 0.0416148528, -9.811981   , 3.51452181E-05, -0.0003755824, -0.00104645558, -0.186193883, -0.158824325, 0.422745049 , -0.00241201278, 0.03960682  , 2.38676333  , 1.13        , 3           , 50          , 0           , 0
0.3652684   , 0.00547079742, -9.777669   , 0.00221877778, 0.00104705372, 0.00207383232, -0.186059058, -0.15895915 , 0.422677636 , -0.00238900445, 0.0396173522, 2.38678384  , 1.14        , 3           , 11          , 0.008483527 , 0.008483512
0.391223043 , 0.0409199037, -9.808964   , -0.00059954013, -0.000379876321, 0.0002926342, -0.186126471, -0.158891737, 0.422745049 , -0.00239488087, 0.0396135524, 2.3867867   , 1.15        , 3           , 12          , 0.0373457   , 0
0.4115726   , 0.0411061458, -9.801123   , -0.00130082469, -0.00158130808, -0.00169026444, -0.186598361, -0.158824325, 0.422745049 , -0.00240855827, 0.0395976976, 2.38677     , 1.16        , 3           , 50          , 0           , 0
0.399437    , -0.008520639, -9.761646   , 0.0009406015, 0.00244628312, 0.0015756354, -0.186598361, -0.158824325, 0.422745049 , -0.00239852979, 0.0396222   , 2.38678575  , 1.17        , 3           , 11          , 0.008483527 , 0.008483512
0.3886488   , 0.03221435  , -9.761107   , -4.260187E-05, 0.00131333643, 0.00107484963, -0.185924232, -0.15895915 , 0.4224754   , -0.00239853025, 0.0396353565, 2.38679624  , 1.18        , 3           , 12          , 0.0373457   , 0
0.371231765 , 0.07405384  , -9.797228   , -0.003354492, -0.000187325713, -0.000143686571, -0.186059058, -0.15895915 , 0.4225428   , -0.00243212958, 0.03963348  , 2.38679528  , 1.19        , 3           , 50          , 0           , 0
0.358004719 , 0.0349253044, -9.789354   , 0.000249639124, 0.00240008952, 8.469988E-05, -0.186059058, -0.159161389, 0.4224754   , -0.00257273647, 0.03968936  , 2.38679051  , 1.2         , 3           , 11          , 0.008404347 , 0.008404336
0.376751363 , 0.0241428036, -9.8679     , -0.00283653545, -0.00177400478, -6.82117934E-06, -0.185924232, -0.159161389, 0.422407985 , -0.00260110176, 0.03967162  , 2.38679051  , 1.21        , 3           , 12          , 0.0378822275, 0
0.400810242 , 0.0239848737, -9.771445   , 0.0021730517, -0.000895404664, 0.00121864048, -0.185924232, -0.159161389, 0.422407985 , -0.002578886, 0.0396626964, 2.386803    , 1.22        , 3           , 50          , 0           , 0
0.363849044 , -0.006093679, -9.689139   , 0.00647341  , 0.0008231208, 0.004207971 , -0.186193883, -0.158824325, 0.4225428   , -0.00251248525, 0.0396710373, 2.38684487  , 1.23        , 3           , 11          , 0.008404347 , 0.008404336
0.3954158   , 0.07883304  , -9.826401   , -0.00594644435, -0.00130228 , -0.00136260118, -0.186193883, -0.15895915 , 0.422610223 , -0.00257248734, 0.0396579728, 2.38683152  , 1.24        , 3           , 12          , 0.0378822275, 0
0.416218132 , 0.06168046  , -9.763488   , 0.00511300052, 0.003911247 , -0.00193870149, -0.186126471, -0.159026563, 0.422407985 , -0.002522131, 0.0396970361, 2.38681149  , 1.25        , 3           , 50          , 0           , 0
0.3591371   , 0.0115160132, -9.80933    , 0.0005329559, 0.0026835755, 0.004041975 , -0.186126471, -0.159026563, 0.422407985 , -0.0025151968, 0.0397239774, 2.3868525   , 1.26        , 3           , 11          , 0.008404347 , 0.008404336
0.3736713   , 0.0367502533, -9.84934    , -0.002918005, 0.000337253325, -0.000710239867, -0.186059058, -0.158891737, 0.4224754   , -0.00254466 , 0.03972733  , 2.38684487  , 1.27        , 3           , 12          , 0.0378822275, 0
0.3799925   , 0.03584291  , -9.73675251 , 0.00485293  , -0.0002437389, 0.00116149324, -0.186059058, -0.159026563, 0.422610223 , -0.00249566883, 0.03972492  , 2.38685632  , 1.28        , 3           , 50          , 0           , 0
0.370332479 , -0.0176561326, -9.761455   , -0.00121800136, -0.000355190219, 0.00268702675, -0.186126471, -0.159026563, 0.4225428   , -0.00250678044, 0.0397214368, 2.386884    , 1.29        , 3           , 11          , 0.008404347 , 0.008404336
0.388731    , 0.05229256  , -9.827466   , -0.00224104919, 0.00120507227, -0.00296688569, -0.186126471, -0.159026563, 0.4225428   , -0.00255627022, 0.0395954065, 2.38685346  , 1.3         , 3           , 12          , 0.0384591371, 0
0.375982285 , 0.0225527622, -9.795595   , 0.0007245253, 0.00157709222, 0.00022603113, -0.185991645, -0.158891737, 0.4224754   , -0.00254893652, 0.0396111831, 2.38685536  , 1.31        , 3           , 50          , 0           , 0
0.372662038 , 0.007738267 , -9.80653    , 0.00151575077, -0.0012333031, 0.00128482888, -0.186126471, -0.158824325, 0.422677636 , -0.00253326935, 0.0395988822, 2.38686824  , 1.32        , 3           , 11          , 0.008367236 , 0.008367218
0.386684179 , 0.0539082773, -9.764648   , -0.00166986673, 0.000153028508, -0.00105875114, -0.1862613  , -0.158891737, 0.422745049 , -0.002550386, 0.03960038  , 2.38685727  , 1.33        , 3           , 12          , 0.0384591371, 0
0.3668016   , 0.050157398 , -9.787416   , -0.0001884865, 0.0007261929, 0.00142123376, -0.1862613  , -0.158891737, 0.422745049 , -0.00255170721, 0.0396076776, 2.386872    , 1.34        , 3           , 50          , 0           , 0
0.369355172 , 0.0188229438, -9.737356   , 0.00171732018, 0.0008798683, 0.00164224312, -0.186059058, -0.158824325, 0.422745049 , -0.00253388216, 0.0396165252, 2.38688827  , 1.35        , 3           , 11          , 0.008367236 , 0.008367218
0.371652    , 0.03526385  , -9.80326    , -0.00215616124, -0.00139892043, -0.000569001655, -0.186328709, -0.158554673, 0.422812462 , -0.002555667, 0.0396025181, 2.386883    , 1.36        , 3           , 12          , 0.0384591371, 0
0.377652675 , 0.0009926539, -9.830476   , 0.002769476 , 0.0020836778, -0.000116833558, -0.185924232, -0.158622086, 0.422812462 , -0.00252801948, 0.03962335  , 2.38688159  , 1.37        , 3           , 50          , 0           , 0
0.399705976 , 0.0149074709, -9.752055   , 0.00361663057, 0.00223019253, 0.0008762153, -0.185924232, -0.158622086, 0.422812462 , -0.002491507, 0.03964567  , 2.38689065  , 1.38        , 3           , 11          , 0.008367236 , 0.008367218
0.382665515 , 0.02193872  , -9.770687   , -0.003357873, -0.0009846869, 0.0006268364, -0.186193883, -0.15895915 , 0.422879875 , -0.002524836, 0.0396358371, 2.38689637  , 1.39        , 3           , 12          , 0.0384591371, 0
0.3644063   , 0.0113191847, -9.769516   , 0.00123228761, -0.000501039845, 0.0005077658, -0.186665773, -0.158554673, 0.4230147   , -0.00250824075, 0.0395053625, 2.386902    , 1.4         , 3           , 50          , 0           , 0
0.369621456 , 0.0132361548, -9.820542   , 0.001577532 , 0.00104995479, 0.0002998955, -0.186193883, -0.158756912, 0.423149526 , -0.00249234866, 0.0395158678, 2.386905    , 1.41        , 3           , 11          , 0.0083483085, 0.008348294
0.373968542 , 0.0108047826, -9.783909   , -0.000333457545, 0.0018113628, -0.0010498534, -0.186193883, -0.158756912, 0.423149526 , -0.0024961  , 0.0395339578, 2.38689446  , 1.42        , 3           , 12          , 0.0390742645, 0
0.378453046 , 0.0151799805, -9.758996   , 0.00177721761, 0.003444689 , -0.000189868922, -0.186059058, -0.158756912, 0.4229473   , -0.00247840723, 0.0395684019, 2.38689256  , 1.43        , 3           , 50          , 0           , 0
0.39810887  , 0.0271536615, -9.765124   , 0.0007279122, 0.00160735729, 0.00107379071, -0.186059058, -0.158352435, 0.423216939 , -0.00247070356, 0.0395845   , 2.386903    , 1.44        , 3           , 11          , 0.0083483085, 0.008348294
0.390419334 , 0.0276966952, -9.765633   , 0.00136534474, 0.00104852067, -0.000336801459, -0.186126471, -0.15848726 , 0.423419178 , -0.002457186, 0.0395949781, 2.38690019  , 1.45        , 3           , 12          , 0.0390742645, 0
0.370829254 , 0.0113127995, -9.789807   , -0.00117575878, 0.0008905487, -0.000278236344, -0.185924232, -0.1586895  , 0.423149526 , -0.00246905279, 0.0396038778, 2.38689733  , 1.46        , 3           , 50          , 0           , 0
0.380490839 , 0.014003329 , -9.818196   , -0.00174758269, 0.00229455414, -0.000278700521, -0.185924232, -0.1586895  , 0.423149526 , -0.00248664152, 0.0396268144, 2.38689446  , 1.47        , 3           , 11          , 0.0083483085, 0.008348294
0.369254082 , 0.0280402638, -9.793817   , -0.000954325253, -0.001008582, 7.299402E-05, -0.185856819, -0.158622086, 0.4234866   , -0.00249615451, 0.03961674  , 2.38689542  , 1.48        , 3           , 12          , 0.0390742645, 0
0.3773555   , 0.03772477  , -9.750324   , -0.0007438361, -0.000795977248, -0.000420133321, -0.185991645, -0.158622086, 0.423554    , -0.00250376249, 0.03960876  , 2.38689065  , 1.49        , 3           , 50          , 0           , 0
0.4046456   , 0.03482743  , -9.788547   , -0.00178563723, -0.0002371021, -0.002118622, -0.1857894  , -0.15895915 , 0.423351765 , -0.00249725021, 0.03944685  , 2.386871    , 1.5         , 3           , 11          , 0.008333089 , 0.008333077
0.401873469 , 0.03302902  , -9.78089    , -0.0017207138, 0.00110081409, -0.000491641, -0.1857894  , -0.15895915 , 0.423351765 , -0.0025146543, 0.0394578464, 2.38686585  , 1.51        , 3           , 12          , 0.0397254638, 0
0.383618474 , 0.025537299 , -9.770666   , -0.000940195168, 0.000683727267, 0.0025486073, -0.186126471, -0.1586895  , 0.423351765 , -0.002523051, 0.03946475  , 2.3868916   , 1.52        , 3           , 50          , 0           , 0
0.3998104   , 0.04750151  , -9.783558   , -0.000731382, 0.00103710988, 0.000360472419, -0.185856819, -0.158622086, 0.423554    , -0.00253022416, 0.03947513  , 2.38689542  , 1.53        , 3           , 11          , 0.008333089 , 0.008333077
0.4111353   , 0.04692654  , -9.786186   , -0.00157621934, 0.00039785527, -0.0008452389, -0.185924232, -0.1586895  , 0.4234866   , -0.00254632183, 0.039479088 , 2.38688684  , 1.54        , 3           , 12          , 0.0397254638, 0
0.4102648   , 0.0113317259, -9.798544   , -0.000153200162, -0.00177472364, -0.0007007486, -0.185924232, -0.1586895  , 0.4234866   , -0.00254812837, 0.0394613221, 2.38687968  , 1.55        , 3           , 50          , 0           , 0
0.3914072   , 0.05803039  , -9.798946   , 0.001684584 , -0.002184657, -0.000834108156, -0.186059058, -0.158891737, 0.423419178 , -0.0025316095, 0.03943945  , 2.38687158  , 1.56        , 3           , 11          , 0.008333089 , 0.008333077
0.382613    , 0.04146147  , -9.805862   , -1.2090436E-05, -0.0017033763, -0.0002761754, -0.185856819, -0.1586895  , 0.423688829 , -0.00253183884, 0.0394224152, 2.38686872  , 1.57        , 3           , 12          , 0.0397254638, 0
0.4185427   , 0.0278545581, -9.776266   , 0.00139135006, 0.000136348288, 0.000368938985, -0.186059058, -0.158622086, 0.4234866   , -0.00251777819, 0.0394237824, 2.38687253  , 1.58        , 3           , 50          , 0           , 0
0.379500031 , 0.02242557  , -9.770258   , 0.0008170271, 0.00196269946, -0.000337217876, -0.186059058, -0.158622086, 0.4234866   , -0.00250974484, 0.0394434035, 2.38686872  , 1.59        , 3           , 11          , 0.008333089 , 0.008333077
0.369883448 , 0.0424612   , -9.790588   , -0.0007467553, -0.00237748539, 0.000422252924, -0.185856819, -0.1586895  , 0.423351765 , -0.00264011486, 0.03954377  , 2.38686872  , 1.6         , 3           , 12          , 0.0404106379, 0
0.397263527 , 0.0227495376, -9.794076   , 0.000372174341, -0.000398894656, -0.00133530109, -0.185991645, -0.158824325, 0.423554    , -0.00263691973, 0.0395397581, 2.38685536  , 1.61        , 3           , 50          , 0           , 0
0.3916863   , 0.0124308011, -9.792354   , 0.0014324761, -0.000321333559, 0.001353852 , -0.186059058, -0.15895915 , 0.4234866   , -0.00262205885, 0.039536573 , 2.38686919  , 1.62        , 3           , 11          , 0.008310689 , 0.008310681
0.3977359   , 0.0240991935, -9.794518   , 0.000855165534, 0.00192736066, -0.000905610155, -0.186059058, -0.15895915 , 0.4234866   , -0.002613866, 0.0395558253, 2.38686013  , 1.63        , 3           , 12          , 0.0404106379, 0
0.383288682 , 0.0305521451, -9.784659   , 0.00171703869, -0.000882557, 0.000224151052, -0.1857894  , -0.158824325, 0.423351765 , -0.0025966058, 0.039547    , 2.386862    , 1.64        , 3           , 50          , 0           , 0
0.357460648 , 0.0299467836, -9.78305149 , 0.000879189931, -0.00285924412, -0.00034791205, -0.186126471, -0.158622086, 0.423554    , -0.00258794962, 0.0395184   , 2.38685918  , 1.65        , 3           , 11          , 0.008310689 , 0.008310681
0.379102439 , 0.0264927633, -9.770697   , -0.00166715984, -0.0020317398, -0.0009235377, -0.185924232, -0.158756912, 0.423621416 , -0.00260498421, 0.0394980647, 2.38684964  , 1.66        , 3           , 12          , 0.0404106379, 0
0.398880631 , 0.00739518367, -9.795936   , -0.0008201314, -0.00174443948, 0.00105860934, -0.185924232, -0.158756912, 0.423621416 , -0.00261276541, 0.03948064  , 2.38686013  , 1.67        , 3           , 50          , 0           , 0
0.3994949   , 0.008859735 , -9.830727   , -0.002225696, -0.0034433885, -0.00205849134, -0.185722   , -0.1586895  , 0.4234866   , -0.002635833, 0.0394461565, 2.38684     , 1.68        , 3           , 11          , 0.008310689 , 0.008310681
0.397523254 , 0.0163389035, -9.767434   , 0.00142887258, 0.000241792673, -5.79674124E-05, -0.185856819, -0.158554673, 0.423554    , -0.00262156734, 0.0394485667, 2.38683915  , 1.69        , 3           , 12          , 0.0404106379, 0
0.401596278 , 0.09648417  , -9.730459   , 0.001482293 , 0.000855908729, -5.46656338E-05, -0.185991645, -0.158554673, 0.423756242 , -0.00253771967, 0.03951966  , 2.386842    , 1.7         , 3           , 50          , 0           , 0
0.3909328   , -0.179963574, -9.34027    , 0.0581524074, 0.0217940826, 0.007305152 , -0.185722   , -0.158824325, 0.423823655 , -0.001953316, 0.0397377573, 2.38691449  , 1.71        , 3           , 11          , 0.008278329 , 0.008278316
0.381432652 , 0.289498746 , -10.8249712 , -0.135817543, -0.05047443 , -0.0137704108, -0.185722   , -0.158824325, 0.423823655 , -0.00331688114, 0.0392326564, 2.386778    , 1.72        , 3           , 12          , 0.04112773  , 0
0.3962947   , 0.00150657445, -9.514394   , 0.07395889  , 0.0233088546, 0.00314300787, -0.186126471, -0.15895915 , 0.423554    , -0.00257608132, 0.0394658335, 2.38680863  , 1.73        , 3           , 50          , 0           , 0
0.334635854 , -0.2367099  , -9.044886   , 0.09450752  , 0.0394975431, 0.0221938882, -0.1857894  , -0.158622086, 0.423823655 , -0.00162223412, 0.039861273 , 2.38703     , 1.74        , 3           , 11          , 0.008278329 , 0.008278316
0.371959329 , 0.324900538 , -10.7200356 , -0.160070151, -0.05908567 , -0.023785498, -0.1857894  , -0.158756912, 0.423621416 , -0.003232294, 0.03926984  , 2.38679338  , 1.75        , 3           , 12          , 0.04112773  , 0
0.472440153 , -0.02402265 , -9.168601   , 0.124411814 , 0.04279713  , -0.008175789, -0.1857894  , -0.158756912, 0.423621416 , -0.00199145079, 0.03969761  , 2.38671041  , 1.76        , 3           , 50          , 0           , 0
0.322386444 , -0.2235662  , -9.5515995  , 0.00572860427, 0.0025740366, 0.03161189  , -0.185722   , -0.158891737, 0.423823655 , -0.00192160544, 0.0397239625, 2.387027    , 1.77        , 3           , 11          , 0.008278329 , 0.008278316
0.32586816  , 0.246588141 , -10.88614   , -0.140905008, -0.04938254 , -0.0106844669, -0.186059058, -0.158622086, 0.423688829 , -0.003334823, 0.03922985  , 2.38692117  , 1.78        , 3           , 12          , 0.04112773  , 0
0.5058967   , 0.0592352673, -9.219526   , 0.1232499   , 0.0481392   , -0.0180616248, -0.185856819, -0.159093976, 0.423823655 , -0.00210950826, 0.0397107564, 2.386739    , 1.79        , 3           , 50          , 0           , 0
0.2803565   , -0.153377146, -9.34688    , 0.0181384757, 0.00575531926, 0.0291317962, -0.185856819, -0.159093976, 0.423823655 , -0.00191667723, 0.039768938 , 2.38703084  , 1.8         , 3           , 11          , 0.008233676 , 0.008233667
0.369494736 , 0.149569869 , -10.2376108 , -0.07745881 , -0.0286800731, -0.009226734, -0.185856819, -0.158285022, 0.423688829 , -0.002694896, 0.0394819155, 2.38693929  , 1.81        , 3           , 12          , 0.04187475  , 0
0.489485472 , 0.07860534  , -9.685115   , 0.0522133671, 0.0206276849, -0.01617482 , -0.185856819, -0.158891737, 0.423891068 , -0.00217918539, 0.0396877937, 2.38677716  , 1.82        , 3           , 50          , 0           , 0
0.3299001   , -0.0556781553, -9.85277    , -0.0148423649, -0.008828004, 0.0151112517, -0.1857894  , -0.158554673, 0.423823655 , -0.0023216072, 0.03959986  , 2.38692832  , 1.83        , 3           , 11          , 0.008233676 , 0.008233667
0.426499367 , 0.06048371  , -9.845222   , -0.009235175, -0.00287699653, -0.00576107 , -0.1857894  , -0.158554673, 0.423823655 , -0.002416239, 0.03957095  , 2.38687062  , 1.84        , 3           , 12          , 0.04187475  , 0
0.4591994   , 0.101692185 , -9.735422   , 0.0164168775, 0.007151588 , -0.00562604144, -0.185991645, -0.158891737, 0.42395848  , -0.002254304, 0.0396423377, 2.38681436  , 1.85        , 3           , 50          , 0           , 0
0.364207685 , 0.0400968865, -9.739115   , 0.000370734429, -0.00168575416, 0.00982500147, -0.185856819, -0.158622086, 0.423891068 , -0.00224669976, 0.0396257   , 2.38691258  , 1.86        , 3           , 11          , 0.008233676 , 0.008233667
0.40411517  , 0.0183289684, -9.711781   , 0.00572950253, -0.00164949987, -0.00286416244, -0.185856819, -0.158824325, 0.423688829 , -0.00219053845, 0.0396091342, 2.386884    , 1.87        , 3           , 12          , 0.04187475  , 0
0.390506178 , 0.0561851747, -9.916929   , -0.00838389 , -0.00315281912, -0.00123695377, -0.185856819, -0.158824325, 0.423688829 , -0.00227486528, 0.0395775773, 2.38687158  , 1.88        , 3           , 50          , 0           , 0
0.3836168   , 0.06555917  , -9.863156   , 0.00175460265, 0.00311038038, 0.00192791456, -0.185654581, -0.1586895  , 0.423756242 , -0.002256559, 0.03960873  , 2.38689065  , 1.89        , 3           , 11          , 0.008233676 , 0.008233667
0.3676258   , 0.0260520354, -9.734176   , 0.00483667664, 0.00320663676, 0.0010841965, -0.185924232, -0.1586895  , 0.424160719 , -0.0026152262, 0.03973814  , 2.386886    , 1.9         , 3           , 12          , 0.0426497981, 0
0.3795297   , -0.000240114037, -9.739617   , -0.00418810872, 0.0006114336, 0.00160322431, -0.185924232, -0.158622086, 0.4240259   , -0.00265646935, 0.0397443   , 2.386902    , 1.91        , 3           , 50          , 0           , 0
0.3913278   , -0.0137480637, -9.788849   , -0.00419547968, 0.00173768529, -0.00150295219, -0.185924232, -0.158622086, 0.4240259   , -0.00269902451, 0.0397616327, 2.38688684  , 1.92        , 3           , 11          , 0.00892252848, 0.008922518
0.387026    , -0.005477423, -9.817775   , -0.00475836126, 0.00117073115, -0.0029191412, -0.1857894  , -0.158756912, 0.423823655 , -0.00274777063, 0.039773263 , 2.38685727  , 1.93        , 3           , 12          , 0.0426497981, 0
0.3512057   , -0.00242012646, -9.797245   , -0.00108255586, 0.000632437761, -0.000360051636, -0.185654581, -0.15895915 , 0.42395848  , -0.00275873928, 0.0397795849, 2.38685346  , 1.94        , 3           , 50          , 0           , 0
0.3375892   , -0.008982567, -9.810936   , -0.00390543 , 0.000331773015, -0.0003736549, -0.1857894  , -0.158824325, 0.423756242 , -0.00279794284, 0.03978289  , 2.38685     , 1.95        , 3           , 11          , 0.00892252848, 0.008922518
0.3447526   , -0.000206366167, -9.762482   , 0.0006311061, -0.00301644346, 0.00133743358, -0.185924232, -0.1586895  , 0.423688829 , -0.00279109413, 0.0397527553, 2.38686347  , 1.96        , 3           , 12          , 0.0426497981, 0
0.367262363 , -0.004147879, -9.742438   , 0.004014652 , -0.00186726358, 0.00135497248, -0.185924232, -0.1586895  , 0.423688829 , -0.002750407, 0.039734114 , 2.3868773   , 1.97        , 3           , 50          , 0           , 0
0.383730143 , -0.007327972, -9.792948   , -0.00616033655, -0.0005282005, 0.000179582552, -0.185924232, -0.158891737, 0.423823655 , -0.002811939, 0.0397288427, 2.38687921  , 1.98        , 3           , 11          , 0.00892252848, 0.008922518
0.403150082 , 0.007951196 , -9.841551   , -0.00419095671, 0.0003298482, -0.00574318366, -0.185991645, -0.158622086, 0.424160719 , -0.002856133, 0.03973198  , 2.386821    , 1.99        , 3           , 12          , 0.0426497981, 0
0.381015    , -0.015329117, -9.819218   , 0.00228990824, 0.001905427 , 0.00277495314, -0.185587168, -0.158756912, 0.423688829 , -0.00245630066, 0.0395352766, 2.38686442  , 2           , 3           , 50          , 0           , 0
0.383324534 , -0.0014818795, -9.785696   , 0.00257463357, 0.00134420453, 0.00192779012, -0.185587168, -0.158756912, 0.423688829 , -0.00242979242, 0.0395487659, 2.386884    , 2.01        , 3           , 11          , 0.00872059  , 0.008720557
0.38520062  , 0.04846657  , -9.751575   , -0.00109985215, 0.0013193608, -0.00317500462, -0.185856819, -0.158756912, 0.423823655 , -0.00244204886, 0.03956189  , 2.386852    , 2.02        , 3           , 12          , 0.04345104  , 0
0.377617    , 0.0811585262, -9.785397   , -0.00362096122, -0.00235816231, 0.0013281015, -0.1857894  , -0.158756912, 0.42395848  , -0.00247772946, 0.03953834  , 2.38686538  , 2.03        , 3           , 50          , 0           , 0
0.3823307   , 0.08527309  , -9.817434   , -0.00163216866, -0.00459731 , 0.00246399851, -0.185722   , -0.158824325, 0.423891068 , -0.00249307323, 0.03949242  , 2.38689017  , 2.04        , 3           , 11          , 0.00872059  , 0.008720557
0.427114844 , 0.08649852  , -9.801268   , -0.00278162933, -0.000944611849, -0.0003610028, -0.185722   , -0.158824325, 0.423891068 , -0.002521031, 0.03948297  , 2.38688684  , 2.05        , 3           , 12          , 0.04345104  , 0
0.3914655   , 0.07146816  , -9.769963   , -0.000243480725, -8.2724524E-05, 0.0004997636, -0.1857894  , -0.158756912, 0.42395848  , -0.002523268, 0.03948215  , 2.3868916   , 2.06        , 3           , 50          , 0           , 0
0.4299086   , 0.0349007845, -9.764397   , 0.002856986 , 0.00106454222, -0.0006141641, -0.185722   , -0.15895915 , 0.423823655 , -0.002494943, 0.0394927822, 2.3868854   , 2.07        , 3           , 11          , 0.00872059  , 0.008720557
0.4608932   , 0.0387145765, -9.798496   , 0.003700336 , 0.00163339707, -0.002587108, -0.1857894  , -0.158891737, 0.42395848  , -0.002458961, 0.03950905  , 2.38685918  , 2.08        , 3           , 12          , 0.04345104  , 0
0.401706338 , 0.0462099463, -9.808409   , 0.00258078775, -6.36248442E-05, 0.000512932951, -0.1857894  , -0.158891737, 0.42395848  , -0.00243294984, 0.03950843  , 2.386865    , 2.09        , 3           , 50          , 0           , 0
0.3692665   , 0.0271576177, -9.799696   , -0.0035658367, -0.00271261553, -0.000657691155, -0.185722   , -0.158891737, 0.423823655 , -0.00279994728, 0.03977982  , 2.38684535  , 2.1         , 3           , 11          , 0.008538918 , 0.008538914
0.3763275   , 0.015765056 , -9.791101   , -0.00245933817, 0.002081633 , 0.000202565643, -0.185856819, -0.158554673, 0.423823655 , -0.002824462, 0.03980064  , 2.38684726  , 2.11        , 3           , 12          , 0.04427672  , 0
0.394015759 , 0.0178135075, -9.790957   , -0.001051386, 0.00293587847, 0.000210452126, -0.185654581, -0.15895915 , 0.423823655 , -0.002834897, 0.03983001  , 2.38684916  , 2.12        , 3           , 50          , 0           , 0
0.372463167 , 0.0111479154, -9.746857   , -0.00158385118, -0.00354393641, 0.0007629128, -0.185654581, -0.15895915 , 0.423823655 , -0.00285042846, 0.03979459  , 2.38685727  , 2.13        , 3           , 11          , 0.008538918 , 0.008538914
0.380092084 , 0.0292283427, -9.78243    , -0.00272315345, -0.0015806203, 0.00104321993, -0.185722   , -0.158622086, 0.423756242 , -0.00287724216, 0.0397788174, 2.38686776  , 2.14        , 3           , 12          , 0.04427672  , 0
0.399812281 , 0.0399150923, -9.808449   , -0.00441606855, -0.00215521571, -0.000943311665, -0.185722   , -0.158622086, 0.4240933   , -0.00292177568, 0.0397572368, 2.38685822  , 2.15        , 3           , 50          , 0           , 0
0.385840863 , 0.0472741053, -9.801294   , -0.00158491894, -0.00326237036, 0.00132842164, -0.185991645, -0.158756912, 0.42395848  , -0.002937094, 0.03972465  , 2.38687158  , 2.16        , 3           , 11          , 0.008538918 , 0.008538914
0.380308747 , 0.0174265783, -9.7625885  , 0.00404066034, 0.00128086726, 0.0002315533, -0.185991645, -0.158756912, 0.42395848  , -0.00289659644, 0.039737463 , 2.38687348  , 2.17        , 3           , 12          , 0.04427672  , 0
0.401544869 , 0.009552526 , -9.776019   , -0.00385539676, -0.00130670075, -0.000939376, -0.185654581, -0.158891737, 0.423621416 , -0.00293552061, 0.03972437  , 2.38686442  , 2.18        , 3           , 50          , 0           , 0
0.383693337 , 0.0233662128, -9.795985   , 0.000111525354, -0.00353247323, 0.00218350161, -0.185924232, -0.1586895  , 0.42395848  , -0.00293353526, 0.03968911  , 2.38688636  , 2.19        , 3           , 11          , 0.008538918 , 0.008538914
0.357091725 , 0.0273419544, -9.811993   , -0.00382418768, -0.00411007 , 0.00131734717, -0.1857894  , -0.158419847, 0.42395848  , -0.002947198, 0.0396665037, 2.38690114  , 2.2         , 3           , 12          , 0.0451251827, 0
0.366388917 , 0.0239346884, -9.770804   , 0.00123260822, 0.0009924721, -0.0017590496, -0.186059058, -0.1586895  , 0.423823655 , -0.0029355702, 0.03967637  , 2.3868835   , 2.21        , 3           , 50          , 0           , 0
0.377165943 , 0.0157000013, -9.774823   , 0.0006617635, 0.002396482 , -6.428864E-05, -0.186059058, -0.1586895  , 0.423823655 , -0.00292898039, 0.039700333 , 2.386883    , 2.22        , 3           , 11          , 0.008364054 , 0.008364031
0.396663576 , 0.0128159225, -9.790054   , -0.00131202117, 0.0015384123, -0.00177003408, -0.185722   , -0.158622086, 0.42395848  , -0.00294280355, 0.0397156626, 2.386865    , 2.23        , 3           , 12          , 0.0451251827, 0
0.418761432 , -0.00403130846, -9.821594   , -0.00243394263, 0.000122951024, -0.0003647839, -0.185856819, -0.158622086, 0.42395848  , -0.00296728848, 0.03971688  , 2.38686156  , 2.24        , 3           , 50          , 0           , 0
0.391423374 , 0.0170534626, -9.82397652 , 0.002083819 , 0.0004350772, 0.000221795723, -0.1857894  , -0.158756912, 0.4240259   , -0.00294636213, 0.0397212356, 2.386864    , 2.25        , 3           , 11          , 0.008364054 , 0.008364031
0.407310575 , 0.03029007  , -9.790353   , -0.00242557866, -0.00156643928, -0.0003673875, -0.1857894  , -0.158756912, 0.4240259   , -0.00297076278, 0.03970557  , 2.38686013  , 2.26        , 3           , 12          , 0.0451251827, 0
0.385934919 , 0.0335876   , -9.757507   , 0.00152830814, -0.00125812856, 0.00191178324, -0.185654581, -0.158554673, 0.423554    , -0.00295471866, 0.0396930464, 2.38687921  , 2.27        , 3           , 50          , 0           , 0
0.366436958 , 0.0360250622, -9.743635   , 0.000112896436, -0.0007045507, 0.00105845393, -0.185856819, -0.15848726 , 0.4240933   , -0.00295316661, 0.0396860242, 2.3868897   , 2.28        , 3           , 11          , 0.008364054 , 0.008364031
0.334931731 , 0.03833632  , -9.784093   , 0.001243182 , -0.0009784796, -0.0003493995, -0.185856819, -0.15895915 , 0.42395848  , -0.00294087362, 0.0396762341, 2.38688636  , 2.29        , 3           , 12          , 0.0451251827, 0
0.363596052 , 0.0416847244, -9.806007   , -0.0021363094, 0.0008754707, -0.00177424354, -0.185856819, -0.15895915 , 0.42395848  , -0.002931287, 0.0395377539, 2.38687015  , 2.3         , 3           , 50          , 0           , 0
0.376728863 , 0.004112962 , -9.816006   , 0.000120065175, 0.001735451 , 0.000215355976, -0.185924232, -0.1586895  , 0.4240933   , -0.00293000275, 0.0395551175, 2.38687253  , 2.31        , 3           , 11          , 0.008202163 , 0.008202143
0.391370445 , -0.0114817247, -9.792004   , 0.00238702819, 6.13365555E-05, -0.00118939928, -0.1857894  , -0.15848726 , 0.424160719 , -0.00290660281, 0.0395557   , 2.38686013  , 2.32        , 3           , 12          , 0.04599485  , 0
0.362718463 , -0.0183909573, -9.784567   , 0.00209861016, 0.00146725657, 0.0005066781, -0.185519755, -0.158756912, 0.423891068 , -0.00288541988, 0.0395703837, 2.38686538  , 2.33        , 3           , 50          , 0           , 0
0.358137459 , 0.007879643 , -9.798054   , 0.000702714664, -0.00192107656, -0.000352726, -0.185519755, -0.158756912, 0.423891068 , -0.00287853065, 0.03955117  , 2.386862    , 2.34        , 3           , 11          , 0.008202163 , 0.008202143
0.366913617 , 0.0253266711, -9.783902   , -0.00071975583, 0.000321898231, 0.001056848 , -0.185856819, -0.15895915 , 0.423688829 , -0.00288530951, 0.0395544134, 2.38687253  , 2.35        , 3           , 12          , 0.04599485  , 0
0.398961425 , 0.0132631743, -9.796815   , -0.00128977036, 0.00116276881, -0.0006397088, -0.185654581, -0.158756912, 0.423823655 , -0.00289846119, 0.03956602  , 2.38686585  , 2.36        , 3           , 50          , 0           , 0
0.407313973 , 0.02984648  , -9.792614   , 0.000689264038, 0.00089457666, 0.0004992255, -0.185722   , -0.1586895  , 0.42395848  , -0.00289137 , 0.0395749845, 2.386871    , 2.37        , 3           , 11          , 0.008202163 , 0.008202143
0.398991674 , 0.05159971  , -9.791683   , 0.0004096251, 0.00032953656, 0.000497040746, -0.185722   , -0.1586895  , 0.42395848  , -0.002887076, 0.0395782851, 2.38687634  , 2.38        , 3           , 12          , 0.04599485  , 0
0.37772882  , 0.0260499977, -9.768449   , -0.0004497862, 0.00257632253, -0.00119866326, -0.185722   , -0.158824325, 0.42395848  , -0.00289205112, 0.0396040156, 2.386864    , 2.39        , 3           , 50          , 0           , 0
0.3736151   , 0.021602951 , -9.77347    , -0.00237081829, 0.00167496118, 0.000488006568, -0.185856819, -0.158622086, 0.42395848  , -0.00283285021, 0.0395503864, 2.38687253  , 2.4         , 3           , 11          , 0.0080485   , 0.008048487
0.3970666   , 0.03858446  , -9.805763   , 0.00157414086, 0.00339108845, -0.000621102459, -0.1857894  , -0.1586895  , 0.423891068 , -0.00281735952, 0.03958428  , 2.38686633  , 2.41        , 3           , 12          , 0.04688424  , 0
0.4273292   , 0.03906107  , -9.78473949 , 0.001583647 , 0.00170170306, 0.00135405618, -0.1857894  , -0.1586895  , 0.423891068 , -0.002800988, 0.0396013334, 2.38687968  , 2.42        , 3           , 50          , 0           , 0
0.394006819 , 0.02093074  , -9.778741   , -0.0006686347, 0.000278598716, 0.0016238885, -0.185587168, -0.159026563, 0.423823655 , -0.00280703162, 0.0396041647, 2.386896    , 2.43        , 3           , 11          , 0.0080485   , 0.008048487
0.39955616  , 0.0187291279, -9.813963   , -0.00293534575, 0.00167114276, 0.0010504477, -0.185924232, -0.158554673, 0.423823655 , -0.00283597037, 0.0396209024, 2.38690639  , 2.44        , 3           , 12          , 0.04688424  , 0
0.411279649 , 0.02301474  , -9.78764    , -0.00179841626, -1.06132939E-05, -0.000924650347, -0.185519755, -0.158419847, 0.423891068 , -0.002854321, 0.039620772 , 2.38689733  , 2.45        , 3           , 50          , 0           , 0
0.395093918 , 0.03445767  , -9.779581   , 0.002719998 , 0.000301516 , 0.0007920792, -0.185654581, -0.1586895  , 0.423823655 , -0.00282680569, 0.0396238044, 2.386905    , 2.46        , 3           , 11          , 0.0080485   , 0.008048487
0.38044548  , 0.04826136  , -9.807659   , -0.0009577796, 0.00140294351, -0.000353454932, -0.185654581, -0.1586895  , 0.423823655 , -0.00283652614, 0.0396378227, 2.38690114  , 2.47        , 3           , 12          , 0.04688424  , 0
0.3848305   , 0.0391655266, -9.801786   , -0.00236721453, 0.00111183478, 0.00189982611, -0.185924232, -0.1586895  , 0.423756242 , -0.002859446, 0.0396489948, 2.38692021  , 2.48        , 3           , 50          , 0           , 0
0.400425553 , 0.0227062851, -9.792245   , -0.0003885808, 0.000562069064, -6.958537E-05, -0.185991645, -0.158891737, 0.42395848  , -0.00286335731, 0.0396546125, 2.38691974  , 2.49        , 3           , 11          , 0.0080485   , 0.008048487
0.394265324 , 0.0376550853, -9.788161   , -0.000116936804, -0.0005215275, 0.0002121017, -0.185654581, -0.158756912, 0.42395848  , -0.00289236451, 0.0397182032, 2.38692117  , 2.5         , 3           , 12          , 0.04779195  , 0
0.378279    , 0.0189819857, -9.815028   , -0.00181256549, -0.0002514207, 0.000769709 , -0.185654581, -0.158756912, 0.42395848  , -0.00291018374, 0.03971571  , 2.3869288   , 2.51        , 3           , 50          , 0           , 0
0.383877963 , 0.00350419339, -9.794259   , 0.000153270259, 0.00201446959, 0.000782399031, -0.185722   , -0.158419847, 0.42395848  , -0.00290833949, 0.039735876 , 2.386937    , 2.52        , 3           , 11          , 0.007904145 , 0.00790413748
0.37344414  , 0.007181234 , -9.778052   , -0.0009738122, 0.00144369877, 0.000493725936, -0.185654581, -0.158756912, 0.423891068 , -0.00291788275, 0.0397503339, 2.38694167  , 2.53        , 3           , 12          , 0.04779195  , 0
0.355281144 , 0.000656835735, -9.787257   , -0.00321838213, -0.001668799, -0.00036919507, -0.185654581, -0.158891737, 0.423688829 , -0.00295021082, 0.0397336259, 2.38693833  , 2.54        , 3           , 50          , 0           , 0
0.355086327 , 0.0218496229, -9.7822     , -0.00153555139, 0.0008767504, 0.00105529907, -0.185654581, -0.158891737, 0.423688829 , -0.00296514737, 0.03974243  , 2.38694882  , 2.55        , 3           , 11          , 0.007904145 , 0.00790413748
0.348031461 , -0.00372579019, -9.800439   , -0.00211195787, 0.00284387753, -0.00205220934, -0.185654581, -0.1586895  , 0.423891068 , -0.002987087, 0.0397708043, 2.38692784  , 2.56        , 3           , 12          , 0.04779195  , 0
0.37659055  , 0.03115409  , -9.805951   , -0.00294645457, 0.0005856346, 0.0007657431, -0.185452342, -0.158891737, 0.423891068 , -0.00301624741, 0.0397766829, 2.38693547  , 2.57        , 3           , 50          , 0           , 0
0.372749358 , 0.0149506349, -9.804691   , -0.00208572368, -0.00222428842, -8.22577E-05, -0.1857894  , -0.158891737, 0.42395848  , -0.003037133, 0.0397544354, 2.38693452  , 2.58        , 3           , 11          , 0.007904145 , 0.00790413748
0.3955865   , 0.000189784914, -9.788758   , 0.001295286 , -0.000793548941, -0.00204204721, -0.1857894  , -0.158891737, 0.42395848  , -0.00302498974, 0.0397464372, 2.38691449  , 2.59        , 3           , 12          , 0.04779195  , 0
0.373683542 , 0.0234438479, -9.784309   , -0.000563434849, -0.000345081149, -6.812555E-05, -0.185587168, -0.158622086, 0.423891068 , -0.00282037351, 0.0395656228, 2.38692212  , 2.6         , 3           , 50          , 0           , 0
0.390914053 , 0.0263863038, -9.780098   , -0.00225750636, -0.000356538629, 0.000771585153, -0.185991645, -0.158756912, 0.4240933   , -0.002842642, 0.0395620763, 2.38692975  , 2.61        , 3           , 11          , 0.00776662026, 0.007766614
0.398968637 , 0.0155007895, -9.791382   , -0.002259553, -7.4976735E-05, -0.000358130725, -0.185924232, -0.1586895  , 0.4240259   , -0.00286537921, 0.0395613238, 2.386927    , 2.62        , 3           , 12          , 0.04871666  , 0
0.399984628 , 0.0160259716, -9.816683   , -0.00197835686, 0.000208499114, -7.38423551E-05, -0.185924232, -0.1586895  , 0.4240259   , -0.00288519217, 0.0395634025, 2.386926    , 2.63        , 3           , 50          , 0           , 0
0.406996578 , 0.04156661  , -9.788049   , 0.00112062669, 0.00191890239, 0.00107339723, -0.185587168, -0.158419847, 0.423891068 , -0.002873565, 0.03958262  , 2.38693643  , 2.64        , 3           , 11          , 0.00776662026, 0.007766614
0.384128869 , 0.0278104227, -9.777432   , -0.0005725403, 0.00162587757, 0.00106506178, -0.185722   , -0.158554673, 0.4240259   , -0.00287886942, 0.039598912 , 2.386947    , 2.65        , 3           , 12          , 0.04871666  , 0
0.378975749 , 0.013892279 , -9.780241   , -0.0002781457, -0.000624729262, 0.00247559464, -0.1857894  , -0.15848726 , 0.423891068 , -0.0028806678, 0.0395927355, 2.38697171  , 2.66        , 3           , 50          , 0           , 0
0.395902246 , 0.0290120617, -9.77327    , 0.0008432865, 0.0007907298, 0.00022273208, -0.1857894  , -0.15848726 , 0.423891068 , -0.00287214667, 0.03960064  , 2.386974    , 2.67        , 3           , 11          , 0.00776662026, 0.007766614
0.388068736 , 0.03873764  , -9.819843   , 4.3993353E-07, -0.00034126587, -0.00176071667, -0.185452342, -0.158622086, 0.423756242 , -0.002872842, 0.03959718  , 2.38695645  , 2.68        , 3           , 12          , 0.04871666  , 0
0.40354237  , 0.0119140139, -9.81396    , 0.0005773356, -0.00230839057, 0.00219440414, -0.185587168, -0.158554673, 0.423891068 , -0.00286619551, 0.03957416  , 2.38697839  , 2.69        , 3           , 50          , 0           , 0
0.3834609   , 0.0115727782, -9.777053   , 0.00145989074, -0.00143918407, 0.000223671741, -0.185722   , -0.15848726 , 0.4240933   , -0.002777715, 0.0395938642, 2.386984    , 2.7         , 3           , 11          , 0.0076366975, 0.007636701
0.3880136   , 0.009754328 , -9.788776   , 4.89875674E-05, -0.00173029967, -6.58840945E-05, -0.185587168, -0.158756912, 0.423823655 , -0.00277724932, 0.0395765528, 2.38698363  , 2.71        , 3           , 12          , 0.04965714  , 0
0.3826687   , 0.016138766 , -9.790147   , 0.0008947854, -0.00116143364, 0.00219923421, -0.185587168, -0.158756912, 0.423823655 , -0.00276743 , 0.039565    , 2.387006    , 2.72        , 3           , 50          , 0           , 0
0.370430052 , 0.0131469034, -9.797033   , 0.00143693411, 0.00306585431, -0.000899535138, -0.185587168, -0.158285022, 0.423823655 , -0.00275341887, 0.0395956337, 2.38699651  , 2.73        , 3           , 11          , 0.0076366975, 0.007636701
0.3699138   , 0.0131008243, -9.78167    , -0.003353748, 0.00106243289, 0.000487726764, -0.185856819, -0.158554673, 0.42395848  , -0.00278676534, 0.03960627  , 2.38700128  , 2.74        , 3           , 12          , 0.04965714  , 0
0.379731268 , 0.03511072  , -9.786023   , 0.002867517 , -0.000584940542, -0.0003335165, -0.185722   , -0.158622086, 0.423891068 , -0.00275822147, 0.0396004133, 2.38699841  , 2.75        , 3           , 50          , 0           , 0
0.405339569 , 0.02080844  , -9.781819   , -0.00390998553, -0.0009123481, -0.00149570685, -0.185722   , -0.158622086, 0.423891068 , -0.002797915, 0.03959125  , 2.38698316  , 2.76        , 3           , 11          , 0.0076366975, 0.007636701
0.373237163 , 0.0194371771, -9.798794   , -0.0008046847, -0.000609773269, -0.00148078671, -0.1857894  , -0.158554673, 0.42395848  , -0.00280654756, 0.0395851173, 2.38696837  , 2.77        , 3           , 12          , 0.04965714  , 0
0.3832016   , 0.0211082082, -9.793739   , -0.00165082293, -0.0006154977, 0.000493024767, -0.185924232, -0.15848726 , 0.42395848  , -0.00282286084, 0.0395789742, 2.38697362  , 2.78        , 3           , 50          , 0           , 0
0.377022833 , 0.00621070247, -9.770345   , -0.0005169338, -0.00145255309, 0.0004969907, -0.185722   , -0.1586895  , 0.4240259   , -0.00282783015, 0.0395644642, 2.38697839  , 2.79        , 3           , 11          , 0.0076366975, 0.007636701
0.397197545 , 0.021803394 , -9.780973   , 0.000117002513, -0.00148203876, 0.000219815978, -0.185722   , -0.1586895  , 0.4240259   , -0.0026962976, 0.0394870825, 2.386986    , 2.8         , 3           , 12          , 0.0506122224, 0
0.3947042   , 0.0416557081, -9.771871   , -0.00243115635, -9.139994E-05, 0.0013402832, -0.185587168, -0.158891737, 0.42395848  , -0.00272007869, 0.0394862071, 2.38699937  , 2.81        , 3           , 50          , 0           , 0
0.371487647 , 0.02977445  , -9.780684   , 0.00151126646, 0.00190628658, -0.00174615439, -0.185654581, -0.158891737, 0.4240259   , -0.00270565832, 0.03950522  , 2.3869822   , 2.82        , 3           , 11          , 0.007513293 , 0.0075133
0.381974459 , 0.0372990742, -9.773794   , 0.000401639 , -0.00176168967, 0.00163338648, -0.1857894  , -0.158622086, 0.42395848  , -0.00270099426, 0.039487645 , 2.38699841  , 2.83        , 3           , 12          , 0.0506122224, 0
0.3944772   , 0.01692252  , -9.79593    , -0.000732087065, -0.0009246338, 0.001911958 , -0.1857894  , -0.158622086, 0.42395848  , -0.00270755962, 0.0394784547, 2.38701749  , 2.84        , 3           , 50          , 0           , 0
0.411927462 , -0.000414935872, -9.799936   , -0.003269984, -0.00206809165, -0.0009270048, -0.185519755, -0.158824325, 0.42395848  , -0.00274062459, 0.0394577459, 2.38700843  , 2.85        , 3           , 11          , 0.007513293 , 0.0075133
0.389683723 , -0.00198628567, -9.791977   , 0.00122252223, 0.0033122052, -0.0006151516, -0.185654581, -0.1586895  , 0.423891068 , -0.00272864685, 0.03949085  , 2.38700223  , 2.86        , 3           , 12          , 0.0506122224, 0
0.3785571   , 0.0121398475, -9.794263   , -0.00214011362, -0.002060451, -0.0006391995, -0.185519755, -0.158554673, 0.4240259   , -0.00275029778, 0.03947023  , 2.38699555  , 2.87        , 3           , 50          , 0           , 0
0.4003238   , 0.013696867 , -9.79635048 , -0.000163703982, -0.001765512, 0.0007831402, -0.185519755, -0.158554673, 0.4240259   , -0.00275162421, 0.0394525938, 2.38700366  , 2.88        , 3           , 11          , 0.007513293 , 0.0075133
0.3870793   , 0.041358415 , -9.790913   , 0.00152716436, -0.000909354771, 0.00163995591, -0.185587168, -0.158891737, 0.423554    , -0.002735703, 0.039443545 , 2.38702035  , 2.89        , 3           , 12          , 0.0506122224, 0
0.38220048  , 0.0103290062, -9.80509    , -0.001521164, -0.00316227251, 0.00218908023, -0.185722   , -0.158756912, 0.4240933   , -0.00265879 , 0.0394520238, 2.387046    , 2.9         , 3           , 50          , 0           , 0
0.39028126  , 0.00214284053, -9.814102   , -0.002940995, -0.002045572, -0.001488756, -0.185654581, -0.158891737, 0.4240933   , -0.002688784, 0.0394315347, 2.38703132  , 2.91        , 3           , 11          , 0.00739472732, 0.00739473756
0.389847219 , 0.0124293836, -9.785588   , 0.000172581145, -0.00315081631, 0.000784294331, -0.185654581, -0.158891737, 0.4240933   , -0.002686746, 0.03940004  , 2.38703942  , 2.92        , 3           , 12          , 0.05158081  , 0
0.3922802   , 0.019235095 , -9.804976   , -0.00153362134, -0.0009097581, -6.774813E-05, -0.185654581, -0.158824325, 0.42395848  , -0.00270210719, 0.03939094  , 2.38703847  , 2.93        , 3           , 50          , 0           , 0
0.4019777   , 0.0326670632, -9.807558   , 0.0004365596, 0.000511437829, 0.0002261773, -0.185722   , -0.158554673, 0.42395848  , -0.00269765127, 0.039396055 , 2.38704085  , 2.94        , 3           , 11          , 0.00739472732, 0.00739473756
0.4064906   , 0.0401897468, -9.77946949 , -0.00184260844, 0.00415649638, -0.002604092, -0.185587168, -0.158554673, 0.4240933   , -0.0027171094, 0.0394375548, 2.38701463  , 2.95        , 3           , 12          , 0.05158081  , 0
0.3904999   , 0.0282083154, -9.783709   , 0.00043303016, 0.001356136 , 0.00135762908, -0.185519755, -0.159161389, 0.423823655 , -0.00271224463, 0.0394511558, 2.387028    , 2.96        , 3           , 50          , 0           , 0
0.399907559 , 0.0177489351, -9.792269   , 0.000713736634, 0.00163960957, 0.000794305059, -0.185519755, -0.159161389, 0.423823655 , -0.002704793, 0.03946757  , 2.387036    , 2.97        , 3           , 11          , 0.00739472732, 0.00739473756
0.398319542 , 0.0398221835, -9.775918   , -0.0006907748, 0.000222237562, 0.00191570062, -0.185722   , -0.1586895  , 0.423891068 , -0.00271094544, 0.0394698456, 2.38705564  , 2.98        , 3           , 12          , 0.05158081  , 0
0.387569845 , 0.03692021  , -9.814431   , -0.0006802754, -0.002030286, 0.0007820791, -0.1857894  , -0.158554673, 0.42395848  , -0.00271743536, 0.03944956  , 2.38706326  , 2.99        , 3           , 50          , 0           , 0
0.367590964 , 0.0366621241, -9.802381   , -0.00180187693, -0.003963885, -7.359623E-05, -0.185654581, -0.15895915 , 0.423688829 , -0.00273778848, 0.0395002775, 2.38706326  , 3           , 3           , 11          , 0.00728161  , 0.007281621
0.3971368   , 0.0529245436, -9.776777   , -0.0009671426, -0.00142406928, -6.574002E-05, -0.185654581, -0.15895915 , 0.423688829 , -0.00274748378, 0.0394860357, 2.38706279  , 3.01        , 3           , 12          , 0.0525618866, 0
0.377927244 , 0.0346914157, -9.789203   , 0.000168215076, -0.00226111757, 0.00248106313, -0.1857894  , -0.1586895  , 0.4240259   , -0.00274481927, 0.03946349  , 2.387088    , 3.02        , 3           , 50          , 0           , 0
0.413119256 , 0.03640706  , -9.751411   , -0.0012544929, -0.000299715728, 0.00106482848, -0.185722   , -0.158891737, 0.4240259   , -0.00275694253, 0.03946052  , 2.38709855  , 3.03        , 3           , 11          , 0.00728161  , 0.007281621
0.4173579   , 0.035599038 , -9.793869   , -0.004647797, 0.000522059854, 0.00105032709, -0.185587168, -0.15895915 , 0.4240259   , -0.00280300668, 0.0394657739, 2.387109    , 3.04        , 3           , 12          , 0.0525618866, 0
0.40737465  , 0.038822636 , -9.778564   , 0.0009982038, 0.000841818866, -0.0009006625, -0.185587168, -0.15895915 , 0.4240259   , -0.00279337913, 0.0394741744, 2.3871      , 3.05        , 3           , 50          , 0           , 0
0.428086936 , 0.06072764  , -9.789616   , 0.000156662369, -0.0002901706, -0.00062381156, -0.185452342, -0.158824325, 0.423823655 , -0.00279205642, 0.0394712538, 2.38709378  , 3.06        , 3           , 11          , 0.00728161  , 0.007281621
0.386794031 , 0.0562290438, -9.784074   , 0.00101533241, -0.0022553883, 0.00220247614, -0.185654581, -0.158756912, 0.4240933   , -0.00278103049, 0.03944876  , 2.38711572  , 3.07        , 3           , 12          , 0.0525618866, 0
0.30892998  , -0.0181294233, -9.808932   , -0.00295651332, 0.00109664747, 0.000211484075, -0.185519755, -0.15895915 , 0.4240933   , -0.00281051639, 0.0394597352, 2.38711762  , 3.08        , 3           , 50          , 0           , 0
0.277353525 , -0.06884329 , -9.78091    , 0.0026800558, 0.003387364 , -0.00117139285, -0.185519755, -0.15895915 , 0.4240933   , -0.00278418232, 0.03949358  , 2.38710618  , 3.09        , 3           , 11          , 0.00728161  , 0.007281621
0.3077855   , -0.06376597 , -9.786531   , 0.00162633264, 0.00130315789, -0.0006123544, -0.185654581, -0.158756912, 0.42395848  , -0.00263135112, 0.03928759  , 2.38710523  , 3.1         , 3           , 12          , 0.0535545   , 0
0.3115243   , -0.05746516 , -9.794613   , 0.001061316 , 0.001299337 , -0.000897525751, -0.185654581, -0.15895915 , 0.424160719 , -0.00262109051, 0.03930056  , 2.38709617  , 3.11        , 3           , 50          , 0           , 0
0.347048819 , -0.0447676778, -9.80287552 , 0.00135046092, 0.000174992281, 0.00107981765, -0.185452342, -0.1586895  , 0.423891068 , -0.00260716421, 0.0393023379, 2.38710713  , 3.12        , 3           , 11          , 0.007173184 , 0.007173193
0.427171469 , -0.04036881 , -9.780098   , -0.00233215117, 0.00212111184, -0.00119456463, -0.185452342, -0.1586895  , 0.423891068 , -0.00263095577, 0.0393235162, 2.38709474  , 3.13        , 3           , 12          , 0.0535545   , 0
0.440586925 , -0.0210992731, -9.78714752 , 0.003046994 , -0.0003766819, -0.000325835834, -0.185452342, -0.158891737, 0.423756242 , -0.00260061375, 0.039319735 , 2.38709188  , 3.14        , 3           , 50          , 0           , 0
0.418112725 , 0.0808457   , -9.832998   , -0.002603589, -0.000133319409, -0.00148189056, -0.185519755, -0.1586895  , 0.424295545 , -0.00262723165, 0.0393183641, 2.38707662  , 3.15        , 3           , 11          , 0.007173184 , 0.007173193
0.379366428 , 0.110918567 , -9.78526    , -0.00259523932, -0.00125956652, 0.00331951049, -0.185384929, -0.158891737, 0.4240259   , -0.0026518763, 0.03930586  , 2.38711     , 3.16        , 3           , 12          , 0.0535545   , 0
0.32766518  , 0.109224945 , -9.772554   , -0.00737115135, -0.006641778, 0.0013111158, -0.185384929, -0.158891737, 0.4240259   , -0.00272506638, 0.0392394774, 2.38712335  , 3.17        , 3           , 50          , 0           , 0
0.401885867 , 0.107431225 , -9.766119   , -0.00201717275, -0.00435297238, -0.000355615746, -0.185654581, -0.15895915 , 0.4240259   , -0.00274537457, 0.0391959436, 2.38712     , 3.18        , 3           , 11          , 0.007173184 , 0.007173193
0.4554794   , 0.0829088241, -9.772139   , 0.005566457 , 0.00386397657, -0.00285031181, -0.185654581, -0.158756912, 0.423891068 , -0.00269082934, 0.0392345   , 2.38709188  , 3.19        , 3           , 12          , 0.0535545   , 0
0.413561821 , 0.0550660379, -9.799694   , -0.0007637624, 0.002446197 , 0.000221767346, -0.185654581, -0.158824325, 0.424160719 , -0.00296748034, 0.0393275656, 2.38708425  , 3.2         , 3           , 50          , 0           , 0
0.398626179 , 0.04855129  , -9.82288551 , 0.000375050353, 0.0004828779, -0.0009061521, -0.185519755, -0.158622086, 0.4240933   , -0.00296408613, 0.0393323675, 2.38707471  , 3.21        , 3           , 11          , 0.00707034  , 0.00707035232
0.410592437 , 0.03346837  , -9.80749    , -0.003275262, -0.003765426, -0.000364706328, -0.185519755, -0.158622086, 0.4240933   , -0.00299697928, 0.0392947048, 2.387071    , 3.22        , 3           , 12          , 0.054557763 , 0
0.431010127 , 0.0101274531, -9.781215   , 0.0006624005, -0.0006414756, -0.00203672075, -0.1857894  , -0.158622086, 0.42395848  , -0.002991156, 0.0392882265, 2.38705087  , 3.23        , 3           , 50          , 0           , 0
0.3916599   , 0.0119630191, -9.787384   , 0.00150041247, 0.00133521226, -0.00118212006, -0.185587168, -0.158554673, 0.4240933   , -0.00297661941, 0.0393015519, 2.387039    , 3.24        , 3           , 11          , 0.00707034  , 0.00707035232
0.357487679 , 0.06381717  , -9.791498   , -0.003010794, -0.000103169594, -7.521075E-05, -0.185384929, -0.1586895  , 0.4240259   , -0.003006758, 0.03930052  , 2.38703847  , 3.25        , 3           , 12          , 0.054557763 , 0
0.309738278 , 0.05170982  , -9.781971   , -0.00131107226, -0.0009364004, 0.0016266139, -0.185384929, -0.1586895  , 0.4240259   , -0.00301922788, 0.039291203 , 2.38705468  , 3.26        , 3           , 50          , 0           , 0
0.36032033  , 0.0443139374, -9.771669   , 0.00206657127, 0.00133903837, 0.00108081347, -0.185856819, -0.158622086, 0.42395848  , -0.002998138, 0.03930462  , 2.38706517  , 3.27        , 3           , 11          , 0.00707034  , 0.00707035232
0.392725974 , -0.01283903 , -9.795614   , 0.002919769 , -0.000344633881, -0.003155901, -0.185654581, -0.158622086, 0.424160719 , -0.002970181, 0.0393010862, 2.3870337   , 3.28        , 3           , 12          , 0.054557763 , 0
0.409884155 , -0.0496062152, -9.790665   , 0.0003762812, 0.000201312025, -0.00118912361, -0.185654581, -0.1586895  , 0.4240259   , -0.00296688639, 0.0393030643, 2.38702226  , 3.29        , 3           , 50          , 0           , 0
0.38761586  , -0.0240442231, -9.80022    , -0.00183319882, -0.001223841, -0.000634974858, -0.185654581, -0.1586895  , 0.4240259   , -0.00289125438, 0.0392862856, 2.38702035  , 3.3         , 3           , 11          , 0.0069739297, 0.006973932
0.3647791   , 0.00142935663, -9.781758   , -0.00182959507, -0.00178696681, 0.000776844448, -0.185654581, -0.15848726 , 0.4240933   , -0.00290924264, 0.03926844  , 2.387028    , 3.31        , 3           , 12          , 0.0555708259, 0
0.336101    , -0.005501044, -9.767994   , -0.000150368258, 0.00132170855, 0.000789519341, -0.1857894  , -0.158756912, 0.424228132 , -0.002910442, 0.0392816849, 2.38703561  , 3.32        , 3           , 50          , 0           , 0
0.340839446 , 0.004436139 , -9.787353   , -0.00155118725, -0.0009403612, 0.00106200064, -0.185587168, -0.158891737, 0.4240259   , -0.0029255352, 0.0392723121, 2.387046    , 3.33        , 3           , 11          , 0.0069739297, 0.006973932
0.3765155   , 0.02038089  , -9.822268   , -0.000136754534, -0.00149394386, 0.000220105 , -0.185587168, -0.158891737, 0.4240259   , -0.002926815, 0.0392573774, 2.38704848  , 3.34        , 3           , 12          , 0.0555708259, 0
0.41702497  , 0.0415040962, -9.804243   , 0.000421455363, -8.22968141E-05, 0.000789983547, -0.1857894  , -0.159026563, 0.4240933   , -0.00292229024, 0.0392565764, 2.38705659  , 3.35        , 3           , 50          , 0           , 0
0.4260095   , 0.0484816469, -9.763919   , -0.00126457843, -0.00178314629, 0.00106201577, -0.185924232, -0.158419847, 0.424160719 , -0.00293451757, 0.039238777 , 2.387067    , 3.36        , 3           , 11          , 0.0069739297, 0.006973932
0.433624327 , 0.03761203  , -9.778369   , 0.00183096481, 0.000490383944, 0.00107997353, -0.185654581, -0.158622086, 0.423823655 , -0.00291578588, 0.039243713 , 2.38707757  , 3.37        , 3           , 12          , 0.0555708259, 0
0.443754    , 0.0759435   , -9.806607   , -0.0007096459, 0.00019162838, 0.0007851498, -0.185654581, -0.158622086, 0.423823655 , -0.002922576, 0.0392456539, 2.3870852   , 3.38        , 3           , 50          , 0           , 0
0.402212352 , 0.08009618  , -9.823179   , -0.000151347165, 0.00132170378, -0.0009057054, -0.185722   , -0.15895915 , 0.423823655 , -0.00292444788, 0.0392588452, 2.38707662  , 3.39        , 3           , 11          , 0.0069739297, 0.006973932
0.398596346 , 0.0485271   , -9.815654   , -0.00357421814, -0.00228009676, -0.00036365405, -0.185924232, -0.158554673, 0.424228132 , -0.003079091, 0.03942118  , 2.38706946  , 3.4         , 3           , 12          , 0.0565929227, 0
0.4197819   , 0.0152441766, -9.787607   , 0.00262137619, 0.0014222702, 0.000236034364, -0.185587168, -0.158891737, 0.424295545 , -0.00305278553, 0.03943541  , 2.38707185  , 3.41        , 3           , 50          , 0           , 0
0.420272171 , -0.00429598149, -9.748814   , 0.000358357676, 0.00197011651, -0.00118632044, -0.185587168, -0.158891737, 0.424295545 , -0.00304967281, 0.03945508  , 2.38705945  , 3.42        , 3           , 11          , 0.006876957 , 0.00687696226
0.399246782 , 0.00107072853, -9.795054   , 0.001489622 , 0.00169619243, -0.0008989492, -0.185587168, -0.158891737, 0.4240259   , -0.00303513324, 0.03947201  , 2.38705087  , 3.43        , 3           , 12          , 0.0565929227, 0
0.354435921 , 0.0189425815, -9.854082   , -0.00159427954, -0.00282985624, -7.27659062E-05, -0.185722   , -0.158622086, 0.42395848  , -0.0030511003, 0.03944371  , 2.38705     , 3.44        , 3           , 50          , 0           , 0
0.334317625 , 0.01410798  , -9.822617   , -0.003019612, -0.0003053235, -0.00120559509, -0.1857894  , -0.1586895  , 0.424160719 , -0.00308177015, 0.039440617 , 2.38703847  , 3.45        , 3           , 11          , 0.006876957 , 0.00687696226
0.3680086   , 0.009475079 , -9.7704     , 0.00346939778, 0.00114643178, -0.0008905985, -0.185519755, -0.15895915 , 0.4240259   , -0.003047429, 0.0394520536, 2.387029    , 3.46        , 3           , 12          , 0.0565929227, 0
0.386463761 , -0.004668072, -9.788397   , 0.004603613 , 0.000309378142, -0.000321557571, -0.185519755, -0.15895915 , 0.4240259   , -0.00300152134, 0.03945514  , 2.387026    , 3.47        , 3           , 50          , 0           , 0
0.394485474 , 0.0129120518, -9.810862   , 0.00121416547, 0.000286456925, -0.000902435742, -0.1857894  , -0.158756912, 0.4240259   , -0.00298973778, 0.0394579768, 2.38701653  , 3.48        , 3           , 11          , 0.006876957 , 0.00687696226
0.394007653 , 0.0093263   , -9.816303   , -0.00273751165, -0.000303415058, -0.00176935317, -0.185519755, -0.158824325, 0.4240933   , -0.00301780971, 0.03945489  , 2.38699937  , 3.49        , 3           , 12          , 0.0565929227, 0
0.376778036 , 0.01263343  , -9.800603   , -0.0009798525, 0.000836501655, -0.0003442929, -0.185452342, -0.15848726 , 0.423756242 , -0.0028687194, 0.0394683741, 2.38700223  , 3.5         , 3           , 50          , 0           , 0
0.355700374 , 0.0358118527, -9.776712   , -0.0009778059, 0.000554939732, 0.0007854229, -0.185452342, -0.15848726 , 0.423756242 , -0.00287818816, 0.0394739434, 2.38701034  , 3.51        , 3           , 11          , 0.0067837825, 0.006783783
0.376426846 , 0.0617454648, -9.77825451 , -0.000112981688, -0.00281810737, 0.00219685375, -0.185654581, -0.158622086, 0.423756242 , -0.00287844869, 0.0394458249, 2.38703227  , 3.52        , 3           , 12          , 0.0576233119, 0
0.393511325 , 0.05117909  , -9.781784   , 0.0012769372, 0.0014149124, -5.03520823E-05, -0.185519755, -0.158824325, 0.424295545 , -0.00286570238, 0.0394599773, 2.38703179  , 3.53        , 3           , 50          , 0           , 0
0.406712621 , 0.05822369  , -9.775778   , -0.00323475921, -2.34717736E-05, 0.000208944548, -0.185654581, -0.158824325, 0.42395848  , -0.00289796642, 0.0394597463, 2.3870337   , 3.54        , 3           , 11          , 0.0067837825, 0.006783783
0.423972517 , 0.055387374 , -9.797353   , -0.00126170111, 0.0005530227, -0.0017587312, -0.185654581, -0.158824325, 0.42395848  , -0.00291127618, 0.03946523  , 2.38701653  , 3.55        , 3           , 12          , 0.0576233119, 0
0.39764303  , 0.009294355 , -9.819441   , -0.0006816023, -0.0022588016, 0.000499862945, -0.185519755, -0.158756912, 0.424160719 , -0.00291789183, 0.03944265  , 2.3870213   , 3.56        , 3           , 50          , 0           , 0
0.41247043  , 0.0157214142, -9.770034   , -0.000690782035, -0.0005694153, -0.000910220668, -0.1857894  , -0.1586895  , 0.4240259   , -0.00292515731, 0.03943693  , 2.38701224  , 3.57        , 3           , 11          , 0.0067837825, 0.006783783
0.407523125 , 0.0153604764, -9.779565   , 0.000731021166, -0.00224924949, 0.00135406014, -0.185722   , -0.1586895  , 0.4240259   , -0.00291731046, 0.0394144766, 2.387026    , 3.58        , 3           , 12          , 0.0576233119, 0
0.382096171 , 0.008012778 , -9.787022   , 0.00212544855, 0.00113907631, -0.0003293727, -0.185722   , -0.1586895  , 0.4240259   , -0.002896187, 0.0394258574, 2.38702226  , 3.59        , 3           , 50          , 0           , 0
0.3625512   , 0.03488726  , -9.7938385  , -0.002366349, -0.0008213814, 0.0007776289, -0.185722   , -0.158622086, 0.423823655 , -0.002879441, 0.03951649  , 2.38703275  , 3.6         , 3           , 11          , 0.006694678 , 0.00669468148
0.3903378   , 0.043178726 , -9.8067     , -0.00179345743, -0.00250695343, 0.000212584113, -0.185587168, -0.158554673, 0.4240933   , -0.00289728865, 0.0394914225, 2.38703513  , 3.61        , 3           , 12          , 0.0586613342, 0
0.3935258   , 0.0204667654, -9.773323   , -0.00180017541, -0.00138069876, -0.00176344241, -0.185519755, -0.158891737, 0.424160719 , -0.002915986, 0.0394775681, 2.38701749  , 3.62        , 3           , 50          , 0           , 0
0.386606634 , 0.00705278758, -9.785635   , -0.000115787785, 0.0008832865, -5.68443174E-05, -0.185519755, -0.158891737, 0.424160719 , -0.0029171668, 0.0394864   , 2.387017    , 3.63        , 3           , 11          , 0.006694678 , 0.00669468148
0.357834756 , 0.0142555   , -9.814301   , 0.000187875441, -0.00333827827, 0.000503038347, -0.1857894  , -0.15895915 , 0.4240933   , -0.00291508739, 0.03945303  , 2.38702226  , 3.64        , 3           , 12          , 0.0586613342, 0
0.363241732 , 0.0137239257, -9.80929    , 0.002432772 , -0.000225778582, 0.00193103461, -0.185654581, -0.158891737, 0.424160719 , -0.002889997, 0.03945083  , 2.38704133  , 3.65        , 3           , 50          , 0           , 0
0.378414929 , 0.0364997759, -9.791903   , -0.002357733, -0.00279234257, -0.00120317086, -0.185722   , -0.158891737, 0.424295545 , -0.00291404733, 0.0394228734, 2.38702941  , 3.66        , 3           , 11          , 0.006694678 , 0.00669468148
0.3997001   , 0.0420559421, -9.77409    , -0.000106281688, -0.0008060985, 0.00191831414, -0.185722   , -0.158891737, 0.424295545 , -0.002914354, 0.03941487  , 2.387049    , 3.67        , 3           , 12          , 0.0586613342, 0
0.388465464 , 0.0110873431, -9.784248   , -0.00236388715, -0.00138451322, 0.000211685969, -0.185587168, -0.158824325, 0.4240259   , -0.00293790735, 0.0394010246, 2.38705087  , 3.68        , 3           , 50          , 0           , 0
0.3771518   , 0.00408345554, -9.808771   , 0.000171473686, 4.05043829E-05, 0.00107332051, -0.186059058, -0.1586895  , 0.424160719 , -0.00293577043, 0.0394014567, 2.38706136  , 3.69        , 3           , 11          , 0.006694678 , 0.00669468148
0.371424317 , 0.0497347265, -9.811789   , -0.00148910354, -0.0005448374, -0.00147690671, -0.185587168, -0.158756912, 0.424228132 , -0.00287027052, 0.039369382 , 2.38705087  , 3.7         , 3           , 12          , 0.05970633  , 0
0.38541913  , 0.0188122615, -9.789663   , -0.00204937439, -0.0011117789, 0.00162750389, -0.185722   , -0.158622086, 0.42395848  , -0.002890122, 0.039358303 , 2.387067    , 3.71        , 3           , 50          , 0           , 0
0.400514036 , 0.0366148651, -9.769135   , -0.0003556293, -0.00110032316, 0.000222717979, -0.185722   , -0.158622086, 0.42395848  , -0.00289358851, 0.0393473133, 2.387069    , 3.72        , 3           , 11          , 0.00660827477, 0.00660827849
0.382953256 , 0.03288428  , -9.805895   , 0.0010499499, 3.54824879E-05, -0.00146418635, -0.185587168, -0.158622086, 0.424160719 , -0.00288366643, 0.0393476225, 2.38705468  , 3.73        , 3           , 12          , 0.05970633  , 0
0.369079858 , 0.0167403147, -9.787537   , -7.68950558E-05, -0.000253715378, 0.00107294915, -0.185991645, -0.158622086, 0.42443037  , -0.002884012, 0.03934512  , 2.38706517  , 3.74        , 3           , 50          , 0           , 0
0.3838706   , 0.006176324 , -9.783853   , -0.00120242033, -0.0011060508, 0.0010663796, -0.185654581, -0.158756912, 0.423891068 , -0.00289561437, 0.03933409  , 2.38707614  , 3.75        , 3           , 11          , 0.00660827477, 0.00660827849
0.377661526 , 0.0130512752, -9.793815   , -0.00261365 , -0.0013971678, 0.000211748556, -0.185654581, -0.158756912, 0.423891068 , -0.00292166742, 0.0393201262, 2.38707852  , 3.76        , 3           , 12          , 0.05970633  , 0
0.401383966 , -0.0115563395, -9.804583   , 0.00190157571, -0.0008034821, -0.0011789999, -0.1857894  , -0.158891737, 0.4240933   , -0.002903114, 0.0393120572, 2.38706613  , 3.77        , 3           , 50          , 0           , 0
0.389498025 , 0.0138577037, -9.8063755  , 0.000765876961, 0.000596708152, 0.0005131268, -0.185654581, -0.158554673, 0.4240933   , -0.00289525371, 0.0393180437, 2.38707185  , 3.78        , 3           , 11          , 0.00660827477, 0.00660827849
0.3930721   , 0.0569979623, -9.766396   , -0.0006473247, 0.000868725 , 0.001072051 , -0.185519755, -0.158622086, 0.42395848  , -0.00290130661, 0.0393267646, 2.38708234  , 3.79        , 3           , 12          , 0.05970633  , 0
0.383347571 , 0.0671264157, -9.79219151 , -0.000335051038, -0.00024951974, -5.74028345E-05, -0.185519755, -0.158622086, 0.42395848  , -0.00284118927, 0.0393397957, 2.3870852   , 3.8         , 3           , 50          , 0           , 0
0.392175972 , 0.0596943423, -9.760063   , -0.00371162686, -0.002806525, -7.711144E-05, -0.185722   , -0.15895915 , 0.423891068 , -0.00287833181, 0.0393117256, 2.38708425  , 3.81        , 3           , 11          , 0.00652459729, 0.006524601
0.401399016 , 0.0339094251, -9.772755   , -0.000333745847, -0.000249513454, 0.00220289687, -0.1857894  , -0.158622086, 0.4240933   , -0.00288080028, 0.039309293 , 2.38710618  , 3.82        , 3           , 12          , 0.0607577078, 0
0.3986237   , 0.022735104 , -9.79451752 , -5.573852E-05, 0.0003155188, -0.000620293, -0.185654581, -0.1586895  , 0.4240933   , -0.00288160332, 0.03931243  , 2.3871      , 3.83        , 3           , 50          , 0           , 0
0.3959777   , 0.0250560176, -9.804472   , 0.0030380846, 0.00287061278, -0.00116697629, -0.185654581, -0.1586895  , 0.4240933   , -0.002851685, 0.0393411033, 2.387088    , 3.84        , 3           , 11          , 0.00652459729, 0.006524601
0.398424029 , 0.00471929368, -9.803635   , -0.00119504076, 0.00227883528, -0.0003399857, -0.185654581, -0.158824325, 0.423891068 , -0.00286377151, 0.03936388  , 2.3870852   , 3.85        , 3           , 12          , 0.0607577078, 0
0.413060248 , -0.0131114945, -9.785518   , 0.00474149827, 0.00119268417, -0.000314065837, -0.1857894  , -0.1586895  , 0.4240933   , -0.00281648268, 0.0393757969, 2.38708138  , 3.86        , 3           , 50          , 0           , 0
0.396623045 , 0.0109977154, -9.785995   , 0.000801789458, -0.00164970441, 0.000228232471, -0.1857894  , -0.158824325, 0.424228132 , -0.00280837226, 0.0393593051, 2.38708425  , 3.87        , 3           , 11          , 0.00652459729, 0.006524601
0.3585121   , 0.0305006951, -9.81694    , -0.0006131327, -0.00109612441, 0.000222515664, -0.1857894  , -0.158824325, 0.424228132 , -0.00281441351, 0.0393483452, 2.38708615  , 3.88        , 3           , 12          , 0.0607577078, 0
0.372933269 , 0.0342926867, -9.787434   , -0.0009022032, 0.000309792784, 0.000788443431, -0.185856819, -0.158891737, 0.423891068 , -0.00282312487, 0.0393514633, 2.38709378  , 3.89        , 3           , 50          , 0           , 0
0.370659173 , 0.0383282267, -9.772068   , 0.000240144785, 0.001450714 , 0.00192643481, -0.1857894  , -0.158554673, 0.4240933   , -0.00277401647, 0.0393843539, 2.38711572  , 3.9         , 3           , 11          , 0.00644388655, 0.00644389074
0.3736752   , 0.0247761328, -9.777977   , 0.00334635  , 0.00147172122, 0.00109330867, -0.185654581, -0.1586895  , 0.424295545 , -0.00274012331, 0.0393991   , 2.38712668  , 3.91        , 3           , 12          , 0.0618149154, 0
0.3849402   , 0.0187964216, -9.78334    , 0.000806318 , 0.0008913968, -0.0006146362, -0.185654581, -0.1586895  , 0.424295545 , -0.00273230369, 0.0394079946, 2.38712049  , 3.92        , 3           , 50          , 0           , 0
0.3835329   , 0.01564826  , -9.781555   , -0.00117452536, 0.00172272383, -5.74779733E-05, -0.185587168, -0.15895915 , 0.42395848  , -0.00274407258, 0.0394252129, 2.38711953  , 3.93        , 3           , 11          , 0.00644388655, 0.00644389074
0.3786949   , 0.0220712274, -9.796029   , -0.00116246869, -0.0008113645, -0.000908995862, -0.185856819, -0.158824325, 0.424160719 , -0.00275605614, 0.03941708  , 2.387111    , 3.94        , 3           , 12          , 0.0618149154, 0
0.3587779   , 0.0298975836, -9.773098   , -0.0039737015, -0.00336454739, -7.84581352E-05, -0.185519755, -0.158622086, 0.42395848  , -0.00279581849, 0.0393834338, 2.38711     , 3.95        , 3           , 50          , 0           , 0
0.386825174 , 0.0228521433, -9.78828049 , -0.00117411022, 0.00144115381, -0.001753137, -0.1857894  , -0.15895915 , 0.4240259   , -0.00280825328, 0.0393978   , 2.38709283  , 3.96        , 3           , 11          , 0.00644388655, 0.00644389074
0.4106328   , 0.0401963331, -9.79571    , -0.0005925286, -0.00193380681, -0.00175571023, -0.1857894  , -0.15895915 , 0.4240259   , -0.002814867, 0.03937842  , 2.38707471  , 3.97        , 3           , 12          , 0.0618149154, 0
0.403875917 , 0.0420897454, -9.798466   , -0.0034192584, -0.00138977508, -0.00120293675, -0.1857894  , -0.158622086, 0.423891068 , -0.00284953183, 0.0393644758, 2.38706326  , 3.98        , 3           , 50          , 0           , 0
0.376117975 , 0.0347141922, -9.789669   , 0.00222779531, -0.000788439356, 0.00108456949, -0.185519755, -0.158756912, 0.424160719 , -0.00282682921, 0.0393566266, 2.38707376  , 3.99        , 3           , 11          , 0.00644388655, 0.00644389074
0.343643069 , 0.008491818 , -9.795449   , 0.000241532645, -0.00051812717, 0.0005105489, -0.185654581, -0.158891737, 0.4240259   , -0.002844472, 0.0393571332, 2.387079    , 4           , 3           , 12          , 0.0628774   , 0
0.346284151 , 0.0070596044, -9.781423   , -0.000316351, -0.00192977232, 0.000505745353, -0.185654581, -0.158891737, 0.4240259   , -0.00284743379, 0.0393378474, 2.38708425  , 4.01        , 3           , 50          , 0           , 0
0.390243351 , 0.0114854854, -9.774741   , -0.0020137  , -0.00137810223, 0.0004987116, -0.185654581, -0.15848726 , 0.4240259   , -0.00286737224, 0.0393240824, 2.387089    , 4.02        , 3           , 11          , 0.006365866 , 0.00636586966
0.39423117  , 0.0318248942, -9.798582   , 0.000232278559, 0.0008896873, -0.00344280573, -0.185654581, -0.158824325, 0.424228132 , -0.00286640553, 0.03933288  , 2.38705468  , 4.03        , 3           , 12          , 0.0628774   , 0
0.41258812  , 0.01849484  , -9.789909   , 0.0005172414, 0.000610037649, -0.00146416062, -0.185654581, -0.1586895  , 0.4240259   , -0.00286180945, 0.0393389426, 2.38704038  , 4.04        , 3           , 50          , 0           , 0
0.4099172   , 0.02258105  , -9.788105   , 0.00305973552, 0.0006272305, -0.000322158245, -0.185654581, -0.1586895  , 0.4240259   , -0.0028313396, 0.0393452048, 2.38703656  , 4.05        , 3           , 11          , 0.006365866 , 0.00636586966
0.4164833   , 0.04233007  , -9.779837   , 0.00360646681, 0.00429139659, -0.00031388324, -0.185587168, -0.15848726 , 0.4240933   , -0.002795404, 0.03938811  , 2.3870337   , 4.06        , 3           , 12          , 0.0628774   , 0
0.396016657 , 0.03758544  , -9.7736845  , -0.002866067, -0.000257569365, 0.00134410907, -0.185856819, -0.158554673, 0.4240259   , -0.002823534, 0.03938557  , 2.387047    , 4.07        , 3           , 50          , 0           , 0
0.382637471 , 0.0468374826, -9.79454    , 0.002217616 , -0.000223189942, 0.00136781391, -0.185722   , -0.158824325, 0.424160719 , -0.00280081783, 0.0393833742, 2.38706088  , 4.08        , 3           , 11          , 0.006365866 , 0.00636586966
0.3818688   , 0.0657057539, -9.767349   , 0.00135804131, 0.00202359515, -0.00061042764, -0.185722   , -0.158824325, 0.424160719 , -0.00278747943, 0.039403595 , 2.38705468  , 4.09        , 3           , 12          , 0.0628774   , 0
0.3821285   , 0.006253535 , -9.800589   , 0.00303502427, -0.0004834531, -0.0003248362, -0.1857894  , -0.158622086, 0.4240259   , -0.00284060114, 0.03944156  , 2.38704944  , 4.1         , 3           , 50          , 0           , 0
0.400930971 , -0.009319454, -9.797345   , 0.0041576717, 0.0012135834, 0.0019433347, -0.1857894  , -0.158824325, 0.42395848  , -0.00279825949, 0.03945375  , 2.387069    , 4.11        , 3           , 11          , 0.00629070634, 0.00629070867
0.408265054 , -0.00174399919, -9.794546   , -0.0003627883, 0.00118301623, -0.0009031108, -0.185654581, -0.158891737, 0.4240259   , -0.00280224625, 0.0394655541, 2.38705945  , 4.12        , 3           , 12          , 0.06394471  , 0
0.413673848 , 0.0302353073, -9.796179   , -0.0009177207, -0.000791758532, -0.00062624464, -0.185654581, -0.158891737, 0.4240259   , -0.00281166937, 0.0394576155, 2.38705373  , 4.13        , 3           , 50          , 0           , 0
0.396070033 , 0.04164581  , -9.773668   , -0.0014846283, -0.000232444756, 0.0006434079, -0.185722   , -0.1586895  , 0.423823655 , -0.0028262625, 0.0394553132, 2.38706     , 4.14        , 3           , 11          , 0.00629070634, 0.00629070867
0.372358978 , 0.0288433656, -9.775258   , -0.00191405206, 0.00103173545, 0.0014909975, -0.185654581, -0.158622086, 0.423891068 , -0.00284481165, 0.039465677 , 2.38707471  , 4.15        , 3           , 12          , 0.06394471  , 0
0.379861534 , 0.042357862 , -9.79457951 , -0.00134288112, -0.0003722732, 0.000361311832, -0.185856819, -0.158622086, 0.42395848  , -0.0028581  , 0.0394619666, 2.38707852  , 4.16        , 3           , 50          , 0           , 0
0.3553241   , 0.03587915  , -9.795247   , -7.49115352E-05, 0.000199451009, 8.556847E-05, -0.185856819, -0.158622086, 0.42395848  , -0.00285881688, 0.0394639671, 2.38707948  , 4.17        , 3           , 11          , 0.00629070634, 0.00629070867
0.384910583 , 0.0165406652, -9.783349   , 0.00160817127, 0.00246343017, -0.000468133483, -0.185722   , -0.158891737, 0.423756242 , -0.00284292339, 0.0394885838, 2.38707471  , 4.18        , 3           , 12          , 0.06394471  , 0
0.371520042 , 0.00577193452, -9.755021   , 0.000483876851, 0.0013295291, -0.000757674337, -0.185587168, -0.158622086, 0.424160719 , -0.00283838669, 0.039501857 , 2.3870666   , 4.19        , 3           , 50          , 0           , 0
0.366381764 , -0.0108122919, -9.770044   , -0.0007654186, -0.0006619734, -0.000907377165, -0.185654581, -0.158756912, 0.4240933   , -0.00281267357, 0.03946154  , 2.38705945  , 4.2         , 3           , 11          , 0.00621799659, 0.006217996
0.387251735 , -0.0150400707, -9.79295349 , 0.0003603958, 4.9577262E-05, -0.00160736835, -0.185587168, -0.158824325, 0.423823655 , -0.002809706, 0.03946199  , 2.38704324  , 4.21        , 3           , 12          , 0.06501636  , 0
0.373646975 , 0.0193970874, -9.788395   , 0.00120586727, 0.000618442 , 9.26751964E-05, -0.185587168, -0.158824325, 0.423823655 , -0.00279761362, 0.0394681767, 2.38704419  , 4.22        , 3           , 50          , 0           , 0
0.36700207  , 0.0213812087, -9.818268   , -0.000624620239, -0.00037944864, 0.0007889402, -0.185519755, -0.158756912, 0.424160719 , -0.00280354568, 0.0394644178, 2.3870523   , 4.23        , 3           , 11          , 0.00621799659, 0.006217996
0.3791479   , 0.02742228  , -9.778828   , -0.00344458059, -0.00138402882, -0.00021462905, -0.185722   , -0.158756912, 0.424228132 , -0.002838074, 0.0394505672, 2.38705     , 4.24        , 3           , 12          , 0.06501636  , 0
0.374078929 , 0.0189285316, -9.784778   , -0.00245563453, -0.00151812762, -0.000634042954, -0.185452342, -0.158622086, 0.423891068 , -0.00286287838, 0.03943536  , 2.38704419  , 4.25        , 3           , 50          , 0           , 0
0.372572571 , 0.0103438776, -9.77623749 , 0.000220124231, -9.21591E-05, -0.00118443754, -0.185452342, -0.158622086, 0.423891068 , -0.00286114472, 0.0394344032, 2.38703179  , 4.26        , 3           , 11          , 0.00621799659, 0.006217996
0.381696373 , 0.01921977  , -9.76392651 , 0.00119959423, 0.00188548479, 9.46279251E-05, -0.185587168, -0.15848726 , 0.423823655 , -0.00284911087, 0.0394532643, 2.38703275  , 4.27        , 3           , 12          , 0.06501636  , 0
0.389644176 , 0.03004472  , -9.790037   , 0.00204674876, 0.002032    , 0.00108767685, -0.185587168, -0.158554673, 0.424228132 , -0.00282821665, 0.0394736156, 2.38704371  , 4.28        , 3           , 50          , 0           , 0
0.372258127 , 0.01849562  , -9.78389    , 0.00149120821, -8.356338E-05, -0.0008959739, -0.185722   , -0.1586895  , 0.423823655 , -0.002813659, 0.03947275  , 2.38703465  , 4.29        , 3           , 11          , 0.00621799659, 0.006217996
0.395759672 , 0.04265926  , -9.805305   , -0.000734288769, -0.00153176882, -0.00119016739, -0.185722   , -0.1586895  , 0.423823655 , -0.00274308654, 0.0393849462, 2.387026    , 4.3         , 3           , 12          , 0.06609195  , 0
0.4125317   , 0.04292431  , -9.808339   , -0.0005951292, -0.00096768036, 8.27775E-05 , -0.185722   , -0.158756912, 0.42395848  , -0.002749006, 0.0393752754, 2.387027    , 4.31        , 3           , 50          , 0           , 0
0.399365783 , 0.05108429  , -9.77405548 , 0.0003891827, -0.000116300173, 8.868857E-05, -0.1857894  , -0.158554673, 0.424160719 , -0.00274507818, 0.0393741168, 2.387028    , 4.32        , 3           , 11          , 0.006147393 , 0.00614739256
0.38577494  , 0.0463279635, -9.788191   , -3.158798E-05, -0.0006822948, 0.000227114026, -0.185722   , -0.158756912, 0.4240933   , -0.002745305, 0.0393673   , 2.38703084  , 4.33        , 3           , 12          , 0.06609195  , 0
0.36558643  , 0.0271532685, -9.785712   , -0.000872513861, -0.001955067, 0.000362479128, -0.185722   , -0.158756912, 0.4240933   , -0.002753883, 0.0393477567, 2.38703418  , 4.34        , 3           , 50          , 0           , 0
0.402299    , 0.0263063237, -9.795832   , 0.00123908778, -0.000673701055, -0.00019076599, -0.185654581, -0.158554673, 0.4240933   , -0.00274156639, 0.0393410139, 2.38703227  , 4.35        , 3           , 11          , 0.006147393 , 0.00614739256
0.408970952 , 0.0230050329, -9.77681    , 0.0009512111, 0.000309863884, -0.0011794453, -0.185856819, -0.1586895  , 0.42395848  , -0.00273252022, 0.0393440835, 2.38702035  , 4.36        , 3           , 12          , 0.06609195  , 0
0.382725745 , 0.02020215  , -9.791034   , -0.000886038761, 0.0005790138, -0.00132884015, -0.185654581, -0.158891737, 0.424295545 , -0.002741905, 0.03934983  , 2.387007    , 4.37        , 3           , 50          , 0           , 0
0.383997649 , 0.0116354944, -9.797387   , -0.00102459022, 0.0001557139, -0.000341268431, -0.185654581, -0.158891737, 0.424295545 , -0.00275228545, 0.03935138  , 2.38700366  , 4.38        , 3           , 11          , 0.006147393 , 0.00614739256
0.403861284 , 0.0149246408, -9.77146    , -0.00299706985, -0.0007023496, 0.000213286126, -0.185452342, -0.158824325, 0.4240259   , -0.00278217345, 0.0393443666, 2.387006    , 4.39        , 3           , 12          , 0.06609195  , 0
0.386764944 , 0.0245887153, -9.767934   , -0.002429279, 0.0007262862, -0.0003464016, -0.185722   , -0.158824325, 0.424160719 , -0.00277628936, 0.0394018628, 2.38700414  , 4.4         , 3           , 50          , 0           , 0
0.3810728   , 0.00748154661, -9.75991249 , -0.000307266746, 3.669993E-05, 0.000227465542, -0.1857894  , -0.158554673, 0.4240933   , -0.00277927238, 0.0394022278, 2.387007    , 4.41        , 3           , 11          , 0.00607898924, 0.00607898924
0.398678958 , 0.0267969836, -9.794952   , -0.000162242053, -0.0006662561, 0.000792114064, -0.1857894  , -0.158554673, 0.4240933   , -0.00278058136, 0.0393955819, 2.38701463  , 4.42        , 3           , 12          , 0.06717104  , 0
0.383814365 , 0.03328398  , -9.793684   , -0.0008828202, 0.002144617 , -0.000195720029, -0.185654581, -0.158756912, 0.42395848  , -0.00278948946, 0.03941703  , 2.38701272  , 4.43        , 3           , 50          , 0           , 0
0.388246    , 0.0291356817, -9.783271   , -0.00130822521, 0.00256410125, 0.00036803048, -0.185924232, -0.158622086, 0.4240259   , -0.00280242879, 0.0394426771, 2.38701653  , 4.44        , 3           , 11          , 0.00607898924, 0.00607898924
0.39303568  , 0.0480414666, -9.78632    , 0.001096377 , 0.00187642546, 0.00122575182, -0.185587168, -0.158756912, 0.424362957 , -0.0027909826, 0.0394614749, 2.38702846  , 4.45        , 3           , 12          , 0.06717104  , 0
0.394526452 , 0.0205332357, -9.796366   , 0.00250539719, 0.002449104 , 0.0006681294, -0.185654581, -0.159026563, 0.42395848  , -0.002765668, 0.0394859873, 2.38703513  , 4.46        , 3           , 50          , 0           , 0
0.406642973 , 0.0144990459, -9.788614   , 0.00124128349, 0.00103268307, 0.0003774961, -0.185654581, -0.159026563, 0.42395848  , -0.002753108, 0.03949632  , 2.38703847  , 4.47        , 3           , 11          , 0.00607898924, 0.00607898924
0.3874141   , 0.0305451285, -9.796831   , 0.000975132338, -0.002207224, 0.000794995169, -0.185587168, -0.158756912, 0.423756242 , -0.00274303928, 0.039474275 , 2.387047    , 4.48        , 3           , 12          , 0.06717104  , 0
0.359873772 , 0.045217026 , -9.770313   , 0.001682675 , -0.002484014, 0.000939122343, -0.185587168, -0.158554673, 0.42395848  , -0.00272583845, 0.0394494571, 2.38705659  , 4.49        , 3           , 50          , 0           , 0
0.3845123   , 0.027302552 , -9.762064   , 0.00223331386, -0.0010699532, 0.0002374894, -0.185317516, -0.158891737, 0.423823655 , -0.00272410549, 0.0394460745, 2.387059    , 4.5         , 3           , 11          , 0.00601292355, 0.00601292355
0.386303    , 0.0299428329, -9.748479   , 0.002090091 , -0.0006485601, 0.000378750585, -0.185317516, -0.158891737, 0.423823655 , -0.00270305644, 0.0394396   , 2.38706279  , 4.51        , 3           , 12          , 0.06825325  , 0
0.3764662   , 0.0243580975, -9.797393   , 0.00209017284, -0.0006485597, 0.000520019268, -0.185924232, -0.158756912, 0.4240259   , -0.002681951, 0.0394331329, 2.387068    , 4.52        , 3           , 50          , 0           , 0
0.385724753 , 0.00128008425, -9.810073   , 0.00138259272, -0.000512556056, -0.000895743549, -0.186059058, -0.1586895  , 0.424295545 , -0.002668477, 0.03942798  , 2.387059    , 4.53        , 3           , 11          , 0.00601292355, 0.00601292355
0.388286352 , 0.028275717 , -9.79593    , 0.00137996778, 5.05749049E-05, -0.000612338248, -0.1857894  , -0.159026563, 0.424228132 , -0.002654918, 0.03942848  , 2.38705277  , 4.54        , 3           , 12          , 0.06825325  , 0
0.377552032 , 0.0387767442, -9.795065   , 0.00222167233, 0.001182565 , -0.000606651651, -0.1857894  , -0.159026563, 0.424228132 , -0.002632943, 0.0394402854, 2.387047    , 4.55        , 3           , 50          , 0           , 0
0.383360982 , -0.000113306567, -9.790209   , 0.00207943562, 0.00132239109, -0.001172168, -0.185654581, -0.1586895  , 0.4240259   , -0.00261261361, 0.0394534729, 2.38703465  , 4.56        , 3           , 11          , 0.00601292355, 0.00601292355
0.3908882   , -0.008375799, -9.774819   , -3.28633178E-05, 0.000181807613, -0.0006187057, -0.185587168, -0.158622086, 0.424228132 , -0.002613185, 0.039455276 , 2.387029    , 4.57        , 3           , 12          , 0.06825325  , 0
0.3712935   , 0.0193511   , -9.766718   , -0.00144663616, 0.000453821674, -0.0010486627, -0.185856819, -0.158824325, 0.4240933   , -0.00262806448, 0.0394597836, 2.38701844  , 4.58        , 3           , 50          , 0           , 0
0.392110944 , 0.04982193  , -9.775924   , -0.001298208, -0.0009530476, -0.0006263678, -0.185856819, -0.158824325, 0.4240933   , -0.00264129252, 0.0394502319, 2.38701177  , 4.59        , 3           , 11          , 0.00601292355, 0.00601292355
0.396136761 , 0.03857544  , -9.799895   , -0.00171441375, -0.0008195648, 7.8635574E-05, -0.185722   , -0.158622086, 0.423891068 , -0.002634445, 0.03942831  , 2.38701463  , 4.6         , 3           , 12          , 0.06933825  , 0
0.376621723 , 0.0329647437, -9.807752   , -0.0005969635, 0.0015813763, -0.0006187518, -0.1857894  , -0.1586895  , 0.424160719 , -0.00264065876, 0.0394441076, 2.387009    , 4.61        , 3           , 50          , 0           , 0
0.367590338 , 0.04335682  , -9.780658   , -0.000875579, 0.0008755551, -5.60787157E-05, -0.185654581, -0.158756912, 0.4240933   , -0.00264943857, 0.0394528657, 2.387008    , 4.62        , 3           , 11          , 0.00594885042, 0.00594884856
0.390846282 , 0.0178507157, -9.790982   , 0.000255107356, 0.0008831998, 0.0016444138, -0.185654581, -0.158756912, 0.4240933   , -0.00264624087, 0.0394617431, 2.38702416  , 4.63        , 3           , 12          , 0.06933825  , 0
0.408552647 , 0.0216992311, -9.78947449 , 0.00195315317, 0.000190746869, 0.00165123062, -0.185587168, -0.158824325, 0.4240259   , -0.00262605818, 0.0394636877, 2.38704085  , 4.64        , 3           , 50          , 0           , 0
0.403713    , 0.033477053 , -9.786299   , -0.00043287492, -0.00292270724, 0.000363844825, -0.185722   , -0.158824325, 0.4240259   , -0.002630241, 0.039434474 , 2.38704419  , 4.65        , 3           , 11          , 0.00594885042, 0.00594884856
0.380167842 , 0.0257189181, -9.812274   , -0.000300270156, -0.00123236293, -5.66994022E-05, -0.185856819, -0.158756912, 0.424228132 , -0.00263326522, 0.03942215  , 2.38704419  , 4.66        , 3           , 12          , 0.06933825  , 0
0.393208    , 0.0214741677, -9.803152   , 0.000113367292, 0.000741456344, -0.000475492649, -0.185856819, -0.158756912, 0.424228132 , -0.00263232039, 0.0394295529, 2.38703942  , 4.67        , 3           , 50          , 0           , 0
0.390052527 , 0.0228618048, -9.802267   , 0.00138769136, 4.61381569E-05, -0.0006119199, -0.185587168, -0.158554673, 0.423823655 , -0.0026186835, 0.0394299962, 2.38703275  , 4.68        , 3           , 11          , 0.00594885042, 0.00594884856
0.391379058 , 0.0201419778, -9.803171   , 0.0020908888, 0.00061404286, -0.0007490286, -0.185722   , -0.158622086, 0.424295545 , -0.00259806984, 0.03943612  , 2.38702559  , 4.69        , 3           , 12          , 0.06933825  , 0
0.393056959 , 0.0164419543, -9.782383   , 0.001238165 , 0.0020243444, -0.000326758251, -0.1857894  , -0.1586895  , 0.42395848  , -0.00258173374, 0.03948232  , 2.38702369  , 4.7         , 3           , 50          , 0           , 0
0.393152744 , 0.0250002258, -9.778279   , 0.00222731172, 0.00203103223, 0.0008080009, -0.185587168, -0.1586895  , 0.423891068 , -0.00255914475, 0.03950266  , 2.38703179  , 4.71        , 3           , 11          , 0.005886374 , 0.00588637032
0.4011966   , 0.044830054 , -9.798925   , 0.00222993665, 0.0014679014, 0.0005245955, -0.185587168, -0.1586895  , 0.423891068 , -0.002536638, 0.03951735  , 2.38703656  , 4.72        , 3           , 12          , 0.0704256743, 0
0.395954818 , 0.021913074 , -9.809005   , 0.001522023 , 0.00188547536, 0.000945760345, -0.185856819, -0.158756912, 0.4240933   , -0.0025210476, 0.0395362265, 2.387046    , 4.73        , 3           , 50          , 0           , 0
0.3878108   , 0.00021664938, -9.769835   , 0.000259629451, 0.0001874907, 0.00121976808, -0.185722   , -0.158622086, 0.4240933   , -0.00251797028, 0.0395381339, 2.3870585   , 4.74        , 3           , 11          , 0.005886374 , 0.00588637032
0.382556349 , 0.0129232537, -9.772985   , -0.00143070519, -0.000809450052, 8.019776E-05, -0.185519755, -0.158824325, 0.42395848  , -0.002532244, 0.0395300351, 2.38705945  , 4.75        , 3           , 12          , 0.0704256743, 0
0.385745436 , 0.0391624533, -9.80404    , 0.0002580352, 0.000328268943, -0.000333971, -0.185519755, -0.158824325, 0.42395848  , -0.00252979575, 0.03953331  , 2.38705564  , 4.76        , 3           , 50          , 0           , 0
0.380225182 , 0.0378168561, -9.787365   , 0.000542553 , -9.216879E-05, -0.000333304954, -0.185722   , -0.15895915 , 0.4240259   , -0.00252450141, 0.039532382 , 2.38705277  , 4.77        , 3           , 11          , 0.005886374 , 0.00588637032
0.3781742   , 0.0184507035, -9.791077   , -0.000725617, -0.0008046798, -0.00161173486, -0.185452342, -0.158756912, 0.4240933   , -0.00253239251, 0.039524287 , 2.38703656  , 4.78        , 3           , 12          , 0.0704256743, 0
0.3753811   , 0.0135108586, -9.788406   , -0.000724838348, -0.000945462, -0.001470683, -0.185722   , -0.158756912, 0.423891068 , -0.002540222, 0.0395148   , 2.3870213   , 4.79        , 3           , 50          , 0           , 0
0.403473854 , 0.0100731254, -9.803121   , -0.000579359068, -0.0006683175, -5.66069357E-05, -0.185722   , -0.158756912, 0.423891068 , -0.00253032357, 0.0394907072, 2.38702273  , 4.8         , 3           , 11          , 0.00582574541, 0.00582574075
0.379888773 , 0.013887695 , -9.782043   , 0.0005481756, -0.000238330278, -0.000191957, -0.185722   , -0.1586895  , 0.423891068 , -0.00252491655, 0.0394883156, 2.38702035  , 4.81        , 3           , 12          , 0.0715152547, 0
0.390787721 , 0.04941998  , -9.78588    , -0.00100668473, -0.000108056476, -0.00161167048, -0.185856819, -0.158554673, 0.424160719 , -0.00253561861, 0.03948719  , 2.38700461  , 4.82        , 3           , 50          , 0           , 0
0.406571776 , 0.0491825342, -9.770391   , -0.00214266474, 0.00115134649, -0.00161498564, -0.185722   , -0.158824325, 0.424228132 , -0.00255768327, 0.03949866  , 2.3869884   , 4.83        , 3           , 11          , 0.00582574541, 0.00582574075
0.4217493   , 0.0300791562, -9.778039   , -0.00101074786, 0.0008774252, -0.00019746444, -0.185722   , -0.158824325, 0.424228132 , -0.00256786938, 0.03950743  , 2.386986    , 4.84        , 3           , 12          , 0.0715152547, 0
0.394133866 , -0.00120970933, -9.770244   , 0.0009681677, 0.000468446582, -0.000471434323, -0.185654581, -0.158891737, 0.4240933   , -0.00255837687, 0.0395121053, 2.38698125  , 4.85        , 3           , 50          , 0           , 0
0.3721312   , 0.0081267   , -9.786193   , 0.000397411728, 0.00159088522, -0.00103740732, -0.1857894  , -0.158756912, 0.424160719 , -0.002554812, 0.0395279936, 2.38697124  , 4.86        , 3           , 11          , 0.00582574541, 0.00582574075
0.374972463 , 0.0202471614, -9.777534   , -0.00143360964, 0.0007337781, -5.838806E-05, -0.185722   , -0.158891737, 0.42395848  , -0.00256917044, 0.03953532  , 2.38697076  , 4.87        , 3           , 12          , 0.0715152547, 0
0.381571174 , 0.0386835523, -9.781475   , -0.00100500882, -0.0002488343, 8.333736E-05, -0.185722   , -0.158891737, 0.42395848  , -0.002579188, 0.0395328328, 2.38697171  , 4.88        , 3           , 50          , 0           , 0
0.376607537 , 0.03652406  , -9.792821   , -0.000160264331, 3.845521E-05, -0.00189004024, -0.185991645, -0.158756912, 0.4240259   , -0.00258153654, 0.0395331681, 2.38695264  , 4.89        , 3           , 11          , 0.00582574541, 0.00582574075
0.3895952   , 0.0268806163, -9.788242   , 0.000402016769, 0.000321329455, -0.000897990132, -0.185991645, -0.158824325, 0.4240259   , -0.00258363946, 0.03952806  , 2.38694453  , 4.9         , 3           , 12          , 0.07260664  , 0
0.386411875 , 0.0309237614, -9.771978   , 0.001526964 , 0.00145523343, 0.000521700829, -0.185654581, -0.158622086, 0.424160719 , -0.00256816624, 0.0395426229, 2.38694978  , 4.91        , 3           , 50          , 0           , 0
0.38833034  , 0.03232852  , -9.793653   , -2.470042E-05, 0.00102237915, -0.0001925369, -0.185654581, -0.158622086, 0.424160719 , -0.00256849 , 0.0395528376, 2.38694787  , 4.92        , 3           , 11          , 0.00576675776, 0.00576675357
0.3999642   , 0.0110995974, -9.827551   , -0.00129619229, 0.00101378153, -0.00118734431, -0.185722   , -0.159093976, 0.42395848  , -0.0025819228, 0.03956294  , 2.386936    , 4.93        , 3           , 12          , 0.07260664  , 0
0.4196847   , 0.00222126348, -9.805742   , -0.0007400734, 0.002847776 , -0.000616815058, -0.185722   , -0.158554673, 0.4240933   , -0.00258957036, 0.0395914055, 2.38692975  , 4.94        , 3           , 50          , 0           , 0
0.4094199   , 0.0203185175, -9.784502   , 0.00082384795, 0.000887329632, 0.000800078 , -0.1857894  , -0.158891737, 0.424228132 , -0.00258101569, 0.0396002978, 2.38693738  , 4.95        , 3           , 11          , 0.00576675776, 0.00576675357
0.39310953  , 0.05211846  , -9.791275   , 0.00294668344, -8.382469E-05, 0.0003846299, -0.185519755, -0.15895915 , 0.42395848  , -0.002551396, 0.03959947  , 2.38694119  , 4.96        , 3           , 12          , 0.07260664  , 0
0.3953691   , 0.05119563  , -9.793069   , 0.00322865788, 5.886875E-05, 0.0008099701, -0.185519755, -0.15895915 , 0.42395848  , -0.002518789, 0.03960008  , 2.38694978  , 4.97        , 3           , 50          , 0           , 0
0.4014948   , 0.03487976  , -9.79309    , 0.00280736084, -0.000647914363, -0.00117085245, -0.185924232, -0.158756912, 0.4240259   , -0.00249118 , 0.03959357  , 2.38693786  , 4.98        , 3           , 11          , 0.00576675776, 0.00576675357
0.391461253 , 0.0304746032, -9.790021   , 0.00167560682, -0.0003739923, -0.00230583618, -0.185654581, -0.158824325, 0.424160719 , -0.00247533666, 0.03958977  , 2.38691449  , 4.99        , 3           , 12          , 0.07260664  , 0
0.381887376 , 0.0202672165, -9.807311   , 0.00194444112, -0.000353755429, 0.000520466769, -0.185654581, -0.158891737, 0.4240259   , -0.00250713574, 0.0396480747, 2.38691926  , 5           , 3           , 50          , 0           , 0
0.386628419 , 0.008855876 , -9.785176   , 0.00236647972, 7.145955E-05, 0.00137070543, -0.185654581, -0.158891737, 0.4240259   , -0.00248292461, 0.03964882  , 2.38693261  , 5.01        , 3           , 11          , 0.00570945162, 0.005709447
0.394899279 , 0.0182313435, -9.78417    , -0.000599409861, 5.14029234E-05, 0.000650534 , -0.185519755, -0.158824325, 0.42395848  , -0.00248866156, 0.03964935  , 2.38693929  , 5.02        , 3           , 12          , 0.07369957  , 0
0.385953277 , 0.0331561081, -9.763385   , -0.00158326956, -0.000940760947, 0.000220599788, -0.185587168, -0.158554673, 0.424160719 , -0.002504406, 0.0396399423, 2.38694119  , 5.03        , 3           , 50          , 0           , 0
0.3936242   , 0.0250100289, -9.782796   , 0.000532595965, -0.000504089636, -0.000192678417, -0.185519755, -0.158756912, 0.4240259   , -0.002499155, 0.0396349   , 2.38693929  , 5.04        , 3           , 11          , 0.00570945162, 0.005709447
0.403606534 , 0.02312476  , -9.793574   , 0.00180523715, -0.0007770583, 0.0003778887, -0.185519755, -0.158756912, 0.4240259   , -0.002480953, 0.03962714  , 2.386943    , 5.05        , 3           , 12          , 0.07369957  , 0
0.401240915 , 0.0141419256, -9.797697   , 0.00251134112, -0.0006314974, 0.00165281654, -0.185587168, -0.1586895  , 0.423823655 , -0.00245518284, 0.03962086  , 2.38696027  , 5.06        , 3           , 50          , 0           , 0
0.37560612  , -0.00721112732, -9.799337   , 0.00193439377, 0.00175798452, 0.0012300649, -0.185654581, -0.158554673, 0.42395848  , -0.00243535219, 0.0396384746, 2.38697219  , 5.07        , 3           , 11          , 0.00570945162, 0.005709447
0.391917676 , -0.004715235, -9.793327   , 0.00150924083, 0.00189589814, -0.0001843808, -0.185587168, -0.1586895  , 0.42395848  , -0.00242033321, 0.03965742  , 2.38697076  , 5.08        , 3           , 12          , 0.07369957  , 0
