Acc X       , Acc Y       , Acc Z       , Gyro X      , Gyro Y      , Gyro Z      , Magn X      , Magn Y      , Magn Z      , Euler X     , Euler Y     , Euler Z     , Time        , Status      , LowRate X   , LowRate Y   , LowRate Z    
-0.101190537, 0.105276652 , -9.788054   , -0.00302910921, -0.000230258913, 0.000491994433, -0.223944992, -0.13084805 , 0.452878535 , -0.009861912, -0.008819245, 2.63531852  , 0           , 3           , 11          , 0.0346410163, 0.0346410163
-0.0989970341, 0.0931415558, -9.809783   , -0.00148711377, 0.00189197983, -0.00105146389, -0.22367534 , -0.13084805 , 0.452878535 , -0.009876687, -0.008800428, 2.63530755  , 0.01        , 3           , 12          , 0.0346410163, 0
-0.09254284 , 0.105211943 , -9.798836   , -0.0006364301, 0.00119379663, -0.0011898668, -0.223742753, -0.130780637, 0.452945948 , -0.0098829465, -0.008788608, 2.635296    , 0.02        , 3           , 50          , 0           , 0
-0.108541235, 0.120377488 , -9.824658   , -0.0017517081, -0.0016294918, -0.0003518615, -0.223742753, -0.130780637, 0.452945948 , -0.009900434, -0.008804939, 2.63529229  , 0.03        , 3           , 11          , 0.0346410163, 0.0346410163
-0.0945458561, 0.08767006  , -9.808415   , -0.000195082961, -0.00218211464, 0.000502126233, -0.223540515, -0.13084805 , 0.4532156   , -0.009902433, -0.008826708, 2.635298    , 0.04        , 3           , 12          , 0.0346410163, 0
-0.09308174 , 0.09711317  , -9.803845   , -0.00133179745, -0.000922715233, -0.0007726074, -0.223810166, -0.130780637, 0.453013361 , -0.00991568249, -0.008836011, 2.63529038  , 0.05        , 3           , 50          , 0           , 0
-0.09667286 , 0.0989663452, -9.805673   , -0.00189890515, -0.000504188356, -0.00105712784, -0.223405689, -0.131252527, 0.452945948 , -0.009934578, -0.008841159, 2.63528     , 0.06        , 3           , 11          , 0.0346410163, 0.0346410163
-0.0867478251, 0.10283719  , -9.783886   , -0.0006325372, 0.0004898858, -0.000484607852, -0.223405689, -0.131252527, 0.452945948 , -0.009940861, -0.008836307, 2.63527465  , 0.07        , 3           , 12          , 0.0346410163, 0
-0.08929856 , 0.08299195  , -9.777658   , 0.0004946269, 0.001060657 , -5.46661067E-05, -0.223742753, -0.130780637, 0.453013361 , -0.00993591 , -0.008825706, 2.63527417  , 0.08        , 3           , 50          , 0           , 0
-0.0987947  , 0.107142352 , -9.814243   , 0.00134289346, 0.0007848199, -0.000757493, -0.223607928, -0.13084805 , 0.4532156   , -0.009922412, -0.008817934, 2.63526654  , 0.09        , 3           , 11          , 0.0346410163, 0.0346410163
-0.0632494763, 0.0900253   , -9.812686   , 0.000353783951, 0.000918918 , -0.000620617, -0.22367534 , -0.1311177  , 0.453013361 , -0.009918819, -0.008808809, 2.63525987  , 0.1         , 3           , 12          , 0.0346410163, 0
-0.06775683 , 0.09768301  , -9.793254   , -0.000200948125, -0.000915069832, 0.001210422 , -0.22367534 , -0.1311177  , 0.453013361 , -0.009920935, -0.0088178385, 2.63527226  , 0.11        , 3           , 50          , 0           , 0
-0.0903934538, 0.09393379  , -9.807002   , 0.00234204275, -0.00117944635, 0.0007980345, -0.223742753, -0.130713224, 0.4532156   , -0.009897587, -0.008829553, 2.63528037  , 0.12        , 3           , 11          , 0.0346410163, 0.0346410163
-0.10604471 , 0.08497962  , -9.773711   , 0.00177600258, -0.00104248617, -5.19949E-05, -0.2234731  , -0.1311177  , 0.4532156   , -0.009879824, -0.008839982, 2.63528     , 0.13        , 3           , 12          , 0.0346410163, 0
-0.094500035, 0.0993123   , -9.782151   , -0.000349413458, 0.0003510135, -0.000483508484, -0.223540515, -0.130915463, 0.4532156   , -0.009883274, -0.008836519, 2.63527513  , 0.14        , 3           , 50          , 0           , 0
-0.09954087 , 0.121119037 , -9.808314   , -0.000359824073, 0.00232196576, -0.00161062088, -0.223540515, -0.130915463, 0.4532156   , -0.009886729, -0.008813461, 2.635259    , 0.15        , 3           , 11          , 0.0346410163, 0.0346410163
-0.113648251, 0.09094856  , -9.777813   , -0.00317704049, 0.0008950409, -0.00148469117, -0.223742753, -0.130982876, 0.453080773 , -0.00991836749, -0.008804657, 2.63524365  , 0.16        , 3           , 12          , 0.0346410163, 0
-0.0796203241, 0.09060583  , -9.794277   , -0.00260271784, -0.00093131006, -0.000778534042, -0.22367534 , -0.130713224, 0.4531482   , -0.009944327, -0.008814047, 2.635236    , 0.17        , 3           , 50          , 0           , 0
-0.1029022  , 0.07867166  , -9.787273   , -0.0006254857, -0.000917939, -0.000345509354, -0.223540515, -0.13084805 , 0.453080773 , -0.009950553, -0.008823261, 2.63523316  , 0.18        , 3           , 11          , 0.0346410163, 0.0346410163
-0.120772958, 0.0942551643, -9.796837   , -0.0009130363, 6.562746E-05, -0.0007691138, -0.223540515, -0.13084805 , 0.453080773 , -0.009959616, -0.008822683, 2.63522553  , 0.19        , 3           , 12          , 0.0346410163, 0
-0.09753057 , 0.0981230438, -9.820147   , -0.002187559, 0.0006201526, -0.00218686066, -0.223607928, -0.130780637, 0.453080773 , -0.009981246, -0.008816887, 2.6352036   , 0.2         , 3           , 50          , 0           , 0
-0.0879812  , 0.110542357 , -9.789739   , -0.00091467303, 0.000347185181, -0.00119248719, -0.223607928, -0.130510986, 0.453013361 , -0.009990286, -0.008813534, 2.6351912   , 0.21        , 3           , 11          , 0.0346699134, 0.0346699134
-0.0958268642, 0.09399758  , -9.807043   , 0.000216999251, 7.326279E-05, -0.000198772163, -0.223540515, -0.130780637, 0.453080773 , -0.009988098, -0.00881282 , 2.63518929  , 0.22        , 3           , 12          , 0.03466877  , 0
-0.112365909, 0.07881956  , -9.798194   , -0.00175912853, -8.08887562E-05, 7.432977E-05, -0.223540515, -0.130780637, 0.453080773 , -0.0100056957, -0.008813622, 2.63519025  , 0.23        , 3           , 50          , 0           , 0
-0.09391019 , 0.10566695  , -9.795229   , -0.000344206375, -0.0006344691, 8.004662E-05, -0.223742753, -0.130645812, 0.452945948 , -0.0100091463, -0.008819958, 2.6351912   , 0.24        , 3           , 11          , 0.0346699134, 0.0346699134
-0.07061147 , 0.127880827 , -9.773264   , -0.00189131789, -0.00205280283, -0.0012007847, -0.223810166, -0.13084805 , 0.453013361 , -0.0100279553, -0.008840606, 2.63517928  , 0.25        , 3           , 12          , 0.03466877  , 0
-0.0698233843, 0.112599105 , -9.793659   , -0.00246162922, -0.000789576035, 0.000211221413, -0.223810166, -0.130780637, 0.452878535 , -0.0100525925, -0.008848479, 2.63518167  , 0.26        , 3           , 50          , 0           , 0
-0.08068079 , 0.115412422 , -9.787403   , -0.00021193533, 0.00133744522, 0.00149643  , -0.223810166, -0.130780637, 0.452878535 , -0.0100548426, -0.008834955, 2.635196    , 0.27        , 3           , 11          , 0.0346699134, 0.0346699134
-0.0862572938, 0.105986908 , -9.782965   , 0.0007864427, -0.000767610443, 0.0005089035, -0.223810166, -0.130645812, 0.452945948 , -0.0100470232, -0.00884258 , 2.63520169  , 0.28        , 3           , 12          , 0.03466877  , 0
-0.07430848 , 0.08240922  , -9.790655   , 0.0003728497, -0.00288221543, -0.00020266998, -0.223877579, -0.130645812, 0.452945948 , -0.0100432783, -0.00887142 , 2.63519979  , 0.29        , 3           , 50          , 0           , 0
-0.07918037 , 0.088358365 , -9.798351   , -0.000909793947, -0.00281727919, -0.0004908912, -0.22414723 , -0.13084805 , 0.452878535 , -0.0102832727, -0.008834933, 2.635197    , 0.3         , 3           , 11          , 0.0347534455, 0.0347534455
-0.09667875 , 0.09092726  , -9.830113   , 6.566429E-05, -0.000276510953, -0.001329989, -0.22414723 , -0.13084805 , 0.452878535 , -0.0102824979, -0.008837836, 2.635184    , 0.31        , 3           , 12          , 0.0347537957, 0
-0.106437683, 0.08012357  , -9.804018   , -0.0009314419, 0.00154697918, -0.0005547996, -0.223877579, -0.130915463, 0.452811122 , -0.0102917627, -0.008822423, 2.63517833  , 0.32        , 3           , 50          , 0           , 0
-0.113081619, 0.06611403  , -9.774748   , 0.000333324482, 0.00296340371, 0.0008659836, -0.223877579, -0.130780637, 0.452945948 , -0.010288503, -0.008792701, 2.63518643  , 0.33        , 3           , 11          , 0.0347534455, 0.0347534455
-0.107732549, 0.09804496  , -9.761919   , 0.00133190292, 0.0009991345, 0.00143263023, -0.224079818, -0.130780637, 0.452878535 , -0.01027531 , -0.008782565, 2.63520074  , 0.34        , 3           , 12          , 0.0347537957, 0
-0.09214086 , 0.102041    , -9.796585   , -0.002333369, -0.000433523761, 0.000212556188, -0.224079818, -0.130780637, 0.452878535 , -0.0102986619, -0.008786877, 2.63520312  , 0.35        , 3           , 50          , 0           , 0
-0.0573820621, 0.09485083  , -9.792283   , -0.00359813939, -0.00170916214, -7.22595E-06, -0.223810166, -0.13084805 , 0.4527437   , -0.0103346445, -0.008803968, 2.63520312  , 0.36        , 3           , 11          , 0.0347534455, 0.0347534455
-0.07854692 , 0.113495059 , -9.761632   , -0.00169575878, -0.000781180745, 0.0009213204, -0.224349469, -0.130780637, 0.452878535 , -0.0103516839, -0.008811683, 2.63521218  , 0.37        , 3           , 12          , 0.0347537957, 0
-0.09565554 , 0.119132027 , -9.768066   , -0.0014794711, -0.00162444217, 0.001415447 , -0.223810166, -0.13084805 , 0.4526763   , -0.0103666065, -0.00882778 , 2.63522649  , 0.38        , 3           , 50          , 0           , 0
-0.08235965 , 0.09285115  , -9.781634   , 0.0007069199, -0.00118729391, 0.0008612291, -0.22414723 , -0.130915463, 0.452878535 , -0.0103596142, -0.008839564, 2.63523555  , 0.39        , 3           , 11          , 0.0347534455, 0.0347534455
-0.06744471 , 0.08640497  , -9.795106   , 0.0006448095, -0.0009125669, -0.000622143, -0.22414723 , -0.130915463, 0.452878535 , -0.0102541856, -0.008907269, 2.6352284   , 0.4         , 3           , 12          , 0.0348952375, 0
-0.07452586 , 0.133415073 , -9.794965   , 0.0005710663, -0.000279522937, -0.0006214958, -0.224214643, -0.130713224, 0.452811122 , -0.0102484208, -0.008910129, 2.63522267  , 0.41        , 3           , 50          , 0           , 0
-0.06805656 , 0.108078413 , -9.797281   , 0.00212221546, 0.000364507781, 0.0010113141, -0.22414723 , -0.130780637, 0.452878535 , -0.0102272881, -0.008906381, 2.63523221  , 0.42        , 3           , 11          , 0.01771475  , 0.0177147873
-0.06672949 , 0.11116156  , -9.779631   , 0.00197475124, 0.00156020292, 0.000447424827, -0.223877579, -0.130645812, 0.452811122 , -0.0102075785, -0.008890735, 2.635237    , 0.43        , 3           , 12          , 0.0348952375, 0
-0.07262994 , 0.104523875 , -9.797783   , 0.00218880712, 0.00106889545, 9.448124E-05, -0.223877579, -0.130645812, 0.452811122 , -0.0101857  , -0.008880036, 2.635238    , 0.44        , 3           , 50          , 0           , 0
-0.086022824, 0.08036274  , -9.811996   , 0.00253511523, 0.00247910968, 0.000522103335, -0.224079818, -0.130780637, 0.4527437   , -0.0101603912, -0.008855193, 2.6352427   , 0.45        , 3           , 11          , 0.01771475  , 0.0177147873
-0.07698031 , 0.08515558  , -9.792924   , 0.00155283487, 0.0011349885, -0.00019091065, -0.2240124  , -0.130780637, 0.452878535 , -0.0101448465, -0.008843863, 2.63524079  , 0.46        , 3           , 12          , 0.0348952375, 0
-0.0700946152, 0.0936325938, -9.788316   , 0.002893398 , 0.00135523523, -4.30611544E-05, -0.223810166, -0.130780637, 0.453013361 , -0.0101159066, -0.008830315, 2.63523984  , 0.47        , 3           , 50          , 0           , 0
-0.08690064 , 0.08262761  , -9.811542   , 0.00133805978, 0.00183747115, 0.000727433129, -0.223810166, -0.130780637, 0.453013361 , -0.0101025887, -0.008811869, 2.635247    , 0.48        , 3           , 11          , 0.01771475  , 0.0177147873
-0.08016162 , 0.076702565 , -9.81738949 , -0.000634782831, 0.0008386202, -0.000554722734, -0.223944992, -0.13084805 , 0.4527437   , -0.0101088872, -0.008803538, 2.63524175  , 0.49        , 3           , 12          , 0.0348952375, 0
-0.07422946 , 0.0833659545, -9.806922   , -0.0007967335, -0.000311659765, -0.000416184863, -0.2240124  , -0.1305784  , 0.453080773 , -0.00990563352, -0.008576565, 2.63523555  , 0.5         , 3           , 50          , 0           , 0
-0.07174916 , 0.0986906141, -9.810455   , -0.003265651, -0.0008211114, -0.0006403706, -0.223810166, -0.130713224, 0.452811122 , -0.009938237, -0.008584839, 2.63522935  , 0.51        , 3           , 11          , 0.0134472763, 0.0134472828
-0.0965223461, 0.116049632 , -9.787521   , -0.00157556112, 0.000175828085, 7.539335E-05, -0.223810166, -0.130713224, 0.452811122 , -0.009953999, -0.0085830735, 2.6352303   , 0.52        , 3           , 12          , 0.0350919776, 0
-0.0835726261, 0.105482705 , -9.776619   , -0.0007321959, 0.000955861469, -6.0731134E-05, -0.223877579, -0.13084805 , 0.4527437   , -0.009961314, -0.008573522, 2.63522935  , 0.53        , 3           , 50          , 0           , 0
-0.05469148 , 0.09479777  , -9.785934   , -0.000308655726, 0.000888333132, -0.0008358423, -0.223810166, -0.130780637, 0.452811122 , -0.009964327, -0.008564722, 2.63522077  , 0.54        , 3           , 11          , 0.0134472763, 0.0134472828
-0.0877077  , 0.09744761  , -9.787984   , -0.00186233327, 0.00101861265, -0.000207159246, -0.2240124  , -0.130713224, 0.452608883 , -0.009982934, -0.008554557, 2.63521886  , 0.55        , 3           , 12          , 0.0350919776, 0
-0.0965499  , 0.111563794 , -9.795224   , -0.00157861249, 0.000668564 , -0.0009833627, -0.2240124  , -0.130713224, 0.452608883 , -0.00999863353, -0.008547971, 2.63520885  , 0.56        , 3           , 50          , 0           , 0
-0.104544245, 0.0855252   , -9.806693   , -0.00256372173, -0.000112426875, -0.00176614348, -0.223877579, -0.131050289, 0.4527437   , -0.0100241192, -0.008549271, 2.6351912   , 0.57        , 3           , 11          , 0.0134472763, 0.0134472828
-0.0822847858, 0.09068006  , -9.806952   , -0.00213014171, -0.0020101238, -0.000848850235, -0.223944992, -0.130713224, 0.4527437   , -0.0100453505, -0.008569456, 2.63518262  , 0.58        , 3           , 12          , 0.0350919776, 0
-0.09377812 , 0.07772805  , -9.80664349 , -0.000583645247, -0.000451007072, 0.0005734669, -0.223944992, -0.130982876, 0.4526763   , -0.0100512365, -0.008573908, 2.63518834  , 0.59        , 3           , 50          , 0           , 0
-0.09512133 , 0.08311245  , -9.793072   , 0.001990271 , 0.00194293051, 0.000305917143, -0.223944992, -0.130982876, 0.4526763   , -0.009899522, -0.008603959, 2.63519025  , 0.6         , 3           , 11          , 0.011356689 , 0.0113566816
-0.08769651 , 0.09745668  , -9.790695   , 0.0022759384, 0.00124092645, -0.000117656782, -0.223810166, -0.130713224, 0.452608883 , -0.009876751, -0.008591562, 2.63518929  , 0.61        , 3           , 12          , 0.0353426673, 0
-0.08878694 , 0.0767854154, -9.812033   , -0.00209009554, -0.0011115896, -3.80592269E-07, -0.224079818, -0.130713224, 0.453013361 , -0.009897653, -0.008602678, 2.63518929  , 0.62        , 3           , 50          , 0           , 0
-0.08723832 , 0.09209955  , -9.809245   , -0.003922448, -0.00175752433, 0.000484523567, -0.223944992, -0.13084805 , 0.452945948 , -0.00993692 , -0.00862020347, 2.635194    , 0.63        , 3           , 11          , 0.011356689 , 0.0113566816
-0.09140721 , 0.08626881  , -9.805233   , -0.003016714, 0.000571591547, -0.000637766265, -0.223944992, -0.13084805 , 0.452945948 , -0.009967032, -0.008614551, 2.63518786  , 0.64        , 3           , 12          , 0.0353426673, 0
-0.08135555 , 0.100061961 , -9.7825     , 0.0005061623, 0.00200328929, -0.00146674737, -0.223877579, -0.130982876, 0.4527437   , -0.009961842, -0.008594666, 2.635173    , 0.65        , 3           , 50          , 0           , 0
-0.100922957, 0.09173076  , -9.786301   , 0.0005132102, 0.0007362502, -0.000126647137, -0.22414723 , -0.131050289, 0.452878535 , -0.009956699, -0.008587317, 2.63517165  , 0.66        , 3           , 11          , 0.011356689 , 0.0113566816
-0.0843     , 0.114564754 , -9.79105    , -0.00301212026, -0.0004138875, -0.00113372575, -0.223944992, -0.130982876, 0.452945948 , -0.009986723, -0.008591568, 2.63516021  , 0.67        , 3           , 12          , 0.0353426673, 0
-0.0826045051, 0.106861815 , -9.787454   , -0.00363956834, -0.00189639814, 6.18173362E-05, -0.223944992, -0.130982876, 0.452945948 , -0.0100231254, -0.008610524, 2.63516116  , 0.68        , 3           , 50          , 0           , 0
-0.08081255 , 0.101022437 , -9.801475   , -0.002013564, -0.00230776356, -1.8954438E-06, -0.223877579, -0.130915463, 0.452945948 , -0.0100432616, -0.00863360148, 2.63516164  , 0.69        , 3           , 11          , 0.011356689 , 0.0113566816
-0.07715331 , 0.108151481 , -9.787407   , -0.002580943, -0.000219509922, -0.000213446343, -0.22414723 , -0.13084805 , 0.453013361 , -0.010052003, -0.008677452, 2.63515878  , 0.7         , 3           , 12          , 0.035645742 , 0
-0.10404551 , 0.0998403057, -9.771827   , -0.000178083414, -0.0005552293, 0.000644817366, -0.22414723 , -0.131185114, 0.452945948 , -0.0100538405, -0.008682939, 2.63516545  , 0.71        , 3           , 50          , 0           , 0
-0.107817762, 0.0810146   , -9.795889   , 0.00136856106, 0.000792709237, 0.0005128529, -0.22414723 , -0.131185114, 0.452945948 , -0.0100401985, -0.008674961, 2.63517022  , 0.72        , 3           , 11          , 0.0101347417, 0.0101347324
-0.0606721155, 0.08050714  , -9.80909    , 0.00179210131, 0.000725180958, -0.000262258021, -0.224214643, -0.130982876, 0.452878535 , -0.0100222537, -0.008667735, 2.63516784  , 0.73        , 3           , 12          , 0.035645742 , 0
-0.0658136159, 0.06972285  , -9.804654   , 0.00164338062, 0.00241362071, 0.00122300885, -0.223877579, -0.130982876, 0.4532156   , -0.0100059239, -0.008643478, 2.63517976  , 0.74        , 3           , 50          , 0           , 0
-0.07486831 , 0.106356576 , -9.79824352 , -0.00243862532, -0.0003593355, 0.000493338564, -0.224282056, -0.131050289, 0.4531482   , -0.0100303544, -0.008647023, 2.63518453  , 0.75        , 3           , 11          , 0.0101347417, 0.0101347324
-0.09185843 , 0.121016562 , -9.804641   , 0.0006748137, -0.00167575933, 0.0007176668, -0.224282056, -0.131050289, 0.4531482   , -0.0100236684, -0.008663705, 2.63519216  , 0.76        , 3           , 12          , 0.035645742 , 0
-0.0961427838, 0.07767298  , -9.782254   , 0.00109160645, -0.0002650684, 0.0009337149, -0.223944992, -0.131185114, 0.453013361 , -0.0100128343, -0.008666262, 2.63520169  , 0.77        , 3           , 50          , 0           , 0
-0.102397174, 0.07870867  , -9.799925   , -0.00011108051, 8.374576E-06, -0.0007666728, -0.224079818, -0.131252527, 0.4531482   , -0.0100138783, -0.00866625551, 2.635194    , 0.78        , 3           , 11          , 0.0101347417, 0.0101347324
-0.08200585 , 0.107421041 , -9.821345   , 0.00150385348, 0.00184953026, -0.0006856454, -0.224214643, -0.131185114, 0.4531482   , -0.009998779, -0.00864783 , 2.635187    , 0.79        , 3           , 12          , 0.035645742 , 0
-0.07354376 , 0.108544983 , -9.782857   , 0.00281212782, 0.00330850249, -0.00152572838, -0.224214643, -0.131185114, 0.4531482   , -0.009895699, -0.008661021, 2.6351707   , 0.8         , 3           , 50          , 0           , 0
-0.08225235 , 0.1018651   , -9.778883   , 0.000915338052, 0.00146543956, -0.000619191444, -0.223877579, -0.1311177  , 0.452878535 , -0.009886491, -0.00864642952, 2.6351645   , 0.81        , 3           , 11          , 0.009380858 , 0.009380851
-0.09173922 , 0.106011391 , -9.77125549 , -0.002317707, -0.00158335012, -0.0008509041, -0.2240124  , -0.1311177  , 0.453080773 , -0.009909596, -0.008662344, 2.635156    , 0.82        , 3           , 12          , 0.035999462 , 0
-0.09828805 , 0.117000379 , -9.795668   , -0.000206438723, -2.04139269E-05, 0.000432778063, -0.223944992, -0.130982876, 0.453080773 , -0.009911698, -0.008662505, 2.63516068  , 0.83        , 3           , 50          , 0           , 0
-0.07123902 , 0.110783219 , -9.78554249 , -0.000919613231, 0.001171457 , -0.00161706668, -0.223877579, -0.13131994 , 0.453080773 , -0.009920753, -0.008650951, 2.63514447  , 0.84        , 3           , 11          , 0.009380858 , 0.009380851
-0.08467546 , 0.0856940746, -9.792077   , 8.15437E-06 , -0.0007932907, -0.00140392093, -0.223877579, -0.13131994 , 0.453080773 , -0.009920551, -0.008659022, 2.63513017  , 0.85        , 3           , 12          , 0.035999462 , 0
-0.102718063, 0.08819421  , -9.801697   , -0.00245730043, -0.00193626224, -0.0010640081, -0.223944992, -0.130982876, 0.453283    , -0.009945033, -0.00867849 , 2.63511968  , 0.86        , 3           , 50          , 0           , 0
-0.0989753157, 0.09985441  , -9.793483   , -0.00408264855, -0.00166567939, -0.00107114657, -0.223810166, -0.1311177  , 0.453417838 , -0.009985768, -0.008695253, 2.63510919  , 0.87        , 3           , 11          , 0.009380858 , 0.009380851
-0.0816680044, 0.0681179   , -9.80885    , -0.00217659748, -0.0015120029, -0.000426330924, -0.223877579, -0.1311177  , 0.453013361 , -0.0100074979, -0.008710414, 2.63510537  , 0.88        , 3           , 12          , 0.035999462 , 0
-0.08636898 , 0.0960767046, -9.787526   , -0.0008467487, 0.0006088018, -0.00253585214, -0.223877579, -0.1311177  , 0.453013361 , -0.0100157438, -0.00870458 , 2.63507962  , 0.89        , 3           , 50          , 0           , 0
-0.0795567259, 0.103601523 , -9.768009   , -0.00268442067, -0.00274840626, -0.0009966972, -0.223810166, -0.130982876, 0.453417838 , -0.00997049 , -0.008782467, 2.63506913  , 0.9         , 3           , 11          , 0.008914748 , 0.008914735
-0.09816729 , 0.09396217  , -9.78853    , -0.00190301274, -0.00365823926, -0.0006413142, -0.2240124  , -0.130982876, 0.453283    , -0.009989467, -0.008819112, 2.63506341  , 0.91        , 3           , 12          , 0.0364019461, 0
-0.120930269, 0.113246642 , -9.80806    , -0.00374233536, -0.00289634848, -0.000154240523, -0.223877579, -0.130915463, 0.4532156   , -0.0100268805, -0.00884809 , 2.635062    , 0.92        , 3           , 50          , 0           , 0
-0.109098345, 0.09046693  , -9.78456    , -0.00199032528, -0.000350328628, -0.00120161974, -0.223877579, -0.130915463, 0.4532156   , -0.0100466767, -0.0088517135, 2.63505     , 0.93        , 3           , 11          , 0.008914748 , 0.008914735
-0.0671737045, 0.107603036 , -9.793208   , -0.000516712142, 0.00170105021, 0.000503665069, -0.223742753, -0.131252527, 0.453283    , -0.0100518866, -0.008834653, 2.63505483  , 0.94        , 3           , 12          , 0.0364019461, 0
-0.07522288 , 0.113136716 , -9.800478   , 0.0009749896, -0.000189488812, -0.0002693281, -0.223877579, -0.1311177  , 0.453350425 , -0.0100421142, -0.008836575, 2.635052    , 0.95        , 3           , 50          , 0           , 0
-0.077362515, 0.08477174  , -9.81146    , -8.683606E-05, 0.000296086277, -0.000767947757, -0.22367534 , -0.1311177  , 0.453283    , -0.0100429123, -0.00883369148, 2.63504434  , 0.96        , 3           , 11          , 0.008914748 , 0.008914735
-0.0843053  , 0.07981927  , -9.790743   , 0.00112128607, -0.00117401034, 8.29832861E-05, -0.22367534 , -0.1311177  , 0.453283    , -0.0100317094, -0.008845422, 2.63504529  , 0.97        , 3           , 12          , 0.0364019461, 0
-0.09267743 , 0.08948061  , -9.816528   , 0.00041895223, -0.0020234827, -0.0006985888, -0.223877579, -0.131050289, 0.4532156   , -0.0100274589, -0.008865726, 2.63503861  , 0.98        , 3           , 50          , 0           , 0
-0.114844054, 0.0888644755, -9.824386   , 0.00126034918, -0.0008211012, -0.0006221594, -0.22367534 , -0.1311177  , 0.45348525  , -0.0100148013, -0.008874001, 2.635033    , 0.99        , 3           , 11          , 0.008914748 , 0.008914735
-0.1050978  , 0.09303681  , -9.757852   , 0.0008961518, 0.000162943528, 0.0007889219, -0.223810166, -0.131185114, 0.453283    , -0.009925767, -0.008958834, 2.63503957  , 1           , 3           , 12          , 0.0368511863, 0
-0.0482776761, 0.0649526343, -9.789172   , -0.00276745576, -0.00176245742, -0.00177396473, -0.223810166, -0.131185114, 0.453283    , -0.009953283, -0.008976634, 2.6350224   , 1.01        , 3           , 50          , 0           , 0
-0.0850899443, 0.0870694742, -9.797047   , -0.00199580914, -0.0005605491, -0.000214542713, -0.22367534 , -0.130982876, 0.453350425 , -0.009973224, -0.00898226351, 2.63502049  , 1.02        , 3           , 11          , 0.008637487 , 0.008637475
-0.0857498348, 0.104240485 , -9.801951   , -0.000309245079, 0.001140303 , 0.0004316718, -0.223607928, -0.131185114, 0.453552663 , -0.009976354, -0.008970816, 2.63502431  , 1.03        , 3           , 12          , 0.0368511863, 0
-0.06713946 , 0.108523473 , -9.798628   , 0.00152960664, 0.000448803126, -0.0002671965, -0.2234731  , -0.130982876, 0.453417838 , -0.009961032, -0.008966354, 2.63502145  , 1.04        , 3           , 50          , 0           , 0
-0.08661335 , 0.08070278  , -9.777197   , 0.00223962939, -0.000320725318, -5.31945152E-05, -0.2234731  , -0.130982876, 0.453417838 , -0.009938631, -0.008969567, 2.63502145  , 1.05        , 3           , 11          , 0.008637487 , 0.008637475
-0.0846884251, 0.08836168  , -9.780314   , 0.000195705172, -0.00110887748, -0.000346472982, -0.223607928, -0.1311177  , 0.453350425 , -0.009936643, -0.00898069 , 2.63501763  , 1.06        , 3           , 12          , 0.0368511863, 0
-0.09952637 , 0.125594258 , -9.797448   , 0.000336280849, -0.0008967467, 0.000360854581, -0.223742753, -0.130982876, 0.453350425 , -0.009933314, -0.008989621, 2.63502145  , 1.07        , 3           , 50          , 0           , 0
-0.0823095  , 0.09512354  , -9.786596   , -0.00234091235, -0.00204115035, 0.0008410485, -0.223607928, -0.131050289, 0.453350425 , -0.009956802, -0.009009948, 2.63503     , 1.08        , 3           , 11          , 0.008637487 , 0.008637475
-0.08980155 , 0.105646312 , -9.803333   , 0.00132219109, -0.0003269306, 0.000719503558, -0.223607928, -0.131050289, 0.453350425 , -0.009943644, -0.009013143, 2.63503766  , 1.09        , 3           , 12          , 0.0368511863, 0
-0.104902148, 0.120348558 , -9.828698   , 0.00117369264, -0.0004415244, 1.2615169E-05, -0.22367534 , -0.13084805 , 0.453417838 , -0.009940814, -0.008985642, 2.63503766  , 1.1         , 3           , 50          , 0           , 0
-0.106760234, 0.09496395  , -9.788138   , -0.000247747317, 0.00137909758, -0.000414955139, -0.223742753, -0.130780637, 0.453417838 , -0.009943253, -0.008971893, 2.63503385  , 1.11        , 3           , 11          , 0.00848211348, 0.008482095
-0.07547975 , 0.09596726  , -9.792868   , 0.00179693324, 0.00209686044, 0.0005845585, -0.223607928, -0.130780637, 0.453417838 , -0.009925335, -0.008950867, 2.635039    , 1.12        , 3           , 12          , 0.0373451039, 0
-0.0680931956, 0.101353489 , -9.809965   , 0.00214469852, 0.003155117 , 0.0005171975, -0.223607928, -0.130780637, 0.453417838 , -0.00990393 , -0.008919265, 2.63504434  , 1.13        , 3           , 50          , 0           , 0
-0.0918507949, 0.0911914259, -9.79165649 , 0.00307410862, 0.0007680193, -4.72856918E-05, -0.223742753, -0.130780637, 0.453283    , -0.009873185, -0.008911591, 2.63504338  , 1.14        , 3           , 11          , 0.00848211348, 0.008482095
-0.117324285, 0.0838059261, -9.787815   , -0.0005947819, 0.0004616307, 0.00212482549, -0.223742753, -0.131185114, 0.453417838 , -0.009879324, -0.008906764, 2.63506484  , 1.15        , 3           , 12          , 0.0373451039, 0
-0.107830137, 0.07430932  , -9.814448   , -0.00257585919, 0.0008705989, -0.00134482631, -0.223607928, -0.1311177  , 0.453350425 , -0.00990496 , -0.008898191, 2.635051    , 1.16        , 3           , 50          , 0           , 0
-0.07295895 , 0.11311014  , -9.800461   , -0.000660009333, -0.000946679851, -0.000632413838, -0.223607928, -0.1311177  , 0.453350425 , -0.00991150551, -0.00890771952, 2.63504529  , 1.17        , 3           , 11          , 0.00848211348, 0.008482095
-0.103575811, 0.09493886  , -9.791731   , -0.000388363842, 0.00116696663, -0.00119291712, -0.22367534 , -0.130915463, 0.4532156   , -0.009915282, -0.008896169, 2.635033    , 1.18        , 3           , 12          , 0.0373451039, 0
-0.0663464  , 0.0674316   , -9.792464   , -0.00158330915, 0.000173373963, -0.000352420553, -0.223742753, -0.13084805 , 0.453350425 , -0.009931084, -0.00889447052, 2.63502955  , 1.19        , 3           , 50          , 0           , 0
-0.08701314 , 0.08432185  , -9.778541   , -0.00163181941, -0.00048512104, -0.000355084485, -0.223810166, -0.130915463, 0.453417838 , -0.009845462, -0.008926686, 2.63502526  , 1.2         , 3           , 11          , 0.008402369 , 0.008402349
-0.0800441653, 0.0995616   , -9.772548   , -0.00220419583, 0.0009892747, -0.0007086121, -0.223810166, -0.130915463, 0.453417838 , -0.009867441, -0.008916864, 2.63501763  , 1.21        , 3           , 12          , 0.0378815681, 0
-0.07849942 , 0.0770069659, -9.779862   , -0.00219911267, 3.79789071E-06, -0.000356958917, -0.223810166, -0.131185114, 0.453283    , -0.0098894  , -0.008916861, 2.6350143   , 1.22        , 3           , 50          , 0           , 0
-0.0992503  , 0.08088489  , -9.787237   , -0.00107254554, 0.00078574504, 0.0008502863, -0.223944992, -0.130915463, 0.453620076 , -0.009900201, -0.008908921, 2.6350224   , 1.23        , 3           , 11          , 0.008402369 , 0.008402349
-0.0859743357, 0.08798997  , -9.799309   , 0.000760852359, 0.001220506 , 0.0003650566, -0.223742753, -0.130982876, 0.4537549   , -0.009892624, -0.00889668 , 2.63502622  , 1.24        , 3           , 12          , 0.0378815681, 0
-0.0734324  , 0.0752330944, -9.806498   , -0.00254712626, -0.000913673663, 0.0004875969, -0.223742753, -0.130982876, 0.4537549   , -0.009918139, -0.008905767, 2.635031    , 1.25        , 3           , 50          , 0           , 0
-0.0820174441, 0.0793657154, -9.797959   , -0.000649724563, 0.000929392 , 0.0006405755, -0.224079818, -0.131387353, 0.453417838 , -0.009924693, -0.00889641 , 2.63503766  , 1.26        , 3           , 11          , 0.008402369 , 0.008402349
-0.08690436 , 0.0826245844, -9.810637   , -1.22956926E-05, 0.000511341146, 0.000430984539, -0.223877579, -0.131050289, 0.45348525  , -0.009924855, -0.008891255, 2.63504148  , 1.27        , 3           , 12          , 0.0378815681, 0
-0.0945621356, 0.09345942  , -9.785792   , -0.00142508233, 0.0005017882, -0.0007057499, -0.223877579, -0.131387353, 0.453552663 , -0.009939042, -0.00888630748, 2.6350348   , 1.28        , 3           , 50          , 0           , 0
-0.07974318 , 0.115874112 , -9.793721   , -0.00162876083, -0.00125942857, -0.001698331, -0.223742753, -0.130982876, 0.453350425 , -0.009955179, -0.00889907 , 2.63501763  , 1.29        , 3           , 11          , 0.008402369 , 0.008402349
-0.08271699 , 0.100968115 , -9.778892   , -0.00230220938, -0.00124030327, -0.000643106236, -0.223742753, -0.130982876, 0.453350425 , -0.009862483, -0.008884064, 2.63501     , 1.3         , 3           , 12          , 0.0384584069, 0
-0.07501015 , 0.08838764  , -9.821371   , 0.000160171781, 0.000465797 , -0.00147659192, -0.223810166, -0.1311177  , 0.4532156   , -0.00986075 , -0.008879552, 2.6349957   , 1.31        , 3           , 50          , 0           , 0
-0.07458263 , 0.0946107358, -9.795126   , -0.00252845883, 0.00157391268, -0.00148736709, -0.223810166, -0.1311177  , 0.45348525  , -0.0098859  , -0.008863961, 2.63498044  , 1.32        , 3           , 11          , 0.008364526 , 0.00836451
-0.09602881 , 0.09070951  , -9.76818752 , -0.00181032054, -0.0007442217, -0.0004987735, -0.22367534 , -0.131185114, 0.453350425 , -0.00990396 , -0.008871452, 2.63497567  , 1.33        , 3           , 12          , 0.0384584069, 0
-0.08563033 , 0.0896819159, -9.767208   , -0.00243885512, -0.00201555854, 0.0006264605, -0.22367534 , -0.131185114, 0.453350425 , -0.009928408, -0.008891547, 2.63498235  , 1.34        , 3           , 50          , 0           , 0
-0.0770302638, 0.08823955  , -9.770764   , 9.591604E-05, -0.000660937, -0.000136603863, -0.223742753, -0.131252527, 0.453350425 , -0.009927437, -0.008898167, 2.63498044  , 1.35        , 3           , 11          , 0.008364526 , 0.00836451
-0.06906396 , 0.10398937  , -9.785554   , -0.000613039243, -0.000172975269, -0.000916114834, -0.223810166, -0.130915463, 0.453552663 , -0.009933486, -0.00889999047, 2.63497186  , 1.36        , 3           , 12          , 0.0384584069, 0
-0.0995403156, 0.08414653  , -9.816605   , -0.000110454152, -0.00164784433, 0.000849770731, -0.223877579, -0.130982876, 0.453417838 , -0.0099346675, -0.008916382, 2.63498044  , 1.37        , 3           , 50          , 0           , 0
-0.108610623, 0.08468737  , -9.811699   , 0.00151059  , -0.00107373262, 0.0006463078, -0.223877579, -0.130982876, 0.453417838 , -0.00991962 , -0.008927054, 2.634987    , 1.38        , 3           , 11          , 0.008364526 , 0.00836451
-0.112662487, 0.09859088  , -9.772802   , 0.000444912119, 0.000115753392, -0.000486936246, -0.224079818, -0.130982876, 0.453417838 , -0.00991512649, -0.0089259455, 2.63498235  , 1.39        , 3           , 12          , 0.0384584069, 0
-0.121001691, 0.1073862   , -9.80944    , -0.000387462584, -0.00136410235, 7.034438E-05, -0.223877579, -0.131050289, 0.453552663 , -0.009830204, -0.00901430752, 2.63498235  , 1.4         , 3           , 50          , 0           , 0
-0.09743276 , 0.0768516362, -9.8017025  , 0.0007470422, -0.00234194077, -6.717527E-05, -0.223742753, -0.131050289, 0.453417838 , -0.009822729, -0.009037731, 2.63498139  , 1.41        , 3           , 11          , 0.008345787 , 0.00834578
-0.103840016, 0.0728536   , -9.798151   , 0.001581224 , 0.0002682651, -0.00041238236, -0.223742753, -0.131050289, 0.453417838 , -0.009806879, -0.00903509 , 2.63497758  , 1.42        , 3           , 12          , 0.0390734561, 0
-0.1063662  , 0.0610625632, -9.772006   , 0.00108953542, -8.70298E-05, 0.0009974579, -0.22367534 , -0.131185114, 0.453350425 , -0.00979607552, -0.009035861, 2.634987    , 1.43        , 3           , 50          , 0           , 0
-0.0904146954, 0.06542431  , -9.782713   , 0.00128731551, 0.00265966  , 0.00022569843, -0.223742753, -0.130915463, 0.453552663 , -0.00978322 , -0.009009244, 2.6349895   , 1.44        , 3           , 11          , 0.008345787 , 0.00834578
-0.08502697 , 0.09158401  , -9.797931   , 0.00312179979, 0.0028832478, -0.0001892222, -0.223540515, -0.1311177  , 0.45348525  , -0.009751981, -0.008980433, 2.634987    , 1.45        , 3           , 12          , 0.0390734561, 0
-0.07499109 , 0.09911547  , -9.791495   , 0.00093856774, 0.001742185 , -0.000201164177, -0.223540515, -0.1311177  , 0.45348525  , -0.009742576, -0.008963031, 2.63498521  , 1.46        , 3           , 50          , 0           , 0
-0.08547966 , 0.09426751  , -9.789336   , -0.000401688158, 0.00145154679, -0.00041975663, -0.223944992, -0.1311177  , 0.453620076 , -0.009746553, -0.008948556, 2.634981    , 1.47        , 3           , 11          , 0.008345787 , 0.00834578
-0.09244233 , 0.115113094 , -9.791562   , -0.000965537154, 0.00123655272, -0.000493350439, -0.223742753, -0.130780637, 0.453417838 , -0.009756165, -0.008936239, 2.63497567  , 1.48        , 3           , 12          , 0.0390734561, 0
-0.103022717, 0.0994783044, -9.801651   , -0.00194439525, -0.0007410883, -0.000712900248, -0.223405689, -0.131050289, 0.453552663 , -0.009775545, -0.008943719, 2.634969    , 1.49        , 3           , 50          , 0           , 0
-0.06352572 , 0.104456872 , -9.809464   , 0.0005688994, -0.000174603585, -0.00140800024, -0.223405689, -0.131050289, 0.453552663 , -0.009716968, -0.00904247 , 2.63495374  , 1.5         , 3           , 11          , 0.00832952  , 0.008329509
-0.07676645 , 0.09961208  , -9.79873848 , -0.001470331, -0.00187784142, -0.00142015168, -0.223540515, -0.131050289, 0.453417838 , -0.009731544, -0.009061385, 2.63494     , 1.51        , 3           , 12          , 0.0397245735, 0
-0.09040212 , 0.09481946  , -9.802027   , -0.00386538683, -0.00287955045, -0.000232080085, -0.2234731  , -0.130780637, 0.453620076 , -0.009770179, -0.009090202, 2.634938    , 1.52        , 3           , 50          , 0           , 0
-0.09288207 , 0.115128979 , -9.794729   , 0.003459677 , 0.0005488834, -0.00245293253, -0.22367534 , -0.130982876, 0.45348525  , -0.00973536 , -0.009084952, 2.63491368  , 1.53        , 3           , 11          , 0.00832952  , 0.008329509
-0.09034582 , 0.09531144  , -9.814227   , 0.00120821176, -0.0008742171, -0.0007704127, -0.22367534 , -0.130982876, 0.45348525  , -0.009723208, -0.00909377 , 2.634906    , 1.54        , 3           , 12          , 0.0397245735, 0
-0.07300993 , 0.07966672  , -9.784781   , 0.0014885033, -0.0003091738, 0.0003619218, -0.22367534 , -0.131185114, 0.453417838 , -0.009708356, -0.0090968255, 2.63490939  , 1.55        , 3           , 50          , 0           , 0
-0.0804992542, 0.0964406   , -9.782056   , -0.001327564, -0.00201766472, 6.361137E-05, -0.223742753, -0.13084805 , 0.4538223   , -0.00972164 , -0.009116996, 2.63490987  , 1.56        , 3           , 11          , 0.00832952  , 0.008329509
-0.06665817 , 0.114343822 , -9.786848   , -0.000769843638, -0.000606020156, -0.000214122338, -0.223607928, -0.130982876, 0.453552663 , -0.009729319, -0.009123076, 2.634908    , 1.57        , 3           , 12          , 0.0397245735, 0
-0.07136695 , 0.09907446  , -9.79192    , 0.000925295462, -0.0008761294, -0.00161934225, -0.223607928, -0.130982876, 0.453552663 , -0.00971991848, -0.009131996, 2.63489175  , 1.58        , 3           , 50          , 0           , 0
-0.0883879  , 0.112370424 , -9.795158   , -0.002452763, -0.00286999834, 0.000622116844, -0.223742753, -0.130982876, 0.453552663 , -0.009744505, -0.009160634, 2.63489842  , 1.59        , 3           , 11          , 0.00832952  , 0.008329509
-0.09116692 , 0.108781017 , -9.791579   , -0.00282011135, -0.000226159988, 0.000908990565, -0.224079818, -0.130713224, 0.45348525  , -0.00985897053, -0.00903018 , 2.63490844  , 1.6         , 3           , 12          , 0.0404096581, 0
-0.100356728, 0.09895898  , -9.790786   , 4.40896838E-06, -0.0004886308, -0.00105603621, -0.22367534 , -0.130915463, 0.453620076 , -0.009858832, -0.009035169, 2.634898    , 1.61        , 3           , 50          , 0           , 0
-0.09053436 , 0.0924805552, -9.777178   , -0.002519236, -0.00388459465, 0.00146974158, -0.22367534 , -0.130915463, 0.453620076 , -0.00988416 , -0.009073869, 2.63491321  , 1.62        , 3           , 11          , 0.008308077 , 0.008308066
-0.0842013657, 0.08168887  , -9.810168   , -0.000264166621, -0.00302462024, 0.00119904126, -0.22367534 , -0.130982876, 0.453350425 , -0.009886914, -0.009103995, 2.63492513  , 1.63        , 3           , 12          , 0.0404096581, 0
-0.0710287  , 0.08781758  , -9.800099   , -0.000295650447, 0.00316980784, -0.000204099459, -0.223944992, -0.1311177  , 0.4536875   , -0.00988985 , -0.009072318, 2.63492322  , 1.64        , 3           , 50          , 0           , 0
-0.08661111 , 0.10875053  , -9.798324   , 0.000279287517, 0.00120267353, 0.0003605716, -0.223877579, -0.1311177  , 0.453620076 , -0.009887089, -0.009060255, 2.63492656  , 1.65        , 3           , 11          , 0.008308077 , 0.008308066
-0.08729383 , 0.08759105  , -9.810168   , 0.00226022  , 8.97751743E-05, -0.00245732022, -0.223877579, -0.1311177  , 0.453620076 , -0.009864263, -0.009059602, 2.63490224  , 1.66        , 3           , 12          , 0.0404096581, 0
-0.0903153345, 0.103816785 , -9.794305   , -0.0008507461, 0.00119503215, -0.000209770864, -0.223810166, -0.131252527, 0.45348525  , -0.009872752, -0.009047675, 2.63489985  , 1.67        , 3           , 50          , 0           , 0
-0.0991807356, 0.0867438   , -9.785403   , 0.002262756 , -0.000191784449, -0.000479991751, -0.22367534 , -0.1311177  , 0.453552663 , -0.009850081, -0.00904964 , 2.634895    , 1.68        , 3           , 11          , 0.008308077 , 0.008308066
-0.08753532 , 0.108746059 , -9.793812   , 0.0005708197, -0.00076637516, -0.0007712987, -0.223742753, -0.13084805 , 0.45348525  , -0.009844303, -0.009057379, 2.63488746  , 1.69        , 3           , 12          , 0.0404096581, 0
-0.104886271, 0.06917943  , -9.775577   , -0.0005824566, 0.00064690836, 0.000921120634, -0.223742753, -0.13084805 , 0.45348525  , -0.009871769, -0.009034766, 2.63489652  , 1.7         , 3           , 50          , 0           , 0
-0.0983916447, 0.07280191  , -9.801726   , -0.00283801532, -0.000213068241, 0.000344208325, -0.22367534 , -0.130915463, 0.453283    , -0.00990018 , -0.00903686 , 2.63490033  , 1.71        , 3           , 11          , 0.008277469 , 0.008277456
-0.107349165, 0.07968305  , -9.804026   , -0.0005697474, -0.0018871763, 0.00119975279, -0.223810166, -0.1311177  , 0.453620076 , -0.009905988, -0.009055613, 2.63491273  , 1.72        , 3           , 12          , 0.0411266536, 0
-0.099017866, 0.09267831  , -9.806169   , 0.00027499703, -0.001599887, -0.000773624866, -0.223742753, -0.13084805 , 0.453552663 , -0.009903169, -0.009071687, 2.634905    , 1.73        , 3           , 50          , 0           , 0
-0.08992456 , 0.100636788 , -9.789343   , 0.0005488079, 0.000372983923, 0.00120849186, -0.22367534 , -0.130780637, 0.453417838 , -0.00989779 , -0.009067837, 2.634917    , 1.74        , 3           , 11          , 0.008277469 , 0.008277456
-0.09776242 , 0.0845446661, -9.807097   , -0.00396779738, -0.0005022802, -0.00220433064, -0.22367534 , -0.130780637, 0.453417838 , -0.009937268, -0.00907308 , 2.63489461  , 1.75        , 3           , 12          , 0.0411266536, 0
-0.07675503 , 0.0973895863, -9.808691   , -0.00113730016, -0.00160943787, -0.001062747, -0.223540515, -0.130982876, 0.453417838 , -0.009948547, -0.009089278, 2.6348846   , 1.76        , 3           , 50          , 0           , 0
-0.09572932 , 0.09987918  , -9.81199    , -0.000302892062, 0.0009303763, -0.00161996577, -0.22367534 , -0.130915463, 0.453620076 , -0.009951427, -0.009080137, 2.634868    , 1.77        , 3           , 11          , 0.008277469 , 0.008277456
-0.08487128 , 0.105547026 , -9.791093   , -0.0008607013, -0.000199696864, 0.0009185018, -0.223742753, -0.131185114, 0.45348525  , -0.009960118, -0.009082043, 2.63487744  , 1.78        , 3           , 12          , 0.0411266536, 0
-0.05401125 , 0.115062505 , -9.776354   , -0.000866025337, 0.0006449929, -0.00105795858, -0.223742753, -0.131185114, 0.45348525  , -0.00996868 , -0.00907569751, 2.634867    , 1.79        , 3           , 50          , 0           , 0
-0.0649945  , 0.103937    , -9.784167   , -0.00341301062, 0.0015177374, -0.000220449918, -0.223810166, -0.130982876, 0.453417838 , -0.0100046415, -0.009003086, 2.634864    , 1.8         , 3           , 11          , 0.008233018 , 0.008233006
-0.103879943, 0.112025931 , -9.77313    , -0.0005780801, -0.0007156859, -0.00105836452, -0.223810166, -0.130982876, 0.4536875   , -0.0100103263, -0.009010348, 2.6348536   , 1.81        , 3           , 12          , 0.04187358  , 0
-0.07168947 , 0.106326923 , -9.80048    , 0.0002607476, 0.00126100576, 0.00120892352, -0.223944992, -0.130915463, 0.453283    , -0.0100078266, -0.008997617, 2.634866    , 1.82        , 3           , 50          , 0           , 0
-0.06749483 , 0.07654465  , -9.814582   , -0.0005786583, -0.0004341169, 0.0003547566, -0.223944992, -0.130915463, 0.453283    , -0.0100136464, -0.009001924, 2.63486934  , 1.83        , 3           , 11          , 0.008233018 , 0.008233006
-0.110918015, 0.08646412  , -9.795438   , -0.00256359484, 0.000960333855, -0.0013475169, -0.22367534 , -0.131252527, 0.453620076 , -0.0100391582, -0.008992454, 2.63485551  , 1.84        , 3           , 12          , 0.04187358  , 0
-0.0948668942, 0.10206534  , -9.794347   , 0.00110458746, 0.00182986259, 8.35922E-05 , -0.223607928, -0.130915463, 0.4537549   , -0.01002812 , -0.008974148, 2.63485646  , 1.85        , 3           , 50          , 0           , 0
-0.07556032 , 0.09545565  , -9.774792   , 0.000826179341, 0.0009832566, -0.000201563787, -0.2234731  , -0.130982876, 0.453552663 , -0.0100198379, -0.00896433648, 2.63485456  , 1.86        , 3           , 11          , 0.008233018 , 0.008233006
-0.07181001 , 0.06702458  , -9.786632   , 0.000251493446, 0.00266882032, -0.00274443161, -0.2234731  , -0.130982876, 0.453552663 , -0.0100170756, -0.008937925, 2.634827    , 1.87        , 3           , 12          , 0.04187358  , 0
-0.07021959 , 0.085943386 , -9.782474   , -0.0005765229, -0.0009972503, -0.0007762609, -0.223810166, -0.131252527, 0.4538223   , -0.0100227743, -0.008947977, 2.63481927  , 1.88        , 3           , 50          , 0           , 0
-0.08917864 , 0.088891685 , -9.788031   , -0.003668462, -0.00383390649, 0.0006176006, -0.223742753, -0.130780637, 0.4537549   , -0.0100595169, -0.008986251, 2.63482547  , 1.89        , 3           , 11          , 0.008233018 , 0.008233006
-0.06980629 , 0.120647267 , -9.77193    , -0.00302578625, -0.000383258041, 0.000625271 , -0.223742753, -0.13084805 , 0.453552663 , -0.00996518 , -0.008900294, 2.63483071  , 1.9         , 3           , 12          , 0.042648524 , 0
-0.09523969 , 0.104367234 , -9.806543   , 0.00119446625, 0.00274260342, -0.0007628889, -0.223742753, -0.13084805 , 0.453552663 , -0.0099531645, -0.008872946, 2.634823    , 1.91        , 3           , 50          , 0           , 0
-0.0901855752, 0.08033952  , -9.790785   , -0.0010610926, 0.00188262679, -0.00133980112, -0.223742753, -0.130915463, 0.453552663 , -0.009963654, -0.008854254, 2.63480878  , 1.92        , 3           , 11          , 0.008176951 , 0.008176943
-0.09095454 , 0.09117325  , -9.78939    , 0.00122111558, -0.00260713231, -0.000488596153, -0.223944992, -0.13084805 , 0.4536875   , -0.009951401, -0.00888037 , 2.63480449  , 1.93        , 3           , 12          , 0.042648524 , 0
-0.08289028 , 0.115929455 , -9.79917    , 0.00150124379, -0.00204208959, 0.000361200859, -0.223607928, -0.1311177  , 0.453620076 , -0.009936423, -0.008900754, 2.63480878  , 1.94        , 3           , 50          , 0           , 0
-0.07141719 , 0.094123885 , -9.795556   , 0.00400988059, 0.004451091 , -0.00159472844, -0.223607928, -0.1311177  , 0.453620076 , -0.009896179, -0.008856404, 2.634792    , 1.95        , 3           , 11          , 0.008176951 , 0.008176943
-0.0805792138, 0.0865561   , -9.794302   , -0.00276106643, 0.00299742864, -0.00106342963, -0.223607928, -0.130915463, 0.453620076 , -0.009923692, -0.008826536, 2.63478112  , 1.96        , 3           , 12          , 0.042648524 , 0
-0.106876507, 0.121576622 , -9.784866   , -0.0024659303, 0.0004652532, -0.0007834806, -0.2240124  , -0.130982876, 0.4537549   , -0.0099482825, -0.00882196147, 2.63477349  , 1.97        , 3           , 50          , 0           , 0
-0.09973332 , 0.11292877  , -9.787559   , 0.0017635019, 0.00190172822, -0.0007615569, -0.223607928, -0.130915463, 0.4538223   , -0.009930578, -0.00880302 , 2.63476539  , 1.98        , 3           , 11          , 0.008176951 , 0.008176943
-0.108706474, 0.108638465 , -9.821997   , 0.00233442127, 0.0007792901, 8.69534852E-05, -0.223607928, -0.130915463, 0.4538223   , -0.009907243, -0.00879522 , 2.63476634  , 1.99        , 3           , 12          , 0.042648524 , 0
-0.09844148 , 0.07097614  , -9.795406   , -0.00139838783, 0.000129468041, 6.89312146E-05, -0.223944992, -0.130915463, 0.453620076 , -0.0100089805, -0.008878694, 2.63476777  , 2           , 3           , 50          , 0           , 0
-0.07700159 , 0.08156754  , -9.799267   , 0.000304700254, -0.00154846185, 0.0003567667, -0.223877579, -0.131050289, 0.4537549   , -0.0100059668, -0.008894142, 2.63477159  , 2.01        , 3           , 11          , 0.008113559 , 0.00811355747
-0.06351236 , 0.112501986 , -9.786833   , 0.00173414045, -0.005199262, -0.00105497707, -0.2234731  , -0.130915463, 0.4536875   , -0.009988535, -0.008946236, 2.634761    , 2.02        , 3           , 12          , 0.043449644 , 0
-0.06264235 , 0.109784462 , -9.786837   , 0.001123448 , 0.00408856664, -0.0007607535, -0.2234731  , -0.130915463, 0.4536875   , -0.009977231, -0.008905428, 2.63475347  , 2.03        , 3           , 50          , 0           , 0
-0.0699895  , 0.102198415 , -9.786472   , 2.0716252E-05, -0.00126880768, 7.334621E-05, -0.223540515, -0.130915463, 0.4536875   , -0.0099770315, -0.008918109, 2.63475442  , 2.04        , 3           , 11          , 0.008113559 , 0.00811355747
-0.09120259 , 0.103395924 , -9.800189   , -0.000547503645, -0.000427928229, 0.00148470164, -0.223742753, -0.13084805 , 0.4537549   , -0.009982639, -0.008922241, 2.6347692   , 2.05        , 3           , 12          , 0.043449644 , 0
-0.10244447 , 0.07777764  , -9.791341   , 0.001704125 , 0.0009951729, 8.4719286E-05, -0.22367534 , -0.130915463, 0.4536875   , -0.009965605, -0.00891228 , 2.63476968  , 2.06        , 3           , 50          , 0           , 0
-0.07990544 , 0.100566715 , -9.803278   , -0.0002570391, -0.00211541029, 0.00091834  , -0.22367534 , -0.130915463, 0.4536875   , -0.009968259, -0.008933343, 2.63477921  , 2.07        , 3           , 11          , 0.008113559 , 0.00811355747
-0.0732163861, 0.09772564  , -9.786967   , -0.00140396389, 0.0012557283, 7.066694E-05, -0.223944992, -0.1311177  , 0.4536875   , -0.009982305, -0.00892077852, 2.63478017  , 2.08        , 3           , 12          , 0.043449644 , 0
-0.07749258 , 0.08288096  , -9.785706   , 0.00227980479, -0.00125352934, -0.00048119307, -0.223742753, -0.130982876, 0.453620076 , -0.009959464, -0.008933362, 2.6347754   , 2.09        , 3           , 50          , 0           , 0
-0.0806603059, 0.08024149  , -9.794781   , -0.0008182374, 0.00188402121, -0.00133813324, -0.223607928, -0.1311177  , 0.4538223   , -0.009932666, -0.008827248, 2.634761    , 2.1         , 3           , 11          , 0.008037987 , 0.008037987
-0.07483619 , 0.07431953  , -9.798377   , 0.00172769686, 0.001338087 , 0.000933150935, -0.223607928, -0.1311177  , 0.4538223   , -0.00991547 , -0.008813774, 2.63477063  , 2.11        , 3           , 12          , 0.0442752   , 0
-0.09040539 , 0.09035332  , -9.815603   , -0.0016610095, 0.00103359751, -0.0007783108, -0.223607928, -0.130982876, 0.453552663 , -0.009932011, -0.008803516, 2.634763    , 2.12        , 3           , 50          , 0           , 0
-0.105899647, 0.08956068  , -9.794483   , -0.00137793017, 0.00103551068, 0.000353155774, -0.223607928, -0.13084805 , 0.453889728 , -0.009945821, -0.008793126, 2.63476586  , 2.13        , 3           , 11          , 0.008037987 , 0.008037987
-0.100915276, 0.0895052254, -9.795348   , -0.00109952223, 0.00188211678, 0.0006383121, -0.223742753, -0.13084805 , 0.453889728 , -0.009956872, -0.008774242, 2.63477254  , 2.14        , 3           , 12          , 0.0442752   , 0
-0.0724265352, 0.07976723  , -9.816415   , 4.11739456E-05, -0.000362764782, 0.000357570767, -0.223742753, -0.13084805 , 0.453889728 , -0.009956491, -0.00877783448, 2.63477588  , 2.15        , 3           , 50          , 0           , 0
-0.10410241 , 0.0832792446, -9.811218   , -0.00137653621, 0.0007539457, 0.000352721836, -0.223742753, -0.131050289, 0.4536875   , -0.009970285, -0.008770261, 2.63477921  , 2.16        , 3           , 11          , 0.008037987 , 0.008037987
-0.101075813, 0.0791091   , -9.789517   , -0.000528024859, 0.0004781097, 7.370123E-05, -0.223944992, -0.130982876, 0.453620076 , -0.009975573, -0.008765473, 2.63478017  , 2.17        , 3           , 12          , 0.0442752   , 0
-0.0889697149, 0.104236871 , -9.789773   , 0.00285872445, 0.0007825897, -0.00160528638, -0.223877579, -0.13084805 , 0.4537549   , -0.009946844, -0.008757806, 2.634764    , 2.18        , 3           , 50          , 0           , 0
-0.08773133 , 0.105909124 , -9.754953   , 0.00144018384, 0.00246244  , 0.00178118225, -0.223607928, -0.130780637, 0.4536875   , -0.009932594, -0.008733006, 2.63478112  , 2.19        , 3           , 11          , 0.008037987 , 0.008037987
-0.085478574, 0.09828553  , -9.776663   , -0.000483221636, 0.00268542417, -0.00133646489, -0.223607928, -0.130780637, 0.4536875   , -0.009853189, -0.00877325 , 2.63476682  , 2.2         , 3           , 12          , 0.0451235324, 0
-0.0708555654, 0.102687433 , -9.794613   , 0.0003643851, 0.00269115553, -0.0007674392, -0.223540515, -0.130982876, 0.4537549   , -0.009849475, -0.008746415, 2.63475919  , 2.21        , 3           , 50          , 0           , 0
-0.08958475 , 0.0889347941, -9.799333   , -0.000474694476, 0.0009960344, -0.00105653109, -0.223742753, -0.13084805 , 0.4537549   , -0.009854128, -0.008736559, 2.6347487   , 2.22        , 3           , 11          , 0.007955436 , 0.007955426
-0.085852474, 0.104157329 , -9.777094   , -0.0010329932, -0.000134041213, 0.000634324038, -0.223944992, -0.130982876, 0.453417838 , -0.009864512, -0.008737837, 2.634755    , 2.23        , 3           , 12          , 0.0451235324, 0
-0.0803855956, 0.109030508 , -9.769348   , -0.000190057879, 0.0007163832, 0.0003570391, -0.223944992, -0.130982876, 0.453417838 , -0.00986644253, -0.008730638, 2.63475823  , 2.24        , 3           , 50          , 0           , 0
-0.06683373 , 0.101257406 , -9.786      , 0.0006687897, -0.00181197724, -0.00133814011, -0.223877579, -0.130915463, 0.4537549   , -0.009859639, -0.008748889, 2.634745    , 2.25        , 3           , 11          , 0.007955436 , 0.007955426
-0.07536885 , 0.109893993 , -9.775182   , -0.00159522193, -0.000700992066, 0.000348284782, -0.223742753, -0.13084805 , 0.4537549   , -0.009875622, -0.008755864, 2.6347487   , 2.26        , 3           , 12          , 0.0451235324, 0
-0.0674464852, 0.08908163  , -9.786056   , -0.00187953236, -0.000421339268, -0.000500210444, -0.223810166, -0.1311177  , 0.4536875   , -0.009894372, -0.008760125, 2.634744    , 2.27        , 3           , 50          , 0           , 0
-0.04869158 , 0.09973065  , -9.797619   , 0.002338422 , 0.003267655 , -0.00103989022, -0.223810166, -0.1311177  , 0.4536875   , -0.009870895, -0.008727553, 2.634733    , 2.28        , 3           , 11          , 0.007955436 , 0.007955426
-0.08046818 , 0.09557307  , -9.792456   , -0.000191941363, 0.0009979459, -0.0004901391, -0.22414723 , -0.1311177  , 0.4537549   , -0.009872771, -0.008717625, 2.63472772  , 2.29        , 3           , 12          , 0.0451235324, 0
-0.07888055 , 0.08064114  , -9.785726   , -0.00216884282, -0.00145443645, -0.0002196744, -0.223607928, -0.130510986, 0.4538223   , -0.00991391 , -0.008585759, 2.63472581  , 2.3         , 3           , 50          , 0           , 0
-0.069818534, 0.109032221 , -9.80633    , -0.00162785035, 0.003335989 , -0.0004922011, -0.223810166, -0.130982876, 0.453620076 , -0.009930143, -0.008552451, 2.634721    , 2.31        , 3           , 11          , 0.007867903 , 0.007867898
-0.08085652 , 0.08938171  , -9.828191   , -0.0007599861, -0.0008817589, -0.00105983438, -0.223810166, -0.130982876, 0.453620076 , -0.009937653, -0.008561371, 2.63471055  , 2.32        , 3           , 12          , 0.0459930673, 0
-0.06878683 , 0.08821947  , -9.793301   , -0.003019163, -0.000615465629, 0.00175543863, -0.224214643, -0.130982876, 0.4536875   , -0.009967997, -0.008567353, 2.63472772  , 2.33        , 3           , 50          , 0           , 0
-0.076771304, 0.103178963 , -9.786068   , -0.00161530427, 0.0008019033, -0.0004961066, -0.223742753, -0.130915463, 0.4537549   , -0.009984107, -0.00855938252, 2.634723    , 2.34        , 3           , 11          , 0.007867903 , 0.007867898
-0.07559266 , 0.0869487748, -9.794262   , 0.0017796309, -1.98645E-05, 0.00234376965, -0.223405689, -0.13084805 , 0.4537549   , -0.009966512, -0.008559347, 2.63474679  , 2.35        , 3           , 12          , 0.0459930673, 0
-0.08511938 , 0.0901700854, -9.779858   , 0.00460062129, 0.000562363 , 0.00151019427, -0.223405689, -0.13084805 , 0.4537549   , -0.009920633, -0.008553574, 2.63476157  , 2.36        , 3           , 50          , 0           , 0
-0.07953897 , 0.06976742  , -9.770408   , 8.18814151E-05, 0.000250232173, -0.0007716103, -0.22367534 , -0.130982876, 0.4537549   , -0.009919749, -0.008551149, 2.63475347  , 2.37        , 3           , 11          , 0.007867903 , 0.007867898
-0.101878867, 0.08411264  , -9.798543   , -0.002460123, 0.000233041646, -0.0010660002, -0.223607928, -0.130780637, 0.453889728 , -0.009944258, -0.008548923, 2.634743    , 2.38        , 3           , 12          , 0.0459930673, 0
-0.107644632, 0.09588446  , -9.790403   , -0.00246168 , 0.000514605956, -0.00134810363, -0.223877579, -0.130982876, 0.4539571   , -0.00996875949, -0.008543912, 2.63472962  , 2.39        , 3           , 50          , 0           , 0
-0.07675709 , 0.0746981949, -9.770366   , -0.003521388, -0.000352493837, -0.00163793436, -0.223877579, -0.130982876, 0.4539571   , -0.009898231, -0.00857122 , 2.63471246  , 2.4         , 3           , 11          , 0.00777542824, 0.0077754287
-0.09026416 , 0.0749196559, -9.78900051 , -0.002666974, -0.00175458845, -0.00135361566, -0.224079818, -0.131050289, 0.453620076 , -0.009924785, -0.008588899, 2.634699    , 2.41        , 3           , 12          , 0.0468823053, 0
-0.09870291 , 0.08274162  , -9.8044     , -0.000682778656, -0.00286747143, 0.00147924176, -0.223742753, -0.130982876, 0.453889728 , -0.009931743, -0.008617426, 2.63471437  , 2.42        , 3           , 50          , 0           , 0
-0.105874211, 0.09627655  , -9.779087   , 0.004384013 , 0.0005456883, 0.00122561632, -0.223944992, -0.131050289, 0.4537549   , -0.009888007, -0.008611847, 2.63472629  , 2.43        , 3           , 11          , 0.00777542824, 0.0077754287
-0.0876480639, 0.06989637  , -9.780414   , 0.000432914268, -0.0003257527, -0.00105442235, -0.223944992, -0.131050289, 0.4537549   , -0.009883587, -0.008615209, 2.6347158   , 2.44        , 3           , 12          , 0.0468823053, 0
-0.09721551 , 0.09086454  , -9.809778   , -0.00154760282, 0.0005055758, 6.781072E-05, -0.223742753, -0.131387353, 0.453620076 , -0.00989907 , -0.008610146, 2.63471627  , 2.45        , 3           , 50          , 0           , 0
-0.1056975  , 0.09820511  , -9.816141   , 0.00129125791, -0.002290972, 0.00120679068, -0.2240124  , -0.130915463, 0.4538223   , -0.009886263, -0.008632935, 2.63472867  , 2.46        , 3           , 11          , 0.00777542824, 0.0077754287
-0.105393961, 0.09049093  , -9.80441952 , -0.00125509186, -0.00146346819, 0.000631165167, -0.223810166, -0.1311177  , 0.453889728 , -0.009898869, -0.008647507, 2.63473535  , 2.47        , 3           , 12          , 0.0468823053, 0
-0.09700811 , 0.08173339  , -9.779079   , -0.000421499426, 0.00107634184, -0.00133874093, -0.223810166, -0.1311177  , 0.453889728 , -0.009902968, -0.008636876, 2.63472152  , 2.48        , 3           , 50          , 0           , 0
-0.0846147463, 0.062160857 , -9.771834   , -0.00239274814, -6.32873853E-05, -0.00106715772, -0.223877579, -0.130915463, 0.4536875   , -0.009926804, -0.00863761548, 2.634711    , 2.49        , 3           , 11          , 0.00777542824, 0.0077754287
-0.0949772745, 0.0939416   , -9.793477   , 0.002240069 , 0.00101599807, -0.00189376227, -0.223742753, -0.13084805 , 0.4538223   , -0.00970469 , -0.008756478, 2.63469052  , 2.5         , 3           , 12          , 0.04778986  , 0
-0.112460047, 0.07249438  , -9.795507   , -0.00170718855, -0.0001369963, 6.38272E-05 , -0.22367534 , -0.131185114, 0.453889728 , -0.009721768, -0.008757842, 2.63469052  , 2.51        , 3           , 50          , 0           , 0
-0.09342869 , 0.07406816  , -9.793096   , -0.002548893, -0.00126898661, 5.81406675E-05, -0.22367534 , -0.131185114, 0.453889728 , -0.009747264, -0.008770526, 2.63469148  , 2.52        , 3           , 11          , 0.00768101448, 0.007681016
-0.0801758245, 0.08784981  , -9.778023   , -0.00367564941, -0.00183975534, 0.000334542536, -0.223810166, -0.1311177  , 0.453620076 , -0.009784049, -0.008788889, 2.63469529  , 2.53        , 3           , 12          , 0.04778986  , 0
-0.08341764 , 0.08336492  , -9.774901   , -0.00143173162, 0.00127273891, 6.731381E-05, -0.223877579, -0.130982876, 0.4537549   , -0.009798372, -0.008776156, 2.63469529  , 2.54        , 3           , 50          , 0           , 0
-0.09215139 , 0.102925166 , -9.791159   , 0.0025092084, 0.00383356167, -0.000757955946, -0.223742753, -0.130780637, 0.4538223   , -0.009773211, -0.008737897, 2.63468766  , 2.55        , 3           , 11          , 0.00768101448, 0.007681016
-0.100081787, 0.08274095  , -9.799438   , 0.00194681634, 0.00326661067, -0.00132653257, -0.223742753, -0.130780637, 0.4538223   , -0.009753625, -0.008705362, 2.63467431  , 2.56        , 3           , 12          , 0.04778986  , 0
-0.09597019 , 0.08673986  , -9.795322   , 0.000838671753, -0.0009645026, -0.000208159428, -0.22367534 , -0.130915463, 0.4536875   , -0.00974522 , -0.008715025, 2.6346724   , 2.57        , 3           , 50          , 0           , 0
-0.101857379, 0.0854691043, -9.79944    , -0.0008580989, -0.0006944012, -0.00162831461, -0.223540515, -0.13084805 , 0.453620076 , -0.00975366 , -0.008722127, 2.63465619  , 2.58        , 3           , 11          , 0.00768101448, 0.007681016
-0.09353678 , 0.06907073  , -9.782722   , -0.000301119842, 0.0009988114, -0.0007754646, -0.223742753, -0.130713224, 0.453889728 , -0.009756603, -0.008712215, 2.634648    , 2.59        , 3           , 12          , 0.04778986  , 0
-0.0683769658, 0.08817939  , -9.782903   , 0.0009260827, 0.0012122289, -0.00303165149, -0.223742753, -0.130713224, 0.453889728 , -0.009574249, -0.008831055, 2.63461614  , 2.6         , 3           , 50          , 0           , 0
-0.0855625644, 0.123138964 , -9.786957   , 0.00149584538, 0.000652929069, 0.0006431015, -0.22367534 , -0.1311177  , 0.45348525  , -0.009559345, -0.008824465, 2.63462281  , 2.61        , 3           , 11          , 0.007584958 , 0.00758495042
-0.0910769552, 0.111978389 , -9.803316   , 0.00149043254, 0.00177918992, 0.00092737464, -0.223877579, -0.131050289, 0.453620076 , -0.009544522, -0.008806584, 2.63463187  , 2.62        , 3           , 12          , 0.0487144   , 0
-0.110625282, 0.106787093 , -9.80168    , 0.00291536469, -0.00102691643, -0.00104814221, -0.223607928, -0.131185114, 0.4538223   , -0.009515277, -0.008816955, 2.63462138  , 2.63        , 3           , 50          , 0           , 0
-0.09264134 , 0.09040257  , -9.822401   , -0.0013174339, -0.00161869219, 0.0003439232, -0.22367534 , -0.13131994 , 0.453552663 , -0.009528481, -0.008833107, 2.63462472  , 2.64        , 3           , 11          , 0.007584958 , 0.00758495042
-0.0812868  , 0.07474984  , -9.769949   , -0.000769634731, 0.00176390714, -0.000213310443, -0.22367534 , -0.13131994 , 0.453552663 , -0.009536159, -0.00881549 , 2.63462281  , 2.65        , 3           , 12          , 0.0487144   , 0
-0.109203346, 0.08457929  , -9.777806   , -0.00244746753, -0.00162633357, -0.000226419259, -0.223810166, -0.130915463, 0.4537549   , -0.009560615, -0.008831773, 2.634621    , 2.66        , 3           , 50          , 0           , 0
-0.08301918 , 0.102880843 , -9.809621   , 9.716184E-05, -0.00217227382, -0.000215434717, -0.223742753, -0.130915463, 0.4538223   , -0.009559626, -0.008853516, 2.634619    , 2.67        , 3           , 11          , 0.007584958 , 0.00758495042
-0.0993219  , 0.104855642 , -9.803409   , -0.001332516, 0.00119695312, -0.00162949972, -0.223540515, -0.131050289, 0.4538223   , -0.009572805, -0.008841704, 2.63460231  , 2.68        , 3           , 12          , 0.0487144   , 0
-0.103161238, 0.09624162  , -9.778163   , -0.00188826444, -0.0007778254, -0.002765321, -0.223540515, -0.131050289, 0.4538223   , -0.009591444, -0.008849746, 2.63457465  , 2.69        , 3           , 50          , 0           , 0
-0.10274563 , 0.09129633  , -9.78496    , 0.0034655584, 0.0008856371, 0.0003696393, -0.223810166, -0.13084805 , 0.453889728 , -0.009567018, -0.008952128, 2.634578    , 2.7         , 3           , 11          , 0.007487798 , 0.00748779252
-0.0997117  , 0.0741879344, -9.806703   , 0.00290521281, 3.712364E-05, 0.0009307786, -0.223742753, -0.1311177  , 0.453889728 , -0.009538048, -0.008951668, 2.63458753  , 2.71        , 3           , 12          , 0.0496546924, 0
-0.09038241 , 0.06366506  , -9.79628    , -0.00102899468, -0.00421309751, -0.0010719297, -0.223810166, -0.13084805 , 0.4538223   , -0.009548244, -0.008993899, 2.634577    , 2.72        , 3           , 50          , 0           , 0
-0.0861273557, 0.087866    , -9.762248   , -0.00131880667, -0.00252561225, 0.000624581764, -0.223810166, -0.13084805 , 0.4538223   , -0.00956149 , -0.00901909452, 2.63458371  , 2.73        , 3           , 11          , 0.007487798 , 0.00748779252
-0.07599487 , 0.09235128  , -9.78927    , -0.00217879633, 2.74262857E-06, 0.000341998879, -0.223607928, -0.130982876, 0.4538223   , -0.009583309, -0.009019035, 2.63458753  , 2.74        , 3           , 12          , 0.0496546924, 0
-0.08602318 , 0.0875040442, -9.788916   , -0.0019045705, 0.00169404375, 0.000628456939, -0.223607928, -0.130915463, 0.4538223   , -0.00960241 , -0.009002035, 2.63459325  , 2.75        , 3           , 50          , 0           , 0
-0.09820691 , 0.09080562  , -9.788996   , -0.000491279759, 0.00114045572, -0.00219120085, -0.22367534 , -0.131050289, 0.4536875   , -0.009607125, -0.008990841, 2.63457131  , 2.76        , 3           , 11          , 0.007487798 , 0.00748779252
-0.0704513863, 0.09996462  , -9.791457   , 0.00344662042, 0.00454597967, -0.00103740674, -0.22367534 , -0.131050289, 0.4536875   , -0.009572561, -0.008945482, 2.63456082  , 2.77        , 3           , 12          , 0.0496546924, 0
-0.07965764 , 0.0905756   , -9.785238   , -0.0007834647, 0.00310950144, -0.00218948023, -0.223742753, -0.130915463, 0.4537549   , -0.009580198, -0.008914598, 2.63453841  , 2.78        , 3           , 50          , 0           , 0
-0.101306312, 0.10250473  , -9.768631   , 0.00260819355, 0.00285086152, -0.000196348657, -0.223944992, -0.130915463, 0.4539571   , -0.0095540965, -0.00888611 , 2.634536    , 2.79        , 3           , 11          , 0.007487798 , 0.00748779252
-0.0829728  , 0.11273814  , -9.78924    , 0.00290671759, 0.0017104313, 0.0009331516, -0.2240124  , -0.131185114, 0.4537549   , -0.009506817, -0.008898713, 2.63454556  , 2.8         , 3           , 12          , 0.0506095737, 0
-0.07424127 , 0.07487572  , -9.831364   , -0.0004780591, 0.000842817 , 0.00119858421, -0.2240124  , -0.131185114, 0.4537549   , -0.009511704, -0.008890171, 2.634557    , 2.81        , 3           , 50          , 0           , 0
-0.09732808 , 0.08229267  , -9.809815   , 0.0023426055, 0.00142504321, -0.000200065857, -0.223944992, -0.131050289, 0.4536875   , -0.00948825851, -0.008875938, 2.634555    , 2.82        , 3           , 11          , 0.007391662 , 0.007391655
-0.116501428, 0.11802309  , -9.76823    , 0.00122068368, 9.581745E-06, 0.001205184 , -0.223810166, -0.131050289, 0.453620076 , -0.009476159, -0.008875728, 2.6345675   , 2.83        , 3           , 12          , 0.0506095737, 0
-0.06646815 , 0.08912996  , -9.803675   , 0.000929892936, 0.001697062 , 0.00120647065, -0.223810166, -0.1311177  , 0.4537549   , -0.009466965, -0.00885864347, 2.634579    , 2.84        , 3           , 50          , 0           , 0
-0.09299804 , 0.1070007   , -9.792504   , -0.00160890853, 0.0008351717, -0.0007844457, -0.223810166, -0.1311177  , 0.4537549   , -0.009482984, -0.008850368, 2.63457131  , 2.85        , 3           , 11          , 0.007391662 , 0.007391655
-0.09473264 , 0.08216251  , -9.78041649 , -0.00160546787, 0.0002720448, 0.000344836037, -0.223742753, -0.131050289, 0.453620076 , -0.009499069, -0.008847615, 2.63457417  , 2.86        , 3           , 12          , 0.0506095737, 0
-0.113226734, 0.08645442  , -9.784608   , -0.00273115654, -0.000580291031, 5.5729015E-05, -0.223944992, -0.1311177  , 0.4536875   , -0.009526388, -0.008853411, 2.63457513  , 2.87        , 3           , 50          , 0           , 0
-0.105717279, 0.1017599   , -9.799855   , 0.000358069228, 0.003101068 , 0.00120600651, -0.223742753, -0.130982876, 0.453552663 , -0.00952291 , -0.008822287, 2.634587    , 2.88        , 3           , 11          , 0.007391662 , 0.007391655
-0.0797405839, 0.0842594653, -9.785265   , -0.000759255141, 0.000559341337, 0.0009142958, -0.223742753, -0.130982876, 0.453552663 , -0.009530584, -0.008816608, 2.634596    , 2.89        , 3           , 12          , 0.0506095737, 0
-0.0860620439, 0.08791891  , -9.778067   , -0.00161303277, 0.00276182615, 0.000348273024, -0.223540515, -0.131050289, 0.453552663 , -0.009537172, -0.008873932, 2.634599    , 2.9         , 3           , 50          , 0           , 0
-0.07615254 , 0.08329651  , -9.779818   , 0.00205056719, 0.004194476 , -0.0013276618, -0.223742753, -0.13084805 , 0.4536875   , -0.009516545, -0.008832114, 2.63458562  , 2.91        , 3           , 11          , 0.007296582 , 0.007296576
-0.06787318 , 0.09669605  , -9.767948   , 0.00207803212, -0.00115525548, 0.0003593181, -0.224079818, -0.130982876, 0.4538223   , -0.009495797, -0.008843632, 2.63458943  , 2.92        , 3           , 12          , 0.051577948 , 0
-0.0767686442, 0.09916395  , -9.799644   , -0.000479306531, 0.00192476984, 6.97015057E-05, -0.224079818, -0.130982876, 0.4538223   , -0.009500593, -0.008824378, 2.63458943  , 2.93        , 3           , 50          , 0           , 0
-0.1024663  , 0.0759745538, -9.791801   , 0.00291924737, -2.32676466E-05, -0.0004826076, -0.223742753, -0.13131994 , 0.4536875   , -0.009471359, -0.008824656, 2.63458467  , 2.94        , 3           , 11          , 0.007296582 , 0.007296576
-0.093779996, 0.08531446  , -9.781753   , -0.001866675, -0.00315295346, -0.0005097687, -0.223877579, -0.130982876, 0.453889728 , -0.009489982, -0.008856232, 2.63458     , 2.95        , 3           , 12          , 0.051577948 , 0
-0.0765928  , 0.07750942  , -9.80154    , -0.001871999, -0.00230826321, -0.00248622918, -0.223742753, -0.1311177  , 0.4538223   , -0.009508483, -0.008879551, 2.634555    , 2.96        , 3           , 50          , 0           , 0
-0.09416683 , 0.08626593  , -9.794859   , -0.00328487437, -0.00203624484, -0.00136223016, -0.223742753, -0.1311177  , 0.4538223   , -0.009541214, -0.008900042, 2.63454175  , 2.97        , 3           , 11          , 0.007296582 , 0.007296576
-0.09815687 , 0.09039983  , -9.802556   , -0.00272945245, -6.146783E-05, -0.0007914837, -0.223742753, -0.131050289, 0.453552663 , -0.009568438, -0.008900732, 2.63453412  , 2.98        , 3           , 12          , 0.051577948 , 0
-0.09071588 , 0.103864446 , -9.806963   , 0.001504325 , 0.000530312653, -0.0004883244, -0.22414723 , -0.130915463, 0.4538223   , -0.009553351, -0.008895475, 2.63452935  , 2.99        , 3           , 50          , 0           , 0
-0.08556983 , 0.08571379  , -9.794794   , 0.00351305422, -0.00172420556, -0.000200338036, -0.223877579, -0.1311177  , 0.4537549   , -0.009477674, -0.008943217, 2.634527    , 3           , 3           , 11          , 0.00720125251, 0.00720125251
-0.0884461254, 0.101610832 , -9.815543   , 0.00124199793, 0.000513033 , -0.00105501455, -0.223877579, -0.1311177  , 0.4537549   , -0.009465161, -0.008938187, 2.63451648  , 3.01        , 3           , 12          , 0.0525588058, 0
-0.07546394 , 0.09464103  , -9.801008   , -0.00328085013, 0.00132716948, -0.0007922462, -0.223742753, -0.130982876, 0.4536875   , -0.009497898, -0.00892499 , 2.63450837  , 3.02        , 3           , 50          , 0           , 0
-0.08946696 , 0.104652524 , -9.777571   , -0.002427341, 0.000206642188, 0.0003401186, -0.223607928, -0.130982876, 0.4539571   , -0.009522201, -0.008922891, 2.63451219  , 3.03        , 3           , 11          , 0.00720125251, 0.00720125251
-0.06772548 , 0.104850031 , -9.777857   , -0.0001665324, -5.96431419E-05, 0.000350220129, -0.223944992, -0.130915463, 0.4538223   , -0.009523897, -0.008923454, 2.634515    , 3.04        , 3           , 12          , 0.0525588058, 0
-0.07998997 , 0.102283619 , -9.777057   , -0.001855918, -0.00147893711, -0.00276776333, -0.223810166, -0.130915463, 0.4536875   , -0.009542212, -0.008938507, 2.63448787  , 3.05        , 3           , 50          , 0           , 0
-0.08999938 , 0.09521994  , -9.788462   , -0.001285577, -0.00231980579, -0.00050613127, -0.223810166, -0.130915463, 0.4536875   , -0.009555024, -0.008961752, 2.63448262  , 3.06        , 3           , 11          , 0.00720125251, 0.00720125251
-0.0836540163, 0.09113355  , -9.802894   , -0.000155380374, -0.00231216336, 0.000346748624, -0.223877579, -0.130780637, 0.4536875   , -0.009556611, -0.00898484 , 2.63448644  , 3.07        , 3           , 12          , 0.0525588058, 0
-0.0833666  , 0.08429897  , -9.784389   , 0.0006754984, 0.00107234856, 0.000920981634, -0.2240124  , -0.130915463, 0.453552663 , -0.009549938, -0.008974028, 2.634496    , 3.08        , 3           , 50          , 0           , 0
-0.08922874 , 0.07903136  , -9.807507   , -0.0001653759, -0.000622781052, -0.00247602235, -0.22367534 , -0.130780637, 0.453620076 , -0.00955137052, -0.008980492, 2.63447118  , 3.09        , 3           , 11          , 0.00720125251, 0.00720125251
-0.08936993 , 0.104731135 , -9.801074   , 0.0004215498, -0.00229099253, 0.0006319792, -0.22367534 , -0.130780637, 0.453620076 , -0.009522796, -0.008967761, 2.63447738  , 3.1         , 3           , 12          , 0.0535511822, 0
-0.07840344 , 0.108255096 , -9.81363    , 0.0004226175, -0.00257255929, 6.647024E-05, -0.223810166, -0.1311177  , 0.453620076 , -0.009518579, -0.008993479, 2.63447833  , 3.11        , 3           , 50          , 0           , 0
-0.08347702 , 0.101096675 , -9.814151   , -0.00156675314, -5.184261E-05, 0.000343694584, -0.223810166, -0.13084805 , 0.4539571   , -0.009534276, -0.008993965, 2.63448167  , 3.12        , 3           , 11          , 0.00710748648, 0.007107487
-0.08580834 , 0.103300378 , -9.790657   , -0.000156176175, 0.000239271525, 6.81756937E-05, -0.22367534 , -0.13131994 , 0.4537549   , -0.009535844, -0.008991567, 2.63448262  , 3.13        , 3           , 12          , 0.0535511822, 0
-0.08762694 , 0.1033156   , -9.788862   , -0.00100665982, 0.00107824162, 0.00176075159, -0.22367534 , -0.13131994 , 0.4537549   , -0.009546068, -0.008980617, 2.63449979  , 3.14        , 3           , 50          , 0           , 0
-0.0779034  , 0.116768748 , -9.797771   , -0.00213783537, 0.00107059465, -0.0007873532, -0.223877579, -0.131050289, 0.4537549   , -0.009567373, -0.008969985, 2.63449216  , 3.15        , 3           , 11          , 0.00710748648, 0.007107487
-0.0843329951, 0.105164632 , -9.813236   , -0.00100673409, 0.000796669337, -0.000782519463, -0.223742753, -0.13084805 , 0.453889728 , -0.009577371, -0.008962095, 2.634484    , 3.16        , 3           , 12          , 0.0535511822, 0
-0.0948893  , 0.10204719  , -9.788923   , -0.0010072235, 0.000796667 , -0.001630132, -0.223810166, -0.130915463, 0.453620076 , -0.009587296, -0.008954287, 2.63446736  , 3.17        , 3           , 50          , 0           , 0
-0.06426546 , 0.0895001143, -9.787386   , 0.00322416681, 0.00223315158, 0.00178224128, -0.223810166, -0.130915463, 0.453620076 , -0.009555212, -0.008931785, 2.63448548  , 3.18        , 3           , 11          , 0.00710748648, 0.007107487
-0.07885663 , 0.08021418  , -9.792959   , -0.00071947265, -4.61127056E-05, 0.000347645371, -0.223607928, -0.1311177  , 0.4537549   , -0.009562437, -0.008932213, 2.63448882  , 3.19        , 3           , 12          , 0.0535511822, 0
-0.08512761 , 0.08659263  , -9.789364   , -0.000451524422, -0.0008571768, -0.0004995448, -0.223742753, -0.130915463, 0.4537549   , -0.009605398, -0.008873672, 2.63448358  , 3.2         , 3           , 50          , 0           , 0
-0.09181327 , 0.09657803  , -9.783499   , -0.00101212168, -0.00142411992, 0.00203979062, -0.223944992, -0.131185114, 0.4537549   , -0.009615702, -0.0088877175, 2.63450456  , 3.21        , 3           , 11          , 0.007015788 , 0.007015785
-0.08645083 , 0.08619067  , -9.799319   , 0.00293160649, 0.000573572936, 0.0012136529, -0.223944992, -0.131185114, 0.4537549   , -0.009586493, -0.008881864, 2.63451648  , 3.22        , 3           , 12          , 0.05455419  , 0
-0.09287245 , 0.0803955942, -9.798038   , 0.00208219024, 0.00113097636, 0.0023407198, -0.223877579, -0.130915463, 0.4537549   , -0.009565878, -0.0088703325, 2.63453984  , 3.23        , 3           , 50          , 0           , 0
-0.09537432 , 0.09622383  , -9.799798   , -0.000164263038, -0.00169995893, 0.0006306201, -0.223742753, -0.13084805 , 0.4538223   , -0.009567578, -0.00888727 , 2.63454652  , 3.24        , 3           , 11          , 0.007015788 , 0.007015785
-0.104163669, 0.0836759657, -9.794947   , 0.00292881834, 0.00113670307, 0.00121452077, -0.223810166, -0.130982876, 0.4536875   , -0.009538395, -0.008875786, 2.634558    , 3.25        , 3           , 12          , 0.05455419  , 0
-0.110781193, 0.09505564  , -9.801277   , 0.0009584742, -0.000284493639, 0.000638057536, -0.223810166, -0.130982876, 0.4536875   , -0.009528867, -0.008878569, 2.63456464  , 3.26        , 3           , 50          , 0           , 0
-0.114295706, 0.0823154747, -9.757966   , 0.004630438 , -0.0005412338, -0.001040481, -0.223944992, -0.130915463, 0.4537549   , -0.009482473, -0.00888408 , 2.63455415  , 3.27        , 3           , 11          , 0.007015788 , 0.007015785
-0.07996738 , 0.107658133 , -9.765283   , -0.000464233657, 0.00167690823, -0.000778176764, -0.223540515, -0.131050289, 0.453889728 , -0.009487044, -0.008867386, 2.63454652  , 3.28        , 3           , 12          , 0.05455419  , 0
-0.08044416 , 0.09782431  , -9.79109    , -0.00103261671, 0.00251778681, 0.0003506408, -0.22367534 , -0.130780637, 0.453620076 , -0.009497398, -0.008842176, 2.63454938  , 3.29        , 3           , 50          , 0           , 0
-0.0795741  , 0.0875188261, -9.815533   , 9.888277E-05, 0.00109036174, -0.00105914148, -0.22367534 , -0.130780637, 0.453620076 , -0.009505835, -0.008890876, 2.63453937  , 3.3         , 3           , 11          , 0.006925531 , 0.00692553166
-0.09739736 , 0.08446829  , -9.78585148 , -0.00101934618, -0.00116979715, -0.0005028056, -0.223877579, -0.130915463, 0.45348525  , -0.009515984, -0.00890262 , 2.63453412  , 3.31        , 3           , 12          , 0.05556699  , 0
-0.09668079 , 0.103423424 , -9.789383   , 0.00123892631, -0.00115452288, -0.00247003254, -0.223810166, -0.130645812, 0.4538223   , -0.009503376, -0.008914401, 2.6345098   , 3.32        , 3           , 50          , 0           , 0
-0.08799974 , 0.105617486 , -9.80106    , -0.000762174663, 0.00390028325, -0.00077621534, -0.223944992, -0.1311177  , 0.4536875   , -0.009510926, -0.008875474, 2.6345017   , 3.33        , 3           , 11          , 0.006925531 , 0.00692553166
-0.06618829 , 0.07961117  , -9.791961   , 0.00094632624, 0.0010960924, -0.000772653031, -0.223944992, -0.1311177  , 0.4536875   , -0.009501393, -0.008864588, 2.634494    , 3.34        , 3           , 12          , 0.05556699  , 0
-0.09144334 , 0.09293478  , -9.774923   , -0.00186810945, -0.0006123906, 0.00175441126, -0.223877579, -0.130915463, 0.453620076 , -0.009520232, -0.008870543, 2.63451123  , 3.35        , 3           , 50          , 0           , 0
-0.105875306, 0.09225852  , -9.79175949 , 0.002074966 , 0.00138529914, -0.0002018764, -0.22367534 , -0.13084805 , 0.4536875   , -0.009499462, -0.00885671 , 2.63450933  , 3.36        , 3           , 11          , 0.006925531 , 0.00692553166
-0.117412448, 0.105531514 , -9.80716    , -0.000436296134, -0.00454475125, 0.00203745812, -0.223810166, -0.130780637, 0.4536875   , -0.00950401 , -0.008901961, 2.63453031  , 3.37        , 3           , 12          , 0.05556699  , 0
-0.105377942, 0.09452106  , -9.795362   , -0.000452193955, -0.00172910967, -0.001348652, -0.223810166, -0.130780637, 0.4536875   , -0.009508413, -0.00891938247, 2.634517    , 3.38        , 3           , 50          , 0           , 0
-0.09779648 , 0.0889805853, -9.78448    , 0.00179672125, 0.000538693857, -0.000204495154, -0.223742753, -0.130982876, 0.45348525  , -0.009490428, -0.008914014, 2.634515    , 3.39        , 3           , 11          , 0.006925531 , 0.00692553166
-0.09686092 , 0.08408439  , -9.807544   , 0.00206791563, 0.001901186 , 8.115945E-05, -0.223877579, -0.13084805 , 0.4538223   , -0.009479701, -0.009001416, 2.634516    , 3.4         , 3           , 12          , 0.0565888025, 0
-0.08909729 , 0.0853868   , -9.81923    , 0.00235731271, 0.0004952706, 8.030671E-05, -0.223810166, -0.131050289, 0.4536875   , -0.009456135, -0.008996456, 2.63451648  , 3.41        , 3           , 50          , 0           , 0
-0.08976918 , 0.106565237 , -9.8083     , 0.000659800367, 0.0010469401, -0.000209264283, -0.223810166, -0.131050289, 0.4536875   , -0.00944951549, -0.00898600649, 2.634514    , 3.42        , 3           , 11          , 0.00683799852, 0.00683799
-0.08078204 , 0.101939872 , -9.805991   , -0.000193219268, 0.00216746982, -0.000494016858, -0.223877579, -0.13084805 , 0.45348525  , -0.009451403, -0.008964379, 2.63450933  , 3.43        , 3           , 12          , 0.0565888025, 0
-0.08047313 , 0.09646177  , -9.78838348 , 0.00207783678, -6.97687938E-05, 0.000360659382, -0.223810166, -0.130982876, 0.454024523 , -0.009430656, -0.008965042, 2.63451266  , 3.44        , 3           , 50          , 0           , 0
-0.0797528  , 0.09049849  , -9.762188   , 0.00151249382, -7.359107E-05, -0.0004895867, -0.223810166, -0.130982876, 0.453889728 , -0.009415488, -0.008965825, 2.634508    , 3.45        , 3           , 11          , 0.00683799852, 0.00683799
-0.07050157 , 0.105280161 , -9.762056   , 0.0006698847, -0.0009240138, 0.000352772884, -0.223810166, -0.130982876, 0.453889728 , -0.009408821, -0.008975031, 2.63451123  , 3.46        , 3           , 12          , 0.0565888025, 0
-0.09261449 , 0.101583079 , -9.792975   , 0.0006691433, -0.0006424456, 0.00148335693, -0.223944992, -0.1311177  , 0.453620076 , -0.009402263, -0.008981318, 2.63452649  , 3.47        , 3           , 50          , 0           , 0
-0.07719882 , 0.0969558358, -9.812312   , -0.003860586, 0.00129794492, -0.000512438768, -0.223742753, -0.130915463, 0.4538223   , -0.00944082253, -0.008968386, 2.63452077  , 3.48        , 3           , 11          , 0.00683799852, 0.00683799
-0.09171364 , 0.100229576 , -9.796138   , 0.00179492054, -7.16811046E-05, -0.000488269783, -0.223944992, -0.130982876, 0.4537549   , -0.009422831, -0.00896915 , 2.634516    , 3.49        , 3           , 12          , 0.0565888025, 0
-0.134419531, 0.09748803  , -9.771616   , -0.00217897 , -0.00121819542, -0.00220339978, -0.223742753, -0.130915463, 0.453417838 , -0.00950131752, -0.008966484, 2.634495    , 3.5         , 3           , 50          , 0           , 0
-0.09638974 , 0.0939137   , -9.780381   , 0.00260407524, 0.00275619142, 8.536273E-05, -0.223742753, -0.130915463, 0.453417838 , -0.009475281, -0.008938914, 2.6344955   , 3.51        , 3           , 11          , 0.006752151 , 0.00675214035
-0.08918512 , 0.09022549  , -9.782148   , 0.0003520457, 0.00105151639, -0.001623001, -0.223877579, -0.130982876, 0.4536875   , -0.009471615, -0.008928553, 2.63447881  , 3.52        , 3           , 12          , 0.0576188974, 0
-0.09406523 , 0.09259716  , -9.799351   , 0.000637661142, 0.0007718699, 0.00148579408, -0.223810166, -0.1311177  , 0.4537549   , -0.009465369, -0.008920695, 2.634494    , 3.53        , 3           , 50          , 0           , 0
-0.06968023 , 0.08957903  , -9.791946   , 0.0009215707, 0.000210643528, -0.0007740565, -0.223944992, -0.131050289, 0.4536875   , -0.009456085, -0.008918663, 2.634486    , 3.54        , 3           , 11          , 0.006752151 , 0.00675214035
-0.07293621 , 0.0886534452, -9.773895   , -0.00135013775, 0.00244787917, -0.002758883, -0.223944992, -0.131050289, 0.4536875   , -0.009469339, -0.008894445, 2.63445783  , 3.55        , 3           , 12          , 0.0576188974, 0
-0.101434186, 0.1183956   , -9.797041   , 0.0003474486, 0.00217778143, 7.395941E-05, -0.223944992, -0.130915463, 0.4537549   , -0.009465869, -0.008872662, 2.63445878  , 3.56        , 3           , 50          , 0           , 0
-0.09556434 , 0.121437669 , -9.782972   , 0.00148503052, 0.0004960286, -0.0007709887, -0.223877579, -0.13084805 , 0.4538223   , -0.009450951, -0.008867773, 2.63445115  , 3.57        , 3           , 11          , 0.006752151 , 0.00675214035
-0.0924400762, 0.08305184  , -9.784463   , 0.00232722447, 0.001628021 , 8.23100563E-05, -0.223607928, -0.1311177  , 0.453620076 , -0.0094276825, -0.008851485, 2.63445163  , 3.58        , 3           , 12          , 0.0576188974, 0
-0.09083246 , 0.062333554 , -9.801261   , 0.00122277229, -0.00344778947, 0.000351768977, -0.223607928, -0.1311177  , 0.453620076 , -0.009415489, -0.008885929, 2.63445544  , 3.59        , 3           , 50          , 0           , 0
-0.0780725256, 0.07474892  , -9.780772   , 0.0006369067, 0.000192090039, -0.0007755257, -0.223742753, -0.131185114, 0.453620076 , -0.009414387, -0.008923853, 2.63444734  , 3.6         , 3           , 11          , 0.00666843774, 0.00666842656
-0.0843703747, 0.07753477  , -9.782166   , -0.00190321449, -0.000106663196, -0.000222737057, -0.223540515, -0.131252527, 0.4538223   , -0.009433402, -0.008924941, 2.63444543  , 3.61        , 3           , 12          , 0.05865659  , 0
-0.0905111954, 0.08848218  , -9.795726   , -0.00585858431, 0.0001481623, -0.000240740177, -0.223540515, -0.13084805 , 0.453620076 , -0.009491965, -0.008923481, 2.634443    , 3.62        , 3           , 50          , 0           , 0
-0.09841772 , 0.100380361 , -9.817432   , 0.00232958444, 0.000485112629, -0.00161480263, -0.223540515, -0.13084805 , 0.453620076 , -0.009468526, -0.008918784, 2.63442683  , 3.63        , 3           , 11          , 0.00666843774, 0.00666842656
-0.08978652 , 0.108336605 , -9.798349   , -0.00133278477, -0.00122910365, -0.0002218389, -0.223877579, -0.130915463, 0.4537549   , -0.009481835, -0.008931095, 2.63442445  , 3.64        , 3           , 12          , 0.05865659  , 0
-0.0810468048, 0.0816395655, -9.80653    , 0.00148550677, -0.000365317246, -0.00331528042, -0.223742753, -0.13084805 , 0.4536875   , -0.009466685, -0.008935062, 2.63439155  , 3.65        , 3           , 50          , 0           , 0
-0.0950085148, 0.0818648338, -9.824714   , 0.000352344476, 0.000753313245, 0.000354174932, -0.22367534 , -0.130982876, 0.4536875   , -0.009463192, -0.008927495, 2.634395    , 3.66        , 3           , 11          , 0.00666843774, 0.00666842656
-0.0755555  , 0.1168102   , -9.818093   , -0.00134237949, 0.0007418527, 6.373586E-05, -0.22367534 , -0.130982876, 0.4536875   , -0.009476619, -0.008920073, 2.63439584  , 3.67        , 3           , 12          , 0.05865659  , 0
-0.0577280037, 0.108333223 , -9.775053   , 0.0034585502, 0.0007743205, -0.000478950969, -0.223742753, -0.13084805 , 0.453552663 , -0.009441991, -0.008912375, 2.63439059  , 3.68        , 3           , 50          , 0           , 0
-0.05878893 , 0.09482747  , -9.780541   , 0.00261208531, 0.0007685945, 0.000929785368, -0.223877579, -0.130645812, 0.4537549   , -0.009415953, -0.008904601, 2.63439965  , 3.69        , 3           , 11          , 0.00666843774, 0.00666842656
-0.116630062, 0.0951549858, -9.810362   , -0.00219762418, -0.0006366335, 0.00147074345, -0.223405689, -0.13084805 , 0.453552663 , -0.009476802, -0.008824632, 2.634415    , 3.7         , 3           , 12          , 0.0597012453, 0
-0.105751626, 0.09816129  , -9.803034   , -0.0007859795, -0.000627086032, 0.0006297156, -0.223405689, -0.13084805 , 0.453552663 , -0.009484719, -0.008830843, 2.63442159  , 3.71        , 3           , 50          , 0           , 0
-0.08890848 , 0.10384015  , -9.806045   , 0.00175528368, -0.000328327325, 0.00205468945, -0.223810166, -0.130915463, 0.453620076 , -0.009467348, -0.008833931, 2.63444161  , 3.72        , 3           , 11          , 0.00658757659, 0.006587567
-0.08611533 , 0.07627062  , -9.802523   , 0.00372743653, 0.0005297346, 0.0009350597, -0.223810166, -0.130780637, 0.453620076 , -0.009430157, -0.008828544, 2.63445115  , 3.73        , 3           , 12          , 0.0597012453, 0
-0.0786045045, 0.103628695 , -9.779301   , -0.001624896, -0.00232220627, 0.0006231612, -0.223877579, -0.130645812, 0.453620076 , -0.009446462, -0.008851707, 2.63445783  , 3.74        , 3           , 50          , 0           , 0
-0.0915766  , 0.114177458 , -9.7847805  , -0.000225960466, 0.000221426017, -0.0004964985, -0.223877579, -0.130645812, 0.453620076 , -0.009448677, -0.008849541, 2.63445258  , 3.75        , 3           , 11          , 0.00658757659, 0.006587567
-0.08901655 , 0.0988427252, -9.795671   , 0.00118961418, -0.000332151161, 0.0006393681, -0.223877579, -0.130713224, 0.4537549   , -0.009436837, -0.008852801, 2.63445878  , 3.76        , 3           , 12          , 0.0597012453, 0
-0.07867766 , 0.092857    , -9.796069   , 0.00146811106, 0.0002328835, -0.00133620924, -0.223742753, -0.130713224, 0.4536875   , -0.009422039, -0.008850599, 2.63444543  , 3.77        , 3           , 50          , 0           , 0
-0.08891066 , 0.10339202  , -9.806951   , 0.00176258024, -0.00173615117, 0.00261759455, -0.223810166, -0.1311177  , 0.4536875   , -0.009404645, -0.008867713, 2.63447213  , 3.78        , 3           , 11          , 0.00658757659, 0.006587567
-0.09714332 , 0.100296386 , -9.797083   , -0.00078319147, -0.00119021628, 0.000628847745, -0.223810166, -0.1311177  , 0.4536875   , -0.009412535, -0.008879555, 2.63447881  , 3.79        , 3           , 12          , 0.0597012453, 0
-0.0903155655, 0.106048368 , -9.787064   , 0.0005937101, 0.00050371344, 7.3131916E-05, -0.22367534 , -0.13084805 , 0.453417838 , -0.009473692, -0.008887179, 2.63447976  , 3.8         , 3           , 50          , 0           , 0
-0.09588009 , 0.0926154   , -9.798462   , 0.001426561 , 0.00332509167, -0.0007661901, -0.2240124  , -0.130645812, 0.453552663 , -0.009459356, -0.008854002, 2.63447165  , 3.81        , 3           , 11          , 0.006508387 , 0.00650837924
-0.07548942 , 0.09551308  , -9.79196548 , 0.00566296326, 0.00335374149, -0.0007464361, -0.223742753, -0.130713224, 0.4536875   , -0.009402657, -0.008820537, 2.634464    , 3.82        , 3           , 12          , 0.06075226  , 0
-0.07721551 , 0.09962041  , -9.799646   , 0.00144254765, 0.000227879034, 0.000359186262, -0.223742753, -0.130713224, 0.4536875   , -0.009388264, -0.008818223, 2.63446736  , 3.83        , 3           , 50          , 0           , 0
-0.09250225 , 0.109708332 , -9.794296   , -0.00137040531, -0.00204374036, 0.000625083 , -0.223607928, -0.130780637, 0.45348525  , -0.009402025, -0.008838601, 2.634474    , 3.84        , 3           , 11          , 0.006508387 , 0.00650837924
-0.09946134 , 0.100279123 , -9.783994   , 0.0008817128, -0.000620636856, 7.271311E-05, -0.2240124  , -0.130645812, 0.4536875   , -0.009393214, -0.0088448  , 2.634475    , 3.85        , 3           , 12          , 0.06075226  , 0
-0.0888335854, 0.07674762  , -9.800734   , -0.00279467041, 0.000199225542, -0.001073255, -0.223877579, -0.130915463, 0.4537549   , -0.009421066, -0.00884291 , 2.634464    , 3.86        , 3           , 50          , 0           , 0
-0.1004266  , 0.0926534459, -9.793976   , 0.00172611652, 0.000229794488, 0.00233826577, -0.223877579, -0.130915463, 0.4537549   , -0.009404013, -0.00884039048, 2.63448739  , 3.87        , 3           , 11          , 0.006508387 , 0.00650837924
-0.104472175, 0.09986678  , -9.778158   , 0.00202429248, -0.00314708124, 0.0006391505, -0.223540515, -0.13084805 , 0.45348525  , -0.009383828, -0.0088718  , 2.634494    , 3.88        , 3           , 12          , 0.06075226  , 0
-0.0814218149, 0.09108126  , -9.795194   , -0.000247178657, -0.0006282728, 0.00148013292, -0.223810166, -0.130713224, 0.453620076 , -0.009386432, -0.008877943, 2.63450933  , 3.89        , 3           , 50          , 0           , 0
-0.108979061, 0.095473446 , -9.79764652 , -0.000827871962, -0.0006478035, -0.00106530276, -0.223742753, -0.130645812, 0.453620076 , -0.00943194 , -0.008925306, 2.63449931  , 3.9         , 3           , 11          , 0.006430963 , 0.00643094676
-0.10532482 , 0.0932250544, -9.812542   , -0.00223517139, -0.00150204566, 5.69605727E-05, -0.223742753, -0.130645812, 0.453620076 , -0.009454297, -0.00894032 , 2.63449979  , 3.91        , 3           , 12          , 0.0618090779, 0
-0.105747096, 0.0941477939, -9.817061   , -0.000552415033, 0.000761931762, -0.00106181612, -0.223607928, -0.130915463, 0.453417838 , -0.009459726, -0.008932803, 2.6344893   , 3.92        , 3           , 50          , 0           , 0
-0.0877096653, 0.09476792  , -9.79613    , -0.0013948608, -8.849022E-05, 6.30810537E-05, -0.223877579, -0.13084805 , 0.453620076 , -0.00947368 , -0.00893368 , 2.63449025  , 3.93        , 3           , 11          , 0.006430963 , 0.00643094676
-0.0882398039, 0.08846165  , -9.797516   , -0.0008308231, -8.467418E-05, -0.00134697231, -0.22367534 , -0.130713224, 0.453620076 , -0.009481867, -0.008934654, 2.63447642  , 3.94        , 3           , 12          , 0.0618090779, 0
-0.07584969 , 0.0996105149, -9.801444   , -0.00125392957, -0.000228322373, -0.00163170206, -0.223540515, -0.130645812, 0.45348525  , -0.009494261, -0.0089370925, 2.63446021  , 3.95        , 3           , 50          , 0           , 0
-0.08816674 , 0.09655515  , -9.789346   , -0.00223611319, -0.001361264, -0.000366628548, -0.223540515, -0.130645812, 0.45348525  , -0.00951659 , -0.008950738, 2.63445687  , 3.96        , 3           , 11          , 0.006430963 , 0.00643094676
-0.09350988 , 0.107850857 , -9.775329   , -0.0005533568, 0.0009027131, -0.00148540549, -0.223810166, -0.130510986, 0.453417838 , -0.009521989, -0.008941853, 2.63444161  , 3.97        , 3           , 12          , 0.0618090779, 0
-0.07550676 , 0.09728444  , -9.782015   , 0.000162631462, -0.00106346677, -0.00120261323, -0.223810166, -0.1305784  , 0.453417838 , -0.009520257, -0.008952602, 2.63442969  , 3.98        , 3           , 50          , 0           , 0
-0.08100741 , 0.08702769  , -9.798822   , -0.000401406462, -0.00106728263, 0.000207440418, -0.223742753, -0.130915463, 0.4532156   , -0.00952429 , -0.008963254, 2.634432    , 3.99        , 3           , 11          , 0.006430963 , 0.00643094676
-0.08281636 , 0.08749708  , -9.797931   , 0.000852333731, 0.0006310545, -0.000631565752, -0.223742753, -0.130915463, 0.4532156   , -0.009537917, -0.008956065, 2.6344254   , 4           , 3           , 12          , 0.06287118  , 0
-0.0828083456, 0.08571817  , -9.805622   , 0.0005715457, 0.000347580644, -0.000209510472, -0.223742753, -0.1311177  , 0.453417838 , -0.00953218248, -0.008952607, 2.63442349  , 4.01        , 3           , 50          , 0           , 0
-0.08502555 , 0.09604865  , -9.783901   , -0.000274014455, 6.02871769E-05, 0.000351179682, -0.223810166, -0.13084805 , 0.453552663 , -0.009534954, -0.008951971, 2.63442731  , 4.02        , 3           , 11          , 0.00635571871, 0.00635569729
-0.078722775, 0.0923741   , -9.786579   , -0.000269914, -0.0007844085, 0.000208609126, -0.223810166, -0.13084805 , 0.453417838 , -0.009537673, -0.008959795, 2.63442922  , 4.03        , 3           , 12          , 0.06287118  , 0
-0.08632693 , 0.0898618847, -9.817835   , -0.000131080771, -0.000220321352, 0.0009164793, -0.223810166, -0.13084805 , 0.453417838 , -0.009539064, -0.008961911, 2.63443875  , 4.04        , 3           , 50          , 0           , 0
-0.10261865 , 0.09407732  , -9.807095   , -0.00068880117, -0.00163196609, 0.00119421317, -0.223742753, -0.130645812, 0.453620076 , -0.009546062, -0.008978116, 2.63445067  , 4.05        , 3           , 11          , 0.00635571871, 0.00635569729
-0.08125708 , 0.07968378  , -9.761341   , 0.00044304147, -0.00218745926, 6.846312E-05, -0.223810166, -0.130443573, 0.453552663 , -0.009541638, -0.008999983, 2.63445115  , 4.06        , 3           , 12          , 0.06287118  , 0
-0.07850623 , 0.07789415  , -9.775339   , 0.00057712174, -0.000778679736, -0.000211246253, -0.223742753, -0.130645812, 0.453350425 , -0.009535849, -0.00900779 , 2.63444924  , 4.07        , 3           , 50          , 0           , 0
-0.108808227, 0.107216991 , -9.801663   , 0.000152947541, -0.00064076134, 6.953284E-05, -0.223742753, -0.130645812, 0.453350425 , -0.009534325, -0.009014192, 2.6344502   , 4.08        , 3           , 11          , 0.00635571871, 0.00635569729
-0.101897076, 0.07963438  , -9.808504   , 0.001425507 , -0.0009137304, 0.00049883133, -0.223607928, -0.130780637, 0.453350425 , -0.009520116, -0.009023279, 2.634455    , 4.09        , 3           , 12          , 0.06287118  , 0
-0.112151407, 0.09416929  , -9.801291   , 0.000310873642, -0.00149426109, 0.00119887106, -0.2240124  , -0.130645812, 0.453350425 , -0.009484605, -0.009064823, 2.63446736  , 4.1         , 3           , 50          , 0           , 0
-0.08227506 , 0.101400346 , -9.774817   , -0.00167217967, -0.000381372869, 0.000343775871, -0.223742753, -0.131050289, 0.453417838 , -0.009501358, -0.009068605, 2.6344707   , 4.11        , 3           , 11          , 0.006282447 , 0.00628243247
-0.07235089 , 0.09902159  , -9.7729435  , 0.000864456466, 0.0006212929, -0.000207928, -0.223742753, -0.131050289, 0.453417838 , -0.009492693, -0.009062412, 2.63446832  , 4.12        , 3           , 12          , 0.06393806  , 0
-0.08789138 , 0.0834619254, -9.788043   , 0.00313170138, -0.0009120344, 8.275822E-05, -0.2234731  , -0.130915463, 0.453350425 , -0.009461384, -0.009071525, 2.63446927  , 4.13        , 3           , 50          , 0           , 0
-0.113914348, 0.09378325  , -9.814413   , 0.00101411541, -0.00106714212, -6.860437E-05, -0.223742753, -0.130645812, 0.45348525  , -0.00945123751, -0.009082201, 2.63446927  , 4.14        , 3           , 11          , 0.006282447 , 0.00628243247
-0.09710768 , 0.105681494 , -9.788472   , -0.0006862662, 4.765716E-05, -0.0004985763, -0.223877579, -0.13084805 , 0.45348525  , -0.009458055, -0.009081772, 2.634464    , 4.15        , 3           , 12          , 0.06393806  , 0
-0.0961174145, 0.116898224 , -9.773051   , -0.00195768359, 0.0003206317, 0.00104988739, -0.223877579, -0.13084805 , 0.45348525  , -0.009477726, -0.009078467, 2.63447452  , 4.16        , 3           , 50          , 0           , 0
-0.0903703049, 0.09752335  , -9.801111   , -0.000404625229, 0.000471921 , 0.00176369131, -0.22367534 , -0.130780637, 0.453283    , -0.009481932, -0.00907358 , 2.63449216  , 4.17        , 3           , 11          , 0.006282447 , 0.00628243247
-0.0815958157, 0.0775497556, -9.796155   , 0.000584409747, 5.62508831E-05, -0.000916456338, -0.223944992, -0.130443573, 0.4536875   , -0.009476005, -0.009073105, 2.63448262  , 4.18        , 3           , 12          , 0.06393806  , 0
-0.08811703 , 0.10329067  , -9.779826   , 0.0005840834, 5.62493369E-05, -0.0014815313, -0.223810166, -0.1305784  , 0.4536875   , -0.009470031, -0.009072683, 2.63446832  , 4.19        , 3           , 50          , 0           , 0
-0.0980842561, 0.102956481 , -9.779904   , 0.001279042 , 0.0003352395, 7.62509E-05 , -0.223810166, -0.1305784  , 0.4536875   , -0.009487033, -0.009089966, 2.63446927  , 4.2         , 3           , 11          , 0.006211314 , 0.006211293
-0.09311216 , 0.09887392  , -9.79073    , 0.00156425708, -0.00022598065, 7.66999656E-05, -0.22367534 , -0.130713224, 0.453283    , -0.009471398, -0.00909222 , 2.63447022  , 4.21        , 3           , 12          , 0.06500927  , 0
-0.08742246 , 0.08257699  , -9.794822   , 0.0001548293, -0.000798661, -7.20213357E-05, -0.22367534 , -0.13037616 , 0.45348525  , -0.00946984347, -0.009100215, 2.63446927  , 4.22        , 3           , 50          , 0           , 0
-0.09136422 , 0.0965696946, -9.782591   , 0.0011398379, -8.806346E-05, -6.632724E-05, -0.2240124  , -0.130645812, 0.45348525  , -0.00945843849, -0.0091011  , 2.63446927  , 4.23        , 3           , 11          , 0.006211314 , 0.006211293
-0.0930958241, 0.103350669 , -9.780316   , 0.00296741142, 0.00161374267, 0.000227373937, -0.2240124  , -0.130645812, 0.45348525  , -0.009428784, -0.009084942, 2.63447118  , 4.24        , 3           , 12          , 0.06500927  , 0
-0.109265693, 0.08095798  , -9.774204   , 0.0008513014, 0.0011770702, 0.000216846 , -0.2240124  , -0.130645812, 0.453350425 , -0.009420291, -0.009073151, 2.634473    , 4.25        , 3           , 50          , 0           , 0
-0.0759568959, 0.09327474  , -9.795595   , -0.000414206443, 4.221425E-05, -7.335339E-05, -0.22367534 , -0.1305784  , 0.45348525  , -0.009424426, -0.009072736, 2.63447213  , 4.26        , 3           , 11          , 0.006211314 , 0.006211293
-0.0624843724, 0.0840983   , -9.797338   , -0.0009796756, 0.000179177252, 6.549847E-05, -0.223810166, -0.1305784  , 0.453620076 , -0.009434229, -0.009070938, 2.634473    , 4.27        , 3           , 12          , 0.06500927  , 0
-0.0847161859, 0.08610743  , -9.780775   , -0.00154501875, 0.000175354988, -0.000784747768, -0.223810166, -0.1305784  , 0.453620076 , -0.009449608, -0.009069257, 2.63446546  , 4.28        , 3           , 50          , 0           , 0
-0.0971731842, 0.1002722   , -9.789852   , 0.001137873 , 0.000193498912, -0.00105477439, -0.223607928, -0.130915463, 0.453283    , -0.009438136, -0.009067422, 2.634455    , 4.29        , 3           , 11          , 0.006211314 , 0.006211293
-0.103562959, 0.08959306  , -9.812093   , 0.00212398428, 0.000483174517, -0.000484649761, -0.223810166, -0.130915463, 0.45348525  , -0.009420634, -0.009058541, 2.63444972  , 4.3         , 3           , 12          , 0.06608438  , 0
-0.0784213841, 0.07662384  , -9.800202   , 0.00170468923, -0.000364384818, -0.000205389515, -0.223810166, -0.130780637, 0.45348525  , -0.00940357 , -0.009062204, 2.63444734  , 4.31        , 3           , 50          , 0           , 0
-0.09484461 , 0.0994052961, -9.808369   , 0.00241206866, -0.0006411754, -0.000343799824, -0.223810166, -0.130780637, 0.45348525  , -0.009379419, -0.00906864647, 2.63444448  , 4.32        , 3           , 11          , 0.00614216272, 0.006142141
-0.109385006, 0.100872926 , -9.791751   , 0.00212336914, 0.0006239575, -0.000343164051, -0.2234731  , -0.130713224, 0.4532156   , -0.009358152, -0.00906244 , 2.63444066  , 4.33        , 3           , 12          , 0.06608438  , 0
-0.08054852 , 0.09282988  , -9.78162    , 0.00212152279, 0.00104630634, 8.129292E-05, -0.223810166, -0.130308747, 0.453552663 , -0.009336943, -0.00905197 , 2.63444161  , 4.34        , 3           , 50          , 0           , 0
-0.0611570776, 0.0849498957, -9.786928   , 0.000573135738, 5.03240481E-05, 0.000213799634, -0.223810166, -0.130645812, 0.45348525  , -0.009331231, -0.009051447, 2.63444352  , 4.35        , 3           , 11          , 0.00614216272, 0.006142141
-0.08371536 , 0.08885209  , -9.79522    , 0.00085826905, -0.0005108965, 7.29799649E-05, -0.223742753, -0.130780637, 0.453350425 , -0.009322655, -0.009056549, 2.63444448  , 4.36        , 3           , 12          , 0.06608438  , 0
-0.103192255, 0.08952123  , -9.792203   , -0.000268857635, -0.0009408817, 0.0009146737, -0.223742753, -0.130780637, 0.453350425 , -0.009325428, -0.009065871, 2.63445354  , 4.37        , 3           , 50          , 0           , 0
-0.102609351, 0.1016728   , -9.784917   , -0.00169169169, 0.00116130535, 0.00048753756, -0.223810166, -0.130780637, 0.45348525  , -0.009342386, -0.009054214, 2.6344583   , 4.38        , 3           , 11          , 0.00614216272, 0.006142141
-0.0811875463, 0.110464141 , -9.79014    , -0.000853264646, 0.00285642361, -0.0003535205, -0.223944992, -0.13084805 , 0.453552663 , -0.009350885, -0.009025685, 2.63445449  , 4.39        , 3           , 12          , 0.06608438  , 0
-0.08860746 , 0.09523121  , -9.796587   , -0.000287527742, 0.000323518761, -0.000495948945, -0.223944992, -0.131050289, 0.4532156   , -0.009387859, -0.009030274, 2.6344502   , 4.4         , 3           , 50          , 0           , 0
-0.0861896351, 0.0766567662, -9.783087   , 0.00155357784, -0.0007903279, -0.0009129307, -0.223944992, -0.131050289, 0.4532156   , -0.009372241, -0.009038262, 2.63444114  , 4.41        , 3           , 11          , 0.00607495941, 0.00607493659
-0.08433083 , 0.1132007   , -9.787892   , 0.0015550534, -0.00107189245, -0.0007720959, -0.223810166, -0.130443573, 0.45348525  , -0.009356622, -0.009049053, 2.63443351  , 4.42        , 3           , 12          , 0.06716297  , 0
-0.07651898 , 0.0891743451, -9.782056   , 0.00226275926, -0.0013486814, -0.000345431385, -0.223810166, -0.131185114, 0.453620076 , -0.009333963, -0.009062573, 2.63443017  , 4.43        , 3           , 50          , 0           , 0
-0.0674804  , 0.08860781  , -9.779278   , 0.00309503172, 0.001754266 , 0.000228367528, -0.22367534 , -0.130713224, 0.453283    , -0.00930303149, -0.009045008, 2.634432    , 4.44        , 3           , 11          , 0.00607495941, 0.00607493659
-0.07990489 , 0.0987817645, -9.809161   , 0.0006930099, 0.00201959629, 0.000217607521, -0.22367534 , -0.130713224, 0.453283    , -0.009296118, -0.009024794, 2.634434    , 4.45        , 3           , 12          , 0.06716297  , 0
-0.07241894 , 0.117639028 , -9.807219   , -0.000425382139, -0.000240563575, 0.000491405837, -0.22367534 , -0.130510986, 0.453417838 , -0.009300417, -0.009027153, 2.63443875  , 4.46        , 3           , 50          , 0           , 0
-0.0998963863, 0.101637892 , -9.783991   , -0.000419398246, -0.00136682193, 0.00119601388, -0.223742753, -0.1305784  , 0.45348525  , -0.009304721, -0.00904071 , 2.63445115  , 4.47        , 3           , 11          , 0.00607495941, 0.00607493659
-0.110594735, 0.08278307  , -9.775564   , 0.00113526173, -0.00163788244, 0.0010615543, -0.223742753, -0.13084805 , 0.4532156   , -0.009293466, -0.009056988, 2.634462    , 4.48        , 3           , 12          , 0.06716297  , 0
-0.08567095 , 0.110106967 , -9.80238    , 0.000846851 , -0.0005135342, 0.000355629367, -0.223742753, -0.13084805 , 0.4532156   , -0.009285029, -0.009062091, 2.63446546  , 4.49        , 3           , 50          , 0           , 0
-0.07756724 , 0.107741915 , -9.798258   , -0.00128841656, -0.00151076331, -0.0005031552, -0.22367534 , -0.130713224, 0.45348525  , -0.009362643, -0.009069474, 2.63446116  , 4.5         , 3           , 11          , 0.006009864 , 0.006009839
-0.105288357, 0.06967218  , -9.786425   , -0.000441262178, -0.00136424822, 0.0004898938, -0.223810166, -0.130780637, 0.4536875   , -0.009367102, -0.009083069, 2.63446641  , 4.51        , 3           , 12          , 0.06824466  , 0
-0.09283646 , 0.0862273   , -9.78807    , 0.00096603  , -0.000228434539, 0.0017696328, -0.223810166, -0.130982876, 0.453283    , -0.009357602, -0.009085188, 2.634484    , 4.52        , 3           , 50          , 0           , 0
-0.104409531, 0.103934705 , -9.780401   , 0.00167045835, 5.79043E-05 , 0.00134955288, -0.223810166, -0.130982876, 0.453283    , -0.009341021, -0.009084482, 2.6344974   , 4.53        , 3           , 11          , 0.006009864 , 0.006009839
-0.104564562, 0.09086493  , -9.784524   , 0.00195288542, 5.981426E-05, 0.00135086977, -0.223810166, -0.130510986, 0.45348525  , -0.009321615, -0.009083758, 2.63451123  , 4.54        , 3           , 12          , 0.06824466  , 0
-0.09541592 , 0.09797552  , -9.783973   , 0.00124546874, 0.00019581872, 0.000217644541, -0.223742753, -0.130645812, 0.453552663 , -0.009309179, -0.009081783, 2.63451314  , 4.55        , 3           , 50          , 0           , 0
-0.09230699 , 0.09164034  , -9.789398   , 0.00138586608, 0.00019676979, -0.00119438441, -0.223742753, -0.1305784  , 0.45348525  , -0.009295213, -0.009079925, 2.63450122  , 4.56        , 3           , 11          , 0.006009864 , 0.006009839
-0.09289746 , 0.07680453  , -9.803476   , 0.002654859 , 0.000627713045, -0.000905269757, -0.223742753, -0.1305784  , 0.45348525  , -0.009268583, -0.009073732, 2.63449216  , 4.57        , 3           , 12          , 0.06824466  , 0
-0.0857398659, 0.105141282 , -9.801496   , 0.00377730723, 0.00218396285, -0.000191271771, -0.22367534 , -0.130713224, 0.453417838 , -0.009230789, -0.009051912, 2.63449025  , 4.58        , 3           , 50          , 0           , 0
-0.08903565 , 0.09570279  , -9.801108   , 0.003069846 , 0.00246075331, -0.000194130189, -0.223944992, -0.130780637, 0.453417838 , -0.009200072, -0.009027324, 2.63448739  , 4.59        , 3           , 11          , 0.006009864 , 0.006009839
-0.0964313447, 0.0956653953, -9.764555   , 0.00165808632, 4.815174E-05, -0.0007694009, -0.223877579, -0.1305784  , 0.453350425 , -0.009217867, -0.00905702449, 2.63448071  , 4.6         , 3           , 12          , 0.0693291   , 0
-0.106774293, 0.10120146  , -9.76461    , 0.000531493453, -0.0005226168, -0.000210461541, -0.223877579, -0.1305784  , 0.453350425 , -0.009212532, -0.00906227 , 2.63447881  , 4.61        , 3           , 50          , 0           , 0
-0.09006195 , 0.0938302   , -9.77762    , -0.0003211184, 0.000597914855, 0.000211129634, -0.223810166, -0.130915463, 0.453552663 , -0.009215763, -0.009056272, 2.63448071  , 4.62        , 3           , 11          , 0.00594615052, 0.005946117
-0.109038956, 0.0900687   , -9.800381   , -0.000461264077, 0.0003153933, -0.0003550377, -0.223877579, -0.130713224, 0.453620076 , -0.009220343, -0.009053151, 2.634477    , 4.63        , 3           , 12          , 0.0693291   , 0
-0.08809194 , 0.109559938 , -9.765788   , 0.00108905078, 0.0008890271, -0.000770732935, -0.223810166, -0.130713224, 0.453283    , -0.009209382, -0.0090443315, 2.63446927  , 4.64        , 3           , 50          , 0           , 0
-0.06871135 , 0.09452954  , -9.791466   , 0.002920235 , 0.0017461353, -0.0014672149, -0.223810166, -0.130713224, 0.453283    , -0.009180048, -0.009027006, 2.63445449  , 4.65        , 3           , 11          , 0.00594615052, 0.005946117
-0.08513725 , 0.08613844  , -9.788464   , 0.001658168 , 4.81522875E-05, -0.0006281323, -0.22367534 , -0.130713224, 0.453417838 , -0.00916340947, -0.009026582, 2.63444829  , 4.66        , 3           , 12          , 0.0693291   , 0
-0.0875398144, 0.105171621 , -9.804221   , 0.000817776 , -0.00136540353, -0.00077552133, -0.223877579, -0.130645812, 0.453417838 , -0.00915516 , -0.009040306, 2.63444066  , 4.67        , 3           , 50          , 0           , 0
-0.09748485 , 0.107087106 , -9.802482   , 0.00138082774, -0.00108002056, -0.00147879717, -0.223607928, -0.130780637, 0.45348525  , -0.009141221, -0.009051242, 2.63442588  , 4.68        , 3           , 11          , 0.00594615052, 0.005946117
-0.0816915855, 0.10417904  , -9.797853   , 0.000395692856, -0.00164983294, -0.0004953931, -0.223607928, -0.130780637, 0.45348525  , -0.009137219, -0.009067783, 2.634421    , 4.69        , 3           , 12          , 0.0693291   , 0
-0.0887753  , 0.0799192861, -9.804788   , 0.000223437019, -0.0003854483, 0.000353753625, -0.223742753, -0.130780637, 0.453350425 , -0.009214854, -0.009077003, 2.6344254   , 4.7         , 3           , 50          , 0           , 0
-0.08854094 , 0.094392404 , -9.815573   , -0.001473215, 2.543943E-05, 0.0003465029, -0.224079818, -0.130713224, 0.453620076 , -0.009229618, -0.009076717, 2.63442922  , 4.71        , 3           , 11          , 0.005884807 , 0.00588476751
-0.0937236  , 0.08848463  , -9.785355   , -0.002454902, -0.00138907169, 5.718648E-05, -0.223607928, -0.130780637, 0.453417838 , -0.009254173, -0.009090601, 2.63442969  , 4.72        , 3           , 12          , 0.07041596  , 0
-0.09946179 , 0.09715433  , -9.793951   , -0.000194871842, -0.00151457486, -7.376375E-05, -0.223607928, -0.130780637, 0.453417838 , -0.009256116, -0.009105752, 2.63442922  , 4.73        , 3           , 50          , 0           , 0
-0.0907886252, 0.09621754  , -9.813775   , -0.000335469755, -0.00165631273, -0.00021590793, -0.223810166, -0.131050289, 0.453417838 , -0.009259452, -0.009122335, 2.63442731  , 4.74        , 3           , 11          , 0.005884807 , 0.00588476751
-0.121321976, 0.08257742  , -9.810902   , -5.8700607E-05, -0.0005281428, -0.000354124, -0.223810166, -0.130645812, 0.453552663 , -0.009260007, -0.00912765 , 2.63442349  , 4.75        , 3           , 12          , 0.07041596  , 0
-0.11091803 , 0.0864641145, -9.795438   , 0.00234209048, -0.0005119073, -6.039254E-05, -0.223944992, -0.130510986, 0.45348525  , -0.00923658 , -0.009132775, 2.63442254  , 4.76        , 3           , 50          , 0           , 0
-0.09235822 , 0.0853499249, -9.797109   , 0.0009293408, -0.000380674144, 7.450849E-05, -0.223944992, -0.130510986, 0.45348525  , -0.009227295, -0.009136573, 2.63442349  , 4.77        , 3           , 11          , 0.005884807 , 0.00588476751
-0.09896291 , 0.0989717543, -9.799362   , -0.00105174724, 0.000450651627, 0.00020786043, -0.223742753, -0.130780637, 0.453417838 , -0.009237831, -0.009132048, 2.6344254   , 4.78        , 3           , 12          , 0.07041596  , 0
-0.07562372 , 0.0878163   , -9.783863   , -0.0002049562, 0.000456379232, -0.0006358012, -0.223742753, -0.130713224, 0.45348525  , -0.009239823, -0.009127543, 2.6344192   , 4.79        , 3           , 50          , 0           , 0
-0.07844479 , 0.08285379  , -9.774413   , -0.00133827946, 0.0005774744, -0.000923391432, -0.2240124  , -0.13084805 , 0.453620076 , -0.009262024, -0.009160784, 2.63441062  , 4.8         , 3           , 11          , 0.0058245426, 0.005824498
-0.07989788 , 0.103250943 , -9.796487   , -0.00246036425, -0.0008379878, 0.0001993209, -0.22367534 , -0.130713224, 0.4532156   , -0.009286647, -0.00916914549, 2.634413    , 4.81        , 3           , 12          , 0.07150491  , 0
-0.08195761 , 0.117279828 , -9.801416   , -0.00118218421, -0.00237800274, -0.00050348317, -0.22367534 , -0.130713224, 0.4532156   , -0.009298423, -0.00919297151, 2.63440776  , 4.82        , 3           , 50          , 0           , 0
-0.06166944 , 0.07999706  , -9.788308   , 8.959653E-05, -0.00251018931, -0.000215236432, -0.223810166, -0.130780637, 0.453620076 , -0.009297511, -0.009218092, 2.63440585  , 4.83        , 3           , 11          , 0.0058245426, 0.005824498
-0.08117456 , 0.0828751   , -9.77127    , 0.00106533687, 0.0001713659, 0.0006411076, -0.2240124  , -0.130780637, 0.453620076 , -0.009286916, -0.009216319, 2.634412    , 4.84        , 3           , 12          , 0.07150491  , 0
-0.09760282 , 0.103867076 , -9.783964   , 0.00233363267, 0.000743091747, 0.0009304392, -0.223877579, -0.130915463, 0.453417838 , -0.009263664, -0.009208803, 2.63442159  , 4.85        , 3           , 50          , 0           , 0
-0.09481702 , 0.07138173  , -9.794474   , 0.00177693553, -0.000809333869, 0.0017730312, -0.223877579, -0.130915463, 0.453417838 , -0.009246059, -0.00921673 , 2.63443971  , 4.86        , 3           , 11          , 0.0058245426, 0.005824498
-0.0791912451, 0.08879591  , -9.794282   , 0.00233535282, 0.0004615281, 0.0014950803, -0.224079818, -0.130915463, 0.453620076 , -0.009222844, -0.009211977, 2.634454    , 4.87        , 3           , 12          , 0.07150491  , 0
-0.09243488 , 0.115119129 , -9.79337    , 0.00331585365, 0.00201681955, 0.0009370012, -0.2240124  , -0.130780637, 0.453417838 , -0.00918977 , -0.009191724, 2.63446355  , 4.88        , 3           , 50          , 0           , 0
-0.0922694653, 0.09702693  , -9.78124    , 0.000774219632, 0.001858845 , 7.731942E-05, -0.223810166, -0.130713224, 0.453417838 , -0.009182032, -0.009173129, 2.634464    , 4.89        , 3           , 11          , 0.0058245426, 0.005824498
-0.08060214 , 0.0807349756, -9.807433   , 0.0009079341, 0.00101964572, -0.000912049843, -0.223810166, -0.130713224, 0.453417838 , -0.009209569, -0.009148009, 2.634455    , 4.9         , 3           , 12          , 0.07259568  , 0
-0.081105195, 0.08337766  , -9.786635   , 0.002325889 , -9.706351E-05, -0.000483394717, -0.223877579, -0.130713224, 0.453552663 , -0.009186266, -0.009149025, 2.6344502   , 4.91        , 3           , 50          , 0           , 0
-0.0758836  , 0.09913668  , -9.794665   , -0.00120071683, -0.0008248496, -7.713511E-05, -0.224079818, -0.13084805 , 0.4536875   , -0.009198265, -0.009157279, 2.63444972  , 4.92        , 3           , 11          , 0.00576573936, 0.00576569745
-0.09298627 , 0.09763688  , -9.825537   , -0.00331744249, -0.00112073915, 5.38225577E-05, -0.223742753, -0.130780637, 0.45348525  , -0.009231446, -0.00916848052, 2.6344502   , 4.93        , 3           , 12          , 0.07259568  , 0
-0.09599441 , 0.07913227  , -9.813886   , -0.00148244656, -0.000967542233, -7.866903E-05, -0.223742753, -0.130780637, 0.45348525  , -0.009246265, -0.009178165, 2.63444924  , 4.94        , 3           , 50          , 0           , 0
-0.0781950355, 0.09287587  , -9.803297   , 0.000210638769, -0.000674517651, -0.0002116021, -0.223877579, -0.13084805 , 0.453552663 , -0.009244139, -0.009184929, 2.63444734  , 4.95        , 3           , 11          , 0.00576573936, 0.00576569745
-0.08580648 , 0.103301905 , -9.791108   , 0.000355255645, -0.00137747568, -0.000353297219, -0.223877579, -0.1305784  , 0.453620076 , -0.009240557, -0.009198735, 2.63444448  , 4.96        , 3           , 12          , 0.07259568  , 0
-0.112277456, 0.0824620351, -9.808121   , 0.000211254228, -0.000815300562, -0.000353087817, -0.2240124  , -0.13084805 , 0.453620076 , -0.009238413, -0.009206923, 2.63444066  , 4.97        , 3           , 50          , 0           , 0
-0.100339465, 0.09450945  , -9.809336   , 0.000197358575, 0.00185956457, -0.00147911545, -0.2240124  , -0.13084805 , 0.453620076 , -0.0092363  , -0.009188463, 2.6344254   , 4.98        , 3           , 11          , 0.00576573936, 0.00576569745
-0.08965411 , 0.0808443055, -9.808406   , 5.442488E-05, 0.002140173 , -0.002044415, -0.2240124  , -0.131050289, 0.45348525  , -0.009235567, -0.00916725 , 2.63440537  , 4.99        , 3           , 12          , 0.07259568  , 0
-0.09286435 , 0.0888828039, -9.772691   , 0.000632659649, -0.000252708152, -0.0009153508, -0.224079818, -0.13084805 , 0.4537549   , -0.009226185, -0.009181338, 2.63439584  , 5           , 3           , 50          , 0           , 0
-0.083936736, 0.106898919 , -9.793792   , -0.0009185597, -0.000544774462, 0.000348390662, -0.223742753, -0.130982876, 0.45348525  , -0.009235404, -0.009186753, 2.63439965  , 5.01        , 3           , 11          , 0.005708717 , 0.00570867257
-0.108820729, 0.105421454 , -9.804382   , -0.0019200074, 0.00198262441, -0.00035865698, -0.223742753, -0.130982876, 0.45348525  , -0.009254569, -0.009166961, 2.63439584  , 5.02        , 3           , 12          , 0.07368797  , 0
-0.113543816, 0.09862115  , -9.778685   , 0.000194627137, 0.00270086154, -0.0004889639, -0.224079818, -0.130645812, 0.45348525  , -0.009252575, -0.009139997, 2.63439059  , 5.03        , 3           , 50          , 0           , 0
-0.111065656, 0.105909765 , -9.807561   , 0.0007693204, 0.0007337262, -0.000348098838, -0.223944992, -0.1305784  , 0.4536875   , -0.009244849, -0.009132692, 2.63438725  , 5.04        , 3           , 11          , 0.005708717 , 0.00570867257
-0.0971370339, 0.09360622  , -9.820162   , 0.0004926326, -0.0003944433, -6.861392E-05, -0.223877579, -0.130645812, 0.453552663 , -0.009239919, -0.009136642, 2.6343863   , 5.05        , 3           , 12          , 0.07368797  , 0
-0.078291364, 0.0861025453, -9.80151749 , 0.0007676372, 0.001156076 , 0.000358895952, -0.223877579, -0.130645812, 0.453552663 , -0.009232273, -0.009125049, 2.63439     , 5.06        , 3           , 50          , 0           , 0
-0.0754908547, 0.0986363739, -9.781557   , 0.00232746545, -0.000241246933, -0.000483642973, -0.223810166, -0.13084805 , 0.453620076 , -0.009208953, -0.009127506, 2.63438487  , 5.07        , 3           , 11          , 0.005708717 , 0.00570867257
-0.07252765 , 0.0868269056, -9.768927   , 0.00332108326, -0.00122003874, -5.67463649E-05, -0.2240124  , -0.130915463, 0.4536875   , -0.009175738, -0.009139712, 2.63438439  , 5.08        , 3           , 12          , 0.07368797  , 0
-0.08247013 , 0.08204922  , -9.789364   , -0.00106165663, -0.000264166825, -0.0004994463, -0.223877579, -0.130645812, 0.4536875   , -0.009186311, -0.0091424  , 2.63437963  , 5.09        , 3           , 50          , 0           , 0
