Acc X       , Acc Y       , Acc Z       , Gyro X      , Gyro Y      , Gyro Z      , Magn X      , Magn Y      , Magn Z      , Euler X     , Euler Y     , Euler Z     , Time        , Status      , LowRate X   , LowRate Y   , LowRate Z    
-0.0997659341, 0.07146591  , -9.802195   , -0.00104324392, 0.000106982319, 0.000309636031, -0.1788459  , -0.163408384, 0.438519627 , -0.00727623561, -0.0116827143, 2.42509961  , 0           , 3           , 11          , 0.0346410163, 0.0346410163
-0.102560773, 0.06920275  , -9.790474   , 0.000216569242, 0.00222731219, -0.0008113331, -0.178980723, -0.163340971, 0.43858704  , -0.007273974, -0.0116605  , 2.42509151  , 0.01        , 3           , 12          , 0.0346410163, 0
-0.07684966 , 0.0603399724, -9.79393    , 7.551898E-05, 0.002226358 , -0.0005294541, -0.1788459  , -0.163273558, 0.438991517 , -0.00727315666, -0.0116382753, 2.42508626  , 0.02        , 3           , 50          , 0           , 0
-0.09918676 , 0.08361447  , -9.794004   , -0.00132607855, 0.0001050702, -0.0003980246, -0.178778484, -0.1634758  , 0.438654453 , -0.007286371, -0.0116372528, 2.42508245  , 0.03        , 3           , 11          , 0.0346410163, 0.0346410163
-0.127561629, 0.0609353259, -9.794315   , 0.000515272 , -0.0010087752, -0.000391200243, -0.178980723, -0.163543209, 0.43858704  , -0.007281174, -0.01164737 , 2.42507815  , 0.04        , 3           , 12          , 0.0346410163, 0
-0.116865411, 0.07175408  , -9.828087   , 0.001785125 , -0.0007186137, 0.000180234783, -0.178980723, -0.163543209, 0.43858704  , -0.00726334471, -0.0116545418, 2.42508     , 0.05        , 3           , 50          , 0           , 0
-0.0909950063, 0.0817671   , -9.809769   , -0.000478634931, 0.000110800967, -0.000111536341, -0.179048136, -0.163206145, 0.4388567   , -0.007268118, -0.011653441, 2.425079    , 0.06        , 3           , 11          , 0.0346410163, 0.0346410163
-0.106517673, 0.07782699  , -9.791824   , -0.00104316231, 0.000106982545, 0.0004509047, -0.179115549, -0.163273558, 0.438721865 , -0.007278602, -0.0116523383, 2.4250834   , 0.07        , 3           , 12          , 0.0346410163, 0
-0.103613257, 0.0570428669, -9.793695   , 0.000795481552, -0.000443732424, 0.0005998656, -0.178711072, -0.163206145, 0.438519627 , -0.00727071753, -0.0116567314, 2.4250896   , 0.08        , 3           , 50          , 0           , 0
-0.115741469, 0.06485294  , -9.792852   , 0.00136386463, -0.001284611, -0.0005289521, -0.178711072, -0.163206145, 0.438519627 , -0.007257017, -0.0116696162, 2.42508435  , 0.09        , 3           , 11          , 0.0346410163, 0.0346410163
-0.10142763 , 0.08455242  , -9.79673    , 9.249168E-05, -0.001152422, -0.00011085497, -0.179048136, -0.163273558, 0.438654453 , -0.00725608133, -0.0116811469, 2.4250834   , 0.1         , 3           , 12          , 0.0346410163, 0
-0.101024896, 0.0849529058, -9.783165   , -0.0006213684, 0.0005321963, 0.000877337356, -0.179115549, -0.1629365  , 0.438721865 , -0.007262397, -0.0116757629, 2.425092    , 0.11        , 3           , 50          , 0           , 0
-0.11467772 , 0.08728799  , -9.759305   , 0.00121399818, 0.000544609153, 0.000179553856, -0.179048136, -0.163273558, 0.438789278 , -0.007250279, -0.0116703026, 2.425094    , 0.12        , 3           , 11          , 0.0346410163, 0.0346410163
-0.128736615, 0.074490346 , -9.795624   , 0.0007936427, -0.00030295545, -0.00137767941, -0.179048136, -0.163273558, 0.438789278 , -0.00724218274, -0.0116734318, 2.42508     , 0.13        , 3           , 12          , 0.0346410163, 0
-0.124452546, 0.0496903956, -9.815581   , -0.000756464666, -0.00101737422, -0.00180981355, -0.178980723, -0.163138732, 0.438789278 , -0.00724953739, -0.0116837369, 2.42506242  , 0.14        , 3           , 50          , 0           , 0
-0.117267027, 0.0504501946, -9.798347   , -0.0007613437, -3.1896343E-05, -0.00180829491, -0.179115549, -0.163206145, 0.438654453 , -0.00725694 , -0.0116841877, 2.4250443   , 0.15        , 3           , 11          , 0.0346410163, 0.0346410163
-0.101653114, 0.0669620559, -9.798161   , -0.00217651064, 0.0005216829, -0.002237818, -0.17891331 , -0.163543209, 0.438654453 , -0.00727844331, -0.0116791362, 2.42502141  , 0.16        , 3           , 12          , 0.0346410163, 0
-0.144356966, 0.0869119   , -9.811963   , -5.425354E-05, -0.000167902326, -0.00124014472, -0.17891331 , -0.163543209, 0.438654453 , -0.007278841, -0.0116809038, 2.425009    , 0.17        , 3           , 50          , 0           , 0
-0.113241822, 0.0734980255, -9.822628   , 0.00150507793, -0.001283656, -0.0005282935, -0.17891331 , -0.163206145, 0.43858704  , -0.00726373028, -0.0116937775, 2.42500424  , 0.18        , 3           , 11          , 0.0346410163, 0.0346410163
-0.114285238, 0.07116521  , -9.796431   , -0.001605799, -0.000459970266, -0.000541478, -0.179048136, -0.163273558, 0.4388567   , -0.00727972668, -0.0116984174, 2.42499852  , 0.19        , 3           , 12          , 0.0346410163, 0
-0.128745392, 0.07269784  , -9.799248   , -0.0017582461, 0.00179159432, -0.0006799313, -0.17891331 , -0.163138732, 0.4389241   , -0.007297229, -0.0116805714, 2.42499185  , 0.2         , 3           , 50          , 0           , 0
-0.146507367, 0.0616626553, -9.810276   , -0.000197231449, 0.000253491366, -0.0006750748, -0.17891331 , -0.163138732, 0.4389241   , -0.007299123, -0.0116780857, 2.42498517  , 0.21        , 3           , 11          , 0.0346699134, 0.0346699134
-0.10079331 , 0.0655753   , -9.791379   , 0.0006568115, -0.0010078192, 0.000174535613, -0.1788459  , -0.1630039  , 0.438789278 , -0.007292575, -0.01168815 , 2.424987    , 0.22        , 3           , 12          , 0.0346687958, 0
-0.09411633 , 0.06406349  , -9.767832   , 8.441689E-05, 0.000396183459, -0.0008148097, -0.17891331 , -0.163138732, 0.438789278 , -0.0072916355, -0.0116842473, 2.42497849  , 0.23        , 3           , 50          , 0           , 0
-0.104293019, 0.07509048  , -9.79091549 , 0.0003603632, 0.00180592132, 3.62894752E-05, -0.1788459  , -0.163340971, 0.4389241   , -0.00728803361, -0.0116661871, 2.42497849  , 0.24        , 3           , 11          , 0.0346699134, 0.0346699134
-0.112786412, 0.07706563  , -9.811763   , -0.002461362, 0.00122369011, -0.000401553843, -0.1788459  , -0.163340971, 0.4389241   , -0.0073126005, -0.0116539793, 2.42497468  , 0.25        , 3           , 12          , 0.0346687958, 0
-0.109653257, 0.0783380345, -9.798626   , -0.00372338435, -0.000615078665, -0.000692838163, -0.178711072, -0.163138732, 0.438654453 , -0.007349753, -0.0116601819, 2.424968    , 0.26        , 3           , 50          , 0           , 0
-0.109924331, 0.08964935  , -9.806717   , 0.000378974684, -0.00185442285, 0.000878260646, -0.1788459  , -0.163138732, 0.4388567   , -0.007346067, -0.0116786594, 2.42497659  , 0.27        , 3           , 11          , 0.0346699134, 0.0346699134
-0.118279539, 0.07708105  , -9.797341   , 0.001084226 , -0.0018496518, -0.0005311345, -0.17891331 , -0.163273558, 0.4389241   , -0.007335164, -0.0116971964, 2.42497182  , 0.28        , 3           , 12          , 0.0346687958, 0
-0.1231042  , 0.05636159  , -9.791588   , -0.00132131833, -0.00102119474, -0.00181244512, -0.178643659, -0.163206145, 0.43858704  , -0.007348167, -0.0117075387, 2.4249537   , 0.29        , 3           , 50          , 0           , 0
-0.1201665  , 0.07034562  , -9.800547   , -0.00117947639, -0.00116127485, -0.000964385632, -0.178643659, -0.163206145, 0.43858704  , -0.007371341, -0.0117244711, 2.42494416  , 0.3         , 3           , 11          , 0.03475341  , 0.0347534046
-0.120095216, 0.0811158   , -9.783327   , 0.00106956484, 0.0009657437, -0.0008093267, -0.1788459  , -0.163206145, 0.4388567   , -0.00736055 , -0.0117148748, 2.424936    , 0.31        , 3           , 12          , 0.0347538441, 0
-0.135055214, 0.0794911459, -9.784803   , 0.000499505841, 0.00194739993, -0.00137551676, -0.179048136, -0.163273558, 0.438789278 , -0.007355391, -0.0116955014, 2.42492223  , 0.32        , 3           , 50          , 0           , 0
-0.122014165, 0.06632012  , -9.80464649 , 0.000221216629, 0.00124158012, -0.0002477686, -0.1788459  , -0.163206145, 0.438519627 , -0.007353148, -0.0116831046, 2.42491937  , 0.33        , 3           , 11          , 0.03475341  , 0.0347534046
-0.116489589, 0.07614992  , -9.795072   , 0.001351332 , 0.001249222 , 0.000463842764, -0.1788459  , -0.163206145, 0.438519627 , -0.00733968755, -0.0116705792, 2.42492414  , 0.34        , 3           , 12          , 0.0347538441, 0
-0.117579818, 0.06083501  , -9.7992115  , 0.00220906758, -0.000856786151, 0.000464539073, -0.17891331 , -0.163206145, 0.4389241   , -0.007317652, -0.0116791157, 2.424929    , 0.35        , 3           , 50          , 0           , 0
-0.124354683, 0.06360654  , -9.794731   , 0.0020730223, -0.00198400323, -0.000244198774, -0.17891331 , -0.163071319, 0.438789278 , -0.00729689654, -0.0116989706, 2.42492652  , 0.36        , 3           , 11          , 0.03475341  , 0.0347534046
-0.122570984, 0.0617776439, -9.793821   , 0.00065801834, -0.00143042335, -0.000391184323, -0.178508833, -0.163273558, 0.438721865 , -0.007290272, -0.0117133027, 2.4249227   , 0.37        , 3           , 12          , 0.0347538441, 0
-0.105035886, 0.08594537  , -9.795847   , -0.0021619047, -0.00229421747, -0.000123117978, -0.178508833, -0.163273558, 0.438721865 , -0.00731187733, -0.0117362533, 2.42492127  , 0.38        , 3           , 50          , 0           , 0
-0.105371408, 0.060677886 , -9.795051   , -0.00201999419, -0.002434045, -0.000122676473, -0.178980723, -0.163408384, 0.438789278 , -0.007332066, -0.0117606018, 2.42492032  , 0.39        , 3           , 11          , 0.03475341  , 0.0347534046
-0.123735785, 0.074001886 , -9.801916   , -0.000257724227, 0.00010879567, 0.00052504  , -0.17891331 , -0.163138732, 0.438789278 , -0.007249366, -0.0117887482, 2.424925    , 0.4         , 3           , 12          , 0.0348953046, 0
-0.101376511, 0.08816466  , -9.797618   , -0.00117121835, -0.00102367764, -0.00152937253, -0.178711072, -0.163408384, 0.4389241   , -0.007260899, -0.0117990952, 2.42490983  , 0.41        , 3           , 50          , 0           , 0
-0.08071922 , 0.0761766   , -9.793442   , 0.001299138 , -0.000936576864, -0.00243598758, -0.178711072, -0.163408384, 0.4389241   , -0.007247621, -0.0118086385, 2.424885    , 0.42        , 3           , 11          , 0.0176956374, 0.0176956356
-0.101093471, 0.08043383  , -9.780925   , 0.003053253 , 0.00139827444, -0.00164719857, -0.178980723, -0.1634758  , 0.438721865 , -0.007216893, -0.0117947748, 2.42486882  , 0.43        , 3           , 12          , 0.0348953046, 0
-0.134450927, 0.05513346  , -9.789421   , 0.00292095286, -0.000221675378, -9.639621E-05, -0.17891331 , -0.163138732, 0.438789278 , -0.00718767056, -0.0117970016, 2.42486787  , 0.44        , 3           , 50          , 0           , 0
-0.1216141  , 0.07073562  , -9.777506   , 0.00383756822, 6.60977239E-05, 0.000120220808, -0.178711072, -0.163340971, 0.438991517 , -0.007149311, -0.011796332, 2.42486882  , 0.45        , 3           , 11          , 0.0176956374, 0.0176956356
-0.118481524, 0.0987144   , -9.789118   , 0.00249868445, -0.0004357125, 0.000466377882, -0.178711072, -0.163340971, 0.438991517 , -0.007124379, -0.0118006533, 2.42487359  , 0.46        , 3           , 12          , 0.0348953046, 0
-0.13521035 , 0.06374318  , -9.797526   , 0.00319798524, 0.0009768888, 0.000825011753, -0.1788459  , -0.163340971, 0.4388567   , -0.007092496, -0.0117908251, 2.42488217  , 0.47        , 3           , 50          , 0           , 0
-0.140898511, 0.07959502  , -9.795244   , 0.00150658342, 0.000261514768, 0.0002509503, -0.1788459  , -0.163340971, 0.43905893  , -0.00707745971, -0.0117881913, 2.424884    , 0.48        , 3           , 11          , 0.0176956374, 0.0176956356
-0.112541571, 0.105830461 , -9.779099   , 0.00312297419, 0.00175071263, -0.000163005243, -0.178778484, -0.163340971, 0.438721865 , -0.007046208, -0.0117706964, 2.42488265  , 0.49        , 3           , 12          , 0.0348953046, 0
-0.106428564, 0.0823627   , -9.799037   , -0.00125343469, 0.00147942791, -0.000253443141, -0.178778484, -0.163340971, 0.438721865 , -0.007397293, -0.01190489 , 2.424884    , 0.5         , 3           , 50          , 0           , 0
-0.1127379  , 0.07710495  , -9.823513   , -0.0006114752, 0.00014629084, -0.00046444434, -0.1788459  , -0.163206145, 0.43858704  , -0.00740335369, -0.0119034611, 2.42487931  , 0.51        , 3           , 11          , 0.01343881  , 0.0134388022
-0.127844423, 0.07402251  , -9.793811   , -0.000677799748, -0.0006284885, 0.000311011041, -0.178778484, -0.163138732, 0.4389241   , -0.007410169, -0.0119097205, 2.42488265  , 0.52        , 3           , 12          , 0.035092067 , 0
-0.12831597 , 0.0713345259, -9.79789448 , 0.000308974 , -0.000340240018, -0.0002490206, -0.178980723, -0.163340971, 0.438991517 , -0.00740704872, -0.0119131431, 2.42488027  , 0.53        , 3           , 50          , 0           , 0
-0.119281135, 0.07076497  , -9.794211   , 0.00115668448, -0.000404901046, -0.00010390969, -0.178980723, -0.163340971, 0.438991517 , -0.007395471, -0.0119171981, 2.42487931  , 0.54        , 3           , 11          , 0.01343881  , 0.0134388022
-0.08986655 , 0.0708524659, -9.788563   , 0.000235723768, 0.000152020337, -0.0006017624, -0.178778484, -0.163408384, 0.438789278 , -0.00739304256, -0.0119157257, 2.424873    , 0.55        , 3           , 12          , 0.035092067 , 0
-0.113604881, 0.08652021  , -9.80269051 , -0.0005469783, 0.00141381193, -0.000179625087, -0.178711072, -0.163610622, 0.43905893  , -0.0073984894, -0.0119015994, 2.42487121  , 0.56        , 3           , 50          , 0           , 0
-0.125722244, 0.0587051734, -9.808322   , -0.00110582227, 7.255498E-05, -0.00124383566, -0.1788459  , -0.163273558, 0.43905893  , -0.00740940031, -0.0119009651, 2.42485881  , 0.57        , 3           , 11          , 0.01343881  , 0.0134388022
-0.102481946, 0.0474696   , -9.768868   , -0.00145557837, -0.0004929602, -0.000398737262, -0.178711072, -0.163273558, 0.4388567   , -0.007423909, -0.0119059235, 2.42485452  , 0.58        , 3           , 12          , 0.035092067 , 0
-0.09857789 , 0.06550941  , -9.779611   , 0.000390217378, -0.00238110661, 0.000666409265, -0.178711072, -0.163273558, 0.4388567   , -0.00742008723, -0.0119296852, 2.42486119  , 0.59        , 3           , 50          , 0           , 0
-0.111736745, 0.062962696 , -9.78153    , 0.00293839979, 0.00190029386, 0.0006847501, -0.178980723, -0.163138732, 0.4388567   , -0.00730934925, -0.0117889214, 2.42486739  , 0.6         , 3           , 11          , 0.0113560539, 0.0113560623
-0.119015649, 0.05944912  , -9.784763   , 0.002301712 , 0.00203677616, -0.000236242689, -0.178980723, -0.163206145, 0.439126343 , -0.00728630228, -0.011768572, 2.424865    , 0.61        , 3           , 12          , 0.03534278  , 0
-0.115323246, 0.06348057  , -9.788788   , 0.000401912 , 0.0006864494, -0.0003178275, -0.178980723, -0.163408384, 0.438789278 , -0.007282245, -0.0117617315, 2.42486167  , 0.62        , 3           , 50          , 0           , 0
-0.119247548, 0.07079218  , -9.802346   , -0.004537277, -5.08887133E-05, -0.000695130555, -0.178980723, -0.163408384, 0.438789278 , -0.007327535, -0.0117622912, 2.42485452  , 0.63        , 3           , 11          , 0.0113560539, 0.0113560623
-0.112303585, 0.08244087  , -9.801793   , -0.00369067071, 2.52309019E-05, -0.00125614624, -0.179182962, -0.163071319, 0.4388567   , -0.00736429356, -0.0117621319, 2.42484212  , 0.64        , 3           , 12          , 0.03534278  , 0
-0.13184379 , 0.07814886  , -9.799249   , -0.0003751103, 0.000751588261, -0.000321340747, -0.17891331 , -0.163408384, 0.43905893  , -0.00736800674, -0.0117546394, 2.42483926  , 0.65        , 3           , 50          , 0           , 0
-0.131648719, 0.0547245   , -9.811547   , -0.00206737639, 0.000317781785, 2.32785551E-05, -0.178778484, -0.1634758  , 0.4389241   , -0.007388682, -0.01175146 , 2.42483926  , 0.66        , 3           , 11          , 0.0113560539, 0.0113560623
-0.123853207, 0.06899689  , -9.789282   , -0.0054494245, -0.00118335558, -0.000418608863, -0.178778484, -0.1634758  , 0.4389241   , -0.00744312862, -0.0117633259, 2.424835    , 0.67        , 3           , 12          , 0.03534278  , 0
-0.105919234, 0.06328427  , -9.763405   , -0.00142449024, -0.00136731577, -0.00160095224, -0.17891331 , -0.163408384, 0.43905893  , -0.007457187, -0.0117771151, 2.42481923  , 0.68        , 3           , 50          , 0           , 0
-0.109112024, 0.08197519  , -9.80855    , -0.00276374444, -0.0017283418, -0.0006895032, -0.17891331 , -0.163340971, 0.4389241   , -0.007484745, -0.0117944507, 2.42481256  , 0.69        , 3           , 11          , 0.0113560539, 0.0113560623
-0.106394887, 0.08506809  , -9.79857349 , -0.00308868964, -0.000401720783, -0.000477647525, -0.178643659, -0.1634758  , 0.438991517 , -0.00744236354, -0.0118163377, 2.42480683  , 0.7         , 3           , 12          , 0.0356458724, 0
-0.09386679 , 0.07631715  , -9.78947449 , -0.00077111437, 0.00221851585, 0.000314208941, -0.178643659, -0.1634758  , 0.438991517 , -0.007450108, -0.01179413 , 2.42480969  , 0.71        , 3           , 50          , 0           , 0
-0.0981862545, 0.08591251  , -9.809807   , 0.000360620877, 0.00187420053, 0.0008133749, -0.178980723, -0.163273558, 0.4388567   , -0.007446597, -0.0117753269, 2.4248178   , 0.72        , 3           , 11          , 0.0101359375, 0.01013594
-0.133177459, 0.08130926  , -9.795177   , 0.001135085 , 0.00216101413, -0.000595257035, -0.1788459  , -0.163138732, 0.43905893  , -0.00743517466, -0.0117537621, 2.4248116   , 0.73        , 3           , 12          , 0.0356458724, 0
-0.122177675, 0.05949238  , -9.786597   , 0.00261501526, 0.00280456454, -2.22918461E-05, -0.178643659, -0.163273558, 0.438789278 , -0.0074090194, -0.0117257172, 2.42481112  , 0.74        , 3           , 50          , 0           , 0
-0.110851549, 0.0932132453, -9.789987   , -0.000547708652, -0.000243749266, -0.0007481158, -0.178643659, -0.163273558, 0.438789278 , -0.00741440849, -0.01172821 , 2.424804    , 0.75        , 3           , 11          , 0.0101359375, 0.01013594
-0.117271073, 0.08518811  , -9.796396   , 0.0022873   , -0.00233638636, -0.000243760427, -0.1788459  , -0.163340971, 0.438789278 , -0.007391509, -0.01175159 , 2.42480159  , 0.76        , 3           , 12          , 0.0356458724, 0
-0.118163243, 0.0856559351, -9.798208   , 2.247275E-05, -0.001225405, 2.99772928E-05, -0.178778484, -0.163206145, 0.4389241   , -0.00739128934, -0.0117638409, 2.424802    , 0.77        , 3           , 50          , 0           , 0
-0.113265164, 0.08999408  , -9.763803   , -0.001612652, 0.000945740263, -0.000609941257, -0.178576246, -0.163206145, 0.43905893  , -0.00740734348, -0.01175443 , 2.42479539  , 0.78        , 3           , 11          , 0.0101359375, 0.01013594
-0.101201206, 0.0682950839, -9.793631   , 0.0003555195, 0.00278928434, -0.000174096029, -0.178576246, -0.163206145, 0.43905893  , -0.007403765, -0.01172655 , 2.42479348  , 0.79        , 3           , 12          , 0.0356458724, 0
-0.111206807, 0.0639126   , -9.797342   , 0.00246885954, 0.002829591 , -0.00164614 , -0.1788459  , -0.163273558, 0.4388567   , -0.007502489, -0.0116561195, 2.42477822  , 0.8         , 3           , 50          , 0           , 0
-0.107173309, 0.0580285229, -9.805923   , 0.00170202169, 0.0009941693, -0.0003105291, -0.178711072, -0.163340971, 0.43905893  , -0.007485431, -0.0116462028, 2.42477536  , 0.81        , 3           , 11          , 0.009382244 , 0.009382245
-0.119816862, 0.06445417  , -9.794242   , -0.00379181374, -0.00171794242, 8.34745442E-05, -0.178643659, -0.163273558, 0.4388567   , -0.00752336 , -0.0116633754, 2.42477632  , 0.82        , 3           , 12          , 0.03599962  , 0
-0.126018465, 0.07133517  , -9.806011   , -0.002314237, -0.000722438563, -0.000402533216, -0.178711072, -0.1634758  , 0.438721865 , -0.007546456, -0.0116706295, 2.4247725   , 0.83        , 3           , 50          , 0           , 0
-0.108786732, 0.07338591  , -9.804968   , -0.00062444777, 6.33207E-05 , -0.00201802864, -0.178711072, -0.1634758  , 0.438721865 , -0.007552466, -0.011670148, 2.42475247  , 0.84        , 3           , 11          , 0.009382244 , 0.009382245
-0.12863335 , 0.07546674  , -9.817767   , -0.000619120139, -0.000922154868, -0.00124256941, -0.178778484, -0.163543209, 0.4389241   , -0.007558514, -0.0116794631, 2.42474     , 0.85        , 3           , 12          , 0.03599962  , 0
-0.121800311, 0.0807766244, -9.810461   , -0.00110559619, -0.00254449737, -0.00167117547, -0.178643659, -0.163408384, 0.439193755 , -0.00756937545, -0.0117050325, 2.42472339  , 0.86        , 3           , 50          , 0           , 0
-0.09997777 , 0.09487666  , -9.785828   , -0.00103816693, -0.00191049883, -0.00174050429, -0.178576246, -0.163138732, 0.438721865 , -0.00757955434, -0.011724269, 2.42470574  , 0.87        , 3           , 11          , 0.009382244 , 0.009382245
-0.108059093, 0.0896719247, -9.819811   , 0.000516181753, -0.001970382, -0.0006032196, -0.178576246, -0.163138732, 0.438721865 , -0.00757432263, -0.0117440177, 2.4247      , 0.88        , 3           , 12          , 0.03599962  , 0
-0.09348828 , 0.06911004  , -9.794473   , -0.0009033488, -0.0006425017, -0.0019497961, -0.1788459  , -0.163340971, 0.438789278 , -0.007583128, -0.01175059 , 2.424681    , 0.89        , 3           , 50          , 0           , 0
-0.107475922, 0.07467049  , -9.789133   , -0.00221277168, -0.00136166462, -0.0001900612, -0.1788459  , -0.163071319, 0.4388567   , -0.0076659536, -0.0116749955, 2.42468     , 0.9         , 3           , 11          , 0.008916323 , 0.008916328
-0.112081848, 0.100028217 , -9.7994585  , -0.00115623663, -0.0007209781, 0.000804734766, -0.178711072, -0.163408384, 0.438789278 , -0.00767761 , -0.0116821425, 2.42468762  , 0.91        , 3           , 12          , 0.03640213  , 0
-0.110310525, 0.0563064851, -9.819513   , -0.00263421726, -0.00185726956, -0.00061660225, -0.178711072, -0.163408384, 0.438789278 , -0.007703882, -0.0117007634, 2.424682    , 0.92        , 3           , 50          , 0           , 0
-0.115620241, 0.0373515934, -9.800198   , -0.00158655411, 0.0004024121, -0.00110263273, -0.178576246, -0.163408384, 0.4389241   , -0.007719619, -0.0116968229, 2.42467046  , 0.93        , 3           , 11          , 0.008916323 , 0.008916328
-0.113375828, 0.07383579  , -9.78873    , 0.000258092274, -0.00120416831, 0.000386753847, -0.178711072, -0.1634758  , 0.439193755 , -0.007717084, -0.0117088333, 2.42467475  , 0.94        , 3           , 12          , 0.03640213  , 0
-0.123800628, 0.06948584  , -9.800579   , 0.000686200045, -0.00204599719, 0.000881868 , -0.178778484, -0.163273558, 0.4388567   , -0.00771032739, -0.0117292227, 2.42468381  , 0.95        , 3           , 50          , 0           , 0
-0.120325014, 0.09781672  , -9.784163   , 0.000466638536, -0.000780393835, -0.00166000391, -0.178778484, -0.163273558, 0.4388567   , -0.00770546729, -0.0117371557, 2.42466712  , 0.96        , 3           , 11          , 0.008916323 , 0.008916328
-0.110677332, 0.06932564  , -9.798672   , 0.001656676 , 0.00155064126, 0.000468203885, -0.178711072, -0.163543209, 0.438721865 , -0.007688954, -0.0117216157, 2.424672    , 0.97        , 3           , 12          , 0.03640213  , 0
-0.105317071, 0.0584901571, -9.815398   , 0.00103359821, -0.0009877426, 0.000178797913, -0.178576246, -0.1634758  , 0.4389241   , -0.00767864 , -0.0117314765, 2.42467332  , 0.98        , 3           , 50          , 0           , 0
-0.087872684, 0.07588911  , -9.817      , 0.0004790105, -0.0028921226, 0.00165655662, -0.17844142 , -0.163678035, 0.4389241   , -0.007674048, -0.0117602693, 2.42469049  , 0.99        , 3           , 11          , 0.008916323 , 0.008916328
-0.124639139, 0.066872716 , -9.825456   , -0.00146630232, -0.00140437821, -4.54919937E-05, -0.17844142 , -0.163678035, 0.4389241   , -0.00763898343, -0.0116572352, 2.42468953  , 1           , 3           , 12          , 0.0368513949, 0
-0.131466359, 0.06692372  , -9.81692    , -0.00252912915, -0.000848415133, -0.00167415314, -0.178643659, -0.1634758  , 0.4388567   , -0.007664079, -0.0116658472, 2.42467237  , 1.01        , 3           , 50          , 0           , 0
-0.105563819, 0.08008724  , -9.796327   , -0.0009740426, -0.00104908075, -0.00046645134, -0.178711072, -0.163340971, 0.438991517 , -0.00767376646, -0.0116763739, 2.424668    , 1.02        , 3           , 11          , 0.008638388 , 0.00863839
-0.09279299 , 0.08447712  , -9.804347   , 0.00127696339, 0.0007963752, 0.000677054632, -0.178643659, -0.163206145, 0.4389241   , -0.0076610744, -0.0116683589, 2.42467475  , 1.03        , 3           , 12          , 0.0368513949, 0
-0.09414445 , 0.08628407  , -9.800283   , 0.00502354559, -2.30117857E-05, 0.00111700839, -0.178643659, -0.163206145, 0.4389241   , -0.00761096925, -0.0116685033, 2.42468572  , 1.04        , 3           , 50          , 0           , 0
-0.12111564 , 0.06942824  , -9.792875   , 0.0022717528, -0.000534375547, 0.000114527873, -0.178711072, -0.163408384, 0.438654453 , -0.00758826546, -0.0116738379, 2.42468715  , 1.05        , 3           , 11          , 0.008638388 , 0.00863839
-0.121385656, 0.0495700277, -9.790699   , 0.0001562393, -0.00118222379, -0.000673303439, -0.178643659, -0.163206145, 0.4389241   , -0.0075866254, -0.0116857113, 2.42468047  , 1.06        , 3           , 12          , 0.0368513949, 0
-0.114559993, 0.04996413  , -9.797426   , -0.0009811793, 0.0004995299, 0.0004541821, -0.17891331 , -0.163610622, 0.4388567   , -0.00759648951, -0.01168068 , 2.42468476  , 1.07        , 3           , 50          , 0           , 0
-0.120070711, 0.07890388  , -9.796444   , -0.00147099968, -0.000348506815, 0.000874381862, -0.178643659, -0.163273558, 0.43858704  , -0.00761130126, -0.0116840992, 2.42469335  , 1.08        , 3           , 11          , 0.008638388 , 0.00863839
-0.123375364, 0.0649947152, -9.808278   , 0.00163266272, 0.000235631931, 0.00046592977, -0.178643659, -0.163273558, 0.43858704  , -0.00759502873, -0.0116817085, 2.424698    , 1.09        , 3           , 12          , 0.0368513949, 0
-0.11836344 , 0.0618371479, -9.82588    , 0.00150085252, 0.00100437389, 0.00117147609, -0.178711072, -0.163408384, 0.438789278 , -0.007482044, -0.0116764382, 2.4247086   , 1.1         , 3           , 50          , 0           , 0
-0.104587257, 0.0828122348, -9.804895   , 0.000229153084, 0.00113656116, 0.001024498 , -0.178711072, -0.163071319, 0.438789278 , -0.00747987 , -0.0116649959, 2.424719    , 1.11        , 3           , 11          , 0.008483989 , 0.008483988
-0.118582271, 0.0558572821, -9.791555   , -0.00132143986, 0.000281354354, -0.00145624962, -0.178643659, -0.163408384, 0.438721865 , -0.007492915, -0.0116622895, 2.42470479  , 1.12        , 3           , 12          , 0.0373453461, 0
-0.116834864, 0.04775007  , -9.801971   , 0.00037141933, 0.000644770742, -0.00137717125, -0.178643659, -0.163408384, 0.438721865 , -0.007489039, -0.0116559444, 2.42469049  , 1.13        , 3           , 50          , 0           , 0
-0.111321248, 0.0553392135, -9.7969265  , 0.00236197282, -0.00187594013, 0.000394000934, -0.178778484, -0.163408384, 0.438721865 , -0.00746546639, -0.0116746742, 2.42469478  , 1.14        , 3           , 11          , 0.008483989 , 0.008483988
-0.112503819, 0.06621001  , -9.805026   , -0.00208493741, -0.002187588, 0.000231556536, -0.178778484, -0.163071319, 0.438789278 , -0.007486345, -0.0116965314, 2.42469716  , 1.15        , 3           , 12          , 0.0373453461, 0
-0.102868095, 0.08450185  , -9.776854   , -0.00181265431, -0.0002851171, -0.001035616, -0.178778484, -0.163543209, 0.438519627 , -0.007504351, -0.0116994614, 2.42468667  , 1.16        , 3           , 50          , 0           , 0
-0.115234934, 0.07203278  , -9.782875   , 0.00220782356, 0.0007275815, 0.000326722016, -0.178778484, -0.163543209, 0.438519627 , -0.00748231076, -0.0116921589, 2.42469049  , 1.17        , 3           , 11          , 0.008483989 , 0.008483988
-0.110054523, 0.0498928241, -9.791967   , 0.0005833765, 0.000857382664, 0.0006725385, -0.178508833, -0.163273558, 0.438654453 , -0.00747655425, -0.0116835367, 2.42469716  , 1.18        , 3           , 12          , 0.0373453461, 0
-0.106453575, 0.0787716359, -9.804476   , 0.00241935486, 0.000869798358, 0.00103427027, -0.178711072, -0.163273558, 0.4388567   , -0.00745248049, -0.01167476 , 2.42470717  , 1.19        , 3           , 50          , 0           , 0
-0.117242418, 0.08610401  , -9.80046    , 0.00172538334, 0.00196581357, -9.856224E-05, -0.178643659, -0.163408384, 0.438721865 , -0.007334405, -0.0116034513, 2.42470479  , 1.2         , 3           , 11          , 0.008403895 , 0.008403889
-0.102255553, 0.0561336949, -9.796402   , -0.0009531409, 0.00103258225, -0.000112483511, -0.178643659, -0.163408384, 0.438721865 , -0.00734392228, -0.0115931332, 2.42470384  , 1.21        , 3           , 12          , 0.0378818363, 0
-0.133405685, 0.06505572  , -9.791631   , -0.0016546332, -2.80648528E-05, -0.001247553, -0.178643659, -0.163273558, 0.438654453 , -0.00736032473, -0.0115935057, 2.42469144  , 1.22        , 3           , 50          , 0           , 0
-0.115655333, 0.07295704  , -9.78784752 , -0.00208011945, 0.000391418958, -0.0008250711, -0.178643659, -0.163543209, 0.438789278 , -0.00738102943, -0.0115896529, 2.42468286  , 1.23        , 3           , 11          , 0.008403895 , 0.008403889
-0.120059721, 0.07355659  , -9.816353   , -0.000524951553, 0.000190753766, 0.000523899449, -0.178711072, -0.163340971, 0.438789278 , -0.00738634076, -0.0115877055, 2.42468858  , 1.24        , 3           , 12          , 0.0378818363, 0
-0.121890269, 0.06999133  , -9.823161   , -0.00334161241, -0.00144734723, -0.000198108639, -0.178711072, -0.163340971, 0.438789278 , -0.00741973566, -0.011602194, 2.42468667  , 1.25        , 3           , 50          , 0           , 0
-0.100436054, 0.0899677   , -9.800315   , -0.00150606036, -0.00150532636, -0.00117853831, -0.178711072, -0.163340971, 0.43858704  , -0.007434659, -0.0116173355, 2.42467475  , 1.26        , 3           , 11          , 0.008403895 , 0.008403889
-0.108052224, 0.0638633   , -9.793702   , -0.00201004674, 0.000532679842, -0.0005419875, -0.178711072, -0.1634758  , 0.4388567   , -0.00745469658, -0.0116120484, 2.4246695   , 1.27        , 3           , 12          , 0.0378818363, 0
-0.112521969, 0.07199787  , -9.781951   , -0.001027229, 0.00159523159, -0.00131272909, -0.178711072, -0.163206145, 0.43858704  , -0.007464815, -0.0115961963, 2.42465615  , 1.28        , 3           , 50          , 0           , 0
-0.118561275, 0.09418626  , -9.784164   , -0.000318436942, 0.00110726885, -0.000815755455, -0.178711072, -0.163206145, 0.43858704  , -0.00746790553, -0.0115851825, 2.42464757  , 1.29        , 3           , 11          , 0.008403895 , 0.008403889
-0.123491421, 0.08937581  , -9.812244   , -0.001752611, 0.000248502562, 9.489515E-05, -0.178508833, -0.1634758  , 0.438721865 , -0.00751560368, -0.0115877893, 2.42464948  , 1.3         , 3           , 12          , 0.0384587049, 0
-0.141146645, 0.08913952  , -9.814642   , -0.000137076684, 0.00173769624, -0.00180238241, -0.178778484, -0.163071319, 0.43858704  , -0.00751676457, -0.0115705477, 2.42463136  , 1.31        , 3           , 50          , 0           , 0
-0.131899208, 0.07631855  , -9.791573   , -0.0004902361, 0.001876094 , -0.0008149302, -0.1788459  , -0.163340971, 0.438789278 , -0.00752157 , -0.0115518514, 2.42462277  , 1.32        , 3           , 11          , 0.008366335 , 0.008366328
-0.125988185, 0.0744841546, -9.803287   , 0.000641540042, 0.00153177907, -0.0002451299, -0.1788459  , -0.163340971, 0.438789278 , -0.007515125, -0.0115365516, 2.42462     , 1.33        , 3           , 12          , 0.0384587049, 0
-0.119101442, 0.051791653 , -9.788413   , -0.00139574043, -0.0006641999, -0.00110565312, -0.178643659, -0.1634758  , 0.438654453 , -0.007528955, -0.0115432767, 2.42460942  , 1.34        , 3           , 50          , 0           , 0
-0.107216232, 0.0579937547, -9.795528   , -0.0016165399, 0.001164541 , -0.0009625514, -0.178643659, -0.163340971, 0.438654453 , -0.00754500832, -0.0115317032, 2.4246      , 1.35        , 3           , 11          , 0.008366335 , 0.008366328
-0.124366552, 0.0627042353, -9.794736   , -0.00204324583, 0.00221755542, 0.002780722 , -0.178643659, -0.163206145, 0.438519627 , -0.00756575959, -0.0115093188, 2.42462754  , 1.36        , 3           , 12          , 0.0384587049, 0
-0.0989116058, 0.0727527961, -9.78545952 , 0.000925661356, 0.00146330427, 0.00208701263, -0.178643659, -0.163610622, 0.438519627 , -0.007556742, -0.0114945276, 2.42464757  , 1.37        , 3           , 50          , 0           , 0
-0.105736107, 0.07146698  , -9.781901   , 0.00240949565, 0.0009805863, -0.000237766973, -0.178643659, -0.163610622, 0.438519627 , -0.00753261941, -0.0114847394, 2.42464566  , 1.38        , 3           , 11          , 0.008366335 , 0.008366328
-0.11116609 , 0.06349925  , -9.808642   , 0.000434743532, 0.000474476576, -0.0006009167, -0.178643659, -0.1634758  , 0.438654453 , -0.007528203, -0.01148004 , 2.42464     , 1.39        , 3           , 12          , 0.0384587049, 0
-0.120325841, 0.0839792043, -9.828515   , 0.000433822977, -0.0007520864, -0.0009572301, -0.17844142 , -0.163408384, 0.438519627 , -0.007451116, -0.0115210516, 2.42462945  , 1.4         , 3           , 50          , 0           , 0
-0.134212285, 0.06782466  , -9.80699348 , -0.000834947336, -0.0011126356, -0.0002573551, -0.178711072, -0.163408384, 0.438721865 , -0.007459437, -0.0115321949, 2.42462659  , 1.41        , 3           , 11          , 0.008346512 , 0.008346508
-0.125418812, 0.0483128   , -9.805199   , -0.0007005222, 0.000366538618, 0.000663828338, -0.178711072, -0.163408384, 0.438721865 , -0.007466517, -0.0115284808, 2.42463326  , 1.42        , 3           , 12          , 0.0390737876, 0
-0.102253526, 0.08641301  , -9.810287   , -0.0013313482, -0.0006232378, 0.0002355402, -0.178643659, -0.163340971, 0.4384522   , -0.00747985765, -0.0115346955, 2.42463613  , 1.43        , 3           , 50          , 0           , 0
-0.0925558954, 0.105201349 , -9.795672   , 0.000921775063, 0.000588691852, -0.000387789274, -0.178711072, -0.163340971, 0.438519627 , -0.007470596, -0.0115288366, 2.42463183  , 1.44        , 3           , 11          , 0.008346512 , 0.008346508
-0.09919268 , 0.08316332  , -9.794006   , 0.000712435052, 9.452069E-05, -0.0003189019, -0.178778484, -0.163273558, 0.438519627 , -0.007463434, -0.0115279164, 2.4246285   , 1.45        , 3           , 12          , 0.0390737876, 0
-0.120097727, 0.08022105  , -9.785591   , -0.002179611, -0.0004881865, -0.000262634, -0.178778484, -0.163273558, 0.438519627 , -0.007485201, -0.0115328189, 2.424626    , 1.46        , 3           , 50          , 0           , 0
-0.13119325 , 0.08589174  , -9.822715   , -0.00218252139, 7.49430837E-05, -0.000473669177, -0.178980723, -0.163071319, 0.4383848   , -0.00750697125, -0.0115321055, 2.42462134  , 1.47        , 3           , 11          , 0.008346512 , 0.008346508
-0.115632847, 0.07565336  , -9.784673   , -0.0006356102, 0.00135248981, -0.0007470108, -0.178643659, -0.163071319, 0.43858704  , -0.00751324138, -0.0115186339, 2.42461419  , 1.48        , 3           , 12          , 0.0390737876, 0
-0.109986424, 0.08379647  , -9.810357   , -0.000625893, -0.0006184656, -0.00082068285, -0.178711072, -0.163340971, 0.4384522   , -0.00751940673, -0.0115248831, 2.42460561  , 1.49        , 3           , 50          , 0           , 0
-0.129042849, 0.05103199  , -9.796176   , -0.00064208 , 0.000486626435, -0.00102973671, -0.178711072, -0.163340971, 0.4384522   , -0.00761952857, -0.0115451319, 2.42459655  , 1.5         , 3           , 11          , 0.008329939 , 0.008329935
-0.102438129, 0.08135359  , -9.78138351 , -0.000139265, -0.00119942077, -0.0006768636, -0.178643659, -0.163273558, 0.4383848   , -0.00762084452, -0.0115571776, 2.42459035  , 1.51        , 3           , 12          , 0.0397249423, 0
-0.100111172, 0.07825362  , -9.806689   , -0.00338196824, -0.00220686174, -0.000128452288, -0.1788459  , -0.163071319, 0.438519627 , -0.007654651, -0.0115792565, 2.424589    , 1.52        , 3           , 50          , 0           , 0
-0.09063483 , 0.07499149  , -9.80889    , -0.0007159456, 0.00111966953, -0.00124099245, -0.178508833, -0.1634758  , 0.4383848   , -0.00766166532, -0.0115681542, 2.42457652  , 1.53        , 3           , 11          , 0.008329939 , 0.008329935
-0.113714509, 0.08196786  , -9.790506   , -0.000923743239, 0.0001327552, -0.00272682076, -0.178508833, -0.1634758  , 0.4383848   , -0.007670588, -0.0115670366, 2.42454934  , 1.54        , 3           , 12          , 0.0397249423, 0
-0.113305286, 0.08103454  , -9.782824   , 0.00134423608, -0.00140056841, -0.00116471585, -0.178508833, -0.163138732, 0.4383174   , -0.00765701244, -0.01158113 , 2.424538    , 1.55        , 3           , 50          , 0           , 0
-0.111449033, 0.08149619  , -9.792298   , 0.000143836733, -0.00126790034, -0.000110580382, -0.178778484, -0.163138732, 0.438654453 , -0.007655563, -0.0115938177, 2.42453647  , 1.56        , 3           , 11          , 0.008329939 , 0.008329935
-0.126535028, 0.07084246  , -9.79200649 , -0.00205548573, 0.0007586421, -0.0008239842, -0.1788459  , -0.1634758  , 0.438519627 , -0.00767602073, -0.0115862945, 2.42452836  , 1.57        , 3           , 12          , 0.0397249423, 0
-0.134324089, 0.0628242046, -9.795715   , -0.001695853, -0.000506011653, -0.000259215856, -0.1788459  , -0.1634758  , 0.438519627 , -0.00769294938, -0.0115913758, 2.4245255   , 1.58        , 3           , 50          , 0           , 0
-0.10684593 , 0.08998467  , -9.78319    , -0.0001398175, -0.00112903048, -0.001029927, -0.1788459  , -0.1634758  , 0.4383848   , -0.00769423 , -0.0116027445, 2.42451549  , 1.59        , 3           , 11          , 0.008329939 , 0.008329935
-0.10028971 , 0.0687356   , -9.793622   , 4.606652E-05, -0.00114416925, -0.0007462114, -0.178778484, -0.163206145, 0.438721865 , -0.007724687, -0.0116339317, 2.42450833  , 1.6         , 3           , 12          , 0.04041006  , 0
-0.109303735, 0.0697684   , -9.800919   , 0.00272413832, -7.01544E-05, -0.0003082671, -0.178576246, -0.163340971, 0.43858704  , -0.00769741135, -0.0116346572, 2.42450547  , 1.61        , 3           , 50          , 0           , 0
-0.110303335, 0.06613203  , -9.789642   , -0.00375942234, -0.00250738463, 0.000364098581, -0.178374   , -0.163273558, 0.4383848   , -0.00773505 , -0.0116597023, 2.42450929  , 1.62        , 3           , 11          , 0.00830784347, 0.00830784
-0.112047412, 0.0635295361, -9.814525   , -0.0024177907, -0.00256870477, -5.35605941E-05, -0.178374   , -0.163273558, 0.4383848   , -0.00775922369, -0.0116853938, 2.42450881  , 1.63        , 3           , 12          , 0.04041006  , 0
-0.122854561, 0.07129342  , -9.804631   , 0.000110233384, 0.0002641361, 0.000174534129, -0.1788459  , -0.163408384, 0.438654453 , -0.007758143, -0.0116827367, 2.42451024  , 1.64        , 3           , 50          , 0           , 0
-0.110777624, 0.06478086  , -9.788748   , -2.67163286E-05, -0.000581513741, 0.000313842553, -0.178711072, -0.163071319, 0.438519627 , -0.007758447, -0.0116885286, 2.424514    , 1.65        , 3           , 11          , 0.00830784347, 0.00830784
-0.114453554, 0.0603164136, -9.790151   , -0.001454422, 0.00222457945, -0.00251377746, -0.178508833, -0.163610622, 0.438519627 , -0.007772695, -0.0116664767, 2.42448831  , 1.66        , 3           , 12          , 0.04041006  , 0
-0.131481826, 0.06869658  , -9.807421   , -0.000876784849, -2.41133966E-05, 0.000310759642, -0.178508833, -0.163610622, 0.438519627 , -0.007781499, -0.0116666937, 2.42449164  , 1.67        , 3           , 50          , 0           , 0
-0.119999193, 0.0874424949, -9.786464   , 0.00307653751, 2.62301182E-06, -0.000800952956, -0.178711072, -0.163408384, 0.438519627 , -0.00775064062, -0.011666731, 2.42448354  , 1.68        , 3           , 11          , 0.00830784347, 0.00830784
-0.121060982, 0.06768714  , -9.811865   , 0.00138804247, -0.00113509479, 3.70218622E-05, -0.178508833, -0.163071319, 0.438519627 , -0.007736765, -0.0116780782, 2.424484    , 1.69        , 3           , 12          , 0.04041006  , 0
-0.134259686, 0.06421545  , -9.807008   , -0.000531487633, -0.000344702625, 0.0003106417, -0.178374   , -0.1634758  , 0.438249975 , -0.0076667117, -0.0117316926, 2.4244864   , 1.7         , 3           , 50          , 0           , 0
-0.103674121, 0.08548584  , -9.79809952 , -0.0008171919, 0.0002165152, -0.0005374196, -0.178374   , -0.1634758  , 0.438249975 , -0.00767482 , -0.0117295692, 2.42448068  , 1.71        , 3           , 11          , 0.008275661 , 0.008275658
-0.112163059, 0.0558478758, -9.810942   , -0.00194099674, -0.0009173836, 2.06516561E-05, -0.178711072, -0.163138732, 0.4384522   , -0.00769423367, -0.0117387408, 2.42448163  , 1.72        , 3           , 12          , 0.04112709  , 0
-0.104521766, 0.0530339628, -9.805923   , -0.000261028617, 0.00190972385, -0.00109725713, -0.178711072, -0.163071319, 0.43858704  , -0.00769671332, -0.0117197288, 2.42447019  , 1.73        , 3           , 50          , 0           , 0
-0.08770846 , 0.0938762   , -9.799297   , -0.00166168436, -0.000352344825, -0.0005422383, -0.17844142 , -0.163206145, 0.4383848   , -0.00771326665, -0.0117232939, 2.42446446  , 1.74        , 3           , 11          , 0.008275661 , 0.008275658
-0.08878969 , 0.0781222358, -9.80705452 , -0.0008168657, 0.0002165168, 2.76551418E-05, -0.17844142 , -0.163206145, 0.4383848   , -0.00772143761, -0.0117211267, 2.42446542  , 1.75        , 3           , 12          , 0.04112709  , 0
-0.111070082, 0.06982595  , -9.811779   , -0.00138606445, 0.00105739129, -0.000256214174, -0.178508833, -0.1634758  , 0.4384522   , -0.007735268, -0.0117105739, 2.42446256  , 1.76        , 3           , 50          , 0           , 0
-0.1062717  , 0.06024643  , -9.797771   , -0.00167644012, 0.002463302 , -0.00195058645, -0.178576246, -0.163273558, 0.4384522   , -0.00775180152, -0.0116860922, 2.42444253  , 1.77        , 3           , 11          , 0.008275661 , 0.008275658
-0.12385451 , 0.06721043  , -9.794712   , 3.648037E-05, -0.000904011365, 0.0008774827, -0.178576246, -0.163273558, 0.4383174   , -0.00775154028, -0.0116950627, 2.42445159  , 1.78        , 3           , 12          , 0.04112709  , 0
-0.112593383, 0.06613744  , -9.783331   , -0.00195124431, 0.00105356984, -0.000823923, -0.178576246, -0.163273558, 0.4383174   , -0.00777095556, -0.01168459 , 2.42444348  , 1.79        , 3           , 50          , 0           , 0
-0.0935654342, 0.06815482  , -9.778658   , -0.00298780063, 0.000534862338, 0.000299470616, -0.178239182, -0.163206145, 0.4383848   , -0.00768691627, -0.0116130793, 2.42444539  , 1.8         , 3           , 11          , 0.008231638 , 0.008231631
-0.121064082, 0.07616528  , -9.783808   , -0.000439315656, -0.000855774852, -0.0002559214, -0.178508833, -0.163206145, 0.4383848   , -0.00769128045, -0.0116216568, 2.42444253  , 1.81        , 3           , 12          , 0.0418740548, 0
-0.114419676, 0.0683781654, -9.772489   , 0.00237879856, 0.0005711541, 0.00117210485, -0.178508833, -0.163071319, 0.4383174   , -0.00766762765, -0.0116158556, 2.42445445  , 1.82        , 3           , 50          , 0           , 0
-0.1282585  , 0.07852271  , -9.788824   , 0.00153767213, -0.000842405134, -0.000246702839, -0.178508833, -0.163071319, 0.4383174   , -0.007652223, -0.0116242981, 2.424452    , 1.83        , 3           , 11          , 0.008231638 , 0.008231631
-0.12176995 , 0.08660378  , -9.799136   , -0.00128815323, -0.000579940563, -0.0005419757, -0.17844142 , -0.163408384, 0.43811515  , -0.00766504277, -0.01163014 , 2.42444634  , 1.84        , 3           , 12          , 0.0418740548, 0
-0.08659038 , 0.07134805  , -9.8129425  , -0.00157747581, 0.00110754708, 0.002002148 , -0.178778484, -0.163138732, 0.4383174   , -0.00768105 , -0.0116189122, 2.42446637  , 1.85        , 3           , 50          , 0           , 0
-0.09314915 , 0.0565148145, -9.807178   , 0.0018069006, 0.00169358763, -0.00137163047, -0.178508833, -0.163138732, 0.438182563 , -0.007662819, -0.0116020814, 2.424453    , 1.86        , 3           , 11          , 0.008231638 , 0.008231631
-0.0976567  , 0.101591662 , -9.778099   , -0.0024232734, 0.000538680761, -0.00026297025, -0.178643659, -0.163340971, 0.43811515  , -0.00768702244, -0.0115967151, 2.42445016  , 1.87        , 3           , 12          , 0.0418740548, 0
-0.1127566  , 0.0846777558, -9.794556   , 0.0006907179, -0.0008481336, 0.000314421079, -0.178643659, -0.163340971, 0.43811515  , -0.00768015161, -0.0116051715, 2.424453    , 1.88        , 3           , 50          , 0           , 0
-0.119647518, 0.06905489  , -9.82088852 , -0.00353330141, -0.003410869, 8.22416E-06 , -0.17844142 , -0.163408384, 0.4384522   , -0.00771548739, -0.0116392821, 2.4244535   , 1.89        , 3           , 11          , 0.008231638 , 0.008231631
-0.129934013, 0.0880272239, -9.79151    , -0.0009995491, -0.00220665336, -0.0016729217, -0.178778484, -0.163071319, 0.4383848   , -0.007727325, -0.0115813473, 2.42443681  , 1.9         , 3           , 12          , 0.0426490344, 0
-0.09649724 , 0.0795433745, -9.800328   , 0.00238636974, -0.00133903336, 3.940804E-05, -0.178508833, -0.163408384, 0.43811515  , -0.007703467, -0.011594736, 2.42443776  , 1.91        , 3           , 50          , 0           , 0
-0.126202241, 0.0546713024, -9.81467    , 0.000374946918, 0.00540515361, -0.00165462086, -0.178508833, -0.163408384, 0.43811515  , -0.00769952033, -0.0115408124, 2.4244206   , 1.92        , 3           , 11          , 0.008176152 , 0.008176146
-0.135852084, 0.0502048954, -9.794875   , 0.00209590537, 0.000348448462, 0.0006057697, -0.178508833, -0.163273558, 0.438249975 , -0.007678631, -0.0115372827, 2.42442632  , 1.93        , 3           , 12          , 0.0426490344, 0
-0.124626026, 0.08473734  , -9.771142   , -0.000153914589, -0.00163778733, 0.0003096592, -0.178778484, -0.163206145, 0.4384522   , -0.007680207, -0.0115536377, 2.42443013  , 1.94        , 3           , 50          , 0           , 0
-0.130385473, 0.08223107  , -9.81052    , 0.000111709873, 0.001461331 , -0.00222708774, -0.178576246, -0.163273558, 0.438182563 , -0.007678832, -0.0115391938, 2.42440724  , 1.95        , 3           , 11          , 0.008176152 , 0.008176146
-0.111739792, 0.05626498  , -9.802349   , -0.00186274177, 0.00116640178, -0.0002589778, -0.178576246, -0.163273558, 0.438182563 , -0.007697428, -0.0115275495, 2.42440486  , 1.96        , 3           , 12          , 0.0426490344, 0
-0.101923689, 0.0488887951, -9.790101   , -0.000450607738, 0.00117595168, -0.000252393133, -0.178374   , -0.163138732, 0.438047737 , -0.00770190358, -0.01151581 , 2.42440248  , 1.97        , 3           , 50          , 0           , 0
-0.108166806, 0.0601996668, -9.777447   , 0.0006740128, 0.00230985414, 0.00060222263, -0.178508833, -0.163340971, 0.4383174   , -0.00769522926, -0.0114926659, 2.4244082   , 1.98        , 3           , 11          , 0.008176152 , 0.008176146
-0.119187765, 0.08110668  , -9.783772   , -0.00185839657, 0.0003217073, 2.225765E-05, -0.178374   , -0.1630039  , 0.438182563 , -0.007713815, -0.0114894481, 2.4244082   , 1.99        , 3           , 12          , 0.0426490344, 0
-0.0915244  , 0.07903224  , -9.799841   , -0.00488987751, 0.000550743542, 0.0005721756, -0.178374   , -0.1630039  , 0.438182563 , -0.00765823666, -0.01152708 , 2.424413    , 2           , 3           , 50          , 0           , 0
-0.129731521, 0.07219684  , -9.78117752 , -0.00318063516, -0.00253501581, -0.0005548458, -0.178643659, -0.163340971, 0.438249975 , -0.007689981, -0.0115524717, 2.42440724  , 2.01        , 3           , 11          , 0.008112191 , 0.008112185
-0.116402917, 0.08246906  , -9.795948   , -0.00318595883, -0.00169032579, -0.00253130635, -0.178508833, -0.163138732, 0.438182563 , -0.0077215503, -0.0115695689, 2.42438245  , 2.02        , 3           , 12          , 0.0434502065, 0
-0.113273673, 0.07838207  , -9.799107   , 0.0013203983, 0.00115589146, 3.69410554E-05, -0.17844142 , -0.163206145, 0.438182563 , -0.00770834927, -0.0115580074, 2.42438245  , 2.03        , 3           , 50          , 0           , 0
-0.12147437 , 0.07308056  , -9.804162   , -0.0009404104, 0.00142217684, 2.68395252E-05, -0.17844142 , -0.163206145, 0.438182563 , -0.00771775562, -0.0115437843, 2.42438245  , 2.04        , 3           , 11          , 0.008112191 , 0.008112185
-0.103334233, 0.07646204  , -9.799489   , -0.00346847484, -0.00141066429, -0.000271889468, -0.178508833, -0.163408384, 0.43811515  , -0.00775240967, -0.0115579115, 2.42438     , 2.05        , 3           , 12          , 0.0434502065, 0
-0.0903308541, 0.0704020858, -9.787211   , 0.00244854856, 0.00144509552, -0.0002398945, -0.178576246, -0.163273558, 0.4383174   , -0.0077278954, -0.0115434807, 2.42437768  , 2.06        , 3           , 50          , 0           , 0
-0.106311724, 0.09674057  , -9.781348   , 0.00301865186, 0.000322653737, -0.000804071256, -0.178239182, -0.163273558, 0.4383174   , -0.00769761531, -0.011540316, 2.42436957  , 2.07        , 3           , 11          , 0.008112191 , 0.008112185
-0.113721773, 0.08731818  , -9.771501   , 0.00132646377, 2.96335784E-05, 0.0008828178, -0.178239182, -0.163273558, 0.4383174   , -0.00768445339, -0.0115399519, 2.42437863  , 2.08        , 3           , 12          , 0.0434502065, 0
-0.107982062, 0.07820338  , -9.764714   , 0.000754150562, 0.00143363653, 3.4741126E-05, -0.17844142 , -0.163273558, 0.437980324 , -0.00767691527, -0.0115256114, 2.42437863  , 2.09        , 3           , 50          , 0           , 0
-0.119604453, 0.08203395  , -9.789647   , -0.00210605143, 0.000884505163, -0.00139128068, -0.17844142 , -0.163543209, 0.438249975 , -0.007751837, -0.0114697181, 2.42436528  , 2.1         , 3           , 11          , 0.008036595 , 0.008036587
-0.101932958, 0.07648086  , -9.809874   , -0.00069375406, 0.00089405576, -0.00110215845, -0.178643659, -0.163340971, 0.438047737 , -0.00775864767, -0.0114608612, 2.42435479  , 2.11        , 3           , 12          , 0.0442758128, 0
-0.0873955041, 0.0536601879, -9.783642   , 0.0007233778, 5.89143638E-05, 0.00031581166, -0.178643659, -0.163340971, 0.438047737 , -0.00775145041, -0.0114602456, 2.42435765  , 2.12        , 3           , 50          , 0           , 0
-0.109317765, 0.06841797  , -9.801828   , -0.00182501844, 0.00116798026, -0.00138952979, -0.178374   , -0.163138732, 0.4379129   , -0.00776954 , -0.0114486748, 2.42434382  , 2.13        , 3           , 11          , 0.008036595 , 0.008036587
-0.08666431 , 0.0645928755, -9.816587   , -0.00210999581, 0.0020107734, 0.00143582979, -0.17844142 , -0.163071319, 0.437980324 , -0.007790802, -0.0114284558, 2.42435813  , 2.14        , 3           , 12          , 0.0442758128, 0
-0.09054858 , 0.078185834 , -9.819724   , -0.00154070824, 0.0008883275, -0.0005410343, -0.178508833, -0.163138732, 0.438047737 , -0.007806146, -0.0114196157, 2.424353    , 2.15        , 3           , 50          , 0           , 0
-0.136488616, 0.0687338859, -9.80113    , -0.0006883412, -0.000232205319, -0.00138643174, -0.17844142 , -0.163071319, 0.437980324 , -0.007812872, -0.0114220465, 2.42433858  , 2.16        , 3           , 11          , 0.008036595 , 0.008036587
-0.102836162, 0.08988391  , -9.767339   , 0.00156926422, 0.0003462093, 0.000320196385, -0.17844142 , -0.163071319, 0.437980324 , -0.0077972156, -0.0114185587, 2.424342    , 2.17        , 3           , 12          , 0.0442758128, 0
-0.108313695, 0.08321672  , -9.778256   , 0.002136995 , -0.0004946723, -0.00193877134, -0.17844142 , -0.163206145, 0.4378455   , -0.00777562475, -0.0114236576, 2.42432237  , 2.18        , 3           , 50          , 0           , 0
-0.109073326, 0.0512825176, -9.805965   , -0.0009719987, 4.74506523E-05, -0.00110477721, -0.178508833, -0.163138732, 0.43811515  , -0.007785218, -0.0114232684, 2.4243114   , 2.19        , 3           , 11          , 0.008036595 , 0.008036587
-0.100602396, 0.0817986   , -9.785887   , -0.0006593748, 0.00178800873, 2.92714958E-05, -0.178508833, -0.163138732, 0.437980324 , -0.00773566263, -0.0113324057, 2.424311    , 2.2         , 3           , 12          , 0.04512419  , 0
-0.107833765, 0.07698448  , -9.804946   , -9.468431E-05, 0.001791828 , -0.000250631885, -0.178508833, -0.163138732, 0.437980324 , -0.00773658 , -0.0113145066, 2.42430854  , 2.21        , 3           , 50          , 0           , 0
-0.117528766, 0.0617690645, -9.808699   , -0.0003656328, -0.000462601078, 0.000309654453, -0.178576246, -0.1630039  , 0.438182563 , -0.00774027128, -0.01131911 , 2.42431188  , 2.22        , 3           , 11          , 0.00795401353, 0.007954009
-0.123305805, 0.0708536357, -9.806445   , 0.002173747 , 0.000117720447, 0.0008874498, -0.178374   , -0.163273558, 0.437980324 , -0.007718634, -0.0113178631, 2.42432046  , 2.23        , 3           , 12          , 0.04512419  , 0
-0.130250365, 0.068577826 , -9.776676   , 0.0010488   , -0.00101618376, -0.000532240956, -0.178374   , -0.163408384, 0.4378455   , -0.0077080857, -0.0113280658, 2.42431521  , 2.24        , 3           , 50          , 0           , 0
-0.110732526, 0.06526376  , -9.798237   , -0.00177530514, -0.00103528262, -0.0002628728, -0.178374   , -0.163408384, 0.4378455   , -0.0077258097, -0.01133844 , 2.42431283  , 2.25        , 3           , 11          , 0.00795401353, 0.007954009
-0.102839641, 0.08006139  , -9.798115   , 0.00132786052, -0.000169574574, 0.0008830649, -0.178576246, -0.163273558, 0.437980324 , -0.00771263242, -0.0113400677, 2.42432141  , 2.26        , 3           , 12          , 0.04512419  , 0
-0.0693026  , 0.08371025  , -9.792419   , -0.00487830769, -0.00190098968, -0.00112627342, -0.17844142 , -0.163206145, 0.43811515  , -0.007761289, -0.0113591636, 2.42431045  , 2.27        , 3           , 50          , 0           , 0
-0.09024613 , 0.07404154  , -9.796235   , -0.00036891026, 0.000100526835, -0.0005370899, -0.178508833, -0.163071319, 0.437980324 , -0.00776491826, -0.0113582  , 2.4243052   , 2.28        , 3           , 11          , 0.00795401353, 0.007954009
-0.112836055, 0.08059622  , -9.788245   , -0.000935321033, 0.000378271157, -0.0008218273, -0.178508833, -0.163071319, 0.437980324 , -0.007774177, -0.0113544837, 2.42429662  , 2.29        , 3           , 12          , 0.04512419  , 0
-0.1073986  , 0.0457945243, -9.790155   , -0.000640303129, 0.000166205515, -0.000255429, -0.178374   , -0.163071319, 0.4378455   , -0.00776383141, -0.011248745, 2.42429423  , 2.3         , 3           , 50          , 0           , 0
-0.140299082, 0.058804214 , -9.78719    , -0.000358780846, 0.000449682877, 0.00059393415, -0.178508833, -0.163071319, 0.438249975 , -0.00776748545, -0.0112442011, 2.42430043  , 2.31        , 3           , 11          , 0.007865668 , 0.007865665
-0.135077924, 0.0790263861, -9.780739   , 0.00020493078, 0.000453497341, -0.00138119422, -0.178508833, -0.163206145, 0.438182563 , -0.00776528148, -0.0112397727, 2.42428613  , 2.32        , 3           , 12          , 0.0459937751, 0
-0.0954936  , 0.0912173241, -9.786713   , -6.971031E-05, -0.0009562342, 2.80063559E-05, -0.178508833, -0.163206145, 0.438182563 , -0.007765982, -0.0112493327, 2.424287    , 2.33        , 3           , 50          , 0           , 0
-0.108612061, 0.08781065  , -9.80129051 , 0.00247131567, -0.0009390483, -0.00137282838, -0.178576246, -0.1630039  , 0.4379129   , -0.007741115, -0.0112588312, 2.42427278  , 2.34        , 3           , 11          , 0.007865668 , 0.007865665
-0.11967729 , 0.07170887  , -9.80505848 , 0.00246901717, -0.000375915843, -0.0005243481, -0.178508833, -0.163071319, 0.438047737 , -0.00771636656, -0.0112626292, 2.424268    , 2.35        , 3           , 12          , 0.0459937751, 0
-0.106050193, 0.08006534  , -9.788196   , 0.00303510157, -0.000653661846, -0.000804685638, -0.178508833, -0.163206145, 0.43811515  , -0.007685926, -0.0112692257, 2.42426038  , 2.36        , 3           , 50          , 0           , 0
-0.104757831, 0.104024686 , -9.805714   , -0.0009108365, -0.0023697936, -0.00139080128, -0.178508833, -0.163206145, 0.43811515  , -0.00769487955, -0.01129303 , 2.424246    , 2.37        , 3           , 11          , 0.007865668 , 0.007865665
-0.10704536 , 0.06214935  , -9.823984   , -0.0020390756, -0.00237742625, 0.00114676822, -0.178239182, -0.163273558, 0.4378455   , -0.00771540124, -0.0113167148, 2.424258    , 2.38        , 3           , 12          , 0.0459937751, 0
-0.12139824 , 0.0802838653, -9.799611   , -0.000359270285, 0.00044968052, -0.000253678125, -0.178576246, -0.163206145, 0.438182563 , -0.00771896541, -0.0113122379, 2.42425561  , 2.39        , 3           , 50          , 0           , 0
-0.133955672, 0.09481361  , -9.782925   , -0.003491061, 0.00126695784, -0.000831736135, -0.178576246, -0.163138732, 0.438249975 , -0.007786728, -0.01130989 , 2.4242475   , 2.4         , 3           , 11          , 0.0077734   , 0.00777339563
-0.111177534, 0.0733096749, -9.774252   , 0.000754684 , -0.000393778551, 0.0008806389, -0.178576246, -0.163273558, 0.437980324 , -0.00777928066, -0.01131376 , 2.42425656  , 2.41        , 3           , 12          , 0.0468830764, 0
-0.12285132 , 0.0833475   , -9.766616   , -0.000941760256, -0.0001236755, 2.55588075E-05, -0.178576246, -0.163273558, 0.437980324 , -0.00778870145, -0.0113149928, 2.42425656  , 2.42        , 3           , 50          , 0           , 0
-0.126116365, 0.07259489  , -9.777985   , 0.00102423865, 0.00214221561, 0.000320786319, -0.178374   , -0.163138732, 0.438047737 , -0.00777849276, -0.0112935491, 2.42425942  , 2.43        , 3           , 11          , 0.0077734   , 0.00777339563
-0.1153457  , 0.09597179  , -9.789557   , 0.000175074674, 0.00241804845, -0.0005303428, -0.17844142 , -0.163340971, 0.438182563 , -0.0077766804, -0.0112694092, 2.4242537   , 2.44        , 3           , 12          , 0.0468830764, 0
-0.117595948, 0.0617146343, -9.792428   , 0.000745177967, 0.00129560661, -0.00109451963, -0.178576246, -0.163273558, 0.4379129   , -0.00776910363, -0.0112565393, 2.42424321  , 2.45        , 3           , 50          , 0           , 0
-0.10851983 , 0.0589467771, -9.805929   , 0.00245359028, -0.00122701272, 0.00116977631, -0.178576246, -0.163273558, 0.4379129   , -0.007744701, -0.0112687163, 2.42425466  , 2.46        , 3           , 11          , 0.0077734   , 0.00777339563
-0.102912523, 0.07732424  , -9.789086   , -0.0006497386, -0.00209272187, -0.00025869903, -0.178643659, -0.163273558, 0.438047737 , -0.00775117148, -0.0112896664, 2.42425275  , 2.47        , 3           , 12          , 0.0468830764, 0
-0.110120736, 0.07609969  , -9.802255   , -0.000371330651, -0.00124611577, 2.64569535E-05, -0.17844142 , -0.1630039  , 0.43811515  , -0.007754888, -0.011302121, 2.42425275  , 2.48        , 3           , 50          , 0           , 0
-0.12889342 , 0.06409723  , -9.790696   , -0.00293342955, 0.00296017388, 0.0011512636, -0.178374   , -0.163340971, 0.4379129   , -0.00778434938, -0.0112724314, 2.42426419  , 2.49        , 3           , 11          , 0.0077734   , 0.00777339563
-0.10661637 , 0.100436725 , -9.805742   , 0.00415812852, 0.000429192965, -0.00108059472, -0.178374   , -0.163340971, 0.4379129   , -0.00770997675, -0.0113423988, 2.42425275  , 2.5         , 3           , 12          , 0.0477906875, 0
-0.106814183, 0.08242245  , -9.81531048 , -0.00291525153, 0.00291552884, -0.00139215006, -0.1783066  , -0.163543209, 0.4379129   , -0.007738968, -0.0113133527, 2.42423844  , 2.51        , 3           , 50          , 0           , 0
-0.127264008, 0.07769141  , -9.813227   , -0.003176279, -0.00130985514, -0.0005523637, -0.1783066  , -0.163340971, 0.437980324 , -0.00777067058, -0.0113264918, 2.4242332   , 2.52        , 3           , 11          , 0.00767842634, 0.00767842
-0.124895707, 0.0577378161, -9.792048   , 0.00134180894, -0.0009977275, 0.000599290943, -0.17844142 , -0.163408384, 0.4377781   , -0.007757321, -0.0113364225, 2.4242394   , 2.53        , 3           , 12          , 0.0477906875, 0
-0.122854248, 0.07174003  , -9.803274   , 0.00161849638, 0.000130442088, 0.0003198061, -0.17844142 , -0.163408384, 0.4377781   , -0.007741172, -0.0113350945, 2.42424226  , 2.54        , 3           , 50          , 0           , 0
-0.128955379, 0.0533346161, -9.810177   , 0.001614804 , 0.0009751396, 0.00116872042, -0.178508833, -0.163273558, 0.438047737 , -0.007725154, -0.011325255, 2.42425418  , 2.55        , 3           , 11          , 0.00767842634, 0.00767842
-0.108891882, 0.0724080056, -9.782373   , -0.00150221284, 0.00264351116, -0.002233612, -0.178643659, -0.163071319, 0.438047737 , -0.00773992157, -0.0112989936, 2.42423177  , 2.56        , 3           , 12          , 0.0477906875, 0
-0.101571463, 0.07149172  , -9.803565   , -0.0009237599, 0.000394822127, 0.00200361246, -0.178374   , -0.163543209, 0.438047737 , -0.007749385, -0.0112948883, 2.42425179  , 2.57        , 3           , 50          , 0           , 0
-0.146694869, 0.044995755 , -9.81803    , -0.00317653082, -0.00102828466, 0.00142583251, -0.178374   , -0.163543209, 0.438047737 , -0.007781313, -0.01130506 , 2.424266    , 2.58        , 3           , 11          , 0.00767842634, 0.00767842
-0.109047309, 0.09140099  , -9.794047   , 0.00189813564, 0.0006954822, 0.000321990927, -0.1783066  , -0.1630039  , 0.438047737 , -0.00776236551, -0.0112980809, 2.424269    , 2.59        , 3           , 12          , 0.0477906875, 0
-0.104229607, 0.08272982  , -9.781843   , 0.00334301731, 0.00176973443, -0.00136582006, -0.178508833, -0.163138732, 0.43811515  , -0.007660975, -0.0113866273, 2.42425466  , 2.6         , 3           , 50          , 0           , 0
-0.128775239, 0.07267365  , -9.792016   , 0.000518497545, 0.00203220546, 0.000599206658, -0.178576246, -0.163408384, 0.437980324 , -0.007655856, -0.0113662621, 2.42426038  , 2.61        , 3           , 11          , 0.00758382166, 0.00758381467
-0.114203721, 0.08060461  , -9.785996   , 0.00221215421, 0.00232523261, 0.00145515474, -0.178576246, -0.163408384, 0.437980324 , -0.00763389841, -0.0113428971, 2.42427468  , 2.62        , 3           , 12          , 0.0487152934, 0
-0.118301287, 0.0779561251, -9.789202   , 0.001653781 , 0.000913585 , 0.0006027387, -0.17844142 , -0.163206145, 0.4377781   , -0.00761742843, -0.0113337142, 2.424281    , 2.63        , 3           , 50          , 0           , 0
-0.108241282, 0.09041699  , -9.772801   , -0.00171819783, -0.00276968512, -0.00111393037, -0.178508833, -0.163138732, 0.438182563 , -0.007634486, -0.0113614947, 2.42427     , 2.64        , 3           , 11          , 0.00758382166, 0.00758381467
-0.09829492 , 0.08270003  , -9.79355    , -0.00116844079, 0.000612923352, 0.0017192855, -0.17844142 , -0.163340971, 0.437980324 , -0.00764636556, -0.0113552371, 2.424287    , 2.65        , 3           , 12          , 0.0487152934, 0
-0.100145526, 0.074655    , -9.809868   , -0.00114802015, -0.00361055462, 0.000865163747, -0.178711072, -0.163206145, 0.4378455   , -0.007657947, -0.0113912737, 2.42429566  , 2.66        , 3           , 50          , 0           , 0
-0.101172656, 0.0665328056, -9.80629349 , -0.001161634, -0.0007949029, 0.00143457833, -0.178711072, -0.163206145, 0.4378455   , -0.00766972639, -0.0113991117, 2.42431045  , 2.67        , 3           , 11          , 0.00758382166, 0.00758381467
-0.105323248, 0.0678585   , -9.783721   , -0.0003226287, 0.0006186462, -0.000819601, -0.178711072, -0.163138732, 0.437980324 , -0.007672859, -0.0113929892, 2.42430234  , 2.68        , 3           , 12          , 0.0487152934, 0
-0.1282168  , 0.07944921  , -9.796051   , -0.00173778809, 0.000890653639, -0.00365112629, -0.178711072, -0.163273558, 0.43811515  , -0.00768982 , -0.0113843624, 2.42426515  , 2.69        , 3           , 50          , 0           , 0
-0.130847782, 0.07687247  , -9.825461   , 0.00167033239, -0.00246907352, 0.000314990815, -0.17844142 , -0.163273558, 0.4379129   , -0.0076731774, -0.01141596 , 2.424269    , 2.7         , 3           , 11          , 0.00748697855, 0.00748697156
-0.0962789357, 0.06238676  , -9.798138   , 0.0008131309, -0.000503848947, 3.15400539E-05, -0.17844142 , -0.163273558, 0.4379129   , -0.007665051, -0.0114209978, 2.424269    , 2.71        , 3           , 12          , 0.0496556573, 0
-0.0878287256, 0.0875298455, -9.790285   , -0.00228594174, -0.00193268061, 0.0011450341, -0.17844142 , -0.163206145, 0.4377781   , -0.00768804364, -0.0114402361, 2.42428041  , 2.72        , 3           , 50          , 0           , 0
-0.09150849 , 0.08038419  , -9.799382   , -0.000859778665, -0.005020353, -0.00111345435, -0.178778484, -0.163071319, 0.438047737 , -0.00769651728, -0.0114905229, 2.42427     , 2.73        , 3           , 11          , 0.00748697855, 0.00748697156
-0.104216993, 0.07961561  , -9.794964   , 0.0005202046, 0.00174676487, 0.00116384448, -0.178576246, -0.163340971, 0.437980324 , -0.00769144669, -0.0114729665, 2.42428136  , 2.74        , 3           , 12          , 0.0496556573, 0
-0.116959915, 0.0725702047, -9.802321   , 0.000232616891, 0.00258954545, -0.0005313953, -0.178576246, -0.163340971, 0.437980324 , -0.00768905832, -0.0114471121, 2.42427564  , 2.75        , 3           , 50          , 0           , 0
-0.115222849, 0.07070352  , -9.7901125  , 0.000531771744, -0.000787325553, -0.000535285566, -0.178643659, -0.163071319, 0.4379129   , -0.00768368 , -0.0114550265, 2.42427087  , 2.76        , 3           , 11          , 0.00748697855, 0.00748697156
-0.132862031, 0.06690943  , -9.80789    , 0.00107120723, 0.004284664 , -0.00108991587, -0.17844142 , -0.163273558, 0.43811515  , -0.0076728384, -0.0114122648, 2.42425942  , 2.77        , 3           , 12          , 0.0496556573, 0
-0.114325725, 0.0693469942, -9.792372   , 0.000239171844, 0.00146328984, 0.0011620936, -0.17844142 , -0.163138732, 0.43811515  , -0.00767057762, -0.0113975424, 2.42427087  , 2.78        , 3           , 50          , 0           , 0
-0.117014028, 0.0725263655, -9.789215   , 0.00193603162, 0.0009116172, 0.000321514963, -0.17844142 , -0.163138732, 0.43811515  , -0.007651253, -0.0113884024, 2.42427421  , 2.79        , 3           , 11          , 0.00748697855, 0.00748697156
-0.108876847, 0.07509828  , -9.77739    , 0.00137794763, 0.00202172529, 3.786404E-05, -0.178576246, -0.163273558, 0.4377781   , -0.00761429546, -0.0113910278, 2.42427421  , 2.8         , 3           , 12          , 0.0506106131, 0
-0.109451652, 0.0638459846, -9.78377    , 0.00137720606, 0.00230329344, 0.0011684479, -0.178508833, -0.163273558, 0.43811515  , -0.007600656, -0.011367905, 2.42428613  , 2.81        , 3           , 50          , 0           , 0
-0.131823033, 0.07593392  , -9.811461   , 0.0008284279, -0.00107931066, 3.04569112E-05, -0.178374   , -0.163273558, 0.4378455   , -0.007592376, -0.0113786953, 2.42428613  , 2.82        , 3           , 11          , 0.00739141833, 0.00739141041
-0.126178682, 0.06138565  , -9.798822   , 0.00166701793, 0.0006158082, -0.0005280634, -0.178374   , -0.163273558, 0.4378455   , -0.00757564465, -0.0113725765, 2.424281    , 2.83        , 3           , 12          , 0.0506106131, 0
-0.104837969, 0.06386238  , -9.804525   , 0.00335837551, 0.0014719679, 0.00117636472, -0.178576246, -0.163273558, 0.4379129   , -0.007542193, -0.0113577675, 2.4242928   , 2.84        , 3           , 50          , 0           , 0
-0.111219637, 0.06167045  , -9.801419   , 0.00222482742, 0.0017458814, -0.003066531, -0.178576246, -0.163408384, 0.4378455   , -0.00751959439, -0.0113405418, 2.42426181  , 2.85        , 3           , 11          , 0.00739141833, 0.00739141041
-0.101229973, 0.0722889155, -9.773727   , 0.0002561148, 0.000324692519, -0.0008176195, -0.178508833, -0.163408384, 0.437980324 , -0.00751694 , -0.0113373557, 2.4242537   , 2.86        , 3           , 12          , 0.0506106131, 0
-0.08858819 , 0.06853994  , -9.776359   , -2.98414088E-05, 0.001167481 , 0.000312515069, -0.178508833, -0.163408384, 0.437980324 , -0.007517273, -0.0113256583, 2.42425656  , 2.87        , 3           , 50          , 0           , 0
-0.114780143, 0.06711923  , -9.799164   , 0.00223236135, 0.0006196305, 0.000322182663, -0.178643659, -0.163206145, 0.4378455   , -0.007494985, -0.011319438, 2.42426     , 2.88        , 3           , 11          , 0.00739141833, 0.00739141041
-0.115147233, 0.07210385  , -9.804118   , -0.000297097344, -0.00193164567, 2.38873617E-05, -0.178508833, -0.163273558, 0.4379129   , -0.007497961, -0.0113387518, 2.42426038  , 2.89        , 3           , 12          , 0.0506106131, 0
-0.11313317 , 0.059376996 , -9.783816   , -0.000558186963, -0.0008033023, -0.00167118059, -0.17844142 , -0.163138732, 0.438182563 , -0.007449859, -0.0113392351, 2.42424321  , 2.9         , 3           , 50          , 0           , 0
-0.11016465 , 0.07472507  , -9.795933   , -0.000294623576, 0.003140522 , -0.000533638638, -0.17844142 , -0.163138732, 0.438182563 , -0.00745274173, -0.01130787 , 2.42423749  , 2.91        , 3           , 11          , 0.00729528768, 0.007295279
-0.11441572 , 0.06614963  , -9.780634   , -0.0014029314, -0.00109059166, 0.000302196859, -0.1783066  , -0.1634758  , 0.437980324 , -0.007466806, -0.0113187544, 2.42424035  , 2.92        , 3           , 12          , 0.0515790768, 0
-0.126083434, 0.07172887  , -9.788836   , -0.000570080359, 0.00173078664, -0.0005371252, -0.178508833, -0.1630039  , 0.4379129   , -0.00747244433, -0.0113014877, 2.424235    , 2.93        , 3           , 50          , 0           , 0
-0.124045067, 0.0866213   , -9.796442   , 0.001122434 , 0.00202380843, -0.00165893987, -0.178576246, -0.163138732, 0.438047737 , -0.007461031, -0.011281373, 2.42421842  , 2.94        , 3           , 11          , 0.00729528768, 0.007295279
-0.121374875, 0.08164186  , -9.800962   , -0.000274202961, -0.00108295644, -0.00138776016, -0.1783066  , -0.163340971, 0.4379129   , -0.00746361725, -0.0112923067, 2.42420459  , 2.95        , 3           , 12          , 0.0515790768, 0
-0.131889969, 0.07364793  , -9.802431   , -0.00281514 , -0.00138171343, -0.002247659, -0.1783066  , -0.163340971, 0.4379129   , -0.007491516, -0.0113062905, 2.42418218  , 2.96        , 3           , 50          , 0           , 0
-0.119763426, 0.07119271  , -9.785625   , -0.0002770798, -0.000238254972, 0.000873841345, -0.178508833, -0.163071319, 0.4379129   , -0.007494385, -0.0113086076, 2.42419076  , 2.97        , 3           , 11          , 0.00729528768, 0.007295279
-0.110701576, 0.06930599  , -9.792795   , 0.00224828557, 0.0028761453, -0.00108729512, -0.17844142 , -0.163340971, 0.43811515  , -0.00747177657, -0.0112799285, 2.42417979  , 2.98        , 3           , 12          , 0.0515790768, 0
-0.112196937, 0.09056159  , -9.801758   , 0.00169367949, 0.000901372 , -0.000245354051, -0.1783066  , -0.163340971, 0.437710673 , -0.0074548116, -0.011270931, 2.42417741  , 2.99        , 3           , 50          , 0           , 0
-0.115939409, 0.05174839  , -9.786581   , 0.00140676682, -0.00111103384, -0.000532424136, -0.1783066  , -0.163340971, 0.437710673 , -0.00746859936, -0.0113605168, 2.42417216  , 3           , 3           , 11          , 0.00720027369, 0.00720026344
-0.116597645, 0.0635645539, -9.809135   , 0.000549728167, 0.0008541918, -0.0005333374, -0.178508833, -0.163273558, 0.4379129   , -0.0074630403, -0.0113520138, 2.424167    , 3.01        , 3           , 12          , 0.0525600165, 0
-0.1218577  , 0.076266624 , -9.81093    , -0.0008576456, -0.000281622226, -0.00195434527, -0.178778484, -0.163206145, 0.438047737 , -0.00747139473, -0.0113549754, 2.424147    , 3.02        , 3           , 50          , 0           , 0
-0.0949137956, 0.06907156  , -9.778213   , -0.0005700579, -0.00112440286, -0.0002591052, -0.178576246, -0.163206145, 0.4378455   , -0.00747706741, -0.0113662388, 2.424145    , 3.03        , 3           , 11          , 0.00720027369, 0.00720026344
-0.111411214, 0.08732941  , -9.782783   , 0.00224027061, 0.00171034771, -0.000241596514, -0.178576246, -0.163206145, 0.4378455   , -0.00745463651, -0.0113491537, 2.42414212  , 3.04        , 3           , 12          , 0.0525600165, 0
-0.133323073, 0.07092521  , -9.792962   , -0.00368560664, 0.0005439756, -0.00111860037, -0.178508833, -0.1634758  , 0.437980324 , -0.007491364, -0.0113437958, 2.42413068  , 3.05        , 3           , 50          , 0           , 0
-0.126036465, 0.07221328  , -9.798777   , -0.001972597, -0.003104909, -0.0005512649, -0.17844142 , -0.163206145, 0.4379129   , -0.00751103 , -0.0113748861, 2.424126    , 3.06        , 3           , 11          , 0.00720027369, 0.00720026344
-0.108388945, 0.07467508  , -9.787333   , -0.0017046883, -5.779206E-06, 0.0008675124, -0.178576246, -0.163138732, 0.4378455   , -0.0075281756, -0.0113748787, 2.42413449  , 3.07        , 3           , 12          , 0.0525600165, 0
-0.09892243 , 0.100789964 , -9.803422   , 0.00309772417, -0.000536447857, -0.00193634222, -0.178576246, -0.163138732, 0.4378455   , -0.00749697769, -0.0113803893, 2.424115    , 3.08        , 3           , 50          , 0           , 0
-0.107450865, 0.07067363  , -9.808132   , 0.00281209429, 0.000306342175, -0.000241132308, -0.178576246, -0.1630039  , 0.4379129   , -0.00746883033, -0.011377343, 2.42411256  , 3.09        , 3           , 11          , 0.00720027369, 0.00720026344
-0.09895286 , 0.06736317  , -9.792714   , -0.00143465935, -0.00170099665, -0.001393886, -0.17844142 , -0.163273558, 0.437980324 , -0.00752290944, -0.0114103118, 2.42409921  , 3.1         , 3           , 12          , 0.053552486 , 0
-0.110403486, 0.0566775054, -9.795558   , 0.00139551132, -0.00280815549, -0.00081737747, -0.178508833, -0.163273558, 0.4378455   , -0.007508863, -0.0114384536, 2.42409158  , 3.11        , 3           , 50          , 0           , 0
-0.1062064  , 0.0602993481, -9.81359    , -0.0003197966, 0.00140386145, -0.000536232546, -0.178508833, -0.163273558, 0.4378455   , -0.007511999, -0.0114244549, 2.42408586  , 3.12        , 3           , 11          , 0.007106728 , 0.00710671954
-0.117384188, 0.0784011856, -9.790549   , 0.00193241087, 0.00254539377, -0.003349336, -0.178374   , -0.163273558, 0.4378455   , -0.00749229034, -0.0113992533, 2.42405248  , 3.13        , 3           , 12          , 0.053552486 , 0
-0.128643453, 0.079475686 , -9.802382   , 0.0013818976, 7.49668061E-06, -0.000247963151, -0.178508833, -0.1629365  , 0.437980324 , -0.00747844251, -0.0113991965, 2.42404962  , 3.14        , 3           , 50          , 0           , 0
-0.123763449, 0.07442583  , -9.793778   , 0.0013777155, 0.000852191937, -0.000246661337, -0.178508833, -0.1634758  , 0.437980324 , -0.00746463565, -0.0113906935, 2.42404771  , 3.15        , 3           , 11          , 0.007106728 , 0.00710671954
-0.120980248, 0.08114307  , -9.788305   , -0.00399225 , 0.00166059914, 0.0002946934, -0.178508833, -0.1634758  , 0.437980324 , -0.007504591, -0.0113740666, 2.42405     , 3.16        , 3           , 12          , 0.053552486 , 0
-0.12651296 , 0.07041399  , -9.798787   , 0.00109594129, 0.000850285054, 0.0008821714, -0.178576246, -0.163340971, 0.4378455   , -0.00749373063, -0.0113654984, 2.42405915  , 3.17        , 3           , 50          , 0           , 0
-0.0979714841, 0.07410923  , -9.789515   , 0.005041716 , 0.00256641582, 0.00118574966, -0.178643659, -0.163206145, 0.438182563 , -0.00744344527, -0.0113397473, 2.4240706   , 3.18        , 3           , 11          , 0.007106728 , 0.00710671954
-0.116965294, 0.07033411  , -9.808207   , 0.00222130353, 0.00170261937, 0.0006062035, -0.178643659, -0.163206145, 0.437980324 , -0.007421299, -0.0113226771, 2.42407632  , 3.19        , 3           , 12          , 0.053552486 , 0
-0.121134408, 0.06673494  , -9.796954   , 0.00363404979, 0.0008444111, -0.000518781249, -0.178508833, -0.163340971, 0.4379129   , -0.00739106 , -0.0113630928, 2.42407155  , 3.2         , 3           , 50          , 0           , 0
-0.129309729, 0.100658685 , -9.792809   , -0.000874368241, -0.00115710078, 0.00058726  , -0.178508833, -0.163340971, 0.4379129   , -0.00739987148, -0.01137462 , 2.42407727  , 3.21        , 3           , 11          , 0.0070152306, 0.00701522175
-0.1196659  , 0.0770743042, -9.790572   , 0.00307124364, 0.000559029169, 0.000608300732, -0.178778484, -0.163138732, 0.437980324 , -0.007369229, -0.0113689825, 2.42408347  , 3.22        , 3           , 12          , 0.0545555837, 0
-0.0948361  , 0.0682418346, -9.799911   , 0.00249712146, 0.002526167 , 0.00145631691, -0.17844142 , -0.163543209, 0.438182563 , -0.0073444196, -0.0113436142, 2.42409778  , 3.23        , 3           , 50          , 0           , 0
-0.1184427  , 0.06311198  , -9.802372   , -3.51255E-05, 0.0005380211, 0.0011588895, -0.17844142 , -0.163206145, 0.4377781   , -0.00734490249, -0.0113381483, 2.4241097   , 3.24        , 3           , 11          , 0.0070152306, 0.00701522175
-0.104195148, 0.08141869  , -9.794503   , 0.00137693435, 0.000265998824, -0.001377797, -0.17844142 , -0.163206145, 0.4377781   , -0.007330977, -0.0113355918, 2.42409539  , 3.25        , 3           , 12          , 0.0545555837, 0
-0.106867537, 0.08595     , -9.79089    , 0.002499998 , 0.00168146566, -0.000805284653, -0.178508833, -0.163206145, 0.437980324 , -0.00730588427, -0.0113188345, 2.42408776  , 3.26        , 3           , 50          , 0           , 0
-0.125682652, 0.0618617237, -9.807856   , -0.00116883719, 0.0008119338, -0.00336654414, -0.178374   , -0.163206145, 0.438249975 , -0.007317193, -0.01131096 , 2.42405343  , 3.27        , 3           , 11          , 0.0070152306, 0.00701522175
-0.133233055, 0.06653465  , -9.829138   , -4.20066935E-05, 0.00166427507, -0.00109967461, -0.17844142 , -0.163340971, 0.438047737 , -0.007317486, -0.0112943994, 2.42404246  , 3.28        , 3           , 12          , 0.0545555837, 0
-0.117351688, 0.074410364 , -9.811357   , 0.0007968208, 0.00364096719, 0.00116761355, -0.17844142 , -0.163340971, 0.438047737 , -0.007309647, -0.0112579046, 2.42405438  , 3.29        , 3           , 50          , 0           , 0
-0.105312936, 0.06920591  , -9.781907   , -0.00201138644, -0.00148340221, -0.0005487912, -0.17844142 , -0.163206145, 0.437980324 , -0.007347268, -0.011353814, 2.42404866  , 3.3         , 3           , 11          , 0.006925612 , 0.00692560337
-0.118044764, 0.0594914071, -9.800577   , -0.00454707351, -0.002908421, -0.00197550072, -0.17844142 , -0.163340971, 0.43811515  , -0.00739251636, -0.0113830427, 2.42402959  , 3.31        , 3           , 12          , 0.05556849  , 0
-0.121829525, 0.08164567  , -9.800514   , -0.0020254897, 0.00133224775, -0.000826989359, -0.178374   , -0.163340971, 0.438047737 , -0.00741267623, -0.0113697806, 2.424021    , 3.32        , 3           , 50          , 0           , 0
-0.116121948, 0.0693803653, -9.79600048 , -0.0006197474, 0.00246805418, -0.00223135646, -0.178374   , -0.163340971, 0.438047737 , -0.00741861854, -0.0113452664, 2.423998    , 3.33        , 3           , 11          , 0.006925612 , 0.00692560337
-0.09826512 , 0.0551245958, -9.778748   , 0.00332577527, 0.004465755 , 5.041789E-05, -0.178778484, -0.163138732, 0.437710673 , -0.00738536427, -0.0113006067, 2.42399859  , 3.34        , 3           , 12          , 0.05556849  , 0
-0.121204689, 0.09249216  , -9.807694   , 0.00278215832, 0.0002384609, 0.00060635  , -0.178508833, -0.163138732, 0.437980324 , -0.00735761 , -0.0112981778, 2.42400479  , 3.35        , 3           , 50          , 0           , 0
-0.139491186, 0.07515524  , -9.821466   , 0.0008026341, 0.0005066507, -0.00138019677, -0.178576246, -0.163408384, 0.438182563 , -0.00734942826, -0.011293212, 2.423991    , 3.36        , 3           , 11          , 0.006925612 , 0.00692560337
-0.108722247, 0.08504327  , -9.783224   , -0.001723962, -0.00232618349, 0.0008639111, -0.178576246, -0.163408384, 0.438182563 , -0.007366767, -0.0113164093, 2.424       , 3.37        , 3           , 12          , 0.05556849  , 0
-0.105568446, 0.08142255  , -9.790898   , 0.0008088627, -0.000619606464, -0.0002517826, -0.178576246, -0.163138732, 0.437980324 , -0.00735864928, -0.0113226241, 2.42399716  , 3.38        , 3           , 50          , 0           , 0
-0.121881731, 0.0740154   , -9.812297   , 0.00165753742, -0.0008954417, -0.000248265715, -0.178508833, -0.1629365  , 0.43811515  , -0.007342048, -0.0113315955, 2.42399478  , 3.39        , 3           , 11          , 0.006925612 , 0.00692560337
-0.129306465, 0.0623493455, -9.806074   , 0.00304014  , 0.00133998028, 0.0006094477, -0.178643659, -0.163340971, 0.4379129   , -0.00735420268, -0.0113781905, 2.424002    , 3.4         , 3           , 12          , 0.0565904155, 0
-0.100103289, 0.0813844651, -9.79854    , 0.00135173323, -7.93086947E-05, -0.000813310849, -0.178643659, -0.163340971, 0.4379129   , -0.00734059233, -0.0113790426, 2.42399335  , 3.41        , 3           , 50          , 0           , 0
-0.114506289, 0.08965865  , -9.793645   , -0.00118838786, -0.000378061959, -0.000260522153, -0.178508833, -0.163273558, 0.4377781   , -0.00735244574, -0.0113828424, 2.42399049  , 3.42        , 3           , 11          , 0.00683852  , 0.006838511
-0.128295466, 0.07135116  , -9.802865   , -0.00119052338, 0.000185071316, 0.0008704955, -0.17844142 , -0.163138732, 0.43811515  , -0.00736445142, -0.0113809267, 2.42399955  , 3.43        , 3           , 12          , 0.0565904155, 0
-0.119971663, 0.04915282  , -9.805606   , 0.00163883122, -0.000922091655, 3.431656E-05, -0.17844142 , -0.163206145, 0.438182563 , -0.007348067, -0.011390144, 2.424       , 3.44        , 3           , 50          , 0           , 0
-0.127656639, 0.05594847  , -9.787106   , 0.00303997681, 0.00133997947, 0.000326910173, -0.178711072, -0.163206145, 0.4377781   , -0.00731770368, -0.0113767209, 2.424003    , 3.45        , 3           , 11          , 0.00683852  , 0.006838511
-0.1081526  , 0.0918279   , -9.789971   , -5.368286E-05, -0.00121511356, 0.001156131 , -0.178711072, -0.163206145, 0.4377781   , -0.007318374, -0.0113887871, 2.42401481  , 3.46        , 3           , 12          , 0.0565904155, 0
-0.09056947 , 0.0853105038, -9.791672   , -0.00288311183, -0.000389522582, -0.000550961238, -0.178576246, -0.163071319, 0.4379129   , -0.007347143, -0.0113927228, 2.42400956  , 3.47        , 3           , 50          , 0           , 0
-0.115495145, 0.0829065442, -9.795036   , -0.00119970308, 0.00187445793, -0.00053958816, -0.17844142 , -0.163071319, 0.438047737 , -0.00735907629, -0.0113740191, 2.42400384  , 3.48        , 3           , 11          , 0.00683852  , 0.006838511
-0.126708776, 0.09026693  , -9.797804   , 0.00134353247, 0.00161008246, -0.0005281697, -0.178643659, -0.163138732, 0.4378455   , -0.00734557863, -0.0113579575, 2.423998    , 3.49        , 3           , 12          , 0.0565904155, 0
-0.118912034, 0.0608721226, -9.805548   , -0.00348210125, 0.000430435553, 1.29796681E-05, -0.178643659, -0.163138732, 0.4378455   , -0.00745066674, -0.0114022139, 2.423999    , 3.5         , 3           , 50          , 0           , 0
-0.108521879, 0.09636438  , -9.795831   , -0.0003816348, 0.00157770235, -0.00110094808, -0.178711072, -0.163138732, 0.437980324 , -0.007454357, -0.0113865193, 2.423988    , 3.51        , 3           , 11          , 0.00675257063, 0.00675256224
-0.1036515  , 0.083272405 , -9.810762   , 0.000186985766, 0.00101839693, 0.0005960427, -0.178508833, -0.163138732, 0.4383174   , -0.007452554, -0.0113762915, 2.4239943   , 3.52        , 3           , 12          , 0.05762063  , 0
-0.117609277, 0.08885707  , -9.8126545  , -0.00235329848, 0.0007196429, 0.0008662938, -0.178576246, -0.163273558, 0.4377781   , -0.007476185, -0.0113690319, 2.424003    , 3.53        , 3           , 50          , 0           , 0
-0.140800744, 0.0832450539, -9.807432   , -0.000937798, -0.000115506351, -0.0005411105, -0.178576246, -0.163273558, 0.4377781   , -0.00748550147, -0.0113702258, 2.42399716  , 3.54        , 3           , 11          , 0.00675257063, 0.00675256224
-0.122162491, 0.09246047  , -9.795048   , 0.0004634359, 0.00186499348, -0.00250925077, -0.178576246, -0.163273558, 0.4377781   , -0.007480581, -0.0113517642, 2.42397237  , 3.55        , 3           , 12          , 0.05762063  , 0
-0.118481793, 0.06575842  , -9.784282   , 0.00130686071, 0.00271542044, -0.00193892326, -0.178711072, -0.1630039  , 0.43811515  , -0.00746729 , -0.0113247558, 2.42395234  , 3.56        , 3           , 50          , 0           , 0
-0.09057133 , 0.085309    , -9.791219   , 0.0024426335, 0.001596802 , -0.00108777871, -0.178643659, -0.163273558, 0.4377781   , -0.007442739, -0.0113088693, 2.42394137  , 3.57        , 3           , 11          , 0.00675257063, 0.00675256224
-0.097581774, 0.06691119  , -9.797225   , 0.0007525807, 0.000740648655, -0.0005319071, -0.178643659, -0.163273558, 0.4377781   , -0.00743515231, -0.0113015026, 2.42393613  , 3.58        , 3           , 12          , 0.05762063  , 0
-0.114687689, 0.07879928  , -9.784199   , -0.00149584492, -0.00152715237, -0.000828451535, -0.178778484, -0.163273558, 0.4379129   , -0.00745001761, -0.0113168349, 2.42392755  , 3.59        , 3           , 50          , 0           , 0
-0.110156976, 0.08008748  , -9.780543   , -0.000120958226, 0.000447700731, -0.0027963242, -0.178643659, -0.1630039  , 0.437980324 , -0.00751386676, -0.0113260755, 2.42390084  , 3.6         , 3           , 11          , 0.006668869 , 0.00666886
-0.129138052, 0.0758763254, -9.803757   , -0.00180814846, -0.0006900109, 0.000301950873, -0.17844142 , -0.163543209, 0.43811515  , -0.007531984, -0.0113329524, 2.4239037   , 3.61        , 3           , 12          , 0.0586584546, 0
-0.130182773, 0.07175705  , -9.78299    , -0.00152990385, 0.000156594382, 0.000304569636, -0.17844142 , -0.163543209, 0.43811515  , -0.007547317, -0.0113313645, 2.42390656  , 3.62        , 3           , 50          , 0           , 0
-0.120288529, 0.06667593  , -9.782484   , 0.00100226852, 0.00186316832, -0.00194127415, -0.178643659, -0.163408384, 0.4378455   , -0.00753707346, -0.01131288 , 2.42388749  , 3.63        , 3           , 11          , 0.006668869 , 0.00666886
-0.136669666, 0.0583211258, -9.790327   , -0.00123869767, -0.001812456, -0.00139237568, -0.17844142 , -0.163206145, 0.437980324 , -0.007549304, -0.0113311093, 2.42387319  , 3.64        , 3           , 12          , 0.0586584546, 0
-0.118190445, 0.0816167444, -9.804553   , -0.000965865736, 0.000160410447, -0.00110548374, -0.178643659, -0.163340971, 0.43811515  , -0.007558838, -0.0113295894, 2.4238627   , 3.65        , 3           , 50          , 0           , 0
-0.113132551, 0.0851916745, -9.811731   , 0.0007225408, 0.00157969957, 0.000317274738, -0.178643659, -0.163340971, 0.43811515  , -0.00755164772, -0.0113137681, 2.42386556  , 3.66        , 3           , 11          , 0.006668869 , 0.00666886
-0.120735034, 0.0599910878, -9.805566   , -0.0012453415, -0.000404628925, -0.0008251311, -0.178711072, -0.163071319, 0.4378455   , -0.0075640073, -0.011317878, 2.423857    , 3.67        , 3           , 12          , 0.0586584546, 0
-0.123031661, 0.0586521178, -9.801973   , 0.004962146 , 0.0007636491, -0.00135949766, -0.178711072, -0.163138732, 0.438182563 , -0.00751423044, -0.0113103455, 2.42384362  , 3.68        , 3           , 50          , 0           , 0
-0.117386393, 0.0779530555, -9.791454   , 0.00100078573, 0.00242630462, 0.0003198935, -0.178711072, -0.163138732, 0.43811515  , -0.007504256, -0.0112860566, 2.42384648  , 3.69        , 3           , 11          , 0.006668869 , 0.00666886
-0.117172323, 0.0549904332, -9.806915   , -0.000109701185, -0.00043465136, 0.000310030417, -0.178711072, -0.163138732, 0.43811515  , -0.00749237277, -0.0113829672, 2.4238503   , 3.7         , 3           , 12          , 0.0597032346, 0
-0.11080505 , 0.06297324  , -9.787851   , -0.002080861, -0.001855852, -0.00167912012, -0.1783066  , -0.163340971, 0.4379129   , -0.007512992, -0.01140165 , 2.42383313  , 3.71        , 3           , 50          , 0           , 0
-0.114360526, 0.0702115   , -9.781069   , 0.00160100951, -0.003520403, 0.00172584632, -0.1788459  , -0.163138732, 0.43811515  , -0.00749718072, -0.0114367241, 2.42385077  , 3.72        , 3           , 11          , 0.0065873717, 0.006587365
-0.114048079, 0.05938007  , -9.781563   , -0.000106260588, -0.0009977785, 0.00143931247, -0.178778484, -0.163138732, 0.43811515  , -0.007498409, -0.0114465952, 2.42386556  , 3.73        , 3           , 12          , 0.0597032346, 0
-0.130234525, 0.0596636571, -9.809256   , -0.00292830449, -0.00186158239, -0.00196560845, -0.178711072, -0.163543209, 0.4379129   , -0.00752746826, -0.0114653576, 2.42384553  , 3.74        , 3           , 50          , 0           , 0
-0.10731063 , 0.07882157  , -9.816234   , -0.00179589808, -0.00213550124, 0.000299525156, -0.178711072, -0.163543209, 0.4379129   , -0.00754546328, -0.01148669 , 2.42384934  , 3.75        , 3           , 11          , 0.0065873717, 0.006587365
-0.1196199  , 0.07621887  , -9.804586   , -0.000954683055, -0.00100351381, -0.0005424005, -0.178576246, -0.163206145, 0.4379129   , -0.00755494926, -0.0114967646, 2.42384362  , 3.76        , 3           , 12          , 0.0597032346, 0
-0.107321307, 0.08461548  , -9.794967   , 0.00186925882, -0.0009844158, -0.00109430612, -0.178508833, -0.163206145, 0.438249975 , -0.00753613142, -0.0115066906, 2.42383313  , 3.77        , 3           , 50          , 0           , 0
-0.1179276  , 0.0743159056, -9.781531   , -0.001233343, -0.001568549, 0.00115063949, -0.178374   , -0.163340971, 0.437980324 , -0.00754859764, -0.0115222894, 2.42384458  , 3.78        , 3           , 11          , 0.0065873717, 0.006587365
-0.0888839662, 0.0767068043, -9.78853    , 0.00101623917, 0.000136114017, -0.0013790587, -0.178374   , -0.163340971, 0.437980324 , -0.00753827626, -0.011521033, 2.42383027  , 3.79        , 3           , 12          , 0.0597032346, 0
-0.106555648, 0.07690352  , -9.785501   , -0.000391160458, 0.000130477449, 0.000309582334, -0.178643659, -0.163206145, 0.438182563 , -0.00753273442, -0.0115098218, 2.42383361  , 3.8         , 3           , 50          , 0           , 0
-0.113771133, 0.08102928  , -9.779664   , -0.00124532217, 0.00125100161, -0.00195293233, -0.17844142 , -0.163273558, 0.437980324 , -0.007544963, -0.0114974594, 2.423814    , 3.81        , 3           , 11          , 0.00650813244, 0.00650812639
-0.121126778, 0.09701879  , -9.812196   , 0.003832369 , 0.00269321143, -0.000231832979, -0.17844142 , -0.163138732, 0.438182563 , -0.00750661 , -0.0114705451, 2.4238112   , 3.82        , 3           , 12          , 0.06075439  , 0
-0.107778795, 0.08327792  , -9.79814    , -0.0006577638, -0.00296864565, 0.00115110457, -0.17844142 , -0.163138732, 0.438182563 , -0.007513322, -0.0115001444, 2.4238236   , 3.83        , 3           , 50          , 0           , 0
-0.110281207, 0.0759696662, -9.763386   , -0.00150446594, -0.00325594447, -0.000265967334, -0.178711072, -0.163206145, 0.4378455   , -0.00752833858, -0.011532723, 2.42382073  , 3.84        , 3           , 11          , 0.00650813244, 0.00650812639
-0.103166059, 0.05703302  , -9.792337   , 0.00215346925, -0.000415463, 0.000320566876, -0.178778484, -0.163138732, 0.438182563 , -0.007506841, -0.0115368543, 2.423824    , 3.85        , 3           , 12          , 0.06075439  , 0
-0.09822975 , 0.052475132 , -9.795934   , 0.000176970731, -0.000428830448, 0.00115896086, -0.178508833, -0.163340971, 0.4378455   , -0.007505204, -0.0115410546, 2.42383552  , 3.86        , 3           , 50          , 0           , 0
-0.0987829  , 0.0804450437, -9.792206   , 0.001312254 , -0.00154745055, 0.00116249279, -0.178508833, -0.163340971, 0.4378455   , -0.0074922177, -0.0115564428, 2.42384744  , 3.87        , 3           , 11          , 0.00650813244, 0.00650812639
-0.110317469, 0.06210342  , -9.79915    , 0.00214945036, 0.000429233041, 0.0006044062, -0.178711072, -0.163408384, 0.438047737 , -0.007470793, -0.0115521075, 2.42385316  , 3.88        , 3           , 12          , 0.06075439  , 0
-0.1300765  , 0.06916504  , -9.817351   , -0.00094372 , -0.00212585763, 0.00228123949, -0.178643659, -0.163206145, 0.438047737 , -0.007480495, -0.0115731927, 2.423876    , 3.89        , 3           , 50          , 0           , 0
-0.121133909, 0.09745936  , -9.80903    , 0.000186361285, -0.000701705168, -0.0005366772, -0.178643659, -0.163408384, 0.43811515  , -0.007455268, -0.0115576619, 2.42387128  , 3.9         , 3           , 11          , 0.006430766 , 0.006430757
-0.08347577 , 0.07528351  , -9.786688   , -0.00149885681, -0.00240255054, 0.00114804227, -0.178643659, -0.163408384, 0.43811515  , -0.00747039169, -0.0115816016, 2.42388272  , 3.91        , 3           , 12          , 0.061811354 , 0
-0.09627114 , 0.06283942  , -9.798588   , -0.00010164157, 0.0004226452, -0.000536258449, -0.178778484, -0.163610622, 0.4377781   , -0.00747134443, -0.0115774153, 2.423877    , 3.92        , 3           , 50          , 0           , 0
-0.122521363, 0.101022527 , -9.790495   , 0.00102191151, 0.00183811435, 0.000883866043, -0.178643659, -0.163340971, 0.438047737 , -0.00746122748, -0.0115589714, 2.423886    , 3.93        , 3           , 11          , 0.006430766 , 0.006430757
-0.123126365, 0.0541118756, -9.793406   , 0.0021526122, 0.00128261535, -0.00221964624, -0.178711072, -0.163340971, 0.43811515  , -0.007439442, -0.0115463091, 2.42386365  , 3.94        , 3           , 12          , 0.061811354 , 0
-0.109781779, 0.07600214  , -9.774681   , -0.00151008321, -0.0004316022, -0.0013917574, -0.178711072, -0.163340971, 0.43811515  , -0.00745438226, -0.01155073 , 2.42384982  , 3.95        , 3           , 50          , 0           , 0
-0.127444416, 0.06817189  , -9.799708   , 0.000474527245, -0.00182605442, -0.000254558545, -0.178711072, -0.163071319, 0.4378455   , -0.00744960969, -0.0115690082, 2.42384744  , 3.96        , 3           , 11          , 0.006430766 , 0.006430757
-0.111453526, 0.07792175  , -9.80271    , -0.00292746676, 0.0006851098, -0.0008315313, -0.17891331 , -0.1629365  , 0.43811515  , -0.007478787, -0.01156222 , 2.42383885  , 3.97        , 3           , 12          , 0.061811354 , 0
-0.105268106, 0.0540663376, -9.841632   , 0.004111715 , 0.00523790438, 0.0006210222, -0.178778484, -0.163408384, 0.43811515  , -0.00743773766, -0.0115097957, 2.42384458  , 3.98        , 3           , 50          , 0           , 0
-0.132670015, 0.07956284  , -9.814164   , 0.00160112011, -0.00125528616, -0.0008134979, -0.178508833, -0.163206145, 0.4379129   , -0.007421633, -0.0115224086, 2.423837    , 3.99        , 3           , 11          , 0.006430766 , 0.006430757
-0.119624846, 0.07710756  , -9.800515   , 0.002152998 , 0.00155617273, -0.00250178669, -0.178508833, -0.163206145, 0.4379129   , -0.00739462627, -0.0115283839, 2.42381167  , 4           , 3           , 12          , 0.0628736   , 0
-0.106187865, 0.0652242154, -9.80227    , 0.00301773334, -0.00153530273, 0.001170378 , -0.178643659, -0.163273558, 0.4379129   , -0.007364586, -0.0115436492, 2.4238236   , 4.01        , 3           , 50          , 0           , 0
-0.129075959, 0.081729196 , -9.800117   , 0.00131661736, -0.0004205073, -0.000531012658, -0.178508833, -0.163071319, 0.4383174   , -0.00735135749, -0.0115478933, 2.42381835  , 4.02        , 3           , 11          , 0.00635595759, 0.00635594549
-0.129296273, 0.0686064959, -9.788421   , 0.000197320682, -0.00239909953, 0.0005908318, -0.178711072, -0.163273558, 0.438047737 , -0.00734945433, -0.0115718395, 2.42382455  , 4.03        , 3           , 12          , 0.0628736   , 0
-0.101310737, 0.06642092  , -9.772848   , 0.00132079935, -0.00126520253, -0.0005323145, -0.178711072, -0.163273558, 0.438047737 , -0.00733618625, -0.01158453 , 2.42381883  , 4.04        , 3           , 50          , 0           , 0
-0.108687   , 0.07971563  , -9.809008   , 0.00274113449, -0.00294504361, -0.000810870959, -0.178508833, -0.163408384, 0.438047737 , -0.00730868336, -0.0116140386, 2.4238112   , 4.05        , 3           , 11          , 0.00635595759, 0.00635594549
-0.114271306, 0.06983746  , -9.80412    , -0.00234624115, -0.002134726, 1.43383077E-05, -0.178576246, -0.1634758  , 0.438182563 , -0.0073321485, -0.0116353845, 2.4238112   , 4.06        , 3           , 12          , 0.0628736   , 0
-0.107747637, 0.08508857  , -9.799939   , 0.000455886242, 0.00238941587, 0.000316988037, -0.178508833, -0.163138732, 0.43811515  , -0.007327626, -0.0116114672, 2.42381454  , 4.07        , 3           , 50          , 0           , 0
-0.111911155, 0.0814939439, -9.790042   , -0.000383193372, 0.000694294751, 2.78961816E-05, -0.178508833, -0.163138732, 0.43811515  , -0.007331461, -0.0116045224, 2.423815    , 4.08        , 3           , 11          , 0.00635595759, 0.00635594549
-0.102726407, 0.0895265043, -9.795362   , 0.00385968923, -0.000684883446, -0.000802131661, -0.178643659, -0.163138732, 0.438047737 , -0.00729277171, -0.011611429, 2.423807    , 4.09        , 3           , 12          , 0.0628736   , 0
-0.1201789  , 0.0712282658, -9.794668   , 0.001017611 , -0.001541412, -0.00138134672, -0.178711072, -0.163138732, 0.438182563 , -0.007341747, -0.0116070695, 2.423794    , 4.1         , 3           , 50          , 0           , 0
-0.112022743, 0.07426192  , -9.786006   , -0.00123155618, -0.00352764456, -0.000547307369, -0.178711072, -0.163340971, 0.438047737 , -0.00735400151, -0.0116423843, 2.42378879  , 4.11        , 3           , 11          , 0.006282885 , 0.00628287345
-0.1273527  , 0.07628051  , -9.796059   , -0.00152882747, -0.000432336761, 0.000303761219, -0.178711072, -0.163340971, 0.438047737 , -0.007369326, -0.0116466852, 2.42379212  , 4.12        , 3           , 12          , 0.0639406443, 0
-0.117251277, 0.08163333  , -9.812681   , 0.0024226862, 0.000157534523, 0.000888141163, -0.178576246, -0.163408384, 0.438047737 , -0.007345201, -0.011645047, 2.42380071  , 4.13        , 3           , 50          , 0           , 0
-0.08006617 , 0.08481421  , -9.814645   , 0.000593963545, -0.00126270531, 0.00101868017, -0.178643659, -0.163138732, 0.438249975 , -0.007339382, -0.0116575975, 2.4238112   , 4.14        , 3           , 11          , 0.006282885 , 0.00628287345
-0.108430319, 0.0741952   , -9.778747   , 0.0005895812, -0.0005587969, -0.0005341911, -0.178778484, -0.163206145, 0.438249975 , -0.007333426, -0.0116632245, 2.42380548  , 4.15        , 3           , 12          , 0.0639406443, 0
-0.115124978, 0.07703173  , -9.793702   , -0.000120667915, 0.000281123444, -0.0005361816, -0.178778484, -0.163206145, 0.438249975 , -0.00733456947, -0.0116604529, 2.42380023  , 4.16        , 3           , 50          , 0           , 0
-0.11977537 , 0.06761223  , -9.794229   , -0.0005409863, -0.0004256548, -0.0008217794, -0.178643659, -0.163206145, 0.437980324 , -0.007339884, -0.0116647724, 2.42379212  , 4.17        , 3           , 11          , 0.006282885 , 0.00628287345
-0.128762737, 0.07446918  , -9.789296   , -0.0005426251, -0.000144090969, -0.00124515162, -0.178711072, -0.163206145, 0.437980324 , -0.007345166, -0.0116663016, 2.42377973  , 4.18        , 3           , 12          , 0.0639406443, 0
-0.1089037  , 0.06391777  , -9.806816   , -0.00182359293, 0.00195905427, -0.0005414795, -0.178576246, -0.163206145, 0.437980324 , -0.0073633357, -0.0116467522, 2.423774    , 4.19        , 3           , 50          , 0           , 0
-0.126378849, 0.07275441  , -9.824089   , -0.00182931114, 0.00196032366, -0.000400090852, -0.178576246, -0.163206145, 0.437980324 , -0.007397865, -0.01162362 , 2.42377019  , 4.2         , 3           , 11          , 0.00621237932, 0.00621236349
-0.111195192, 0.06704647  , -9.790096   , 0.0005741867, 0.00141342869, -0.000248496071, -0.178711072, -0.163340971, 0.437980324 , -0.007392092, -0.0116095049, 2.42376781  , 4.21        , 3           , 12          , 0.06501202  , 0
-0.12589103 , 0.052319508 , -9.787559   , 0.000581319851, 5.6043973E-06, 3.18716047E-05, -0.17891331 , -0.163071319, 0.438047737 , -0.00738628348, -0.0116094472, 2.42376828  , 4.22        , 3           , 50          , 0           , 0
-0.138703167, 0.07504937  , -9.792985   , 0.0017149644, -0.00083145214, -0.000387968757, -0.1788459  , -0.1630039  , 0.438182563 , -0.00736908941, -0.01161779 , 2.42376447  , 4.23        , 3           , 11          , 0.00621237932, 0.00621236349
-0.106939293, 0.07964296  , -9.793628   , 0.00142495206, 0.000715246 , -0.000245630275, -0.178778484, -0.163273558, 0.438047737 , -0.00735480944, -0.011610656, 2.42376161  , 4.24        , 3           , 12          , 0.06501202  , 0
-0.101953015, 0.0720011   , -9.819386   , -0.00154036633, 0.000695192139, 2.30794521E-05, -0.178778484, -0.163273558, 0.438047737 , -0.00737021537, -0.0116037028, 2.423762    , 4.25        , 3           , 50          , 0           , 0
-0.108299293, 0.07742582  , -9.80042648 , -0.001390092, -0.00113402586, 2.09173322E-05, -0.178778484, -0.163138732, 0.438047737 , -0.00738412049, -0.0116150407, 2.42376256  , 4.26        , 3           , 11          , 0.00621237932, 0.00621236349
-0.109453395, 0.06652266  , -9.774717   , -0.0009664517, -0.00113116088, 2.28927547E-05, -0.178778484, -0.163138732, 0.438047737 , -0.007393788, -0.0116263507, 2.42376256  , 4.27        , 3           , 12          , 0.06501202  , 0
-0.104965992, 0.0922509059, -9.792657   , -0.00280751288, -0.000158099923, -0.0006904922, -0.178576246, -0.163071319, 0.4379129   , -0.00742178364, -0.0116279824, 2.423756    , 4.28        , 3           , 50          , 0           , 0
-0.10147579 , 0.07737179  , -9.80806    , -0.000831837533, 0.0001368353, -0.000539571, -0.178576246, -0.163071319, 0.4379129   , -0.007430038, -0.0116266543, 2.42375016  , 4.29        , 3           , 11          , 0.00621237932, 0.00621236349
-0.130322084, 0.05468285  , -9.803853   , 0.00184124638, 0.0005879074, -0.000243648843, -0.178980723, -0.1630039  , 0.437980324 , -0.007434755, -0.0115903607, 2.42374825  , 4.3         , 3           , 12          , 0.0660873055, 0
-0.121200457, 0.06311061  , -9.79245    , 0.00212182687, 0.00101216615, 0.000182125121, -0.178778484, -0.163138732, 0.438249975 , -0.00741355726, -0.0115802251, 2.42375016  , 4.31        , 3           , 50          , 0           , 0
-0.113500334, 0.0540955   , -9.821808   , 0.00269003958, 0.0004528586, 0.00117277214, -0.178711072, -0.163273558, 0.437980324 , -0.007386792, -0.0115756113, 2.42376161  , 4.32        , 3           , 11          , 0.006143311 , 0.00614329474
-0.101650029, 0.06607185  , -9.80178    , 0.00170408911, -0.000116957584, 0.0007434889, -0.178711072, -0.163273558, 0.437980324 , -0.00736983726, -0.0115767252, 2.42376924  , 4.33        , 3           , 12          , 0.0660873055, 0
-0.1287306  , 0.07761968  , -9.787024   , 0.00056770083, 0.00114244339, 3.38302125E-05, -0.178980723, -0.163273558, 0.4379129   , -0.00736416364, -0.0115652969, 2.42376971  , 4.34        , 3           , 50          , 0           , 0
-0.122090429, 0.06402658  , -9.793356   , -0.0005570458, 0.00014932621, 0.000168312326, -0.178643659, -0.163138732, 0.4383174   , -0.007369753, -0.0115637919, 2.42377114  , 4.35        , 3           , 11          , 0.006143311 , 0.00614329474
-0.102864452, 0.08182669  , -9.786356   , 0.000580246968, -0.00139164226, 2.99246622E-05, -0.178643659, -0.163273558, 0.43811515  , -0.007363956, -0.0115777059, 2.42377162  , 4.36        , 3           , 12          , 0.0660873055, 0
-0.107287213, 0.090445675 , -9.784546   , 0.00071768614, -0.0005459901, 0.0007382287, -0.178643659, -0.163273558, 0.43811515  , -0.0073568644, -0.0115831112, 2.42377925  , 4.37        , 3           , 50          , 0           , 0
-0.112430066, 0.0502753071, -9.763509   , -0.000561391, 0.0009940206, -0.000112923277, -0.178980723, -0.163206145, 0.4379129   , -0.007362464, -0.0115731806, 2.42377782  , 4.38        , 3           , 11          , 0.006143311 , 0.00614329474
-0.118379936, 0.06985808  , -9.796017   , -0.000283227768, 0.00184062519, -0.0002515733, -0.178643659, -0.163340971, 0.438047737 , -0.007365265, -0.0115547916, 2.423775    , 4.39        , 3           , 12          , 0.0660873055, 0
-0.12916249 , 0.0705003142, -9.815079   , -0.000134012342, 0.001558001 , 0.00017241374, -0.1788459  , -0.163071319, 0.438047737 , -0.00734786224, -0.0115451347, 2.42377687  , 4.4         , 3           , 50          , 0           , 0
-0.127898738, 0.068622306 , -9.797902   , -0.000409469154, 0.000148265666, 0.0001689271, -0.1788459  , -0.163071319, 0.438047737 , -0.007351976, -0.01154364 , 2.42377877  , 4.41        , 3           , 11          , 0.00607582228, 0.00607580738
-0.104812741, 0.07280981  , -9.781889   , -0.001390993, -0.00126624457, 0.000162148135, -0.1788459  , -0.163340971, 0.4378455   , -0.007365905, -0.01155629 , 2.42378068  , 4.42        , 3           , 12          , 0.06716608  , 0
-0.104852229, 0.06474351  , -9.798194   , 0.00115023274, -0.00110827188, 0.00031548625, -0.178643659, -0.163138732, 0.438182563 , -0.007354441, -0.0115673486, 2.42378354  , 4.43        , 3           , 50          , 0           , 0
-0.1126118  , 0.06389075  , -9.786053   , 0.003259373 , 0.0007362259, 0.000328183844, -0.178711072, -0.163206145, 0.437980324 , -0.007321886, -0.0115599623, 2.42378688  , 4.44        , 3           , 11          , 0.00607582228, 0.00607580738
-0.114518695, 0.0905413   , -9.7877655  , 0.00127672788, 0.001849116 , 0.0001794323, -0.178711072, -0.163206145, 0.437980324 , -0.007309137, -0.0115414588, 2.42378831  , 4.45        , 3           , 12          , 0.06716608  , 0
-0.1269933  , 0.07352142  , -9.782056   , -0.0009732623, 0.000144450765, 0.00200278661, -0.178778484, -0.163340971, 0.438047737 , -0.00731910067, -0.0115398681, 2.42380834  , 4.46        , 3           , 50          , 0           , 0
-0.120133795, 0.0717111751, -9.804157   , -0.003220005, -0.00254569971, 0.0009992475, -0.1788459  , -0.1630039  , 0.43811515  , -0.00735141849, -0.01156525 , 2.42381883  , 4.47        , 3           , 11          , 0.00607582228, 0.00607580738
-0.121302858, 0.0781294   , -9.829904   , -0.00124838587, -0.00154685439, 0.000162372686, -0.178711072, -0.163138732, 0.438182563 , -0.007363923, -0.0115807047, 2.42382073  , 4.48        , 3           , 12          , 0.06716608  , 0
-0.114264019, 0.0644871444, -9.823127   , 0.0004364989, 0.000435561262, 0.000314580568, -0.178711072, -0.163138732, 0.438182563 , -0.00735959364, -0.0115763256, 2.4238236   , 4.49        , 3           , 50          , 0           , 0
-0.119873933, 0.0603907853, -9.793355   , -0.00110872369, -0.00113350968, -0.0008251964, -0.178711072, -0.163206145, 0.4377781   , -0.007367227, -0.0116177695, 2.423816    , 4.5         , 3           , 11          , 0.00601039  , 0.006010374
-0.120854907, 0.08169097  , -9.817229   , -0.000684757135, -0.00113064318, -0.000258146174, -0.178643659, -0.1629365  , 0.438182563 , -0.007374046, -0.0116290934, 2.42381358  , 4.51        , 3           , 12          , 0.0682479739, 0
-0.126657814, 0.06360136  , -9.785257   , -0.0005437513, -0.0009889035, 0.000590341631, -0.17891331 , -0.163206145, 0.438182563 , -0.00737955328, -0.0116389375, 2.42381978  , 4.52        , 3           , 50          , 0           , 0
-0.108202547, 0.0521363951, -9.794656   , -0.0005371076, -0.00239673024, 2.30970963E-05, -0.178711072, -0.163273558, 0.4379129   , -0.00738493 , -0.0116629  , 2.42381978  , 4.53        , 3           , 11          , 0.00601039  , 0.006010374
-0.109336846, 0.06527805  , -9.807265   , -0.00151871284, -0.003811241, -0.000124950631, -0.178711072, -0.163273558, 0.4379129   , -0.00740010664, -0.01170102 , 2.42381883  , 4.54        , 3           , 12          , 0.0682479739, 0
-0.132572114, 0.0609696023, -9.787122   , -0.000817687949, -0.00282098912, -0.000402677018, -0.178778484, -0.163273558, 0.43811515  , -0.007408238, -0.0117292581, 2.423815    , 4.55        , 3           , 50          , 0           , 0
-0.11777246 , 0.08247593  , -9.793247   , 0.00199887576, -0.00139406754, -0.00165875652, -0.178643659, -0.1629365  , 0.438182563 , -0.00738805439, -0.0117433229, 2.4237988   , 4.56        , 3           , 11          , 0.00601039  , 0.006010374
-0.124358252, 0.0938813239, -9.807261   , 0.0014325839, -0.0009755367, -0.000530589663, -0.179048136, -0.163340971, 0.438047737 , -0.00737366732, -0.0117531139, 2.42379355  , 4.57        , 3           , 12          , 0.0682479739, 0
-0.100987032, 0.08319819  , -9.798088   , 0.000862888468, 0.000146907158, 0.0007399307, -0.179048136, -0.163340971, 0.438047737 , -0.007365125, -0.0117515912, 2.42380071  , 4.58        , 3           , 50          , 0           , 0
-0.118812092, 0.07255822  , -9.792392   , 0.001563135 , 0.00127794116, 0.000321152562, -0.178980723, -0.163340971, 0.437980324 , -0.0073495307, -0.0117387874, 2.423804    , 4.59        , 3           , 11          , 0.00601039  , 0.006010374
-0.118132904, 0.05629555  , -9.789291   , 0.000148439722, 0.0005591134, -0.0001102006, -0.179048136, -0.163138732, 0.438182563 , -0.007365956, -0.0117497761, 2.42380357  , 4.6         , 3           , 12          , 0.06933264  , 0
-0.11291182 , 0.0662516057, -9.815876   , 0.000433246634, -2.108709E-06, -0.000816095155, -0.1788459  , -0.163273558, 0.437980324 , -0.007361528, -0.0117498562, 2.42379546  , 4.61        , 3           , 50          , 0           , 0
-0.109702528, 0.07472731  , -9.79819    , 0.00211882847, 0.00183952472, -0.000664104242, -0.1788459  , -0.163273558, 0.437980324 , -0.00734026 , -0.01173151 , 2.42378879  , 4.62        , 3           , 11          , 0.00594655937, 0.00594654353
-0.0994807854, 0.0966925845, -9.790789   , 0.0009932584, 0.00112797518, 0.0004596931, -0.178643659, -0.1630039  , 0.43811515  , -0.00733038038, -0.0117201991, 2.423793    , 4.63        , 3           , 12          , 0.06933264  , 0
-0.111751951, 0.09010362  , -9.801305   , 0.0025503356, 0.0004345683, 0.000889657531, -0.1788459  , -0.163071319, 0.43811515  , -0.00730498042, -0.0117157865, 2.42380214  , 4.64        , 3           , 50          , 0           , 0
-0.1211121  , 0.0640749037, -9.810977   , 0.00338970427, 0.00198890525, 0.0004721887, -0.178576246, -0.163273558, 0.438182563 , -0.00727113662, -0.0116958637, 2.42380643  , 4.65        , 3           , 11          , 0.00594655937, 0.00594654353
-0.109803885, 0.06616451  , -9.800937   , 0.0009953494, 0.0007056276, 0.000459042 , -0.178576246, -0.163273558, 0.438182563 , -0.007261236, -0.0116887745, 2.4238112   , 4.66        , 3           , 12          , 0.06933264  , 0
-0.110713765, 0.06795707  , -9.794157   , 0.00114894588, -0.00182750414, 0.000173257751, -0.179048136, -0.163206145, 0.437980324 , -0.00724976836, -0.0117070358, 2.423813    , 4.67        , 3           , 50          , 0           , 0
-0.117052428, 0.06847811  , -9.792848   , 0.00185493135, -0.00182272948, 3.528131E-05, -0.1788459  , -0.1630039  , 0.438047737 , -0.007231225, -0.01172526 , 2.42381358  , 4.68        , 3           , 11          , 0.00594655937, 0.00594654353
-0.132218346, 0.0831274241, -9.802395   , 0.000161764183, -0.00211575441, 2.694577E-05, -0.178711072, -0.1634758  , 0.438182563 , -0.007229613, -0.0117464149, 2.423814    , 4.69        , 3           , 12          , 0.06933264  , 0
-0.11807473 , 0.0567890443, -9.801943   , -0.000273511338, -0.00141846 , 0.00030870302, -0.178711072, -0.1634758  , 0.438182563 , -0.00725866063, -0.0117724473, 2.42381787  , 4.7         , 3           , 50          , 0           , 0
-0.118326388, 0.07168688  , -9.80324    , -0.00182808982, -0.00114739931, 0.0005844312, -0.178711072, -0.163340971, 0.4379129   , -0.00727701327, -0.0117838783, 2.4238236   , 4.71        , 3           , 11          , 0.005884628 , 0.00588460825
-0.106551453, 0.07244342  , -9.800886   , -0.00224771118, -0.00199496 , 0.000298616535, -0.17891331 , -0.1630039  , 0.438182563 , -0.007299527, -0.0118038049, 2.423827    , 4.72        , 3           , 12          , 0.07041971  , 0
-0.105751775, 0.06788348  , -9.7896     , -0.0004120998, -0.00198254618, 2.46392356E-05, -0.178980723, -0.163206145, 0.438047737 , -0.00730365142, -0.0118236281, 2.42382741  , 4.73        , 3           , 50          , 0           , 0
-0.106189772, 0.07281063  , -9.777379   , -0.00197573914, 0.000118687967, 0.000303188048, -0.178980723, -0.163206145, 0.438047737 , -0.007323444, -0.01182242 , 2.42383027  , 4.74        , 3           , 11          , 0.005884628 , 0.00588460825
-0.116971463, 0.07970246  , -9.776529   , -0.00211990369, 0.0006808622, 2.08599431E-05, -0.178643659, -0.163273558, 0.4378455   , -0.007344645, -0.01181561 , 2.42383027  , 4.75        , 3           , 12          , 0.07041971  , 0
-0.120187573, 0.07211394  , -9.789692   , 0.00015349529, -0.00226029451, -0.00110331073, -0.17891331 , -0.163273558, 0.438047737 , -0.007342982, -0.0118382927, 2.42381978  , 4.76        , 3           , 50          , 0           , 0
-0.1170861  , 0.0657727048, -9.793311   , 0.000295568781, -0.002400121, -0.0008203317, -0.17891331 , -0.163206145, 0.438047737 , -0.00733993063, -0.0118623553, 2.4238112   , 4.77        , 3           , 11          , 0.005884628 , 0.00588460825
-0.101427332, 0.0498114862, -9.797777   , 0.000573235448, -0.001271947, 0.0005954084, -0.178576246, -0.163408384, 0.438047737 , -0.007334269, -0.01187503 , 2.42381787  , 4.78        , 3           , 12          , 0.07041971  , 0
-0.103105284, 0.0610994436, -9.794127   , 0.00127176149, 0.0001406504, -0.000388010958, -0.178576246, -0.163408384, 0.438047737 , -0.00732150534, -0.0118736513, 2.42381358  , 4.79        , 3           , 50          , 0           , 0
-0.122291543, 0.0843216   , -9.789658   , -0.000127985273, 3.13543751E-06, -0.0009599382, -0.178643659, -0.163138732, 0.43811515  , -0.00728384266, -0.0118322587, 2.42380357  , 4.8         , 3           , 11          , 0.005824409 , 0.00582438661
-0.133928925, 0.0605404451, -9.788942   , -0.00252300012, -0.0009985735, 0.0002987677, -0.178711072, -0.163273558, 0.438249975 , -0.00730911037, -0.0118422229, 2.42380643  , 4.81        , 3           , 12          , 0.0715089   , 0
-0.121532977, 0.0694622844, -9.801465   , -0.00266175182, -0.00156266033, -0.000267833471, -0.178643659, -0.1634758  , 0.438047737 , -0.00733569637, -0.0118578672, 2.423804    , 4.82        , 3           , 50          , 0           , 0
-0.1325759  , 0.09347595  , -9.792411   , -0.00237411959, -0.00254622661, 0.0002970397, -0.178643659, -0.1634758  , 0.438047737 , -0.00735947536, -0.0118833072, 2.42380738  , 4.83        , 3           , 11          , 0.005824409 , 0.00582438661
-0.112054333, 0.06932647  , -9.794162   , -0.001820581, -0.0002898867, 2.06075583E-05, -0.178980723, -0.163138732, 0.43811515  , -0.007377683, -0.0118862055, 2.42380738  , 4.84        , 3           , 12          , 0.0715089   , 0
-0.117502123, 0.06759321  , -9.796471   , -0.0009825621, 0.00140522933, -0.001526794, -0.17891331 , -0.163206145, 0.438182563 , -0.00738732656, -0.0118722664, 2.42379212  , 4.85        , 3           , 50          , 0           , 0
-0.103383504, 0.0728513   , -9.799052   , -0.0009725594, -0.0005657249, -0.00110602542, -0.179115549, -0.163071319, 0.438047737 , -0.00739692152, -0.0118780052, 2.42378068  , 4.86        , 3           , 11          , 0.005824409 , 0.00582438661
-0.119528919, 0.08075608  , -9.812251   , 0.00156714651, 1.45981176E-05, 3.68447E-05 , -0.179115549, -0.163071319, 0.438047737 , -0.007381255, -0.0118778562, 2.42378163  , 4.87        , 3           , 12          , 0.0715089   , 0
-0.136607215, 0.057032682 , -9.809768   , 0.00325863017, 0.0007299726, 0.000752174761, -0.178643659, -0.163138732, 0.43811515  , -0.00734875631, -0.0118704988, 2.42378879  , 4.88        , 3           , 50          , 0           , 0
-0.103376247, 0.0750889257, -9.79362    , 0.00227460777, -0.0002621921, 3.970308E-05, -0.178778484, -0.163206145, 0.438047737 , -0.00732601574, -0.01187312 , 2.42378926  , 4.89        , 3           , 11          , 0.005824409 , 0.00582438661
-0.09860899 , 0.09129839  , -9.799845   , 0.002415758 , 1.85825738E-05, -0.000241679343, -0.178711072, -0.163273558, 0.438249975 , -0.00729689561, -0.01187871 , 2.42378736  , 4.9         , 3           , 12          , 0.0725999   , 0
-0.105982482, 0.08592274  , -9.785911   , 0.0022768802, -0.000404718972, 0.000180817355, -0.178711072, -0.163273558, 0.438249975 , -0.00727414759, -0.0118827447, 2.42378926  , 4.91        , 3           , 50          , 0           , 0
-0.105531804, 0.0881474838, -9.778215   , 0.000299403066, -0.000418091076, -0.000676013529, -0.178576246, -0.163071319, 0.438047737 , -0.00727107469, -0.0118869748, 2.42378259  , 4.92        , 3           , 11          , 0.0057656765, 0.00576565368
-0.105512463, 0.0814679042, -9.804458   , -0.00012563121, -0.000139390861, -0.0006775549, -0.17891331 , -0.1634758  , 0.437980324 , -0.00727225142, -0.0118884183, 2.423776    , 4.93        , 3           , 12          , 0.0725999   , 0
-0.115917519, 0.08115111  , -9.808154   , 0.000445740123, -0.00140261254, -0.000253067556, -0.178778484, -0.163206145, 0.437980324 , -0.007267765, -0.0119024618, 2.423773    , 4.94        , 3           , 50          , 0           , 0
-0.1108077  , 0.0669882447, -9.774275   , 0.00200126017, -0.00181445491, -0.000105206578, -0.178778484, -0.163206145, 0.437980324 , -0.00724774227, -0.0119206132, 2.423772    , 4.95        , 3           , 11          , 0.0057656765, 0.00576565368
-0.106185794, 0.0705820844, -9.785524   , 0.00270765368, -0.00180967839, 0.000463160628, -0.178711072, -0.163408384, 0.4377781   , -0.007220722, -0.0119386772, 2.42377687  , 4.96        , 3           , 12          , 0.0725999   , 0
-0.11113286 , 0.07066777  , -9.793697   , 0.001154551 , -0.00182018219, 0.0008797237, -0.17891331 , -0.163206145, 0.43811515  , -0.0072092833, -0.0119568147, 2.423786    , 4.97        , 3           , 50          , 0           , 0
-0.109667435, 0.0818973556, -9.783695   , 0.0014309939, -0.0006920139, 0.000176432746, -0.178778484, -0.163543209, 0.438047737 , -0.00719499448, -0.0119637214, 2.42378783  , 4.98        , 3           , 11          , 0.0057656765, 0.00576565368
-0.110213354, 0.0693293959, -9.801379   , 0.00156220456, 0.00127989578, -0.000243677467, -0.178778484, -0.163543209, 0.438047737 , -0.007179342, -0.011950939, 2.42378545  , 4.99        , 3           , 12          , 0.0725999   , 0
-0.122974411, 0.06807186  , -9.785663   , 0.000282661029, 0.0008641767, 0.000738883449, -0.17891331 , -0.163273558, 0.4377781   , -0.00721469847, -0.0118908957, 2.423793    , 5           , 3           , 50          , 0           , 0
-0.119459   , 0.06214019  , -9.778429   , -0.0009789539, -0.0009745902, 0.0011539429, -0.178778484, -0.163206145, 0.438182563 , -0.00722462544, -0.0119005591, 2.42380452  , 5.01        , 3           , 11          , 0.00570864137, 0.00570861949
-0.08790129 , 0.0500517674, -9.782307   , -0.0008442954, 0.0001526204, -0.0005388877, -0.178778484, -0.163206145, 0.4383174   , -0.007233004, -0.0118990717, 2.42379928  , 5.02        , 3           , 12          , 0.07369243  , 0
-0.09587722 , 0.08636884  , -9.819279   , 0.000562062254, 0.0011476439, -0.00208474044, -0.178711072, -0.163543209, 0.437980324 , -0.007227135, -0.0118877478, 2.4237783   , 5.03        , 3           , 50          , 0           , 0
-0.133736432, 0.06873072  , -9.809698   , -0.000426557672, 0.00128174422, -0.00110025145, -0.178711072, -0.163543209, 0.437980324 , -0.00723126857, -0.011875011, 2.42376733  , 5.04        , 3           , 11          , 0.00570864137, 0.00570861949
-0.121184625, 0.06178438  , -9.80059052 , -0.0008498344, 0.00141966692, 0.000734483765, -0.17891331 , -0.163273558, 0.438047737 , -0.007239852, -0.0118607627, 2.42377448  , 5.05        , 3           , 12          , 0.07369243  , 0
-0.0948090255, 0.0771907642, -9.777726   , 0.000707368948, 0.000585474831, 0.0001753502, -0.178778484, -0.163340971, 0.438249975 , -0.007232799, -0.0118548945, 2.42377639  , 5.06        , 3           , 50          , 0           , 0
