Acc X       , Acc Y       , Acc Z       , Gyro X      , Gyro Y      , Gyro Z      , Magn X      , Magn Y      , Magn Z      , Euler X     , Euler Y     , Euler Z     , Time        , Status      , LowRate X   , LowRate Y   , LowRate Z    
0.373495251 , 0.0107934661, -9.77894    , -0.00244478835, -0.00117380358, -0.000819146, -0.185924232, -0.164621815, 0.4188351   , -0.002837586, 0.0390802175, 2.37406754  , 0           , 3           , 11          , 0.0346410163, 0.0346410163
0.375576317 , 0.0279522371, -9.78970051 , -0.00203849142, 0.00234862487, -0.000670477748, -0.1857894  , -0.164756641, 0.4188351   , -0.0028582355, 0.0391036943, 2.37406087  , 0.01        , 3           , 12          , 0.0346410163, 0
0.386071    , 0.0386077166, -9.774661   , -0.0006261944, 0.00235817581, -0.000381355581, -0.185587168, -0.164891466, 0.418902516 , -0.00286464812, 0.03912726  , 2.374057    , 0.02        , 3           , 50          , 0           , 0
0.3793836   , 0.0436818674, -9.7841835  , -0.00118091935, 0.000242616225, -0.000952318835, -0.185722   , -0.164689228, 0.418969929 , -0.002876832, 0.03912966  , 2.37404752  , 0.03        , 3           , 11          , 0.0346410163, 0.0346410163
0.376461923 , 0.026140023 , -9.790606   , -0.000190786683, -3.22628E-05, -0.0005243374, -0.185654581, -0.165026292, 0.418969929 , -0.00287894486, 0.03912932  , 2.3740418   , 0.04        , 3           , 12          , 0.0346410163, 0
0.382502735 , 0.0360159054, -9.796394   , -0.0001868938, -0.0007361735, 0.0001809214, -0.185654581, -0.165026292, 0.418969929 , -0.002880742, 0.0391219668, 2.3740437   , 0.05        , 3           , 50          , 0           , 0
0.378062844 , 0.0441746674, -9.791874   , -0.0007528523, -0.0005992129, -0.0005278391, -0.185722   , -0.164824054, 0.418700278 , -0.002888476, 0.0391159579, 2.374039    , 0.06        , 3           , 11          , 0.0346410163, 0.0346410163
0.377152264 , 0.04239581  , -9.796409   , -0.000476617, 0.000669740257, -0.000383300765, -0.185722   , -0.164891466, 0.419037342 , -0.00289339316, 0.0391226448, 2.37403512  , 0.07        , 3           , 12          , 0.0346410163, 0
0.3818224   , 0.0206609089, -9.790134   , -5.281363E-05, 0.000672606 , -9.87877938E-05, -0.185722   , -0.164689228, 0.418969929 , -0.00289396 , 0.03912936  , 2.37403417  , 0.08        , 3           , 50          , 0           , 0
0.378389448 , 0.00218429416, -9.785267   , 0.000933055358, 0.00124242192, 0.000189226834, -0.185722   , -0.164689228, 0.418969929 , -0.00288455724, 0.0391417965, 2.3740356   , 0.09        , 3           , 11          , 0.0346410163, 0.0346410163
0.37798804  , 0.0387578234, -9.790994   , 0.000793317566, 0.0009599022, 0.000329402334, -0.185384929, -0.164891466, 0.418902516 , -0.002876497, 0.0391514041, 2.374039    , 0.1         , 3           , 12          , 0.0346410163, 0
0.397071868 , 0.0457303077, -9.784039   , 0.00150836422, -0.0008654963, 0.000188605336, -0.185587168, -0.164824054, 0.4188351   , -0.002861338, 0.0391427539, 2.37404084  , 0.11        , 3           , 50          , 0           , 0
0.378717482 , 0.0350336619, -9.759817   , 0.00291988254, -0.000715163536, 0.000336675585, -0.185587168, -0.164621815, 0.418969929 , -0.002832008, 0.03913561  , 2.3740437   , 0.12        , 3           , 11          , 0.0346410163, 0.0346410163
0.381557167 , 0.00482374569, -9.776191   , 0.000372057373, 0.000393905066, -0.000379784644, -0.185519755, -0.1650937  , 0.4188351   , -0.002828436, 0.0391395353, 2.37404     , 0.13        , 3           , 12          , 0.0346410163, 0
0.384775549 , 0.0404600166, -9.784154   , -0.002175152, 0.00136219081, -0.00123773061, -0.185519755, -0.1650937  , 0.4188351   , -0.00285067526, 0.0391531251, 2.37402749  , 0.14        , 3           , 50          , 0           , 0
0.386986762 , 0.06218775  , -9.81207    , -0.0010473727, 0.001792179 , -0.000949274632, -0.185587168, -0.164824054, 0.4188351   , -0.00286152214, 0.0391710177, 2.374018    , 0.15        , 3           , 11          , 0.0346410163, 0.0346410163
0.394561559 , 0.0201153532, -9.806312   , -0.00160185306, -0.000323379267, -0.00109643175, -0.1857894  , -0.164756641, 0.419104755 , -0.00287797139, 0.03916775  , 2.37400746  , 0.16        , 3           , 12          , 0.0346410163, 0
0.3821219   , 0.0476846248, -9.776462   , -0.000466488156, -0.00144199922, -0.000951631053, -0.185587168, -0.164891466, 0.4188351   , -0.002883006, 0.0391532965, 2.373998    , 0.17        , 3           , 50          , 0           , 0
0.381104469 , 0.0426948071, -9.76519    , 0.0006592004, -0.0005896635, -0.000662523962, -0.185587168, -0.164891466, 0.4188351   , -0.00287667383, 0.03914739  , 2.37399125  , 0.18        , 3           , 11          , 0.0346410163, 0.0346410163
0.37528336  , 0.05263631  , -9.749374   , -0.0008983292, 0.000244526949, -0.0006684653, -0.185519755, -0.164756641, 0.419037342 , -0.002885921, 0.0391498171, 2.37398458  , 0.19        , 3           , 12          , 0.0346410163, 0
0.386784256 , 0.02549707  , -9.769738   , -0.000618369435, 0.00080956833, -0.000101209014, -0.185587168, -0.164621815, 0.419104755 , -0.002892308, 0.0391579   , 2.37398362  , 0.2         , 3           , 50          , 0           , 0
0.399778664 , 0.03988788  , -9.800314   , -0.000327415444, -0.0008779115, 0.000180041825, -0.185384929, -0.164958879, 0.418902516 , -0.00289551029, 0.0391491279, 2.373985    , 0.21        , 3           , 11          , 0.03466991  , 0.03466991
0.387683719 , 0.04727855  , -9.808964   , -0.00159780227, -0.00102728978, -0.000108638873, -0.185384929, -0.164958879, 0.418902516 , -0.0029115302, 0.0391388535, 2.373984    , 0.22        , 3           , 12          , 0.0346688   , 0
0.363153815 , 0.0158844329, -9.780806   , -0.00216925517, 0.0002359318, -0.000674394949, -0.185722   , -0.164824054, 0.4187677   , -0.0029334873, 0.0391411968, 2.37397742  , 0.23        , 3           , 50          , 0           , 0
0.379706383 , 0.0266099088, -9.80730152 , -0.000756550056, 0.000245484378, 0.000321070838, -0.185587168, -0.164689228, 0.419037342 , -0.00294092763, 0.03914365  , 2.37398076  , 0.24        , 3           , 11          , 0.03466991  , 0.03466991
0.38872546  , 0.0197786633, -9.819918   , -0.00117735786, -0.00046129644, -0.0008121393, -0.185519755, -0.1650937  , 0.418902516 , -0.00295301713, 0.0391390137, 2.37397218  , 0.25        , 3           , 12          , 0.0346688   , 0
0.379610151 , 0.0225147754, -9.796925   , -0.00188235717, -0.000747638, -0.00138094055, -0.185519755, -0.1650937  , 0.418902516 , -0.00297237933, 0.0391315   , 2.37395883  , 0.26        , 3           , 50          , 0           , 0
0.405044317 , 0.03477827  , -9.775435   , -0.0007432255, -0.00242938381, 0.000458217168, -0.185452342, -0.164689228, 0.4187677   , -0.00297962944, 0.0391072221, 2.37396359  , 0.27        , 3           , 11          , 0.03466991  , 0.03466991
0.3865168   , 0.034133222 , -9.787332   , 0.001099519 , -0.0038247942, 0.000464607525, -0.185722   , -0.164689228, 0.419037342 , -0.00296844821, 0.03906899  , 2.37396836  , 0.28        , 3           , 12          , 0.0346688   , 0
0.392341346 , 0.031336043 , -9.780971   , 0.0005285999, -0.00270235632, -0.000383902952, -0.1857894  , -0.164756641, 0.419104755 , -0.00296331127, 0.03904195  , 2.37396455  , 0.29        , 3           , 50          , 0           , 0
0.394784868 , 0.04484552  , -9.781347   , -0.000336610683, -0.000860365748, -0.000385330728, -0.1857894  , -0.164756641, 0.419104755 , -0.00314978953, 0.0393947251, 2.373953    , 0.3         , 3           , 11          , 0.0347534828, 0.0347534865
0.367875159 , 0.0253613964, -9.797454   , 0.00106724107, 0.0008385751, -0.000234873689, -0.185519755, -0.164891466, 0.418700278 , -0.0031392118, 0.039403107 , 2.3739512   , 0.31        , 3           , 12          , 0.03475386  , 0
0.3967328   , 0.01822823  , -9.789579   , 0.00191001326, 0.00168899866, -0.00079469604, -0.185519755, -0.164756641, 0.418969929 , -0.00312042958, 0.03941997  , 2.37394261  , 0.32        , 3           , 50          , 0           , 0
0.378642917 , 0.0197973289, -9.790615   , 0.00191140734, 0.00140743365, -0.0007951299, -0.185519755, -0.164891466, 0.419037342 , -0.00310163153, 0.0394340269, 2.373935    , 0.33        , 3           , 11          , 0.0347534828, 0.0347534865
0.372601748 , 0.009474839 , -9.786184   , 0.002766392 , 5.34164428E-06, 0.0004780698, -0.185452342, -0.164824054, 0.418902516 , -0.003073778, 0.039434094 , 2.37393975  , 0.34        , 3           , 12          , 0.03475386  , 0
0.378381252 , 0.03379439  , -9.792368   , 0.00221014675, -0.00168786745, 0.0008966385, -0.185452342, -0.164824054, 0.418902516 , -0.00305132126, 0.039417237 , 2.37394834  , 0.35        , 3           , 50          , 0           , 0
0.391433269 , 0.0304519255, -9.783241   , -4.635374E-05, -0.0024070628, -0.000103862913, -0.185587168, -0.164824054, 0.4188351   , -0.00305182324, 0.0393931679, 2.37394738  , 0.36        , 3           , 11          , 0.0347534828, 0.0347534865
0.385195136 , 0.008364731 , -9.768465   , -0.0006167018, -0.00128462212, 3.6507663E-05, -0.185991645, -0.164824054, 0.419104755 , -0.00305797369, 0.0393803231, 2.37394834  , 0.37        , 3           , 12          , 0.03475386  , 0
0.3832705   , 0.026073901 , -9.794621   , -0.00159691321, -0.002980698, -0.000111973968, -0.185587168, -0.164689228, 0.418902516 , -0.00307398243, 0.0393505134, 2.37394738  , 0.38        , 3           , 50          , 0           , 0
0.373965144 , 0.03616982  , -9.812278   , 0.0005765608, 0.0001313204, -9.699452E-05, -0.185587168, -0.164689228, 0.418902516 , -0.00306825666, 0.0393518358, 2.37394643  , 0.39        , 3           , 11          , 0.0347534828, 0.0347534865
0.4032389   , 0.029894324 , -9.7926445  , 0.001431795 , 0.00202339725, -1.88473987E-05, -0.185452342, -0.164824054, 0.419104755 , -0.002894377, 0.03924132  , 2.37395215  , 0.4         , 3           , 12          , 0.0348953269, 0
0.410177231 , 0.0139388517, -9.76870251 , 0.00159205019, -0.001706382, 0.0009649427, -0.185587168, -0.164621815, 0.418902516 , -0.00287807663, 0.03922429  , 2.37396169  , 0.41        , 3           , 50          , 0           , 0
0.391390175 , 0.0277389809, -9.781445   , 0.0037749114, -0.00042453545, 0.0015421767, -0.185654581, -0.164756641, 0.418902516 , -0.00283972151, 0.0392200872, 2.373977    , 0.42        , 3           , 11          , 0.01770313  , 0.0177030433
0.39297688  , 0.0363886431, -9.80942    , 0.002144669 , 0.000620346167, -0.000300262, -0.185654581, -0.164756641, 0.418902516 , -0.00281839422, 0.0392262861, 2.373974    , 0.43        , 3           , 12          , 0.0348953269, 0
0.3923941   , 0.0295934211, -9.799509   , 0.00137078308, 5.19636524E-05, -0.0003047516, -0.185519755, -0.164824054, 0.4188351   , -0.00280480343, 0.03922679  , 2.37397122  , 0.44        , 3           , 50          , 0           , 0
0.395443261 , 0.0205316842, -9.799071   , 0.002220522 , -0.0003646523, 0.000334257638, -0.185654581, -0.164689228, 0.419037342 , -0.00278246845, 0.0392231531, 2.37397456  , 0.45        , 3           , 11          , 0.01770313  , 0.0177030433
0.389961779 , 0.016093025 , -9.801843   , -0.000244254537, -0.00171879947, 3.813576E-05, -0.185384929, -0.164621815, 0.418700278 , -0.002784893, 0.03920597  , 2.373975    , 0.46        , 3           , 12          , 0.0348953269, 0
0.37794584  , 0.0244404189, -9.826759   , 0.0007338249, 0.000399623619, 0.0001166339, -0.185384929, -0.164621815, 0.418700278 , -0.00277751032, 0.0392099731, 2.373976    , 0.47        , 3           , 50          , 0           , 0
0.37260446  , 0.0406473875, -9.797355   , -0.0005407475, 0.00123572652, 0.00103025639, -0.185654581, -0.164824054, 0.418902516 , -0.00278251385, 0.0392223559, 2.37398648  , 0.48        , 3           , 11          , 0.01770313  , 0.0177030433
0.3618189   , 0.0448579937, -9.804199   , 0.0005164919, 0.00145405869, -0.000377166929, -0.185587168, -0.164689228, 0.418902516 , -0.00277749938, 0.0392368771, 2.37398267  , 0.49        , 3           , 12          , 0.0348953269, 0
0.3745576   , 0.02117595  , -9.783861   , -0.00083858287, 0.000445756741, -0.000526977063, -0.185519755, -0.164824054, 0.4188351   , -0.00287444214, 0.03917519  , 2.373974    , 0.5         , 3           , 50          , 0           , 0
0.3759815   , 0.026569277 , -9.782473   , -0.00274812244, 0.00113677874, 3.02932567E-05, -0.185519755, -0.164824054, 0.4188351   , -0.002901912, 0.0391865522, 2.373974    , 0.51        , 3           , 11          , 0.0134364953, 0.0134364944
0.3777394   , 0.0251658317, -9.773876   , -0.002108417, 0.000225988319, -0.000462594384, -0.185722   , -0.164756641, 0.418565452 , -0.00292317662, 0.0391887948, 2.37396932  , 0.52        , 3           , 12          , 0.0350921   , 0
0.3877443   , 0.0286550857, -9.772882   , 0.00163029053, 0.00109599414, 0.000827575452, -0.185654581, -0.164824054, 0.419037342 , -0.00290655158, 0.03919978  , 2.373978    , 0.53        , 3           , 50          , 0           , 0
0.3942646   , 0.03676185  , -9.790876   , 0.0008536575, 0.00109074207, 0.0008945881, -0.185722   , -0.164689228, 0.418902516 , -0.00289766467, 0.0392107144, 2.37398648  , 0.54        , 3           , 11          , 0.0134364953, 0.0134364944
0.40129745  , 0.01240233  , -9.81714    , -0.00167969416, -0.000756623456, -0.000108965913, -0.185722   , -0.164689228, 0.418902516 , -0.00291450415, 0.03920315  , 2.37398553  , 0.55        , 3           , 12          , 0.0350921   , 0
0.3991545   , -0.002574768, -9.784223   , -0.000838519831, 0.00037536415, -0.00102152617, -0.185519755, -0.164891466, 0.418700278 , -0.00292329 , 0.0392068624, 2.37397552  , 0.56        , 3           , 50          , 0           , 0
0.392574221 , 0.0137449009, -9.783753   , -0.000758889248, -0.0015951175, -0.002295653, -0.1857894  , -0.164621815, 0.418969929 , -0.00293177739, 0.0391908474, 2.37395215  , 0.57        , 3           , 11          , 0.0134364953, 0.0134364944
0.41034624  , 0.0180929489, -9.796707   , -0.00175023417, -0.00096827955, -0.00180484552, -0.185587168, -0.164891466, 0.418902516 , -0.00294998614, 0.0391811132, 2.37393451  , 0.58        , 3           , 12          , 0.0350921   , 0
0.399461865 , 0.0249016155, -9.770998   , -0.00118421984, -0.000894061232, 0.0008113684, -0.185519755, -0.1650937  , 0.418700278 , -0.002961509, 0.0391721949, 2.37394261  , 0.59        , 3           , 50          , 0           , 0
0.381211817 , 0.0517087579, -9.762441   , 0.00190189027, 0.00244679  , -0.0005086902, -0.185519755, -0.1650937  , 0.418700278 , -0.002742777, 0.0394425839, 2.373945    , 0.6         , 3           , 11          , 0.0113510648, 0.0113510527
0.3730998   , 0.0478181541, -9.784666   , 6.806244E-05, 0.00208241958, -0.000164620913, -0.185587168, -0.164756641, 0.418632865 , -0.00274216384, 0.0394634046, 2.37394357  , 0.61        , 3           , 12          , 0.03534282  , 0
0.367542952 , 0.0321596824, -9.805111   , -0.00211139536, 9.66598163E-05, -0.0008842083, -0.185654581, -0.1645544  , 0.4187677   , -0.00276362943, 0.03946435  , 2.373934    , 0.62        , 3           , 50          , 0           , 0
0.390015423 , 0.0206000041, -9.800468   , -0.00210288679, -0.00166312279, -0.00124009221, -0.185452342, -0.164689228, 0.418498039 , -0.00278514484, 0.03944768  , 2.373922    , 0.63        , 3           , 11          , 0.0113510648, 0.0113510527
0.39119792  , 0.0146389594, -9.776528   , -0.0009134615, 0.0006679095, -0.000171399879, -0.185452342, -0.164689228, 0.418498039 , -0.002794348, 0.0394543558, 2.37392068  , 0.64        , 3           , 12          , 0.03534282  , 0
0.381849676 , 0.0273782853, -9.775191   , 0.00134181557, 0.00138709857, -0.0012899295, -0.185587168, -0.1645544  , 0.4188351   , -0.002781441, 0.03946819  , 2.37390733  , 0.65        , 3           , 50          , 0           , 0
0.396953851 , 0.03492234  , -9.789961   , -0.00182798237, -0.0001829972, -0.001589669, -0.185519755, -0.164621815, 0.4187677   , -0.00280034868, 0.03946632  , 2.37389159  , 0.66        , 3           , 11          , 0.0113510648, 0.0113510527
0.3943604   , 0.04532013  , -9.786774   , -0.0009789  , -0.000458830415, -0.0008798084, -0.185519755, -0.164824054, 0.418700278 , -0.00281048287, 0.0394617058, 2.37388253  , 0.67        , 3           , 12          , 0.03534282  , 0
0.405919135 , 0.0360817872, -9.763672   , -0.0025962512, -0.00187764 , -0.00152525981, -0.185519755, -0.164824054, 0.418700278 , -0.00283704535, 0.0394428819, 2.37386727  , 0.68        , 3           , 50          , 0           , 0
0.408860624 , 0.01755947  , -9.767342   , -0.003368624, -0.002586801, -0.000117278869, -0.185654581, -0.164824054, 0.418902516 , -0.00287077622, 0.0394170173, 2.37386632  , 0.69        , 3           , 11          , 0.0113510648, 0.0113510527
0.392583    , 0.05072496  , -9.777725   , -0.002756753, -3.2193886E-05, -0.000181359384, -0.185722   , -0.164689228, 0.4187677   , -0.0029224758, 0.0395999141, 2.37386346  , 0.7         , 3           , 12          , 0.0356459245, 0
0.379736871 , 0.0351152532, -9.787379   , -0.00148976932, 0.0008210974, 0.000249674777, -0.185519755, -0.164824054, 0.4187677   , -0.00293727452, 0.03960813  , 2.37386632  , 0.71        , 3           , 50          , 0           , 0
0.369463742 , 0.0117693152, -9.786652   , -0.00134867814, 0.0008220517, 3.84300074E-05, -0.185519755, -0.164824054, 0.4187677   , -0.00295074447, 0.0396163464, 2.37386632  , 0.72        , 3           , 11          , 0.0101316758, 0.0101316869
0.393428653 , 0.0101220366, -9.782859   , 0.000277407846, 0.000410686655, 0.000115985815, -0.185722   , -0.164689228, 0.4187677   , -0.00294792559, 0.0396204554, 2.37386727  , 0.73        , 3           , 12          , 0.0356459245, 0
0.373478055 , 0.0428426154, -9.782423   , 0.000848404947, -0.0005709652, 0.002306766 , -0.185519755, -0.1645544  , 0.418969929 , -0.00293852785, 0.0396148153, 2.37389064  , 0.74        , 3           , 50          , 0           , 0
0.371054471 , 0.0311347246, -9.781135   , -0.00105438381, -0.00149894843, 0.000671876245, -0.185654581, -0.164824054, 0.419037342 , -0.00294880453, 0.03959985  , 2.37389731  , 0.75        , 3           , 11          , 0.0101316758, 0.0101316869
0.403065979 , 0.0555683859, -9.778528   , 0.000430856 , -0.00191126636, 0.00138448318, -0.185654581, -0.164824054, 0.419037342 , -0.00294394535, 0.03958078  , 2.37391114  , 0.76        , 3           , 12          , 0.0356459245, 0
0.426267982 , 0.02510869  , -9.791585   , -0.000560073764, -0.00156599842, 0.0001796321, -0.185722   , -0.164891466, 0.4187677   , -0.00294947461, 0.0395651273, 2.373913    , 0.77        , 3           , 50          , 0           , 0
0.3793474   , 0.03249379  , -9.811348   , -7.19553354E-05, -0.000366005435, -0.000169391045, -0.185856819, -0.164756641, 0.419104755 , -0.00295026088, 0.0395614579, 2.37391114  , 0.78        , 3           , 11          , 0.0101316758, 0.0101316869
0.364820838 , 0.03754341  , -9.78658    , 0.001331281 , 0.00147371821, 0.000122551588, -0.1857894  , -0.164756641, 0.418902516 , -0.00293690083, 0.0395762   , 2.37391257  , 0.79        , 3           , 12          , 0.0356459245, 0
0.375810117 , 0.0517982431, -9.770165   , 0.000145758982, 0.00237409724, -2.462196E-05, -0.185722   , -0.164621815, 0.4187677   , -0.00302036852, 0.03958823  , 2.37390876  , 0.8         , 3           , 50          , 0           , 0
0.39387095  , 0.04618843  , -9.775022   , -0.000558398839, 0.001876581 , -0.0009469204, -0.185722   , -0.164621815, 0.4187677   , -0.00302632852, 0.0396069661, 2.3738997   , 0.81        , 3           , 11          , 0.009380788 , 0.009380794
0.3875046   , 0.0119458549, -9.767981   , -0.00188705383, -0.000666575332, -0.000392006361, -0.185722   , -0.164824054, 0.418969929 , -0.003045351, 0.0396002829, 2.37389541  , 0.82        , 3           , 12          , 0.0359996781, 0
0.3939573   , 0.009285478 , -9.804102   , -0.00210373057, 0.000247077085, -0.000956658565, -0.185519755, -0.164689228, 0.418969929 , -0.003066767, 0.0396027267, 2.37388587  , 0.83        , 3           , 50          , 0           , 0
0.3778678   , 0.0324114673, -9.781981   , -0.00202525314, -0.00130105217, -0.0006055441, -0.185722   , -0.164891466, 0.418632865 , -0.003087256, 0.03958969  , 2.37387967  , 0.84        , 3           , 11          , 0.009380788 , 0.009380794
0.4054553   , 0.0311682858, -9.776803   , -0.00181745552, -0.000314138, 0.0008802841, -0.185722   , -0.164891466, 0.418632865 , -0.003105082, 0.0395865738, 2.37388873  , 0.85        , 3           , 12          , 0.0359996781, 0
0.395905316 , 0.028121857 , -9.776889   , -0.0006820499, -0.00143275782, 0.00109571917, -0.185587168, -0.164891466, 0.418902516 , -0.003111466, 0.03957228  , 2.3738997   , 0.86        , 3           , 50          , 0           , 0
0.3922772   , 0.0303914044, -9.768319   , -0.00181368121, -0.00115883525, 0.000172638465, -0.185722   , -0.165026292, 0.418969929 , -0.00312953163, 0.0395607054, 2.37390161  , 0.87        , 3           , 11          , 0.009380788 , 0.009380794
0.3642751   , -0.004855739, -9.789471   , -0.00358225242, -0.000466859376, 0.000306761242, -0.185587168, -0.165161118, 0.419037342 , -0.00316523062, 0.0395560376, 2.37390447  , 0.88        , 3           , 12          , 0.0359996781, 0
0.382794321 , 0.0247212257, -9.793275   , -0.000206470038, 0.00201974926, -0.00165140082, -0.185587168, -0.165161118, 0.419037342 , -0.003167949, 0.0395761766, 2.37388825  , 0.89        , 3           , 50          , 0           , 0
0.379311025 , 0.006203784 , -9.776203   , -0.00242830836, -0.002942712, -0.00152536994, -0.185587168, -0.165295944, 0.4187677   , -0.003075499, 0.03951969  , 2.37387729  , 0.9         , 3           , 11          , 0.008914627 , 0.008914626
0.374006    , 0.0135132009, -9.78434849 , -0.00151426182, -0.001880629, 0.0008821057, -0.185587168, -0.165228531, 0.4187677   , -0.00309028965, 0.039500922 , 2.37388635  , 0.91        , 3           , 12          , 0.0364022   , 0
0.393720627 , 0.0344615243, -9.775976   , -0.00145058439, -0.000472326035, 0.0009552388, -0.185519755, -0.165026292, 0.418902516 , -0.00310441828, 0.03949623  , 2.373896    , 0.92        , 3           , 50          , 0           , 0
0.395813555 , 0.05252259  , -9.786732   , -0.000609284267, 0.000518876361, -0.0009464194, -0.185519755, -0.165026292, 0.418902516 , -0.003110883, 0.03950138  , 2.37388635  , 0.93        , 3           , 11          , 0.008914627 , 0.008914626
0.404585451 , 0.0289760735, -9.792638   , -0.000467577775, 0.000379047851, -0.00129914971, -0.185654581, -0.165026292, 0.4188351   , -0.00311607332, 0.03950513  , 2.373873    , 0.94        , 3           , 12          , 0.0364022   , 0
0.381694078 , 0.0410149023, -9.804063   , -0.00180357369, -0.0006154992, -0.00017677412, -0.185587168, -0.164958879, 0.4188351   , -0.0031341787, 0.0394989736, 2.37387156  , 0.95        , 3           , 50          , 0           , 0
0.376114458 , 0.0324796028, -9.796005   , 0.00137281232, -0.000664409366, -0.00235173269, -0.185587168, -0.164824054, 0.4188351   , -0.0031213786, 0.0394922569, 2.3738482   , 0.96        , 3           , 11          , 0.008914627 , 0.008914626
0.39323765  , 0.0339960344, -9.770105   , 0.00172156  , 0.0002530658, -0.00192487 , -0.185587168, -0.164824054, 0.4188351   , -0.00310492539, 0.03949473  , 2.37382913  , 0.97        , 3           , 12          , 0.0364022   , 0
0.380116373 , 0.029248    , -9.788304   , -0.00046557188, 9.748575E-05, -0.0002400682, -0.185519755, -0.164756641, 0.4188351   , -0.0031096763, 0.0394957   , 2.37382627  , 0.98        , 3           , 50          , 0           , 0
0.397994369 , 0.008314168 , -9.797747   , 0.0025031867, -0.000445587444, 0.000620504143, -0.185452342, -0.1645544  , 0.418902516 , -0.00308439741, 0.0394912623, 2.373833    , 0.99        , 3           , 11          , 0.008914627 , 0.008914626
0.358079731 , 0.002923021 , -9.799882   , -0.000696624047, -0.00122294237, 0.000111529953, -0.185654581, -0.164689228, 0.4188351   , -0.003035339, 0.03950278  , 2.3738358   , 1           , 3           , 12          , 0.03685148  , 0
0.36499545  , 0.04170204  , -9.81594    , -0.00175572443, -0.00123010471, 0.00010659144, -0.185654581, -0.164689228, 0.4188351   , -0.00305285282, 0.0394904837, 2.37383723  , 1.01        , 3           , 50          , 0           , 0
0.393850565 , 0.04126206  , -9.785891   , -0.0003484472, -0.0003054699, -0.000450488384, -0.185452342, -0.165026292, 0.4188351   , -0.003056512, 0.0394874066, 2.373833    , 1.02        , 3           , 11          , 0.0086376   , 0.008637607
0.3855085   , 0.031382516 , -9.771079   , 0.0004994636, -0.000229344048, 0.00124879577, -0.185654581, -0.164486989, 0.418969929 , -0.0030510237, 0.03948515  , 2.37384534  , 1.03        , 3           , 12          , 0.03685148  , 0
0.385266721 , 0.0445029661, -9.780519   , 0.00296508474, 0.000772842439, -9.580958E-06, -0.185384929, -0.164756641, 0.4188351   , -0.00302137551, 0.0394928865, 2.37384534  , 1.04        , 3           , 50          , 0           , 0
0.398892641 , 0.03857529  , -9.809365   , 0.000777059351, 0.0004764721, -0.00107973674, -0.185654581, -0.164689228, 0.4188351   , -0.00301403 , 0.0394976139, 2.37383437  , 1.05        , 3           , 11          , 0.0086376   , 0.008637607
0.401521862 , 0.0362407751, -9.795343   , -0.00232621329, -0.000178057584, -0.000600758649, -0.185654581, -0.164689228, 0.4188351   , -0.00303752976, 0.0394958071, 2.37382817  , 1.06        , 3           , 12          , 0.03685148  , 0
0.39266628  , 0.0223001409, -9.778747   , 0.0005670786, 0.000334262615, 0.0008968209, -0.185519755, -0.164891466, 0.4188351   , -0.00303150527, 0.03949918  , 2.37383723  , 1.07        , 3           , 50          , 0           , 0
0.383937478 , 0.0409716964, -9.799074   , 7.51672342E-05, -9.142628E-05, 0.00131767173, -0.185991645, -0.164689228, 0.418969929 , -0.00303023169, 0.03949831  , 2.37385058  , 1.08        , 3           , 11          , 0.0086376   , 0.008637607
0.403294921 , 0.02993968  , -9.806204   , 0.0007670975, 0.002447427 , -0.00142987084, -0.1857894  , -0.164824054, 0.418969929 , -0.003023128, 0.0395227373, 2.3738358   , 1.09        , 3           , 12          , 0.03685148  , 0
0.3739884   , 0.03484962  , -9.82222748 , 0.00157639559, 0.00193858321, 0.000408187363, -0.1857894  , -0.164824054, 0.418969929 , -0.003056455, 0.0395992063, 2.37383819  , 1.1         , 3           , 50          , 0           , 0
0.361411363 , 0.0231029578, -9.774462   , 0.00045298363, 0.000593507837, -0.000164216472, -0.185654581, -0.164621815, 0.418969929 , -0.00305199041, 0.0396051332, 2.37383676  , 1.11        , 3           , 11          , 0.00848287  , 0.008482878
0.384940743 , 0.0170114711, -9.789223   , -0.00208855025, 0.00050592667, -0.000246811862, -0.185587168, -0.164621815, 0.4188351   , -0.00307297288, 0.03961018  , 2.373834    , 1.12        , 3           , 12          , 0.03734544  , 0
0.3778522   , 0.03150614  , -9.781081   , -0.00026626722, 0.00333399442, 0.0005430656, -0.185654581, -0.164891466, 0.4187677   , -0.00307542435, 0.03964354  , 2.37383962  , 1.13        , 3           , 50          , 0           , 0
0.388533354 , 0.0223011151, -9.764766   , 0.00164265733, 0.002783755 , 0.000127280786, -0.185654581, -0.164891466, 0.4187677   , -0.00305894972, 0.03967138  , 2.37384057  , 1.14        , 3           , 11          , 0.00848287  , 0.008482878
0.363208354 , 0.0190530829, -9.78395748 , -0.00245378469, 0.00310801947, 0.000956340053, -0.185519755, -0.164891466, 0.418632865 , -0.003083112, 0.0397024937, 2.37385     , 1.15        , 3           , 12          , 0.03734544  , 0
0.372680545 , 0.0478506871, -9.792804   , -0.00286901649, 0.00127497839, -0.000178605609, -0.185654581, -0.1645544  , 0.4187677   , -0.00311187678, 0.0397152379, 2.3738482   , 1.16        , 3           , 50          , 0           , 0
0.383165747 , 0.05314224  , -9.792703   , 0.0004592156, -0.0006735353, -0.00023680368, -0.185452342, -0.164756641, 0.4187677   , -0.003107379, 0.03970849  , 2.37384629  , 1.17        , 3           , 11          , 0.00848287  , 0.008482878
0.393112957 , 0.0240752418, -9.77150249 , 0.00292272377, 0.0008213916, -0.000929346, -0.185452342, -0.164756641, 0.4187677   , -0.00307852239, 0.03971668  , 2.37383676  , 1.18        , 3           , 12          , 0.03734544  , 0
0.389291883 , 0.03995117  , -9.782767   , 0.00151349686, 0.000389498222, 0.00047610575, -0.185452342, -0.164689228, 0.4188351   , -0.00306319771, 0.03972059  , 2.37384152  , 1.19        , 3           , 50          , 0           , 0
0.39234373  , 0.0371405371, -9.762868   , 0.000823275652, 0.0005809637, -0.0008708406, -0.185384929, -0.164621815, 0.4188351   , -0.00311523373, 0.0396287441, 2.37383     , 1.2         , 3           , 11          , 0.00840383  , 0.008403833
0.389839351 , 0.044486098 , -9.79133    , 0.000182465417, 0.00163253467, -0.00108407962, -0.185722   , -0.164958879, 0.418902516 , -0.00311384141, 0.03964504  , 2.37381959  , 1.21        , 3           , 12          , 0.03788194  , 0
0.3950446   , 0.0205808375, -9.812181   , -0.00363265467, 0.00209948933, -0.000959829951, -0.185722   , -0.164958879, 0.418902516 , -0.00315055065, 0.03966601  , 2.37380958  , 1.22        , 3           , 50          , 0           , 0
0.374732226 , 0.0253345817, -9.813221   , -0.00250200578, 0.00196634769, -0.0005309731, -0.185452342, -0.164486989, 0.418902516 , -0.00317578577, 0.0396856479, 2.37380433  , 1.23        , 3           , 11          , 0.00840383  , 0.008403833
0.358037829 , 0.03941565  , -9.783007   , -0.0008683341, 6.374421E-06, -0.000597072649, -0.185452342, -0.1650937  , 0.4188351   , -0.00318470644, 0.0396856964, 2.37379861  , 1.24        , 3           , 12          , 0.03788194  , 0
0.372038215 , 0.03341916  , -9.79287    , -0.00289438083, -0.004442125, -0.00131979864, -0.185722   , -0.164824054, 0.4187677   , -0.00321416673, 0.039641235 , 2.37378526  , 1.25        , 3           , 50          , 0           , 0
0.382341564 , 0.0247265343, -9.793278   , -0.000514418236, -0.000202412688, -0.0008782894, -0.185519755, -0.164689228, 0.4188351   , -0.003219658, 0.0396391824, 2.37377667  , 1.26        , 3           , 11          , 0.00840383  , 0.008403833
0.396036029 , 0.0384938   , -9.77549    , -0.00242531137, 0.0007701745, -0.000249950768, -0.185519755, -0.164689228, 0.4188351   , -0.00324401236, 0.03964688  , 2.37377381  , 1.27        , 3           , 12          , 0.03788194  , 0
0.40941748  , 0.0221019536, -9.778167   , -0.000450718566, 0.00113549747, -0.00137033965, -0.185452342, -0.1645544  , 0.418902516 , -0.00324906455, 0.03965819  , 2.37376046  , 1.28        , 3           , 50          , 0           , 0
0.3892108   , 0.0336365663, -9.783245   , -0.00114749849, -0.0007698422, -0.001588464, -0.185452342, -0.164756641, 0.419104755 , -0.00326116616, 0.0396504365, 2.37374425  , 1.29        , 3           , 11          , 0.00840383  , 0.008403833
0.379731774 , 0.0409137   , -9.7674675  , -0.003190963, -0.000449310028, 0.0005923018, -0.185587168, -0.164756641, 0.418632865 , -0.00328763784, 0.039626155 , 2.37375     , 1.3         , 3           , 12          , 0.03845882  , 0
0.3856313   , 0.0386236161, -9.777827   , -0.00115072075, 0.0007611819, -0.00186850922, -0.185587168, -0.164756641, 0.418632865 , -0.00329988659, 0.0396337   , 2.37373185  , 1.31        , 3           , 50          , 0           , 0
0.3913281   , 0.0294740349, -9.760647   , -0.00221189368, 0.0012467599, -0.0012369788, -0.185722   , -0.164824054, 0.418902516 , -0.003322498, 0.0396461263, 2.37371945  , 1.32        , 3           , 11          , 0.008365835 , 0.008365834
0.381892562 , 0.027413059 , -9.785586   , -0.000726961647, 0.0009048332, -0.000453629269, -0.185587168, -0.164621815, 0.418969929 , -0.00332995 , 0.0396551639, 2.37371469  , 1.33        , 3           , 12          , 0.03845882  , 0
0.4093859   , 0.0523540564, -9.783916   , -0.0014953342, -0.000719416945, 3.46944435E-05, -0.185317516, -0.164958879, 0.418632865 , -0.00334488787, 0.0396479666, 2.37371469  , 1.34        , 3           , 50          , 0           , 0
0.376273364 , 0.0406426564, -9.808626   , 0.000128682892, -0.0007788274, -0.000452282169, -0.185317516, -0.164958879, 0.418632865 , -0.00334377959, 0.03964017  , 2.37371087  , 1.35        , 3           , 11          , 0.008365835 , 0.008365834
0.374862254 , 0.0348132923, -9.814537   , -0.0004304725, -0.001908907, -0.00024474875, -0.185452342, -0.164958879, 0.4187677   , -0.00334818 , 0.03962107  , 2.373708    , 1.36        , 3           , 12          , 0.03845882  , 0
0.399514019 , 0.0222657658, -9.79225349 , 0.0008452011, -0.00274500437, 0.0007487568, -0.185722   , -0.164621815, 0.418969929 , -0.00333942845, 0.0395936444, 2.37371564  , 1.37        , 3           , 50          , 0           , 0
0.395507753 , 0.0246011037, -9.801765   , 0.00288560288, -0.00139372586, -0.000228515273, -0.185587168, -0.164824054, 0.418902516 , -0.0033106606, 0.039579697 , 2.37371373  , 1.38        , 3           , 11          , 0.008365835 , 0.008365834
0.3692518   , 0.0325018838, -9.778883   , 0.000617843063, 0.000350777758, 0.000399370532, -0.185587168, -0.164824054, 0.418902516 , -0.00330432574, 0.03958322  , 2.37371755  , 1.39        , 3           , 12          , 0.03845882  , 0
0.3717149   , 0.0371002145, -9.812743   , -0.001141986, -0.0009559785, 0.000954106159, -0.186126471, -0.164689228, 0.4188351   , -0.00331679522, 0.03954215  , 2.373727    , 1.4         , 3           , 50          , 0           , 0
0.374369025 , 0.0004910212, -9.804287   , -0.00121326745, -0.0008860665, 0.0003888104, -0.185519755, -0.164958879, 0.418902516 , -0.00332877552, 0.0395333022, 2.373731    , 1.41        , 3           , 11          , 0.008346522 , 0.008346521
0.361044616 , 0.02853418  , -9.778058   , 0.002029291 , 0.0001917666, 0.000193679283, -0.185452342, -0.164824054, 0.418969929 , -0.00330840657, 0.0395352244, 2.37373281  , 1.42        , 3           , 12          , 0.0390739143, 0
0.361107826 , 0.0308171567, -9.786183   , 0.00181736692, 0.000260726549, 0.0006166062, -0.185452342, -0.164824054, 0.418969929 , -0.0032899885, 0.03953785  , 2.37373853  , 1.43        , 3           , 50          , 0           , 0
0.385556221 , 0.02785041  , -9.794146   , 0.00201910664, 0.00209232722, -0.00114544458, -0.185452342, -0.164756641, 0.418565452 , -0.00327025214, 0.03955874  , 2.373727    , 1.44        , 3           , 11          , 0.008346522 , 0.008346521
0.380026817 , 0.0215874948, -9.791049   , 0.000748986669, 0.00187255745, -0.00157550245, -0.185519755, -0.164689228, 0.419104755 , -0.00326338923, 0.0395774134, 2.37371182  , 1.45        , 3           , 12          , 0.0390739143, 0
0.370066643 , 0.02572247  , -9.778452   , -0.00269639376, -0.0009664887, -0.000889630464, -0.185384929, -0.164824054, 0.418969929 , -0.003290702, 0.0395677127, 2.37370276  , 1.46        , 3           , 50          , 0           , 0
0.37931928  , 0.037380863 , -9.788729   , -8.634811E-05, -0.0003152965, 0.000394946081, -0.185384929, -0.164824054, 0.418969929 , -0.00329141 , 0.03956458  , 2.37370658  , 1.47        , 3           , 11          , 0.008346522 , 0.008346521
0.386408836 , 0.0242260322, -9.792796   , -0.0007963082, 0.000383839331, -0.000313605, -0.1852501  , -0.164824054, 0.4187677   , -0.00329949567, 0.0395684019, 2.37370324  , 1.48        , 3           , 12          , 0.0390739143, 0
0.386875331 , 0.0251245312, -9.793242   , -0.00164008152, -0.000396196148, -0.0008838241, -0.185587168, -0.164824054, 0.4188351   , -0.00331624551, 0.0395644158, 2.37369466  , 1.49        , 3           , 50          , 0           , 0
0.381879449 , 0.0247242916, -9.791022   , -0.0014338895, 0.000900637533, -0.0005253594, -0.185587168, -0.164824054, 0.418969929 , -0.00324765733, 0.039443925 , 2.37369275  , 1.5         , 3           , 11          , 0.008329973 , 0.008329972
0.383066148 , 0.0419027731, -9.804501   , -0.00135171914, -0.00149218936, -0.00102315925, -0.1857894  , -0.164958879, 0.418969929 , -0.00326157664, 0.03942897  , 2.37368226  , 1.51        , 3           , 12          , 0.03972508  , 0
0.382926524 , 0.03464807  , -9.793685   , -0.0026158588, -0.00269743172, 0.000452391949, -0.1857894  , -0.164958879, 0.418969929 , -0.003287555, 0.03940201  , 2.373687    , 1.52        , 3           , 50          , 0           , 0
0.370332718 , 0.00503374264, -9.799328   , 0.0003349263, 0.000208662866, -0.000235676009, -0.185587168, -0.164891466, 0.418700278 , -0.00328429881, 0.03940409  , 2.37368464  , 1.53        , 3           , 11          , 0.008329973 , 0.008329972
0.380383819 , 0.0130239148, -9.79515    , 0.000622439838, -0.000915689452, -0.0010837072, -0.185587168, -0.164756641, 0.419037342 , -0.00327850133, 0.0393948965, 2.37367368  , 1.54        , 3           , 12          , 0.03972508  , 0
0.39084807  , 0.0254401471, -9.766994   , -7.948963E-05, -0.001624374, 4.206545E-05, -0.185722   , -0.164824054, 0.418902516 , -0.00327927759, 0.03937865  , 2.37367415  , 1.55        , 3           , 50          , 0           , 0
0.385976672 , 0.02692616  , -9.789174   , -0.000859177555, -0.0009961047, 0.000251323247, -0.185722   , -0.164824054, 0.418902516 , -0.00328776776, 0.039368704 , 2.37367654  , 1.56        , 3           , 11          , 0.008329973 , 0.008329972
0.394254476 , 0.0305047054, -9.808531   , 0.00146428542, 0.000286694034, -0.000230299775, -0.1857894  , -0.164891466, 0.418902516 , -0.003273216, 0.0393715575, 2.37367463  , 1.57        , 3           , 12          , 0.03972508  , 0
0.38791585  , 0.03370392  , -9.798622   , 0.00103716354, 0.000846956 , -0.0014321917, -0.185654581, -0.164891466, 0.419037342 , -0.00326341018, 0.0393799841, 2.37366033  , 1.58        , 3           , 50          , 0           , 0
0.400533736 , 0.0379698351, -9.769581   , -0.00213540765, 5.116922E-05, 0.000105755571, -0.185384929, -0.164891466, 0.418969929 , -0.00328472257, 0.0393805   , 2.37366128  , 1.59        , 3           , 11          , 0.008329973 , 0.008329972
0.381664127 , 0.0133910831, -9.774799   , -0.00152689591, 0.00105980854, -0.000311932963, -0.185384929, -0.164891466, 0.418969929 , -0.00324208639, 0.0394140743, 2.37365985  , 1.6         , 3           , 12          , 0.0404102132, 0
0.388183445 , 0.0201580152, -9.796868   , -0.000389518158, -0.0006219455, -0.00151005317, -0.185587168, -0.164891466, 0.419239581 , -0.00324657722, 0.0394078121, 2.373645    , 1.61        , 3           , 50          , 0           , 0
0.383243829 , 0.0278376769, -9.782412   , -0.0007938535, -0.00428515067, 0.0005307269, -0.185654581, -0.164958879, 0.419172168 , -0.00325430138, 0.03936498  , 2.37365031  , 1.62        , 3           , 11          , 0.008308174 , 0.008308177
0.391318142 , 0.0209853183, -9.785542   , -0.00121837249, -0.004217627, -0.0003893867, -0.185654581, -0.165026292, 0.419104755 , -0.00326663326, 0.03932279  , 2.3736465   , 1.63        , 3           , 12          , 0.0404102132, 0
0.4072385   , 0.02353641  , -9.794449   , -0.00151886209, -0.000488797552, 0.0003213896, -0.185654581, -0.165026292, 0.419104755 , -0.00328169437, 0.0393179134, 2.37364984  , 1.64        , 3           , 50          , 0           , 0
0.387794673 , -0.00649165455, -9.787491   , -0.00102084083, -0.00133015239, -0.000383951119, -0.185722   , -0.164756641, 0.4188351   , -0.00329205138, 0.0393046   , 2.373646    , 1.65        , 3           , 11          , 0.008308174 , 0.008308177
0.409037769 , 0.0226128474, -9.794439   , -0.0004664867, 0.000926191336, 0.0007523039, -0.185587168, -0.164756641, 0.419172168 , -0.00329642114, 0.03931389  , 2.37365365  , 1.66        , 3           , 12          , 0.0404102132, 0
0.37280345  , 0.0577699654, -9.790954   , 9.664666E-05, 0.00121157465, 0.000190296792, -0.185519755, -0.164891466, 0.419104755 , -0.003295382, 0.03932601  , 2.37365556  , 1.67        , 3           , 50          , 0           , 0
0.368986964 , 0.0522988848, -9.761175   , 0.000101406942, 8.53105448E-05, -0.0012241262, -0.185519755, -0.164891466, 0.419104755 , -0.003294849, 0.03932682  , 2.37364316  , 1.68        , 3           , 11          , 0.008308174 , 0.008308177
0.3880612   , 0.0187198985, -9.771564   , -0.00186319777, -0.00246214564, -0.00151978759, -0.185654581, -0.164958879, 0.4187677   , -0.00331407413, 0.0393021554, 2.373628    , 1.69        , 3           , 12          , 0.0404102132, 0
0.381810963 , 0.022883404 , -9.780182   , -0.00407486036, -0.00104351388, 0.0010168571, -0.185654581, -0.164756641, 0.419239581 , -0.00328901946, 0.03932374  , 2.37364078  , 1.7         , 3           , 50          , 0           , 0
0.374862134 , 0.0397230349, -9.79869652 , -0.0006822088, -0.00186529232, -9.879147E-05, -0.186059058, -0.164689228, 0.419037342 , -0.00329587981, 0.0393050835, 2.3736403   , 1.71        , 3           , 11          , 0.008276186 , 0.008276192
0.3702234   , 0.0361155868, -9.78338051 , -0.00293908734, -0.00216213171, 0.00186800153, -0.185654581, -0.164756641, 0.419104755 , -0.00332453358, 0.03928353  , 2.37365842  , 1.72        , 3           , 12          , 0.04112726  , 0
0.398885757 , 0.0443722233, -9.789001   , -0.00068769604, -0.00102060358, -0.00235778932, -0.185654581, -0.164756641, 0.419104755 , -0.00333233643, 0.0392732434, 2.37363553  , 1.73        , 3           , 50          , 0           , 0
0.420276225 , 0.0210751016, -9.778992   , -0.00125805126, 0.000383408973, 0.0001845836, -0.185587168, -0.164689228, 0.419037342 , -0.00334484386, 0.0392770842, 2.373637    , 1.74        , 3           , 11          , 0.008276186 , 0.008276192
0.390324354 , 0.0151219079, -9.782862   , -0.00125099253, -0.00130598783, -0.00207832 , -0.185654581, -0.165363356, 0.419172168 , -0.0033581676, 0.0392639525, 2.37361646  , 1.75        , 3           , 12          , 0.04112726  , 0
0.365649849 , 0.0272046756, -9.80108    , -0.000396994, -0.00242651277, -9.83424252E-05, -0.186059058, -0.164756641, 0.419037342 , -0.00336217438, 0.039239686 , 2.3736155   , 1.76        , 3           , 50          , 0           , 0
0.39241758  , 0.0336295962, -9.792261   , 0.0012727268, 0.002371548 , -0.00206082617, -0.186059058, -0.164756641, 0.419037342 , -0.0033502602, 0.03926333  , 2.37359452  , 1.77        , 3           , 11          , 0.008276186 , 0.008276192
0.36902526  , 0.04608104  , -9.79058    , 0.00184544059, 0.00124911848, 0.00189559651, -0.185519755, -0.164689228, 0.419172168 , -0.00333106145, 0.03927588  , 2.3736136   , 1.78        , 3           , 12          , 0.04112726  , 0
0.375953555 , 0.0541462228, -9.797726   , -0.0006910623, -0.000175904366, -0.0009438  , -0.185519755, -0.165026292, 0.419172168 , -0.00333834346, 0.0392740965, 2.373604    , 1.79        , 3           , 50          , 0           , 0
0.382780075 , 0.025602363 , -9.786943   , -0.00439991755, 0.000623545 , -0.000113429611, -0.185924232, -0.164958879, 0.419037342 , -0.00342514552, 0.0392543748, 2.3736012   , 1.8         , 3           , 11          , 0.008233263 , 0.00823327
0.37837413  , 0.0342349522, -9.789201   , -0.000156871451, -0.0007556324, -0.00066092005, -0.185924232, -0.164958879, 0.419037342 , -0.00342697254, 0.03924679  , 2.37359452  , 1.81        , 3           , 12          , 0.0418742374, 0
0.3656099   , 0.03118944  , -9.778463   , 0.003238479 , -0.00185896968, 0.000483297219, -0.185587168, -0.1650937  , 0.419172168 , -0.00339439581, 0.03922822  , 2.37359929  , 1.82        , 3           , 50          , 0           , 0
0.3483813   , 0.0309266858, -9.774529   , -0.000166140031, 0.00121532544, 0.000189729733, -0.1857894  , -0.164689228, 0.419239581 , -0.003395983, 0.03924038  , 2.3736012   , 1.83        , 3           , 11          , 0.008233263 , 0.00823327
0.367797256 , 0.0560223237, -9.790548   , -0.00297793676, -0.00161943177, -0.00237061619, -0.185587168, -0.164891466, 0.419037342 , -0.003426691, 0.0392241   , 2.37357736  , 1.84        , 3           , 12          , 0.0418742374, 0
0.402111024 , 0.0466119349, -9.795296   , -0.00157581235, 0.000642644 , -0.00038279756, -0.185587168, -0.164891466, 0.419037342 , -0.0034426  , 0.03923051  , 2.37357354  , 1.85        , 3           , 50          , 0           , 0
0.381761223 , 0.0237358175, -9.765264   , 0.0001162868, 0.00121723546, 0.000191046682, -0.185654581, -0.164689228, 0.419037342 , -0.003441363, 0.0392426923, 2.37357545  , 1.86        , 3           , 11          , 0.008233263 , 0.00823327
0.370566934 , 0.0320045464, -9.769835   , -0.00214386918, 0.001483524 , 0.0013110952, -0.1857894  , -0.164756641, 0.419239581 , -0.00346228923, 0.03925757  , 2.3735888   , 1.87        , 3           , 12          , 0.0418742374, 0
0.382919073 , 0.03464202  , -9.791877   , -0.00184569333, -0.00189335132, -0.000388019864, -0.185654581, -0.1650937  , 0.419037342 , -0.003480897, 0.039238628 , 2.373585    , 1.88        , 3           , 50          , 0           , 0
0.401704162 , 0.0457618162, -9.809315   , -0.00523219025, -0.00247940235, -0.0006872284, -0.185654581, -0.1650937  , 0.419037342 , -0.003533484, 0.0392138138, 2.37357831  , 1.89        , 3           , 11          , 0.008233263 , 0.00823327
0.408732027 , 0.0374668427, -9.782628   , -0.000453782442, -0.00331612257, 0.0007453441, -0.185384929, -0.164824054, 0.419037342 , -0.00357449544, 0.0391483568, 2.373584    , 1.9         , 3           , 12          , 0.04264924  , 0
0.409131467 , 0.0334011726, -9.782642   , -0.00075867644, 0.00118700764, 0.000468432758, -0.185654581, -0.164824054, 0.419172168 , -0.003581901, 0.0391602479, 2.3735888   , 1.91        , 3           , 50          , 0           , 0
0.3822381   , 0.0183937922, -9.788334   , 0.00205223029, 0.00374018936, -0.000927179644, -0.1857894  , -0.165026292, 0.419037342 , -0.003561747, 0.0391976126, 2.37357926  , 1.92        , 3           , 11          , 0.00817699  , 0.008176994
0.370428145 , 0.0131453928, -9.796581   , 9.352743E-05, 6.64742547E-05, -0.000659502, -0.1857894  , -0.165026292, 0.419037342 , -0.00356106949, 0.0391982533, 2.37357259  , 1.93        , 3           , 12          , 0.04264924  , 0
0.377463073 , 0.0293312985, -9.803692   , -0.002154572, -0.00220132526, -0.0003909714, -0.185654581, -0.164891466, 0.419104755 , -0.00358276558, 0.0391762257, 2.37356877  , 1.94        , 3           , 50          , 0           , 0
0.3764614   , 0.0279249754, -9.784722   , -0.0007584245, 0.0009054373, -0.00150976342, -0.185722   , -0.164621815, 0.419172168 , -0.003590944, 0.0391852334, 2.373554    , 1.95        , 3           , 11          , 0.00817699  , 0.008176994
0.386351764 , 0.02016265  , -9.79191    , -0.0013235301, 0.00118318782, 0.000465798861, -0.185722   , -0.164756641, 0.419239581 , -0.0036039995, 0.0391970761, 2.37355828  , 1.96        , 3           , 12          , 0.04264924  , 0
0.38332808  , 0.03594026  , -9.776953   , -0.00103552721, 5.8837526E-05, 0.000465380028, -0.185587168, -0.164891466, 0.419172168 , -0.003614171, 0.03919768  , 2.373563    , 1.97        , 3           , 50          , 0           , 0
0.371458054 , 0.01993076  , -9.805133   , 8.6068E-05  , 0.00147429737, -0.00150494475, -0.185587168, -0.164891466, 0.419172168 , -0.003613904, 0.0392123647, 2.37354779  , 1.98        , 3           , 11          , 0.00817699  , 0.008176994
0.365925848 , 0.0150046712, -9.79706    , -0.00188690086, 0.0006162315, -0.00179800263, -0.185654581, -0.164689228, 0.419172168 , -0.003633478, 0.0392184742, 2.37352967  , 1.99        , 3           , 12          , 0.04264924  , 0
0.382818341 , 0.026972441 , -9.791909   , -0.0006417837, 3.14795761E-06, 0.00103593571, -0.186059058, -0.164756641, 0.419307    , -0.00348715228, 0.039139647 , 2.373546    , 2           , 3           , 50          , 0           , 0
0.3809294   , 0.0251452569, -9.778824   , -0.00175771408, -0.00282014348, 0.0007437911, -0.185384929, -0.1650937  , 0.419104755 , -0.00350443367, 0.0391114727, 2.37355351  , 2.01        , 3           , 11          , 0.008114041 , 0.008114041
0.376199722 , 0.0419220254, -9.786474   , -0.000349925132, -0.001965899, 0.000469140155, -0.185384929, -0.1650937  , 0.419104755 , -0.00350774731, 0.03909183  , 2.37355828  , 2.02        , 3           , 12          , 0.0434504226, 0
0.382029325 , 0.0333264135, -9.800026   , 0.00020221938, 0.000572005636, 0.0001931419, -0.1857894  , -0.164824054, 0.419307    , -0.00350565114, 0.039097555 , 2.37356019  , 2.03        , 3           , 50          , 0           , 0
0.382859826 , 0.03771843  , -9.767456   , -0.00177321117, 0.00027707158, 0.000466026948, -0.185722   , -0.164958879, 0.419307    , -0.00352320168, 0.03910034  , 2.373565    , 2.04        , 3           , 11          , 0.008114041 , 0.008114041
0.3674771   , 0.03389172  , -9.783411   , -0.002613848, -0.00113648537, -0.000105168525, -0.185722   , -0.164689228, 0.419239581 , -0.00354937953, 0.03908898  , 2.373564    , 2.05        , 3           , 12          , 0.0434504226, 0
0.3851006   , 0.0265143681, -9.79777    , -8.053379E-05, 0.0005700941, -0.000373249757, -0.185722   , -0.164689228, 0.419239581 , -0.003550334, 0.0390946642, 2.37356019  , 2.06        , 3           , 50          , 0           , 0
0.40260306  , 0.0243951064, -9.76555252 , -0.00176066521, -0.002257014, 0.000462121534, -0.185722   , -0.164689228, 0.419239581 , -0.00356775615, 0.03907211  , 2.373565    , 2.07        , 3           , 11          , 0.008114041 , 0.008114041
0.40429     , 0.03758955  , -9.80345249 , -7.618862E-05, -0.000274600257, -9.201432E-05, -0.185587168, -0.164621815, 0.4193744   , -0.00356855313, 0.0390693657, 2.373564    , 2.08        , 3           , 12          , 0.0434504226, 0
0.381171167 , 0.036946252 , -9.800016   , -0.00120868394, 0.000280889944, -9.641418E-05, -0.185519755, -0.164891466, 0.419172168 , -0.00358067779, 0.0390721671, 2.373563    , 2.09        , 3           , 50          , 0           , 0
0.38308692  , 0.0147663886, -9.786081   , -0.00174200907, 0.001152717 , -0.00122636813, -0.185519755, -0.164891466, 0.419172168 , -0.00354669522, 0.0391277634, 2.37355256  , 2.1         , 3           , 11          , 0.008038454 , 0.008038461
0.411786556 , 0.0230532736, -9.800744   , -0.0008934978, 0.0008768811, -0.00150538865, -0.185654581, -0.164958879, 0.419172168 , -0.00355621916, 0.03913648  , 2.37353778  , 2.11        , 3           , 12          , 0.0442760438, 0
0.399954855 , 0.0262678955, -9.776414   , -0.00174061523, 0.000871152035, -0.001226802, -0.185722   , -0.164824054, 0.419307    , -0.003574108, 0.03914515  , 2.37352586  , 2.12        , 3           , 50          , 0           , 0
0.403194964 , 0.0285197049, -9.786324   , -4.7448324E-05, 0.00116417685, -0.00121846655, -0.185654581, -0.164891466, 0.419307    , -0.00357506215, 0.03915675  , 2.37351346  , 2.13        , 3           , 11          , 0.008038454 , 0.008038461
0.385010064 , 0.025101956 , -9.78014851 , -0.00117322558, 0.0005934123, 0.000753160159, -0.185654581, -0.164891466, 0.419307    , -0.00358650181, 0.039162714 , 2.373521    , 2.14        , 3           , 12          , 0.0442760438, 0
0.38863492  , 0.0183662437, -9.802296   , 0.00448555825, -0.0013393414, 0.00162407383, -0.185587168, -0.164958879, 0.419037342 , -0.00354100624, 0.0391493775, 2.3735373   , 2.15        , 3           , 50          , 0           , 0
0.362665862 , 0.006041536 , -9.803902   , 0.00108553644, 0.000608689 , -0.0003664541, -0.185722   , -0.164486989, 0.419239581 , -0.00353029626, 0.0391554572, 2.37353349  , 2.16        , 3           , 11          , 0.008038454 , 0.008038461
0.365017533 , 0.01635212  , -9.792089   , -0.00399658969, 0.0002927452, -0.000108055625, -0.185587168, -0.164689228, 0.419172168 , -0.00357030379, 0.0391583778, 2.37353253  , 2.17        , 3           , 12          , 0.0442760438, 0
0.376917452 , 0.0247978866, -9.79558    , -0.00202673464, 0.00171393971, -0.000379204634, -0.185519755, -0.165295944, 0.418969929 , -0.00359072257, 0.0391755141, 2.37352872  , 2.18        , 3           , 50          , 0           , 0
0.372993052 , 0.0294313226, -9.817738   , -0.000888826442, 3.21882253E-05, -0.000659078, -0.185519755, -0.165295944, 0.418969929 , -0.00359986885, 0.03917581  , 2.373522    , 2.19        , 3           , 11          , 0.008038454 , 0.008038461
0.383301765 , 0.0305627268, -9.787823   , -0.00134616625, 0.00281163282, 0.0004773391, -0.185587168, -0.164689228, 0.419104755 , -0.00343389018, 0.039156    , 2.37353349  , 2.2         , 3           , 12          , 0.04512445  , 0
0.349150836 , 0.0183080062, -9.781807   , -0.000203171439, 3.61845E-06 , -0.000651882263, -0.185587168, -0.164689228, 0.419104755 , -0.00343617564, 0.0391560122, 2.37352681  , 2.21        , 3           , 50          , 0           , 0
0.3940779   , 0.0312543064, -9.762878   , 0.00205673277, 1.89005514E-05, 0.0002062655, -0.185587168, -0.164621815, 0.419172168 , -0.00341552636, 0.03915621  , 2.37352872  , 2.22        , 3           , 11          , 0.0079551   , 0.007955109
0.402148038 , 0.0212741178, -9.775063   , 0.00150721311, -0.00308213453, 0.00019885831, -0.185587168, -0.164621815, 0.419172168 , -0.003400374, 0.0391254   , 2.37353063  , 2.23        , 3           , 12          , 0.04512445  , 0
0.368015349 , 0.04109726  , -9.78111649 , 9.089688E-05, -0.00224698964, 0.000193575441, -0.185519755, -0.164958879, 0.419037342 , -0.00339938537, 0.0391029343, 2.373533    , 2.24        , 3           , 50          , 0           , 0
0.3792811   , 0.03868896  , -9.775165   , -0.00132607191, -0.00141184765, -0.0009418571, -0.185654581, -0.165026292, 0.419239581 , -0.00341301272, 0.0390887856, 2.373524    , 2.25        , 3           , 11          , 0.0079551   , 0.007955109
0.3798308   , 0.036084082 , -9.807261   , -0.00217753439, -0.00057288236, -0.0009445062, -0.185654581, -0.164824054, 0.419104755 , -0.00343515654, 0.0390830263, 2.37351441  , 2.26        , 3           , 12          , 0.04512445  , 0
0.385420978 , 0.011225854 , -9.814555   , -0.0004770711, -0.001687681, -0.000373265269, -0.185654581, -0.164824054, 0.419104755 , -0.00344007183, 0.0390661322, 2.3735106   , 2.27        , 3           , 50          , 0           , 0
0.3888225   , 0.03771132  , -9.785944   , -0.0007664678, -0.000281765737, -0.000372412527, -0.185587168, -0.164756641, 0.418969929 , -0.0034478826, 0.0390633047, 2.37350678  , 2.28        , 3           , 11          , 0.0079551   , 0.007955109
0.391458035 , 0.03627456  , -9.770561   , 0.00177332677, 1.69858977E-05, -0.00149027619, -0.185856819, -0.164824054, 0.419239581 , -0.003430733, 0.0390634239, 2.37349153  , 2.29        , 3           , 12          , 0.04512445  , 0
0.383109421 , 0.0174627136, -9.78290749 , 0.00377977313, 0.00144892978, -6.47585548E-05, -0.185587168, -0.164756641, 0.419104755 , -0.00333802658, 0.0390944742, 2.37349343  , 2.3         , 3           , 50          , 0           , 0
0.3755545   , 0.02614914  , -9.79016    , -0.0004451509, -0.000832238758, 0.000477090973, -0.185587168, -0.164756641, 0.419104755 , -0.003342291, 0.03908617  , 2.3734982   , 2.31        , 3           , 11          , 0.007866456 , 0.007866472
0.39514938  , 0.038966164 , -9.778658   , -0.001578788, -0.000276753883, -0.00150507118, -0.185452342, -0.164689228, 0.419239581 , -0.00335866422, 0.0390833467, 2.373483    , 2.32        , 3           , 12          , 0.04599405  , 0
0.3953625   , 0.0498512462, -9.795786   , 0.000129950262, -0.002799372, 0.00132429984, -0.1857894  , -0.164756641, 0.419441819 , -0.003356844, 0.0390553959, 2.37349629  , 2.33        , 3           , 50          , 0           , 0
0.381738365 , 0.0103267655, -9.80283451 , -0.0007356153, 0.0008552435, 0.00104345253, -0.185452342, -0.164824054, 0.419104755 , -0.00336379418, 0.0390639864, 2.37350678  , 2.34        , 3           , 11          , 0.007866456 , 0.007866472
0.3687787   , 0.0302590057, -9.781156   , -0.0007294611, -0.000552585931, -0.000371404283, -0.185452342, -0.164824054, 0.419104755 , -0.00337123359, 0.0390584469, 2.373503    , 2.35        , 3           , 12          , 0.04599405  , 0
0.3629741   , 0.04244569  , -9.762166   , -0.000160351134, -0.00111188926, 0.00217319885, -0.185722   , -0.164756641, 0.419037342 , -0.00337198447, 0.0390473939, 2.373525    , 2.36        , 3           , 50          , 0           , 0
0.382541329 , 0.0454205275, -9.775564   , 0.0003952485, 0.000299745239, -0.00177752227, -0.1857894  , -0.164891466, 0.419172168 , -0.0033687274, 0.0390503332, 2.37350726  , 2.37        , 3           , 11          , 0.007866456 , 0.007866472
0.3944664   , 0.05254762  , -9.789454   , 0.0001224908, -0.001391549, 0.000478856964, -0.185519755, -0.164756641, 0.419104755 , -0.00336731388, 0.03903644  , 2.373512    , 2.38        , 3           , 12          , 0.04599405  , 0
0.365198135 , 0.03122802  , -9.788411   , -0.000726258, -0.001397286, -0.002067931, -0.185519755, -0.164756641, 0.419104755 , -0.00337538216, 0.0390223935, 2.37349153  , 2.39        , 3           , 50          , 0           , 0
0.3573058   , 0.0222333744, -9.769976   , -0.0007534233, -0.0005738648, 0.000475169 , -0.185587168, -0.164891466, 0.419104755 , -0.003421922, 0.0389826074, 2.37349439  , 2.4         , 3           , 11          , 0.00777439727, 0.007774413
0.3927484   , 0.0299545974, -9.774194   , -0.0007540759, -0.0005738679, -0.0006549808, -0.185722   , -0.165026292, 0.418902516 , -0.00342971832, 0.0389768444, 2.37348771  , 2.41        , 3           , 12          , 0.046883367 , 0
0.377880067 , 0.0288506337, -9.796459   , 9.541428E-05, -0.000849699369, 0.0007612234, -0.185654581, -0.164891466, 0.419239581 , -0.00342846639, 0.0389683731, 2.37349534  , 2.42        , 3           , 50          , 0           , 0
0.370316446 , 0.00323518924, -9.801143   , 0.000387925422, -0.00281874323, 0.00132457784, -0.185587168, -0.164958879, 0.419104755 , -0.00342406845, 0.0389402322, 2.37350869  , 2.43        , 3           , 11          , 0.00777439727, 0.007774413
0.38680768  , 0.0192671344, -9.7955265  , 0.000936303 , 0.000282287161, -0.0006457773, -0.185587168, -0.164958879, 0.419104755 , -0.003414957, 0.0389430337, 2.37350249  , 2.44        , 3           , 12          , 0.046883367 , 0
0.35375008  , 0.0138491653, -9.813429   , 0.00235589687, -0.00111598615, 0.000206249912, -0.185654581, -0.164891466, 0.419172168 , -0.00339131639, 0.03893188  , 2.37350488  , 2.45        , 3           , 50          , 0           , 0
0.3883636   , 0.0319091156, -9.803146   , 0.00292558526, -0.001956858, 0.00133773207, -0.185587168, -0.164689228, 0.419172168 , -0.00336153526, 0.0389123559, 2.37351823  , 2.46        , 3           , 11          , 0.00777439727, 0.007774413
0.380032539 , 0.0166822821, -9.808245   , 0.000946224143, -0.00168866746, -0.000366277382, -0.185587168, -0.164891466, 0.419037342 , -0.00335221482, 0.03889545  , 2.37351441  , 2.47        , 3           , 12          , 0.046883367 , 0
0.386667937 , 0.009334242 , -9.793309   , 0.00122479536, -0.000842060952, 0.000201416115, -0.185587168, -0.164891466, 0.419037342 , -0.00333988946, 0.0388870426, 2.37351632  , 2.48        , 3           , 50          , 0           , 0
0.403332472 , 0.00281690154, -9.791853   , -0.00245191413, -2.21999071E-05, -0.00150962686, -0.185654581, -0.164689228, 0.419104755 , -0.00336499442, 0.03888677  , 2.373501    , 2.49        , 3           , 11          , 0.00777439727, 0.007774413
0.380116045 , 0.0288013779, -9.789662   , 0.00275799865, -0.00138139864, -0.00148341106, -0.185991645, -0.164891466, 0.419172168 , -0.00313949 , 0.03889665  , 2.37349439  , 2.5         , 3           , 12          , 0.0477910079, 0
0.376124233 , 0.0280240271, -9.812746   , -0.00149169134, 0.00140560581, -0.0003686757, -0.185587168, -0.164756641, 0.419037342 , -0.003154552, 0.038910687 , 2.37349057  , 2.51        , 3           , 50          , 0           , 0
0.374180436 , 0.0225815848, -9.797869   , -0.000919704733, 1.601089E-06, -8.56742554E-05, -0.185587168, -0.164756641, 0.419037342 , -0.00316378218, 0.0389107056, 2.37348962  , 2.52        , 3           , 11          , 0.007679943 , 0.00767995371
0.386385    , 0.0273311771, -9.776965   , -0.0009068323, -0.002532483, 0.000475495355, -0.185722   , -0.164621815, 0.4187677   , -0.003172662, 0.0388853922, 2.37349439  , 2.53        , 3           , 12          , 0.0477910079, 0
0.375150174 , 0.0337817   , -9.777476   , -0.004022959, -0.0005825356, 0.00102912169, -0.185722   , -0.164756641, 0.419239581 , -0.00321249012, 0.0388796   , 2.37350488  , 2.54        , 3           , 50          , 0           , 0
0.38564533  , 0.0399740525, -9.776918   , 0.0004924295, 1.1150958E-05, -7.90896E-05, -0.185587168, -0.164824054, 0.419104755 , -0.00320759718, 0.0388797075, 2.373504    , 2.55        , 3           , 11          , 0.007679943 , 0.00767995371
0.385216922 , 0.0426771939, -9.774199   , 0.00104745082, 0.00170435442, -0.002616689, -0.185587168, -0.164824054, 0.419104755 , -0.00319814263, 0.0388966724, 2.37347817  , 2.56        , 3           , 12          , 0.0477910079, 0
0.3798427   , 0.0120649468, -9.776627   , -6.389698E-05, -0.00168205844, 0.000198210415, -0.185587168, -0.164958879, 0.418969929 , -0.00319870166, 0.0388798565, 2.37348     , 2.57        , 3           , 50          , 0           , 0
0.383354962 , 0.004345292 , -9.774372   , -0.00063711463, 3.51187168E-06, 0.000198180147, -0.185452342, -0.164621815, 0.419307    , -0.0032049953, 0.0388798974, 2.373482    , 2.58        , 3           , 11          , 0.007679943 , 0.00767995371
0.3896009   , 0.0295633338, -9.781      , 0.00189759338, 0.00142852613, -7.03352562E-05, -0.185722   , -0.164689228, 0.419104755 , -0.00318604731, 0.03889418  , 2.373481    , 2.59        , 3           , 12          , 0.0477910079, 0
0.3941707   , 0.0282051023, -9.795433   , 0.00138159364, 0.002569168 , -0.00261183642, -0.185722   , -0.164689228, 0.419104755 , -0.00307670725, 0.0389512256, 2.37345862  , 2.6         , 3           , 50          , 0           , 0
0.385904223 , 0.0273138154, -9.770189   , -2.83308182E-05, 0.002278057 , -0.00120616774, -0.185587168, -0.164891466, 0.4188351   , -0.00307746464, 0.0389739648, 2.3734467   , 2.61        , 3           , 11          , 0.00758405449, 0.00758407032
0.394447565 , 0.0222546924, -9.771501   , 0.00223296764, 0.002011774 , -0.00034845373, -0.185587168, -0.164958879, 0.419037342 , -0.00305527262, 0.03899407  , 2.373443    , 2.62        , 3           , 12          , 0.04871564  , 0
0.387920976 , 0.03817159  , -9.785496   , 0.00252498919, 4.27276245E-05, -0.0006327118, -0.185587168, -0.165026292, 0.419104755 , -0.00303026871, 0.03899448  , 2.37343669  , 2.63        , 3           , 50          , 0           , 0
0.37711966  , 0.0437084436, -9.7842     , -0.000579170068, -0.000259841559, 0.00133013027, -0.185519755, -0.165161118, 0.419037342 , -0.00303554023, 0.03899192  , 2.37345     , 2.64        , 3           , 11          , 0.00758405449, 0.00758407032
0.378856838 , 0.0369320028, -9.78783    , -0.000297395862, -0.000257934735, 0.000201297109, -0.185519755, -0.165161118, 0.419037342 , -0.00303843571, 0.0389893465, 2.373452    , 2.65        , 3           , 12          , 0.04871564  , 0
0.396435618 , 0.0295183714, -9.791343   , -0.00226553 , -0.00196069246, 0.00103708752, -0.1857894  , -0.1650937  , 0.419037342 , -0.00306068454, 0.03896977  , 2.37346244  , 2.66        , 3           , 50          , 0           , 0
0.414227664 , 0.00315862685, -9.797192   , -0.00283972663, -0.000275126775, -0.0006581675, -0.185452342, -0.165026292, 0.419104755 , -0.00308933528, 0.0389669947, 2.37345624  , 2.67        , 3           , 11          , 0.00758405449, 0.00758407032
0.377678454 , 0.008155138 , -9.813722   , 0.0019520974, 0.00172829977, -6.76673662E-05, -0.185654581, -0.165228531, 0.418902516 , -0.003069844, 0.0389842726, 2.37345529  , 2.68        , 3           , 12          , 0.04871564  , 0
0.4028248   , 0.0317163356, -9.796257   , -0.003401629, -0.000842076144, -0.000379131758, -0.185654581, -0.165228531, 0.418902516 , -0.0031040085, 0.038975846 , 2.37345147  , 2.69        , 3           , 50          , 0           , 0
0.4164736   , 0.0391977169, -9.787534   , 0.000594239449, -0.000467061269, 0.0004891987, -0.185452342, -0.165026292, 0.419037342 , -0.00302124466, 0.0390905   , 2.373459    , 2.7         , 3           , 11          , 0.00748736225, 0.00748737948
0.3909741   , 0.034469232 , -9.7687645  , -0.000251647085, -0.0007543563, 0.000484814 , -0.1857894  , -0.164689228, 0.419104755 , -0.0030235704, 0.03908297  , 2.37346387  , 2.71        , 3           , 12          , 0.04965603  , 0
0.3745438   , 0.0175939519, -9.792012   , 0.000319687126, -0.002158364, -0.000362334074, -0.185519755, -0.164891466, 0.4187677   , -0.003020513, 0.03906138  , 2.37346053  , 2.72        , 3           , 50          , 0           , 0
0.3701371   , 0.030243054 , -9.781145   , -0.000226555028, -0.00582252769, 0.000477003137, -0.185519755, -0.164891466, 0.4187677   , -0.003022586, 0.0390031673, 2.3734653   , 2.73        , 3           , 11          , 0.00748736225, 0.00748737948
0.362792969 , 0.0217668153, -9.784401   , 0.00228085159, 0.000952219241, -0.00119595486, -0.185452342, -0.164824054, 0.419104755 , -0.00300024543, 0.0390126519, 2.37345338  , 2.74        , 3           , 12          , 0.04965603  , 0
0.404961824 , 0.0239990242, -9.789945   , -0.002525491, 0.00204601232, -0.0003689944, -0.185654581, -0.164824054, 0.419037342 , -0.003025647, 0.0390331   , 2.37344956  , 2.75        , 3           , 50          , 0           , 0
0.3758301   , 0.0460119   , -9.793692   , -0.00110450364, 0.00036617415, 0.00048259896, -0.185452342, -0.164958879, 0.419104755 , -0.00303650484, 0.0390367769, 2.37345433  , 2.76        , 3           , 11          , 0.00748736225, 0.00748737948
0.3717925   , 0.01625878  , -9.787971   , 0.00255245273, 0.00320665142, -0.0006260914, -0.185452342, -0.164958879, 0.419104755 , -0.00301122712, 0.0390688255, 2.37344813  , 2.77        , 3           , 12          , 0.04965603  , 0
0.38191998  , 0.02654251  , -9.795082   , -0.000546041643, 0.00149625051, -0.000925718632, -0.185587168, -0.164824054, 0.418969929 , -0.00301705115, 0.03908376  , 2.373439    , 2.78        , 3           , 50          , 0           , 0
0.390171766 , 0.0354562476, -9.790914   , -0.0008443807, 0.004873126 , 0.0004908588, -0.185452342, -0.164689228, 0.419104755 , -0.00302530755, 0.0391325057, 2.37344384  , 2.79        , 3           , 11          , 0.00748736225, 0.00748737948
0.385000229 , 0.02687934  , -9.772006   , 0.00172290183, 0.001517665 , -0.00034975505, -0.185452342, -0.164756641, 0.419172168 , -0.00299114571, 0.0391590372, 2.3734405   , 2.8         , 3           , 12          , 0.050611008 , 0
0.389482945 , 0.02634329  , -9.762482   , 0.00172076654, 0.00208079815, 0.0007812624, -0.185452342, -0.164756641, 0.419172168 , -0.00297363265, 0.0391798839, 2.37344861  , 2.81        , 3           , 50          , 0           , 0
0.383868515 , 0.00840638  , -9.776158   , 0.00258075655, -0.0004475568, 0.00106384535, -0.185519755, -0.164958879, 0.418902516 , -0.00294740754, 0.0391754322, 2.373459    , 2.82        , 3           , 11          , 0.00739127724, 0.007391296
0.393169135 , 0.0218890347, -9.792303   , 0.00145162712, -0.0007367657, -0.000354543445, -0.1857894  , -0.164621815, 0.419037342 , -0.00293303048, 0.0391680524, 2.37345529  , 2.83        , 3           , 12          , 0.050611008 , 0
0.401823521 , 0.02584688  , -9.791768   , -0.001396339, 0.004030741 , -0.000360335922, -0.185587168, -0.164891466, 0.419172168 , -0.00294714025, 0.03920835  , 2.37345147  , 2.84        , 3           , 50          , 0           , 0
0.392219841 , 0.0258814078, -9.768791   , -0.00223918562, 0.00289874547, -0.002343785, -0.185587168, -0.164891466, 0.419172168 , -0.00297045684, 0.039237272 , 2.373428    , 2.85        , 3           , 11          , 0.00739127724, 0.007391296
0.419117749 , 0.0368752852, -9.777127   , 0.00117010484, -0.00102024316, -0.00120390684, -0.185587168, -0.164824054, 0.419104755 , -0.00295922556, 0.03922703  , 2.37341619  , 2.86        , 3           , 12          , 0.050611008 , 0
0.4184398   , 0.0446582958, -9.807835   , -0.00194372342, 0.000366571941, -0.00149876089, -0.185856819, -0.164891466, 0.419104755 , -0.002979252, 0.0392306522, 2.373401    , 2.87        , 3           , 50          , 0           , 0
0.391705751 , 0.0160173364, -9.78556    , -0.001649403, -0.002165607, -0.00263149943, -0.185654581, -0.164689228, 0.419307    , -0.002996776, 0.03920892  , 2.37337518  , 2.88        , 3           , 11          , 0.00739127724, 0.007391296
0.4179448   , 0.0130127044, -9.788534   , 4.474277E-05, -0.00187257724, -0.000927938847, -0.185519755, -0.164824054, 0.419239581 , -0.00299668917, 0.0391901657, 2.37336564  , 2.89        , 3           , 12          , 0.050611008 , 0
0.405429542 , 0.0240058079, -9.793557   , 0.000914686942, -0.0006316891, -0.000355772267, -0.185519755, -0.164824054, 0.419239581 , -0.00293411012, 0.0393927135, 2.37336421  , 2.9         , 3           , 50          , 0           , 0
0.3824702   , 0.0297406055, -9.808623   , 0.00118342566, 0.00190430111, -0.00232831226, -0.185654581, -0.1645544  , 0.418969929 , -0.00292319618, 0.03941169  , 2.37334085  , 2.91        , 3           , 11          , 0.007296823 , 0.007296839
0.398669362 , 0.02143306  , -9.80989    , -0.00162567163, -0.00121201517, -0.00262879231, -0.185587168, -0.164689228, 0.419172168 , -0.00294048828, 0.0393994935, 2.37331414  , 2.92        , 3           , 12          , 0.0515794978, 0
0.371189654 , 0.0374931768, -9.793762   , 0.0003456513, 0.00020918627, -0.00035710432, -0.185722   , -0.165228531, 0.419104755 , -0.00293717487, 0.0394015722, 2.3733108   , 2.93        , 3           , 50          , 0           , 0
0.3838243   , 0.0417726934, -9.768788   , 0.00203742436, 0.0007837763, -0.000348334841, -0.185722   , -0.165228531, 0.419104755 , -0.002916937, 0.0394094   , 2.37330747  , 2.94        , 3           , 11          , 0.007296823 , 0.007296839
0.386618018 , 0.00483029056, -9.795588   , -0.00219200784, -0.0006526987, -0.000370258524, -0.185722   , -0.164891466, 0.419104755 , -0.00293900445, 0.03940287  , 2.37330365  , 2.95        , 3           , 12          , 0.0515794978, 0
0.362005055 , 0.0321388133, -9.779844   , -0.00105860818, -0.00148975616, -0.00121390517, -0.1857894  , -0.164756641, 0.419239581 , -0.00295006786, 0.0393879376, 2.37329125  , 2.96        , 3           , 50          , 0           , 0
0.387143672 , 0.015150046 , -9.780174   , 0.000348854432, -0.0006355138, -0.002053631, -0.185317516, -0.164824054, 0.419239581 , -0.00294738775, 0.0393815227, 2.37327123  , 2.97        , 3           , 11          , 0.007296823 , 0.007296839
0.3975208   , 0.007856239 , -9.794136   , -0.000222894916, 0.00105006387, 0.0004891759, -0.185317516, -0.164824054, 0.419239581 , -0.00294942432, 0.0393920355, 2.373276    , 2.98        , 3           , 12          , 0.0515794978, 0
0.373873264 , 0.0329709351, -9.800089   , 0.00258989516, 0.0033216828, -5.925834E-05, -0.185654581, -0.164891466, 0.419104755 , -0.002923551, 0.0394252427, 2.373275    , 2.99        , 3           , 50          , 0           , 0
0.372455776 , 0.03115355  , -9.791519   , 0.00320903468, -0.00146101776, 0.0007847357, -0.185452342, -0.1645544  , 0.419104755 , -0.00283134822, 0.0394108444, 2.37328553  , 3           , 3           , 11          , 0.00720162643, 0.00720164133
0.388261855 , 0.0304876342, -9.782813   , -0.000193448912, 0.0010501442, -0.000639849342, -0.185587168, -0.164689228, 0.419104755 , -0.00283353683, 0.03942133  , 2.37327886  , 3.01        , 3           , 12          , 0.05256047  , 0
0.4010211   , 0.0317436531, -9.798079   , 0.0003813259, -0.0009169907, -0.0003577155, -0.185587168, -0.164689228, 0.419104755 , -0.00282986276, 0.0394121446, 2.373275    , 3.02        , 3           , 50          , 0           , 0
0.387634    , 0.012943401 , -9.796451   , -0.00018664205, -0.000357681944, -0.0009245565, -0.185452342, -0.164756641, 0.4188351   , -0.00283209258, 0.0394085422, 2.37326646  , 3.03        , 3           , 11          , 0.00720162643, 0.00720164133
0.368760437 , 0.02310257  , -9.799717   , -0.000207314617, 0.004147367 , 0.00190776109, -0.185519755, -0.164689228, 0.419172168 , -0.00283341762, 0.0394500755, 2.373285    , 3.04        , 3           , 12          , 0.05256047  , 0
0.3711795   , 0.0388239548, -9.786977   , -0.001031876, -0.0006449738, 0.000201208488, -0.185519755, -0.1650937  , 0.419037342 , -0.00284365751, 0.03944363  , 2.37328744  , 3.05        , 3           , 50          , 0           , 0
0.4006325   , 0.0429597124, -9.777696   , 0.000109472865, -0.002889852, 0.00105061731, -0.185519755, -0.1650937  , 0.419037342 , -0.00284214457, 0.039414756 , 2.373298    , 3.06        , 3           , 11          , 0.00720162643, 0.00720164133
0.400607347 , 0.0366904549, -9.791733   , 0.00123164628, -0.00175596133, -0.002332829, -0.185722   , -0.164756641, 0.419037342 , -0.00283074542, 0.03939714  , 2.373274    , 3.07        , 3           , 12          , 0.05256047  , 0
0.382165    , 0.0103002815, -9.796503   , 0.00347375474, 0.00191966828, -0.0009039648, -0.185519755, -0.1645544  , 0.419172168 , -0.00279636681, 0.03941631  , 2.3732655   , 3.08        , 3           , 50          , 0           , 0
0.3739208   , 0.0392583273, -9.791475   , -0.000462677, -0.00148584822, 0.0004850781, -0.185587168, -0.164689228, 0.419104755 , -0.00280080177, 0.03940146  , 2.37327027  , 3.09        , 3           , 11          , 0.00720162643, 0.00720164133
0.365591675 , 0.02671119  , -9.788427   , 9.476607E-05, -0.00233402 , -0.002339394, -0.185722   , -0.164891466, 0.418969929 , -0.00282122544, 0.0393631   , 2.373246    , 3.1         , 3           , 12          , 0.0535529666, 0
0.379514426 , 0.0242226124, -9.76799    , 8.442978E-05, -8.14956147E-05, -0.0009232351, -0.185722   , -0.164891466, 0.418969929 , -0.00282074418, 0.03936226  , 2.373237    , 3.11        , 3           , 50          , 0           , 0
0.391161531 , 0.0159485713, -9.763416   , 0.000931710238, -7.576571E-05, -0.000919284357, -0.185722   , -0.164689228, 0.4188351   , -0.002811788, 0.0393614769, 2.37322736  , 3.12        , 3           , 11          , 0.00710894773, 0.007108963
0.407454461 , 0.0108414087, -9.777325   , 0.000934171956, -0.000638897531, -0.00148522714, -0.185587168, -0.164958879, 0.419239581 , -0.00280302973, 0.0393550433, 2.37321258  , 3.13        , 3           , 12          , 0.0535529666, 0
0.3885831   , 0.02903663  , -9.755246   , -0.0004813284, 0.000196251844, -7.782286E-05, -0.185384929, -0.165026292, 0.4187677   , -0.002807874, 0.0393569954, 2.373212    , 3.14        , 3           , 50          , 0           , 0
0.365980655 , 0.05871723  , -9.780607   , 0.00064436  , 0.00104858773, 0.000211284176, -0.185384929, -0.165026292, 0.4187677   , -0.00280134915, 0.03936749  , 2.373214    , 3.15        , 3           , 11          , 0.00710894773, 0.007108963
0.393818617 , 0.0434679165, -9.770966   , -0.00133221259, 0.0007536482, -0.001493593, -0.185519755, -0.164891466, 0.419037342 , -0.00281525776, 0.0393749848, 2.37319875  , 3.16        , 3           , 12          , 0.0535529666, 0
0.395121932 , 0.03448035  , -9.78636    , 0.0006396886, 0.00189328066, -0.000635026256, -0.185587168, -0.164824054, 0.418969929 , -0.002809112, 0.0393938944, 2.37319255  , 3.17        , 3           , 50          , 0           , 0
0.3762447   , 0.0473146737, -9.780124   , 0.00261528254, 0.0021882155, -0.0006253738, -0.185654581, -0.164689228, 0.418700278 , -0.00278320839, 0.0394157581, 2.37318635  , 3.18        , 3           , 11          , 0.00710894773, 0.007108963
0.37655592  , 0.0373749621, -9.77745    , 0.00347002246, 0.0007861223, 0.0002240196, -0.185654581, -0.164689228, 0.418700278 , -0.00274842 , 0.0394236259, 2.37318826  , 3.19        , 3           , 12          , 0.0535529666, 0
0.3653645   , 0.0469850525, -9.778399   , 0.000886509544, -0.000367708562, -0.00176915876, -0.185452342, -0.164689228, 0.4188351   , -0.00283801532, 0.03939789  , 2.37316728  , 3.2         , 3           , 50          , 0           , 0
0.368476152 , 0.0393130444, -9.788803   , 0.00173911417, -0.00120666844, 0.000211252453, -0.185452342, -0.164621815, 0.418902516 , -0.00282054 , 0.0393858328, 2.37316918  , 3.21        , 3           , 11          , 0.00701672025, 0.007016732
0.36850667  , 0.0402304679, -9.79332    , 0.002867917 , -0.000917461235, 0.00106456666, -0.185452342, -0.164824054, 0.418969929 , -0.00279144058, 0.0393766873, 2.37317967  , 3.22        , 3           , 12          , 0.05455611  , 0
0.391635716 , 0.0146215511, -9.77291    , 0.00145185273, -0.0003638863, -0.000918912352, -0.185452342, -0.164824054, 0.418969929 , -0.002777285, 0.03937303  , 2.373171    , 3.23        , 3           , 50          , 0           , 0
0.389449835 , 0.0142650083, -9.793267   , 0.000334113167, -0.0026240428, 0.000485035678, -0.185654581, -0.164958879, 0.4188351   , -0.00277374964, 0.0393467955, 2.37317586  , 3.24        , 3           , 11          , 0.00701672025, 0.007016732
0.372426569 , 0.0244346652, -9.80601    , 0.00258681  , -0.00148250826, -0.00148045539, -0.185587168, -0.164689228, 0.419037342 , -0.00274846354, 0.03933193  , 2.3731606   , 3.25        , 3           , 12          , 0.05455611  , 0
0.3967217   , 0.0208973382, -9.778269   , 0.00229962287, -0.000358154, -6.734932E-05, -0.185587168, -0.164958879, 0.418902516 , -0.00272549153, 0.0393283553, 2.3731606   , 3.26        , 3           , 50          , 0           , 0
0.402309626 , 0.03568828  , -9.768221   , 0.0020085054, 0.00132932491, -0.0006311374, -0.185587168, -0.164958879, 0.418902516 , -0.00270565576, 0.03934163  , 2.373154    , 3.27        , 3           , 11          , 0.00701672025, 0.007016732
0.389587522 , 0.0215182062, -9.803632   , 0.00145570841, -0.00120858313, -0.00148528919, -0.185587168, -0.164756641, 0.418700278 , -0.00269168313, 0.0393295027, 2.37313867  , 3.28        , 3           , 12          , 0.05455611  , 0
0.3740761   , 0.0175871681, -9.7884     , 0.00171885686, 0.00301681086, 0.00134791154, -0.185654581, -0.1645544  , 0.419104755 , -0.002673966, 0.0393597074, 2.37315249  , 3.29        , 3           , 50          , 0           , 0
0.373222    , 0.021656651 , -9.787936   , -0.000238958572, -0.00178888184, -0.00177672063, -0.185317516, -0.164891466, 0.418969929 , -0.002683023, 0.0393292941, 2.37313437  , 3.3         , 3           , 11          , 0.00692740874, 0.00692741573
0.367577821 , 0.04156129  , -9.783379   , -0.002770226, -0.00377702364, -0.000378923054, -0.185317516, -0.164891466, 0.418969929 , -0.00271087047, 0.0392915159, 2.373131    , 3.31        , 3           , 12          , 0.05556905  , 0
0.385674745 , 0.0368734375, -9.79410648 , 0.00315000047, -0.001765963, -0.002043455, -0.185452342, -0.165295944, 0.4187677   , -0.00268017268, 0.0392738022, 2.37311     , 3.32        , 3           , 50          , 0           , 0
0.4101053   , 0.0374629945, -9.786233   , -0.00308208982, 0.00213393243, -0.0006536648, -0.185722   , -0.164756641, 0.419037342 , -0.00271125487, 0.03929513  , 2.37310338  , 3.33        , 3           , 11          , 0.00692740874, 0.00692741573
0.3744486   , 0.0424382836, -9.799593   , 0.000312933931, 0.00103059341, -7.452266E-05, -0.185654581, -0.1650937  , 0.418902516 , -0.0027081538, 0.0393054262, 2.373103    , 3.34        , 3           , 12          , 0.05556905  , 0
0.38706997  , 0.0413508639, -9.788653   , -0.0010791946, -0.002920865, 0.00076043  , -0.1852501  , -0.164958879, 0.418700278 , -0.00271864515, 0.0392762348, 2.37311053  , 3.35        , 3           , 50          , 0           , 0
0.405934751 , 0.0293991826, -9.78901    , 0.00201364933, -0.000365776184, -0.00148147787, -0.1852501  , -0.164958879, 0.418700278 , -0.00269908947, 0.03927254  , 2.37309575  , 3.36        , 3           , 11          , 0.00692740874, 0.00692741573
0.386804342 , 0.0223889016, -9.784667   , 0.001181777 , -0.00318714953, 0.00105306914, -0.185924232, -0.164958879, 0.4187677   , -0.00268685468, 0.0392406955, 2.37310624  , 3.37        , 3           , 12          , 0.05556905  , 0
0.384166062 , 0.025162477 , -9.795071   , 0.00286002527, -7.847877E-05, -0.0006294807, -0.185722   , -0.164689228, 0.418902516 , -0.002658501, 0.0392399   , 2.37310052  , 3.38        , 3           , 50          , 0           , 0
0.378139257 , 0.0139588481, -9.796971   , 0.002863466 , -0.0006416059, 0.0004998011, -0.1857894  , -0.165161118, 0.418902516 , -0.00262967055, 0.0392334945, 2.37310529  , 3.39        , 3           , 11          , 0.00692740874, 0.00692741573
0.382304549 , 0.0251429155, -9.782882   , 0.00341580575, -0.0006311118, -0.0020408663, -0.1857894  , -0.165161118, 0.418902516 , -0.00262124673, 0.039242167 , 2.37308335  , 3.4         , 3           , 12          , 0.05659101  , 0
0.385098726 , 0.0341007933, -9.772879   , 0.00369224115, 0.000778628455, -0.0003421547, -0.185519755, -0.164891466, 0.4188351   , -0.00258446066, 0.03924995  , 2.37308049  , 3.41        , 3           , 50          , 0           , 0
0.3760133   , 0.0292731635, -9.781556   , 0.00142544159, 0.00245274371, 0.00134513818, -0.185722   , -0.164824054, 0.418969929 , -0.00256967917, 0.03927451  , 2.37309384  , 3.42        , 3           , 11          , 0.00683994545, 0.00683994964
0.3839631   , 0.00268050982, -9.817764   , -0.00111844647, 0.00271711638, 0.000203569682, -0.185519755, -0.164689228, 0.418969929 , -0.00258078519, 0.0393016934, 2.37309575  , 3.43        , 3           , 12          , 0.05659101  , 0
0.387349874 , 0.0242441334, -9.801377   , 0.00170426467, 0.00301778  , -6.53645257E-05, -0.185519755, -0.164689228, 0.418969929 , -0.00256377156, 0.03933188  , 2.3730948   , 3.44        , 3           , 50          , 0           , 0
0.394513756 , 0.0561568253, -9.789438   , 0.00171016692, 0.00189152127, 0.0004979748, -0.185654581, -0.164958879, 0.4188351   , -0.00254647387, 0.0393508039, 2.37309957  , 3.45        , 3           , 11          , 0.00683994545, 0.00683994964
0.381808519 , 0.04958828  , -9.804479   , -0.0005307993, -0.00178410287, 0.00104687316, -0.1857894  , -0.1645544  , 0.418969929 , -0.00255136914, 0.03933299  , 2.37311053  , 3.46        , 3           , 12          , 0.05659101  , 0
0.386291265 , 0.04905223  , -9.794955   , -0.00053817 , -0.000657851342, -0.00205930346, -0.185519755, -0.164958879, 0.4188351   , -0.00255755917, 0.03932636  , 2.37309     , 3.47        , 3           , 50          , 0           , 0
0.3682056   , 0.05642734  , -9.778339   , -0.00111754192, 0.0024355487, -0.0006444765, -0.185519755, -0.164958879, 0.4188351   , -0.00256898976, 0.0393506959, 2.37308335  , 3.48        , 3           , 11          , 0.00683994545, 0.00683994964
0.377551049 , 0.0450248271, -9.774699   , 0.00171213923, 0.00132838706, -0.0009155803, -0.185519755, -0.164958879, 0.418902516 , -0.00255223084, 0.0393639579, 2.37307429  , 3.49        , 3           , 12          , 0.05659101  , 0
0.375208    , -0.0013589873, -9.793893   , -0.002580664, -0.00125138066, -0.00150706514, -0.185519755, -0.164689228, 0.418902516 , -0.002738126, 0.0393117927, 2.37305284  , 3.5         , 3           , 50          , 0           , 0
0.3891148   , 0.01972193  , -9.804546   , -0.0008955349, 0.000731036242, -0.000931051036, -0.185519755, -0.164958879, 0.418969929 , -0.00274744816, 0.0393190756, 2.3730433   , 3.51        , 3           , 11          , 0.006754134 , 0.00675413664
0.3827579   , 0.02335265  , -9.78876    , 0.00023802818, -0.000106020656, -0.00149216 , -0.185519755, -0.164958879, 0.418969929 , -0.00274565467, 0.039317973 , 2.37302852  , 3.52        , 3           , 12          , 0.05762125  , 0
0.406427443 , 0.03299703  , -9.787185   , 0.00108702888, -0.0003818543, -0.000923568266, -0.185587168, -0.164958879, 0.4187677   , -0.00273514679, 0.03931413  , 2.37301946  , 3.53        , 3           , 50          , 0           , 0
0.368789256 , 0.0293748453, -9.786583   , -0.000328219467, 0.000171724474, -0.00149436 , -0.185722   , -0.164689228, 0.419104755 , -0.00273901573, 0.0393158048, 2.3730042   , 3.54        , 3           , 11          , 0.006754134 , 0.00675413664
0.394305646 , 0.0367951132, -9.80082    , 0.00078255  , 0.00383970654, -0.00289613847, -0.185856819, -0.164958879, 0.418902516 , -0.00273233419, 0.0393541232, 2.37297559  , 3.55        , 3           , 12          , 0.05762125  , 0
0.399480343 , 0.0195603687, -9.792717   , -0.002030655, 0.00184965739, -0.000652045535, -0.185856819, -0.164689228, 0.418700278 , -0.00275289849, 0.0393725969, 2.372969    , 3.56        , 3           , 50          , 0           , 0
0.370217323 , 0.0303080641, -9.800579   , 0.00250645983, -0.00178012822, -0.000354078249, -0.185856819, -0.164689228, 0.418700278 , -0.002727973, 0.03935479  , 2.372965    , 3.57        , 3           , 11          , 0.006754134 , 0.00675413664
0.407447815 , 0.0420064032, -9.786236   , 0.0008007463, 0.000460932555, -0.000358508376, -0.185452342, -0.164689228, 0.419037342 , -0.00272010779, 0.03935939  , 2.37296128  , 3.58        , 3           , 12          , 0.05762125  , 0
0.37869218  , 0.0234080516, -9.791052   , 0.0005259423, -0.000948799832, 0.0007681548, -0.185587168, -0.164689228, 0.4188351   , -0.00271454523, 0.03934992  , 2.372969    , 3.59        , 3           , 50          , 0           , 0
0.385011852 , 0.0224252883, -9.7892     , -0.000909640337, 0.000454885885, 0.00019802383, -0.185452342, -0.1650937  , 0.4188351   , -0.00276223081, 0.03936739  , 2.37296987  , 3.6         , 3           , 11          , 0.00667029666, 0.006670295
0.3766184   , 0.03608652  , -9.796891   , -0.00204327772, 0.00101037067, -0.00178413815, -0.185452342, -0.1650937  , 0.4188351   , -0.00278336718, 0.03937744  , 2.37295175  , 3.61        , 3           , 12          , 0.0586591028, 0
0.380312324 , 0.0396728553, -9.802723   , -0.00203712331, -0.000397458731, -0.00319899525, -0.185587168, -0.164824054, 0.418969929 , -0.00280499738, 0.0393733755, 2.37291932  , 3.62        , 3           , 50          , 0           , 0
0.395135552 , 0.032705985 , -9.795407   , -0.000637297751, 0.0024277498, -0.000362696417, -0.185722   , -0.164891466, 0.418969929 , -0.0028115164, 0.039397642 , 2.372916    , 3.63        , 3           , 11          , 0.00667029666, 0.006670295
0.3993646   , 0.0167884547, -9.7732935  , 0.000220482048, 0.000180955976, -0.001492367, -0.185722   , -0.164824054, 0.418902516 , -0.00280989916, 0.0393994078, 2.3729012   , 3.64        , 3           , 12          , 0.0586591028, 0
0.377103746 , 0.0423565   , -9.784657   , 0.00078164303, 0.0010294735, -0.0006408189, -0.185722   , -0.164824054, 0.418902516 , -0.00280233379, 0.03940968  , 2.37289453  , 3.65        , 3           , 50          , 0           , 0
0.3915262   , 0.0300809145, -9.807198   , 0.00133706513, 0.00300425058, -7.007277E-05, -0.185587168, -0.164689228, 0.419037342 , -0.002788996, 0.03943972  , 2.37289357  , 3.66        , 3           , 11          , 0.00667029666, 0.006670295
0.3921657   , 0.0155714536, -9.788721   , -0.002609614, 0.00156968716, 0.0004743955, -0.185587168, -0.164824054, 0.4188351   , -0.002814904, 0.03945543  , 2.37289834  , 3.67        , 3           , 12          , 0.0586591028, 0
0.381847948 , 0.0224670321, -9.79058    , 0.00417035  , 0.00133396278, 0.001070643 , -0.185587168, -0.164689228, 0.418902516 , -0.0027727813, 0.0394688   , 2.37290883  , 3.68        , 3           , 50          , 0           , 0
0.3713583   , 0.0136010339, -9.801092   , 0.000223018127, -0.000100603625, 0.000484961231, -0.185587168, -0.164689228, 0.418902516 , -0.002770361, 0.0394678041, 2.3729136   , 3.69        , 3           , 11          , 0.00667029666, 0.006670295
0.404992759 , 0.0280412473, -9.784504   , 0.00192660338, -0.000661638333, -0.000355381519, -0.185452342, -0.165026292, 0.418902516 , -0.002734662, 0.0394381732, 2.37291074  , 3.7         , 3           , 12          , 0.05970393  , 0
0.389685035 , 0.0349877328, -9.784141   , -0.00146514329, -0.000121427, -8.777963E-05, -0.185587168, -0.164756641, 0.418969929 , -0.0027493462, 0.039436955 , 2.37291026  , 3.71        , 3           , 50          , 0           , 0
0.3856089   , 0.0310175456, -9.796843   , 0.00136051886, -0.000383892446, -7.504423E-05, -0.185722   , -0.164486989, 0.418902516 , -0.00273576844, 0.039433118 , 2.37290978  , 3.72        , 3           , 11          , 0.00658837473, 0.0065883724
0.4052805   , 0.0465747267, -9.795273   , 0.00052127603, -0.00207901467, -0.0006466734, -0.185722   , -0.164486989, 0.418902516 , -0.002730807, 0.0394123   , 2.372903    , 3.73        , 3           , 12          , 0.05970393  , 0
0.371217132 , 0.0393008068, -9.794659   , -0.00175363594, 0.00100292091, -0.000934973, -0.185452342, -0.165026292, 0.4188351   , -0.002748713, 0.0394223034, 2.37289357  , 3.74        , 3           , 50          , 0           , 0
0.3941704   , 0.0201705582, -9.82123    , 0.0005062683, 0.0010182031, -7.682535E-05, -0.185654581, -0.1645544  , 0.4188351   , -0.00274368166, 0.0394324847, 2.37289262  , 3.75        , 3           , 11          , 0.00658837473, 0.0065883724
0.385183573 , 0.0328304842, -9.797743   , 0.0007798415, 0.00270950142, -0.000920516963, -0.185452342, -0.1645544  , 0.4188351   , -0.00273624784, 0.03945955  , 2.37288356  , 3.76        , 3           , 12          , 0.05970393  , 0
0.386392683 , 0.0326935947, -9.761575   , 0.0013617496, -0.0006654584, -0.000358015415, -0.185452342, -0.1645544  , 0.4188351   , -0.00272277254, 0.0394528843, 2.37288022  , 3.77        , 3           , 50          , 0           , 0
0.398382753 , 0.0421051569, -9.784044   , -4.66176E-05, -0.00123813364, 0.00132975681, -0.185384929, -0.164689228, 0.4188351   , -0.00272271154, 0.03944054  , 2.37289357  , 3.78        , 3           , 11          , 0.00658837473, 0.0065883724
0.385315329 , 0.04722046  , -9.783671   , -5.57973763E-05, 0.0004512529, -8.03270959E-05, -0.185452342, -0.164756641, 0.418700278 , -0.0027233013, 0.03944505  , 2.37289262  , 3.79        , 3           , 12          , 0.05970393  , 0
0.3639199   , 0.03621872  , -9.792016   , 0.00103784562, 0.0010316791, 0.000489528466, -0.185519755, -0.165228531, 0.418700278 , -0.00279782247, 0.0394797362, 2.37289357  , 3.8         , 3           , 50          , 0           , 0
0.378741771 , 0.019877458 , -9.814569   , 0.00187685108, 0.00244522817, -0.00176465081, -0.185856819, -0.164689228, 0.418632865 , -0.00277975248, 0.0395041369, 2.37287641  , 3.81        , 3           , 11          , 0.00650858926, 0.00650858739
0.3910821   , 0.0292005483, -9.812176   , 0.00355779775, 0.0052723405, -0.00118733488, -0.185856819, -0.164689228, 0.418632865 , -0.00274464954, 0.03955683  , 2.372864    , 3.82        , 3           , 12          , 0.06075513  , 0
0.383258581 , 0.0576809645, -9.80081749 , 0.003012372 , 0.00160818058, 0.00106468983, -0.185384929, -0.164756641, 0.419037342 , -0.002714105, 0.03957294  , 2.3728745   , 3.83        , 3           , 50          , 0           , 0
0.3701328   , 0.024437055 , -9.798797   , -0.00177961565, -0.00039524684, 0.00019165194, -0.185519755, -0.164621815, 0.418969929 , -0.00273182429, 0.0395689979, 2.37287641  , 3.84        , 3           , 11          , 0.00650858926, 0.00650858739
0.3810233   , 0.0234358981, -9.807305   , 0.00386694865, 0.000206086566, 0.00163154607, -0.185587168, -0.164824054, 0.418969929 , -0.00269250921, 0.0395711   , 2.372893    , 3.85        , 3           , 12          , 0.06075513  , 0
0.382815    , 0.0376821458, -9.75661    , 0.000760179129, -9.649515E-05, -0.0009262114, -0.185587168, -0.164824054, 0.418969929 , -0.00268527237, 0.03957011  , 2.372884    , 3.86        , 3           , 50          , 0           , 0
0.372375548 , 0.0310885347, -9.772084   , 0.0007549295, 0.00102976675, -0.0003594007, -0.185519755, -0.164689228, 0.418700278 , -0.00267786672, 0.0395803973, 2.37288022  , 3.87        , 3           , 11          , 0.00650858926, 0.00650858739
0.3686561   , 0.0181081556, -9.790246   , 0.00132568553, -9.267207E-05, 0.00020657212, -0.185587168, -0.164621815, 0.418902516 , -0.00266452716, 0.03957947  , 2.37288213  , 3.88        , 3           , 12          , 0.06075513  , 0
0.384996921 , 0.0224131867, -9.7855835  , -0.000361742335, -0.00151195633, 0.000479038426, -0.185654581, -0.164891466, 0.418902516 , -0.00266795373, 0.0395643674, 2.372887    , 3.89        , 3           , 50          , 0           , 0
0.385859251 , 0.021921169 , -9.776539   , -0.000102407808, 0.0004316654, -0.0009298363, -0.185654581, -0.164891466, 0.418902516 , -0.0027018718, 0.0394926928, 2.37287641  , 3.9         , 3           , 11          , 0.006430996 , 0.006430992
0.398058325 , 0.0141685456, -9.794558   , -0.00150027545, -0.00239353348, -0.000375685369, -0.185722   , -0.164756641, 0.418902516 , -0.00271701976, 0.0394687466, 2.37287259  , 3.91        , 3           , 12          , 0.0618121438, 0
0.392396748 , 0.0255784169, -9.813086   , 0.00073659746, 0.0018452144, -0.00318401586, -0.185587168, -0.164352164, 0.419104755 , -0.002710912, 0.0394871123, 2.37284112  , 3.92        , 3           , 50          , 0           , 0
0.400705844 , 0.03364579  , -9.82564449 , 0.00159264274, 0.000443127559, -7.432251E-05, -0.185722   , -0.164756641, 0.418902516 , -0.00269501633, 0.03949154  , 2.37284017  , 3.93        , 3           , 11          , 0.006430996 , 0.006430992
0.386907458 , 0.02827503  , -9.790968   , -0.000110030422, 0.00183948758, -0.0020578166, -0.185722   , -0.164756641, 0.418902516 , -0.00269693369, 0.039509885 , 2.37281919  , 3.94        , 3           , 12          , 0.0618121438, 0
0.3847537   , 0.0386569239, -9.784615   , 0.00102311745, 0.00128400046, -0.0009232668, -0.185722   , -0.1650937  , 0.4188351   , -0.00268706935, 0.0395226963, 2.37281013  , 3.95        , 3           , 50          , 0           , 0
0.402258217 , 0.0240414981, -9.793129   , -0.00235362165, -0.00127300574, -0.00122551294, -0.186126471, -0.164958879, 0.419172168 , -0.00271108863, 0.0395099372, 2.3727982   , 3.96        , 3           , 11          , 0.006430996 , 0.006430992
0.4077195   , 0.0289101414, -9.784027   , 0.0007466817, -0.000125739491, -0.00262197829, -0.1857894  , -0.164824054, 0.418969929 , -0.00270465855, 0.0395086072, 2.3727715   , 3.97        , 3           , 12          , 0.0618121438, 0
0.367458463 , 0.02628867  , -9.803329   , 0.00214552856, 0.00269946433, -0.00148090441, -0.1857894  , -0.164824054, 0.418969929 , -0.002683791, 0.03953556  , 2.3727572   , 3.98        , 3           , 50          , 0           , 0
0.372415543 , 0.0271037687, -9.794699   , -0.00178377016, -0.00211387686, 0.000188506383, -0.185519755, -0.164824054, 0.418565452 , -0.002701552, 0.0395144261, 2.372759    , 3.99        , 3           , 11          , 0.006430996 , 0.006430992
0.400755376 , 0.02036962  , -9.769652   , 0.00130230293, 0.0009992523, 0.000207514619, -0.185587168, -0.1645544  , 0.4188351   , -0.00270256936, 0.0395108275, 2.37276     , 4           , 3           , 12          , 0.0628744438, 0
0.377973974 , 0.0374073945, -9.7919035  , -0.000113761307, 0.00155282707, -0.0017759644, -0.185654581, -0.165026292, 0.4187677   , -0.00270440872, 0.0395263061, 2.372742    , 4.01        , 3           , 50          , 0           , 0
0.372140467 , 0.040643625 , -9.794646   , 0.00158333569, 0.00128272723, 0.0002092655, -0.185519755, -0.164756641, 0.418902516 , -0.00268849335, 0.0395391323, 2.37274432  , 4.02        , 3           , 11          , 0.006355717 , 0.00635571172
0.398762    , 0.0357912779, -9.786326   , 0.000181122756, -0.0006977774, 0.000482180854, -0.185519755, -0.164756641, 0.418902516 , -0.00268649217, 0.0395321734, 2.372749    , 4.03        , 3           , 12          , 0.0628744438, 0
0.39171955  , 0.01959933  , -9.777409   , -0.0006772209, 0.001267442 , -0.00177903229, -0.185519755, -0.164689228, 0.4188351   , -0.00269396976, 0.0395447947, 2.37273145  , 4.04        , 3           , 50          , 0           , 0
0.375797868 , 0.0228497013, -9.749494   , 0.001300909 , 0.0012808172, 0.000207948557, -0.185587168, -0.164756641, 0.4188351   , -0.00268088235, 0.0395576134, 2.37273335  , 4.05        , 3           , 11          , 0.006355717 , 0.00635571172
0.370846838 , 0.0500853658, -9.780152   , -9.63063139E-05, -0.00154437847, 0.00189224945, -0.185856819, -0.164824054, 0.4187677   , -0.002681098, 0.0395422243, 2.37275243  , 4.06        , 3           , 12          , 0.0628744438, 0
0.3766568   , 0.0401347838, -9.793258   , 0.0030055542, -0.0006786769, 0.000777887646, -0.185856819, -0.164824054, 0.4187677   , -0.00265073171, 0.03953545  , 2.37276     , 4.07        , 3           , 50          , 0           , 0
0.37735498  , 0.024333857 , -9.793318   , -0.00207599346, -0.00127618958, -0.000376834767, -0.185452342, -0.164891466, 0.418700278 , -0.00267164013, 0.03952268  , 2.37275624  , 4.08        , 3           , 11          , 0.006355717 , 0.00635571172
0.370067179 , 0.02393752  , -9.784336   , 0.00244390359, -0.00152719661, -0.0009212728, -0.185452342, -0.164824054, 0.418969929 , -0.00264756172, 0.03950738  , 2.37274671  , 4.09        , 3           , 12          , 0.0628744438, 0
0.385855734 , 0.0196865741, -9.782877   , 0.00243607326, -0.00295964419, 0.0007711118, -0.185452342, -0.164824054, 0.4187677   , -0.00266610412, 0.0394103639, 2.37275338  , 4.1         , 3           , 50          , 0           , 0
0.400010258 , 0.0280981977, -9.78409    , -0.00180508941, -0.00186202943, 0.002165781 , -0.185452342, -0.164824054, 0.4187677   , -0.00268329913, 0.0393918   , 2.37277532  , 4.11        , 3           , 11          , 0.00628276961, 0.006282765
0.411492735 , 0.0414877534, -9.780331   , 0.000164853962, -0.0007224065, -0.000366101885, -0.185452342, -0.164621815, 0.419172168 , -0.002681795, 0.03938457  , 2.3727715   , 4.12        , 3           , 12          , 0.0639415458, 0
0.3909773   , 0.0210813433, -9.812662   , 0.0007326587, -0.00128171593, -8.17986438E-05, -0.185587168, -0.164756641, 0.419037342 , -0.0026744986, 0.03937175  , 2.37277055  , 4.13        , 3           , 50          , 0           , 0
0.384773463 , 0.0351021364, -9.8009     , 0.0021303636, 0.00154348218, -0.0009184869, -0.1857894  , -0.164891466, 0.418969929 , -0.00265355781, 0.0393871665, 2.372761    , 4.14        , 3           , 11          , 0.00628276961, 0.006282765
0.3873042   , 0.0255461782, -9.786005   , -0.0006895597, 0.0006796883, -0.0006504205, -0.1857894  , -0.164891466, 0.418969929 , -0.00266071013, 0.0393939428, 2.37275481  , 4.15        , 3           , 12          , 0.0639415458, 0
0.37335223  , 0.0289037954, -9.796494   , -0.001825258, 0.00207987847, 0.00104170619, -0.185587168, -0.164958879, 0.418700278 , -0.00267855451, 0.0394147672, 2.3727653   , 4.16        , 3           , 50          , 0           , 0
0.3755221   , 0.0252302121, -9.78519249 , -0.0009698137, 0.000255431049, -0.000511119666, -0.185519755, -0.164891466, 0.418969929 , -0.00268845516, 0.03941731  , 2.37276     , 4.17        , 3           , 11          , 0.00628276961, 0.006282765
0.374131918 , 0.02254228  , -9.78611851 , 0.000584556954, 0.000125154911, 6.09814633E-05, -0.185384929, -0.164958879, 0.419104755 , -0.002682588, 0.0394185632, 2.37276053  , 4.18        , 3           , 12          , 0.0639415458, 0
0.3845659   , 0.0215434171, -9.793726   , 0.00100098248, 0.001535844 , -0.000358679565, -0.185384929, -0.164958879, 0.419104755 , -0.00267272023, 0.03943391  , 2.3727572   , 4.19        , 3           , 50          , 0           , 0
0.3835827   , 0.01747403  , -9.787875   , 0.00114637171, 0.0002582252, -0.0007839191, -0.185384929, -0.164891466, 0.4188351   , -0.00266675861, 0.0394040979, 2.37274861  , 4.2         , 3           , 11          , 0.00621193228, 0.006211927
0.388198555 , 0.0255264789, -9.783287   , 0.000587420247, -0.000871853554, -0.000223213967, -0.185587168, -0.164824054, 0.418902516 , -0.0026609723, 0.039395377 , 2.37274671  , 4.21        , 3           , 12          , 0.06501299  , 0
0.3972523   , 0.0227404721, -9.791364   , -0.000547002768, 0.000105985091, 5.55745828E-05, -0.185654581, -0.164824054, 0.418969929 , -0.00266642217, 0.039396435 , 2.37274718  , 4.22        , 3           , 50          , 0           , 0
0.38131693  , 0.0174990967, -9.78744    , 0.00100499531, 0.0002572693, -0.00106711511, -0.185654581, -0.164824054, 0.418969929 , -0.00265679252, 0.03939898  , 2.37273622  , 4.23        , 3           , 11          , 0.00621193228, 0.006211927
0.398251474 , 0.0232520513, -9.812598   , 0.00297562871, 0.00153768167, -0.00119721261, -0.185654581, -0.164824054, 0.4188351   , -0.00262750871, 0.039414335 , 2.37272477  , 4.24        , 3           , 12          , 0.06501299  , 0
0.393942475 , 0.0119515574, -9.791886   , 0.00128229836, 0.001244656 , -0.00148808572, -0.185654581, -0.164756641, 0.419104755 , -0.00261527323, 0.0394267365, 2.37270951  , 4.25        , 3           , 50          , 0           , 0
0.383935    , 0.0151555119, -9.770706   , 0.000296918617, 0.000674842449, -0.000928488036, -0.185722   , -0.164891466, 0.418902516 , -0.00261266879, 0.03943346  , 2.3727      , 4.26        , 3           , 11          , 0.00621193228, 0.006211927
0.378724843 , 0.0247736   , -9.79466152 , -0.000269247481, 0.0009525879, -0.0007894191, -0.185519755, -0.164689228, 0.418902516 , -0.00261567323, 0.0394429564, 2.37269235  , 4.27        , 3           , 12          , 0.06501299  , 0
0.368269533 , 0.0270941649, -9.777557   , -0.000265962823, 0.000107888445, -0.002344677, -0.185519755, -0.164689228, 0.418902516 , -0.00261925883, 0.0394439735, 2.372669    , 4.28        , 3           , 50          , 0           , 0
0.3907675   , 0.0146624167, -9.781956   , 0.000152346169, 0.00123701489, -0.00191715953, -0.185519755, -0.164824054, 0.418902516 , -0.002618494, 0.0394563   , 2.37264943  , 4.29        , 3           , 11          , 0.00621193228, 0.006211927
0.401180655 , 0.05106604  , -9.774945   , 0.0001611232, 0.00249830843, -0.000501984265, -0.185856819, -0.164891466, 0.419239581 , -0.00257605128, 0.0394647457, 2.372646    , 4.3         , 3           , 12          , 0.06608834  , 0
0.406491578 , 0.0339416638, -9.799835   , 0.00086968916, 0.00208073785, 0.000207000747, -0.185722   , -0.164824054, 0.418969929 , -0.002567277, 0.0394855626, 2.37264848  , 4.31        , 3           , 50          , 0           , 0
0.375566751 , 0.030176241 , -9.7802     , 0.0008745681, 0.00109526  , 0.000205481978, -0.185722   , -0.164824054, 0.418969929 , -0.00255845441, 0.03949652  , 2.37265038  , 4.32        , 3           , 11          , 0.00614269124, 0.00614268659
0.38137418  , 0.0269188415, -9.77113    , 0.00172484422, 0.000397074851, -0.0006392645, -0.185654581, -0.164756641, 0.419104755 , -0.0025414587, 0.0395004749, 2.37264371  , 4.33        , 3           , 12          , 0.06608834  , 0
0.384354472 , 0.0329031   , -9.816279   , 0.00158223684, 0.0006776849, -0.000639489037, -0.185722   , -0.164689228, 0.419104755 , -0.00252588885, 0.0395072363, 2.372637    , 4.34        , 3           , 50          , 0           , 0
0.385406733 , 0.0121069849, -9.808223   , -0.000528423232, -0.0007444625, 0.000337345467, -0.185519755, -0.164891466, 0.419037342 , -0.00253103953, 0.0394998   , 2.37264085  , 4.35        , 3           , 11          , 0.00614269124, 0.00614268659
0.379122585 , 0.0157966614, -9.810062   , 0.00173951837, -0.00241857232, 0.00062781485, -0.185519755, -0.164891466, 0.419037342 , -0.00251339236, 0.03947563  , 2.372647    , 4.36        , 3           , 12          , 0.06608834  , 0
0.364995331 , 0.0466117859, -9.8001     , 0.00230391952, -0.00227396865, 0.00105447194, -0.185722   , -0.164891466, 0.418969929 , -0.002489934, 0.0394529179, 2.372658    , 4.37        , 3           , 50          , 0           , 0
0.371547431 , 0.0325010121, -9.786549   , -0.00137680874, -0.000609411858, -0.000372731942, -0.185654581, -0.164689228, 0.419307    , -0.00250385 , 0.0394468158, 2.3726542   , 4.38        , 3           , 11          , 0.00614269124, 0.00614268659
0.3986845   , 0.0268015172, -9.79630852 , -0.00110147079, 0.0006595371, -0.00178214966, -0.185991645, -0.164891466, 0.419037342 , -0.00251557026, 0.03945337  , 2.372636    , 4.39        , 3           , 12          , 0.06608834  , 0
0.400787145 , 0.0203953162, -9.777336   , 0.0012902111, 0.000384035055, -0.001065463, -0.185991645, -0.164891466, 0.419037342 , -0.00253480417, 0.03942717  , 2.37262464  , 4.4         , 3           , 50          , 0           , 0
0.385306    , 0.0120253488, -9.783816   , 0.00185711146, 0.000106293061, 6.688683E-05, -0.1857894  , -0.164958879, 0.418969929 , -0.002516208, 0.03942823  , 2.37262464  , 4.41        , 3           , 11          , 0.00607547769, 0.0060754735
0.38062343  , 0.03464289  , -9.784211   , 2.420661E-05, -0.000469251536, 0.0001987276, -0.185587168, -0.164756641, 0.419037342 , -0.002515887, 0.0394235477, 2.372627    , 4.42        , 3           , 12          , 0.0671671852, 0
0.3711187   , 0.0347575434, -9.785187   , 0.002424753 , -0.0004530172, 6.865282E-05, -0.185519755, -0.164958879, 0.419037342 , -0.002491611, 0.0394190177, 2.3726275   , 4.43        , 3           , 50          , 0           , 0
0.377999127 , 0.0436766446, -9.777864   , 0.00468068244, 0.000266175281, 8.027314E-05, -0.185519755, -0.164958879, 0.419037342 , -0.00244477228, 0.0394216776, 2.37262845  , 4.44        , 3           , 11          , 0.00607547769, 0.0060754735
0.387423337 , 0.03546243  , -9.783252   , 0.00241782749, 0.0008140226, -0.00105954439, -0.185587168, -0.164824054, 0.4188351   , -0.00242101331, 0.0394297875, 2.372618    , 4.45        , 3           , 12          , 0.0671671852, 0
0.3860342   , 0.0265264139, -9.804543   , 0.000587339862, -0.000183868135, -0.0003632796, -0.185856819, -0.164891466, 0.419172168 , -0.00241528265, 0.0394279473, 2.37261415  , 4.46        , 3           , 50          , 0           , 0
0.387646854 , 0.0151855536, -9.792374   , -0.0009572801, -0.00174297567, 0.00146358414, -0.185452342, -0.164958879, 0.419239581 , -0.00242427853, 0.0394105539, 2.372629    , 4.47        , 3           , 11          , 0.00607547769, 0.0060754735
0.367892265 , 0.0258216225, -9.800164   , 0.0010159777, -0.00102569431, 0.00105008145, -0.185722   , -0.165228531, 0.418902516 , -0.002413701, 0.0394003242, 2.37264     , 4.48        , 3           , 12          , 0.0671671852, 0
0.36548084  , 0.0230505783, -9.773075   , 0.000587050454, -4.308354E-05, 0.000343280961, -0.185722   , -0.165228531, 0.418902516 , -0.0024076947, 0.0393999   , 2.37264276  , 4.49        , 3           , 50          , 0           , 0
0.385683656 , 0.0413441323, -9.781883   , -0.00210099365, -0.00106640032, -0.0005187701, -0.185654581, -0.164689228, 0.419104755 , -0.00245723245, 0.0393297561, 2.37263656  , 4.5         , 3           , 11          , 0.006010074 , 0.00601007
0.40580225  , 0.0542132854, -9.787553   , -0.0004052834, -0.00133650692, -0.0009351086, -0.186059058, -0.164689228, 0.419104755 , -0.002461652, 0.0393163674, 2.3726275   , 4.51        , 3           , 12          , 0.06824914  , 0
0.401763082 , 0.0222270936, -9.78862    , -0.000258864631, -0.00232102815, -0.0003708939, -0.185587168, -0.164891466, 0.4188351   , -0.00246438337, 0.0392931439, 2.37262368  , 4.52        , 3           , 50          , 0           , 0
0.3706146   , 0.000872824341, -9.770867   , -0.0008292127, -0.00119858747, -0.0002305233, -0.185587168, -0.164891466, 0.4188351   , -0.00247276481, 0.0392811522, 2.37262177  , 4.53        , 3           , 11          , 0.006010074 , 0.00601007
0.3668863   , 0.0186092984, -9.798845   , -0.00111758616, 6.65471161E-05, 0.00033518736, -0.185452342, -0.164958879, 0.419104755 , -0.00248380727, 0.03928184  , 2.37262464  , 4.54        , 3           , 12          , 0.06824914  , 0
0.397677541 , 0.0258372761, -9.774625   , -0.00195969851, -0.001065445, -0.000376842741, -0.185519755, -0.164621815, 0.418969929 , -0.002503551, 0.0392711647, 2.37262082  , 4.55        , 3           , 50          , 0           , 0
0.394373864 , 0.0132679474, -9.782387   , 8.68049E-06 , 0.0006373141, -0.0007888268, -0.185519755, -0.164824054, 0.419172168 , -0.00250377529, 0.03927752  , 2.37261319  , 4.56        , 3           , 11          , 0.006010074 , 0.00601007
0.367334783 , 0.02038591  , -9.792055   , 0.0007207314, -0.000484169141, -8.092657E-05, -0.185519755, -0.164824054, 0.419172168 , -0.002496601, 0.0392726772, 2.37261224  , 4.57        , 3           , 12          , 0.06824914  , 0
0.3829045   , 0.0350765362, -9.786903   , 0.0001605936, -0.0014734678, -0.0003676167, -0.185452342, -0.165026292, 0.418969929 , -0.002495137, 0.039257925 , 2.37260842  , 4.58        , 3           , 50          , 0           , 0
0.3823709   , 0.02653568  , -9.794626   , 0.00170492462, 0.000226424352, -0.00148791983, -0.185722   , -0.165161118, 0.419172168 , -0.00247867173, 0.0392601527, 2.372594    , 4.59        , 3           , 11          , 0.006010074 , 0.00601007
0.387325257 , 0.0237778574, -9.79686    , 0.00240878714, 0.000226584671, -0.00106096652, -0.185519755, -0.165295944, 0.419037342 , -0.00246257614, 0.0392481275, 2.37258267  , 4.6         , 3           , 12          , 0.0693338662, 0
0.37656188  , 0.0302381758, -9.80188751 , 0.00156355312, -6.070716E-05, 6.479856E-05, -0.185519755, -0.165295944, 0.419037342 , -0.002446915, 0.03924752  , 2.37258315  , 4.61        , 3           , 50          , 0           , 0
0.378307074 , 0.0292707756, -9.788771   , 7.625158E-06, 0.00035113332, -0.0007894061, -0.185654581, -0.1650937  , 0.419104755 , -0.00244714925, 0.03925101  , 2.372575    , 4.62        , 3           , 11          , 0.005946265 , 0.005946259
0.393631727 , 0.0276942533, -9.776004   , -0.00154645659, 0.000340624974, -0.002068068, -0.185722   , -0.164891466, 0.419104755 , -0.00246342877, 0.03925437  , 2.37255454  , 4.63        , 3           , 12          , 0.0693338662, 0
0.3940266   , 0.0173759572, -9.795027   , 5.4154043E-06, 0.000632694457, -0.00220165937, -0.1857894  , -0.164824054, 0.419037342 , -0.00246423925, 0.03926064  , 2.37253261  , 4.64        , 3           , 50          , 0           , 0
0.383286476 , 0.0301040243, -9.785565   , 0.00282947626, 0.000792578969, -0.00134066062, -0.1857894  , -0.164824054, 0.419037342 , -0.0024364714, 0.03926854  , 2.37251925  , 4.65        , 3           , 11          , 0.005946265 , 0.005946259
0.362214684 , 0.008279923 , -9.797115   , 0.001853402 , -0.00160740642, -0.000360077247, -0.1857894  , -0.164689228, 0.4188351   , -0.00241807825, 0.0392524563, 2.372516    , 4.66        , 3           , 12          , 0.0693338662, 0
0.363193452 , 0.0114530539, -9.804779   , 0.0005840387, -0.00189756544, -8.390003E-05, -0.185722   , -0.164958879, 0.419239581 , -0.00241226773, 0.03923348  , 2.372515    , 4.67        , 3           , 50          , 0           , 0
0.367350817 , 0.0168281011, -9.807438   , 0.000150885127, 7.05263155E-05, 0.000340968341, -0.185722   , -0.164891466, 0.419239581 , -0.00241062371, 0.0392341875, 2.3725183   , 4.68        , 3           , 11          , 0.005946265 , 0.005946259
0.374791563 , 0.0401122048, -9.780165   , -0.0005475964, -0.00148285669, 0.000194020715, -0.185722   , -0.164891466, 0.419239581 , -0.00241602235, 0.0392193645, 2.37252021  , 4.69        , 3           , 12          , 0.0693338662, 0
0.390135467 , 0.0291779265, -9.80224    , 0.00185569644, -0.00190951093, 0.00119349617, -0.185519755, -0.165026292, 0.4188351   , -0.002396931, 0.03913536  , 2.372533    , 4.7         , 3           , 50          , 0           , 0
0.3862605   , 0.0503663756, -9.783198   , 0.000441019074, -0.00135592977, 0.0016115855, -0.185654581, -0.164689228, 0.419104755 , -0.0023918876, 0.03912184  , 2.3725493   , 4.71        , 3           , 11          , 0.005884399 , 0.00588439358
0.391712755 , 0.0204865187, -9.772884   , -0.00153239456, -0.00235478347, -0.0006594514, -0.1857894  , -0.164756641, 0.419172168 , -0.002407469, 0.0390982777, 2.37254262  , 4.72        , 3           , 12          , 0.07042103  , 0
0.404251516 , 0.00594165549, -9.785052   , -0.00167881337, -0.00137026235, -0.001223666, -0.185452342, -0.165026292, 0.418969929 , -0.00242473278, 0.0390845425, 2.37253022  , 4.73        , 3           , 50          , 0           , 0
0.374178052 , 0.0243650191, -9.791533   , -0.00252806582, -0.000812858343, 0.000185938465, -0.185452342, -0.165026292, 0.418969929 , -0.00244994019, 0.0390764177, 2.37253213  , 4.74        , 3           , 11          , 0.005884399 , 0.00588439358
0.391734958 , 0.0503358431, -9.7931     , -0.000692744041, -0.0006596598, 0.000618521648, -0.185587168, -0.164824054, 0.419104755 , -0.00245662662, 0.03906984  , 2.37253833  , 4.75        , 3           , 12          , 0.07042103  , 0
0.390963554 , 0.02776546  , -9.787776   , 0.0014256204, -0.000645334134, 0.0009109361, -0.185654581, -0.164824054, 0.419104755 , -0.00244201254, 0.03906341  , 2.37254739  , 4.76        , 3           , 50          , 0           , 0
0.410117716 , 0.0116589069, -9.76148    , 0.00241874857, -0.0016241282, 0.0004902205, -0.185452342, -0.165026292, 0.418969929 , -0.00241763238, 0.0390471742, 2.37255216  , 4.77        , 3           , 11          , 0.005884399 , 0.00588439358
0.3772051   , 0.0157317463, -9.784315   , 0.0005831002, -0.00177732843, -0.0005074377, -0.185452342, -0.165026292, 0.418969929 , -0.00241199671, 0.03902939  , 2.37254739  , 4.78        , 3           , 12          , 0.07042103  , 0
0.39401713  , 0.0471995845, -9.807559   , -0.00182273332, -0.00080808677, -0.00108218775, -0.185924232, -0.1645544  , 0.419104755 , -0.002430646, 0.0390212834, 2.372537    , 4.79        , 3           , 50          , 0           , 0
0.404504836 , 0.0284644458, -9.774562   , -0.00197441946, -0.0005110975, -9.39276142E-05, -0.185856819, -0.164891466, 0.419307    , -0.00248170085, 0.03906907  , 2.372534    , 4.8         , 3           , 11          , 0.00582409138, 0.00582408533
0.36341694  , 0.033951655 , -9.787057   , -0.00183411036, -0.000228575082, 0.000754777167, -0.185856819, -0.165026292, 0.419172168 , -0.00249974523, 0.0390668027, 2.37254167  , 4.81        , 3           , 12          , 0.07151029  , 0
0.340674341 , 0.0229749419, -9.798124   , -0.002402034, 0.000189947852, -0.000942430634, -0.185856819, -0.165026292, 0.419172168 , -0.00252413657, 0.039068684 , 2.37253213  , 4.82        , 3           , 50          , 0           , 0
0.375504732 , 0.051923    , -9.805874   , -0.00296012475, -0.00108091265, -9.940468E-05, -0.185856819, -0.164621815, 0.418902516 , -0.00255377614, 0.0390578732, 2.37253118  , 4.83        , 3           , 11          , 0.00582409138, 0.00582408533
0.370349646 , 0.04291308  , -9.792391   , -0.0009848203, -0.0006451932, 0.0006168084, -0.185722   , -0.164824054, 0.4193744   , -0.00256338227, 0.0390514322, 2.37253737  , 4.84        , 3           , 12          , 0.07151029  , 0
0.376492083 , 0.0266108327, -9.796479   , 0.001266645 , 0.0007779072, -0.00106571137, -0.185654581, -0.165161118, 0.419172168 , -0.00255113281, 0.03905919  , 2.37252641  , 4.85        , 3           , 50          , 0           , 0
0.38734293  , 0.022453133 , -9.805452   , 0.00127045624, 7.399612E-05, -0.0005017214, -0.185654581, -0.165161118, 0.419172168 , -0.00253862445, 0.03905991  , 2.37252164  , 4.86        , 3           , 11          , 0.00582409138, 0.00582408533
0.394792    , 0.009217396 , -9.78692    , 0.00155296479, 7.590647E-05, -0.000359135651, -0.185654581, -0.164756641, 0.418969929 , -0.00252323714, 0.0390606634, 2.37251782  , 4.87        , 3           , 12          , 0.07151029  , 0
0.412440717 , 0.0383870937, -9.800675   , 0.00154693646, 0.00134295051, 6.662331E-05, -0.185722   , -0.164621815, 0.419037342 , -0.00250774436, 0.0390740968, 2.37251878  , 4.88        , 3           , 50          , 0           , 0
0.386896163 , 0.02558778  , -9.796856   , 0.00111919583, 0.002184781 , 0.000207218443, -0.185587168, -0.164824054, 0.418969929 , -0.002496473, 0.0390959419, 2.37252069  , 4.89        , 3           , 11          , 0.00582409138, 0.00582408533
0.367378145 , 0.0235454775, -9.792493   , 0.00125527952, 0.001067433 , -0.00120699464, -0.185587168, -0.164824054, 0.418969929 , -0.00251713465, 0.039132867 , 2.37250686  , 4.9         , 3           , 12          , 0.0726013854, 0
0.388344824 , 0.0292158145, -9.807224   , 0.000696943549, -0.000203428383, -0.000787775, -0.185722   , -0.164958879, 0.4187677   , -0.00251047243, 0.0391308069, 2.37249875  , 4.91        , 3           , 50          , 0           , 0
0.3842554   , 0.0350545421, -9.785086   , -0.00127910229, -0.000357579585, -0.00037340424, -0.185587168, -0.164891466, 0.419037342 , -0.00252341013, 0.0391272232, 2.37249541  , 4.92        , 3           , 11          , 0.00576550374, 0.00576549629
0.375577    , 0.0212575383, -9.811423   , -0.00170303183, -0.000219660054, 0.000331180956, -0.185856819, -0.164756641, 0.419104755 , -0.00254031224, 0.03912504  , 2.37249875  , 4.93        , 3           , 12          , 0.0726013854, 0
0.372367024 , 0.027064465 , -9.782949   , -0.00142191735, 6.381538E-05, 0.000474200438, -0.185519755, -0.164958879, 0.4187677   , -0.00255434588, 0.0391256921, 2.37250352  , 4.94        , 3           , 50          , 0           , 0
0.374789923 , 0.03787912  , -9.786954   , -9.494033E-06, -6.741925E-05, -0.000225775468, -0.185519755, -0.164958879, 0.4187677   , -0.00255453028, 0.0391250141, 2.37250113  , 4.95        , 3           , 11          , 0.00576550374, 0.00576549629
0.396418035 , 0.03352128  , -9.774151   , 0.00225541531, -0.00117840013, -0.000358244346, -0.185452342, -0.1645544  , 0.419037342 , -0.00253211381, 0.03911322  , 2.3724978   , 4.96        , 3           , 12          , 0.0726013854, 0
0.372700423 , 0.01937446  , -9.778459   , 0.002399046 , -0.00159979123, 0.000206838056, -0.185654581, -0.164824054, 0.418969929 , -0.00250804215, 0.03909723  , 2.3724997   , 4.97        , 3           , 50          , 0           , 0
0.368988037 , 0.0135414377, -9.775347   , 0.0006952604, 0.000218921021, -8.078041E-05, -0.185519755, -0.165026292, 0.418969929 , -0.00250112149, 0.03909941  , 2.37249875  , 4.98        , 3           , 11          , 0.00576550374, 0.00576549629
0.3986619   , 0.02142701  , -9.808083   , 0.000121553378, 0.00190448924, -0.000928423, -0.185519755, -0.165026292, 0.418969929 , -0.0025002684, 0.0391184352, 2.37248921  , 4.99        , 3           , 12          , 0.0726013854, 0
0.3930478   , 0.0467121974, -9.793557   , 0.00111776858, 7.90078047E-05, -7.914087E-05, -0.185587168, -0.164824054, 0.419104755 , -0.00249530654, 0.0391124859, 2.37248826  , 5           , 3           , 50          , 0           , 0
0.385606945 , 0.0283378437, -9.80499    , 0.00140593457, -0.00104534172, 0.0002029778, -0.185654581, -0.164689228, 0.419104755 , -0.00248116651, 0.0391020365, 2.37249017  , 5.01        , 3           , 11          , 0.00570851844, 0.005708511
0.383487642 , 0.0200751089, -9.756226   , 0.000691955735, 0.000498490059, -0.000221734081, -0.185654581, -0.165026292, 0.418969929 , -0.00247433246, 0.0391070135, 2.37248826  , 5.02        , 3           , 12          , 0.0736940056, 0
0.3801563   , 0.0328511633, -9.786482   , -0.000441562879, 0.00119476125, -0.000790992, -0.185654581, -0.165026292, 0.418969929 , -0.00247905939, 0.03911895  , 2.37248015  , 5.03        , 3           , 50          , 0           , 0
0.3908894   , 0.02324185  , -9.78418    , -0.00128437218, 0.000203551608, -0.00150280516, -0.185722   , -0.164891466, 0.418902516 , -0.00249248976, 0.03912094  , 2.37246537  , 5.04        , 3           , 11          , 0.00570851844, 0.005708511
0.389575332 , 0.0277572144, -9.780556   , -0.00127154414, -0.00218974683, 0.00018873121, -0.185654581, -0.164824054, 0.418969929 , -0.00250512967, 0.03909905  , 2.37246728  , 5.05        , 3           , 12          , 0.0736940056, 0
0.3832039   , 0.0242345221, -9.784234   , -0.0005693329, -0.00134027493, 0.000758400245, -0.185654581, -0.164958879, 0.419037342 , -0.00251052482, 0.03908566  , 2.372475    , 5.06        , 3           , 50          , 0           , 0
0.383208752 , 0.0558552   , -9.794499   , 0.0014015896, -0.000200647366, -7.825786E-05, -0.185654581, -0.164958879, 0.419037342 , -0.00249653868, 0.0390836522, 2.372474    , 5.07        , 3           , 11          , 0.00570851844, 0.005708511
