Acc X       , Acc Y       , Acc Z       , Gyro X      , Gyro Y      , Gyro Z      , Magn X      , Magn Y      , Magn Z      , Euler X     , Euler Y     , Euler Z     , Time        , Status      , LowRate X   , LowRate Y   , LowRate Z    
0.365826339 , 0.109327853 , -9.80164051 , -0.00212584832, -0.00171086343, 0.000323652348, -0.182823241, -0.163880274, 0.422745049 , -0.0119082639, 0.03635061  , 2.382006    , 0           , 3           , 11          , 0.0346410163, 0.0346410163
0.360426366 , 0.121916533 , -9.76954    , -0.0005852917, 0.000833725964, -8.90053561E-05, -0.182958066, -0.163812861, 0.422610223 , -0.0119141508, 0.0363589376, 2.382005    , 0.01        , 3           , 12          , 0.0346410163, 0
0.347595036 , 0.113906868 , -9.758371   , 0.00110590993, 0.00140831317, -0.0010691171, -0.182621   , -0.163880274, 0.4225428   , -0.0119034881, 0.03637289  , 2.38199449  , 0.02        , 3           , 50          , 0           , 0
0.344224066 , 0.123526365 , -9.789093   , -0.00156763126, -0.0005807883, -0.00150847156, -0.182823241, -0.163745448, 0.422677636 , -0.0119197108, 0.0363669023, 2.38197923  , 0.03        , 3           , 11          , 0.0346410163, 0.0346410163
0.3601986   , 0.10119985  , -9.780476   , -0.00156324916, -0.00128469663, 4.43996469E-05, -0.182486176, -0.1640151  , 0.422812462 , -0.0119353207, 0.03635406  , 2.38198018  , 0.04        , 3           , 12          , 0.0346410163, 0
0.3834713   , 0.118482836 , -9.768022   , 0.0005499098, -0.0002848949, -0.000226742064, -0.182486176, -0.1640151  , 0.422812462 , -0.0119299041, 0.0363511853, 2.38197732  , 0.05        , 3           , 50          , 0           , 0
0.360108972 , 0.126048729 , -9.789412   , 0.000405663654, 0.000277279119, -0.00065033877, -0.182823241, -0.163880274, 0.422677636 , -0.0119260848, 0.03635388  , 2.38197112  , 0.06        , 3           , 11          , 0.0346410163, 0.0346410163
0.360643625 , 0.128341511 , -9.802053   , 0.000406768639, 0.000136498566, 5.57878375E-05, -0.182823241, -0.163610622, 0.422677636 , -0.0119219953, 0.036355257 , 2.3819716   , 0.07        , 3           , 12          , 0.0346410163, 0
0.3472622   , 0.11981193  , -9.768745   , 0.00153491891, 0.0004257027, -0.000221047987, -0.182486176, -0.163880274, 0.4224754   , -0.01190673 , 0.0363594852, 2.38196969  , 0.08        , 3           , 50          , 0           , 0
0.341853857 , 0.115878828 , -9.78778648 , 0.00111181242, 0.000282054447, -0.0005057778, -0.182486176, -0.163880274, 0.4224754   , -0.0118957954, 0.036362242 , 2.38196445  , 0.09        , 3           , 11          , 0.0346410163, 0.0346410163
0.342666149 , 0.108204693 , -9.789619   , 0.000269040233, -0.000568369171, 5.404355E-05, -0.182755828, -0.163812861, 0.422610223 , -0.0118930833, 0.0363565646, 2.381965    , 0.1         , 3           , 12          , 0.0346410163, 0
0.354136944 , 0.1260483   , -9.768666   , 0.000415377377, -0.00155289052, 0.0004769893, -0.182755828, -0.163812861, 0.422610223 , -0.011888748, 0.0363410935, 2.38196969  , 0.11        , 3           , 50          , 0           , 0
0.364699483 , 0.130063489 , -9.79162    , 0.0008399594, -0.00169080694, 0.0009025541, -0.182688415, -0.163880274, 0.422610223 , -0.0118800113, 0.03632429  , 2.38197923  , 0.12        , 3           , 11          , 0.0346410163, 0.0346410163
0.364410043 , 0.106618755 , -9.79624    , 0.00111795962, -0.000844203, 0.000481366675, -0.182688415, -0.163880274, 0.422610223 , -0.0118686548, 0.0363159068, 2.381984    , 0.13        , 3           , 12          , 0.0346410163, 0
0.3662696   , 0.111546554 , -9.792137   , -0.000871693, 0.00153572636, -0.0009368508, -0.182486176, -0.1640151  , 0.422610223 , -0.0118777156, 0.0363311432, 2.38197446  , 0.14        , 3           , 50          , 0           , 0
0.370820343 , 0.117314525 , -9.778972   , -0.00144109945, 0.00251738587, -0.000372890965, -0.182823241, -0.163610622, 0.422610223 , -0.0118922712, 0.036356274 , 2.38197064  , 0.15        , 3           , 11          , 0.0346410163, 0.0346410163
0.3459144   , 0.118943691 , -9.774183   , -0.001574112, 0.0008270395, -0.000658690638, -0.182688415, -0.163610622, 0.422812462 , -0.0119082592, 0.036364466 , 2.381964    , 0.16        , 3           , 12          , 0.0346410163, 0
0.350357115 , 0.112126306 , -9.775081   , -0.00184911664, -0.000723479548, -0.00108620024, -0.182553589, -0.163947687, 0.422677636 , -0.0119271409, 0.0363571048, 2.381953    , 0.17        , 3           , 50          , 0           , 0
0.346553415 , 0.126230881 , -9.796295   , -0.00226746965, -0.00171182037, -0.0003833507, -0.182553589, -0.163947687, 0.422677636 , -0.011949949, 0.0363399424, 2.38194966  , 0.18        , 3           , 11          , 0.0346410163, 0.0346410163
0.33471024  , 0.121401884 , -9.79505    , -0.00184993923, -0.000441911834, -9.688525E-05, -0.182486176, -0.163880274, 0.422677636 , -0.0119684795, 0.0363355055, 2.38194871  , 0.19        , 3           , 12          , 0.0346410163, 0
0.372168154 , 0.118182734 , -9.773533   , 0.0006874747, 0.00041997002, -0.000507538964, -0.182553589, -0.163812861, 0.422812462 , -0.011961814, 0.03633959  , 2.381943    , 0.2         , 3           , 50          , 0           , 0
0.4018227   , 0.132747889 , -9.780026   , 0.00210969313, -0.001541434, 6.1083214E-05, -0.182755828, -0.163880274, 0.4225428   , -0.01194069 , 0.0363241844, 2.381944    , 0.21        , 3           , 11          , 0.0346699134, 0.03466991
0.36337176  , 0.126087114 , -9.811987   , 0.000837949163, -0.00126846111, 0.001044472 , -0.182755828, -0.163880274, 0.4225428   , -0.0119319241, 0.03631163  , 2.38195443  , 0.22        , 3           , 12          , 0.03466883  , 0
0.352658361 , 0.104542032 , -9.808542   , -0.00241557229, -0.000304951536, -0.000240572626, -0.182688415, -0.1640151  , 0.422677636 , -0.0119561646, 0.0363085456, 2.38195252  , 0.23        , 3           , 50          , 0           , 0
0.350439847 , 0.113086052 , -9.792252   , -0.000156973518, -0.0002896757, -0.0016427245, -0.182621   , -0.164082512, 0.422677636 , -0.011958329, 0.03630546  , 2.38193631  , 0.24        , 3           , 11          , 0.0346699134, 0.03466991
0.358484626 , 0.139165476 , -9.792986   , 0.0009704796, 0.000140311065, -0.00191934325, -0.182688415, -0.163880274, 0.422610223 , -0.0119493222, 0.0363066271, 2.38191724  , 0.25        , 3           , 12          , 0.03466883  , 0
0.3508385   , 0.113036908 , -9.779142   , -0.0007165404, -0.00127897144, -0.0009405334, -0.182688415, -0.163880274, 0.422610223 , -0.011956824, 0.03629373  , 2.3819077   , 0.26        , 3           , 50          , 0           , 0
0.334673256 , 0.114230335 , -9.809091   , -7.03264959E-06, -0.00183732377, 0.000192040941, -0.182890654, -0.163947687, 0.4224754   , -0.0119568165, 0.0362753756, 2.38190961  , 0.27        , 3           , 11          , 0.0346699134, 0.03466991
0.368170232 , 0.11918579  , -9.78938    , 0.001680966 , -0.000418036419, 0.0009084558, -0.182890654, -0.164082512, 0.422677636 , -0.0119396728, 0.0362713076, 2.38191915  , 0.28        , 3           , 12          , 0.03466883  , 0
0.360879928 , 0.117894709 , -9.78266048 , 0.00111795869, -0.000844205031, 0.0004813649, -0.1831603  , -0.163947687, 0.422610223 , -0.0119283181, 0.0362629257, 2.381924    , 0.29        , 3           , 50          , 0           , 0
0.360549271 , 0.124247879 , -9.792128   , -0.00086691347, -0.0008505241, 0.000471947365, -0.1831603  , -0.163947687, 0.422610223 , -0.01209942 , 0.0363996327, 2.381923    , 0.3         , 3           , 11          , 0.034753453 , 0.034753453
0.374729127 , 0.129109249 , -9.810983   , 0.0006795458, 0.0005678065, 0.0006226288, -0.182553589, -0.164082512, 0.4225428   , -0.0120923985, 0.03640539  , 2.38192916  , 0.31        , 3           , 12          , 0.0347539149, 0
0.377306223 , 0.12941058  , -9.775707   , 0.000813996769, 0.001835802 , -0.000222372371, -0.182823241, -0.163880274, 0.422677636 , -0.0120843491, 0.03642371  , 2.38192677  , 0.32        , 3           , 50          , 0           , 0
0.360896051 , 0.117015071 , -9.789444   , 0.00039019328, 0.00183293619, -0.0005068852, -0.182621   , -0.163610622, 0.422610223 , -0.0120806424, 0.0364419781, 2.381921    , 0.33        , 3           , 11          , 0.034753453 , 0.034753453
0.356952429 , 0.123418346 , -9.801198   , 0.00251483056, 0.0005802188, -0.000216423359, -0.182621   , -0.163610622, 0.422610223 , -0.012055574, 0.036447756 , 2.38191915  , 0.34        , 3           , 12          , 0.0347539149, 0
0.3504978   , 0.115811095 , -9.797664   , 0.00166803948, 0.000574491336, 0.000627238245, -0.183092892, -0.163745448, 0.4224754   , -0.0120386677, 0.0364535749, 2.38192534  , 0.35        , 3           , 50          , 0           , 0
0.340713143 , 0.133032471 , -9.785915   , -0.000727094, -0.00056800415, 0.0004730398, -0.182755828, -0.163880274, 0.422745049 , -0.0120457644, 0.03644795  , 2.38193     , 0.36        , 3           , 11          , 0.034753453 , 0.034753453
0.357380658 , 0.130534679 , -9.77224    , 0.000121335688, -0.0008438406, 5.275041E-05, -0.182890654, -0.163812861, 0.422879875 , -0.0120445276, 0.0364395231, 2.38193059  , 0.37        , 3           , 12          , 0.0347539149, 0
0.3399808   , 0.115403593 , -9.774242   , -0.000160972384, -0.000704964041, 0.00146433781, -0.182890654, -0.163812861, 0.422879875 , -0.0120455995, 0.0364326462, 2.38194585  , 0.38        , 3           , 50          , 0           , 0
0.355401784 , 0.14552182  , -9.793887   , -0.0005811276, -0.00141174172, 0.00146127748, -0.182688415, -0.164284751, 0.422273159 , -0.0120508708, 0.03641871  , 2.38196015  , 0.39        , 3           , 11          , 0.034753453 , 0.034753453
0.355137765 , 0.128792942 , -9.783112   , 0.000642462459, -0.000146378326, -8.639043E-05, -0.182553589, -0.163678035, 0.422610223 , -0.0124141071, 0.03632267  , 2.38194585  , 0.4         , 3           , 12          , 0.0348954126, 0
0.3515686   , 0.1351274   , -9.775881   , 0.0003527393, 0.00125953555, -0.0006506126, -0.182755828, -0.163812861, 0.4229473   , -0.0124108214, 0.03633518  , 2.38193917  , 0.41        , 3           , 50          , 0           , 0
0.354613841 , 0.113118351 , -9.816175   , 7.490237E-05, 0.000412932335, 5.31123551E-05, -0.182688415, -0.163880274, 0.4224754   , -0.0124100549, 0.0363393165, 2.38194013  , 0.42        , 3           , 11          , 0.0176930651, 0.0176930148
0.357352436 , 0.125155658 , -9.782658   , 0.000218903762, -0.000149242856, 5.29029676E-05, -0.182688415, -0.163880274, 0.4224754   , -0.0124078449, 0.0363378339, 2.38194013  , 0.43        , 3           , 12          , 0.0348954126, 0
0.351853162 , 0.119363531 , -9.785436   , -0.000207606063, 0.000411022 , -8.947335E-05, -0.182890654, -0.163947687, 0.4224754   , -0.0124099562, 0.03634193  , 2.38193917  , 0.44        , 3           , 50          , 0           , 0
0.346008718 , 0.112771213 , -9.817146   , 0.0007829789, -4.640708E-06, -8.551499E-05, -0.182823241, -0.1640151  , 0.422812462 , -0.0124021564, 0.0363418721, 2.38193822  , 0.45        , 3           , 11          , 0.0176930651, 0.0176930148
0.340725243 , 0.131703228 , -9.793153   , 0.00106770429, -0.0005658633, -0.0009326783, -0.182486176, -0.163812861, 0.422677636 , -0.012391815, 0.0363360941, 2.38192964  , 0.46        , 3           , 12          , 0.0348954126, 0
0.352117717 , 0.134307474 , -9.802094   , 0.0006411499, 0.000135187118, 5.531215E-05, -0.182486176, -0.163812861, 0.422677636 , -0.0123853832, 0.03633745  , 2.38192964  , 0.47        , 3           , 50          , 0           , 0
0.372366548 , 0.126824141 , -9.794288   , 0.00134520757, 0.0005623101, 0.000200524169, -0.182755828, -0.163880274, 0.422677636 , -0.0123718614, 0.03634311  , 2.381932    , 0.48        , 3           , 11          , 0.0176930651, 0.0176930148
0.361104071 , 0.133698612 , -9.786661   , 0.00176671986, 0.000846736657, -0.00106848509, -0.182621   , -0.1640151  , 0.4229473   , -0.0123545863, 0.03635144  , 2.381921    , 0.49        , 3           , 12          , 0.0348954126, 0
0.365537018 , 0.123748846 , -9.795256   , 0.00130233157, 0.0009806826, -0.0005066878, -0.182688415, -0.163947687, 0.422677636 , -0.0125360964, 0.0363419876, 2.38190866  , 0.5         , 3           , 50          , 0           , 0
0.3720854   , 0.134556487 , -9.811432   , -0.000527666532, -1.720569E-05, 0.0010371895, -0.182688415, -0.163947687, 0.422677636 , -0.0125409951, 0.0363419466, 2.38191915  , 0.51        , 3           , 11          , 0.0134351784, 0.0134350834
0.372779071 , 0.122769043 , -9.797464   , -0.0025056405, 0.00025099155, 0.00173474872, -0.182688415, -0.163947687, 0.422610223 , -0.0125654247, 0.0363446772, 2.38193631  , 0.52        , 3           , 12          , 0.03509221  , 0
0.364145845 , 0.12730898  , -9.775816   , -0.00109284651, -2.10272228E-05, 0.000469480816, -0.182755828, -0.163812861, 0.422677636 , -0.0125761814, 0.0363445319, 2.381941    , 0.53        , 3           , 50          , 0           , 0
0.361622751 , 0.107039832 , -9.777728   , 0.00130372553, 0.0006991175, -0.0005071215, -0.182688415, -0.164149925, 0.422677636 , -0.01256333 , 0.0363514535, 2.38193631  , 0.54        , 3           , 11          , 0.0134351784, 0.0134350834
0.34580043  , 0.105907187 , -9.788249   , -0.000324103, 0.00146243884, -0.000584135, -0.182688415, -0.164149925, 0.422677636 , -0.0125667891, 0.0363660045, 2.38193     , 0.55        , 3           , 12          , 0.03509221  , 0
0.345164359 , 0.119973056 , -9.808988   , -0.000107652275, 0.0006191783, 0.000192528852, -0.182688415, -0.164082512, 0.422677636 , -0.0125677986, 0.03637222  , 2.381932    , 0.56        , 3           , 50          , 0           , 0
0.3349336   , 0.1412223   , -9.785926   , 0.000809475 , 0.0008365609, 0.0006915749, -0.182958066, -0.163812861, 0.422745049 , -0.0125594558, 0.0363806672, 2.3819387   , 0.57        , 3           , 11          , 0.0134351784, 0.0134350834
0.345048249 , 0.11675451  , -9.790922   , -0.00130114076, -0.0007263721, 0.000538042455, -0.182688415, -0.163880274, 0.4225428   , -0.012572268, 0.0363734663, 2.381944    , 0.58        , 3           , 12          , 0.03509221  , 0
0.331616879 , 0.12864241  , -9.790524   , -0.0020754342, -0.00129475666, -0.000172790475, -0.182688415, -0.163880274, 0.4225428   , -0.0125930794, 0.0363605022, 2.381943    , 0.59        , 3           , 50          , 0           , 0
0.348950744 , 0.142827362 , -9.775417   , 0.0006610219, 0.00119743124, -0.000368857029, -0.182621   , -0.163812861, 0.422610223 , -0.0126001723, 0.0361916758, 2.38193822  , 0.6         , 3           , 11          , 0.0113509158, 0.0113508357
0.332996726 , 0.129982933 , -9.791411   , -0.00182324846, 0.00371480244, -0.00122408732, -0.182823241, -0.163745448, 0.422745049 , -0.0126188658, 0.0362286679, 2.38192582  , 0.61        , 3           , 12          , 0.0353429578, 0
0.3572979   , 0.121987022 , -9.779507   , -0.004421119, 0.0006703087, -0.00194727746, -0.182621   , -0.163812861, 0.422745049 , -0.0126637844, 0.0362351239, 2.38190627  , 0.62        , 3           , 50          , 0           , 0
0.381195128 , 0.1068944   , -9.802439   , -0.00405013049, -0.00284686475, -0.00103280856, -0.182553589, -0.1640151  , 0.422407985 , -0.0127046471, 0.0362065248, 2.38189626  , 0.63        , 3           , 11          , 0.0113509158, 0.0113508357
0.355427176 , 0.117050134 , -9.780898   , -0.00207778043, -0.00170723023, 0.0006027361, -0.182553589, -0.1640151  , 0.422407985 , -0.0127251968, 0.03618953  , 2.381903    , 0.64        , 3           , 12          , 0.0353429578, 0
0.34817332  , 0.10953971  , -9.803132   , -0.000460588548, -0.00042920743, -0.000235351181, -0.182755828, -0.164082512, 0.422610223 , -0.01272989 , 0.03618521  , 2.3819      , 0.65        , 3           , 50          , 0           , 0
0.369396746 , 0.102101691 , -9.812039   , 0.0001098038, -0.00169243361, -0.00150608865, -0.182755828, -0.163880274, 0.422407985 , -0.0127293272, 0.0361680947, 2.38188577  , 0.66        , 3           , 11          , 0.0113509158, 0.0113508357
0.3495096   , 0.109952226 , -9.79634    , -0.00130885153, -0.0002941561, -0.0007335256, -0.182688415, -0.163745448, 0.422610223 , -0.0127426777, 0.0361650623, 2.38187814  , 0.67        , 3           , 12          , 0.0353429578, 0
0.357635438 , 0.142346248 , -9.796595   , -0.000105197, -0.0009195594, -0.0003757331, -0.182688415, -0.163745448, 0.422610223 , -0.0127438623, 0.0361558124, 2.38187432  , 0.68        , 3           , 50          , 0           , 0
0.352224    , 0.139303386 , -9.812016   , -0.000809729157, -0.00113550574, 0.0004682614, -0.182755828, -0.163880274, 0.422677636 , -0.012751787, 0.0361445248, 2.381879    , 0.69        , 3           , 11          , 0.0113509158, 0.0113508357
0.378253758 , 0.1280949   , -9.790169   , -0.00248372834, -0.002129835, 0.0003181869, -0.182755828, -0.163745448, 0.422610223 , -0.0127431089, 0.0361288041, 2.38188386  , 0.7         , 3           , 12          , 0.0356460959, 0
0.376681238 , 0.148395285 , -9.783318   , -0.000588232651, 6.518617E-05, 0.000189170474, -0.182823241, -0.163678035, 0.422340572 , -0.0127489232, 0.03612948  , 2.38188577  , 0.71        , 3           , 50          , 0           , 0
0.361637741 , 0.134651542 , -9.803377   , 0.000186717225, 0.0004927879, 0.000829152239, -0.182823241, -0.163678035, 0.422340572 , -0.0127467588, 0.0361345075, 2.38189435  , 0.72        , 3           , 11          , 0.010132323 , 0.01013227
0.368502438 , 0.112387508 , -9.781721   , 0.00102442887, 0.00225829566, -0.00064750656, -0.182553589, -0.163745448, 0.422407985 , -0.0127367582, 0.0361570045, 2.38188767  , 0.73        , 3           , 12          , 0.0356460959, 0
0.3562933   , 0.144160748 , -9.79479    , -0.00016932677, 0.0009831367, -0.000160615658, -0.183092892, -0.163880274, 0.4224754   , -0.0127385138, 0.0361668132, 2.38188577  , 0.74        , 3           , 50          , 0           , 0
0.3480755   , 0.11347761  , -9.766505   , -0.00235325913, 0.000123642472, 0.00102866057, -0.182688415, -0.163880274, 0.4225428   , -0.0127616748, 0.03616818  , 2.38189626  , 0.75        , 3           , 11          , 0.010132323 , 0.01013227
0.3570844   , 0.107977137 , -9.772335   , 4.98489972E-05, -0.000352861476, 0.0011097294, -0.182688415, -0.163880274, 0.4225428   , -0.0127607714, 0.03616479  , 2.38190722  , 0.76        , 3           , 12          , 0.0356460959, 0
0.367266    , 0.12098287  , -9.783954   , 0.0008228189, 0.000145123777, -0.001075555, -0.182688415, -0.164149925, 0.4225428   , -0.0127529344, 0.0361661   , 2.38189626  , 0.77        , 3           , 50          , 0           , 0
0.3618034   , 0.114327773 , -9.798488   , -0.00178395316, -0.0009284104, -0.000312385848, -0.182823241, -0.163812861, 0.422745049 , -0.0127708828, 0.03615678  , 2.3818934   , 0.78        , 3           , 11          , 0.010132323 , 0.01013227
0.344609767 , 0.108290754 , -9.821695   , -0.00200059288, 0.000126028157, 0.0003945974, -0.182755828, -0.163678035, 0.422812462 , -0.0127907479, 0.03615809  , 2.38189721  , 0.79        , 3           , 12          , 0.0356460959, 0
0.360861182 , 0.115201414 , -9.78674    , 0.0012353512, 0.00131736055, -0.0005748174, -0.182755828, -0.163678035, 0.422812462 , -0.01267121 , 0.0362434164, 2.3818953   , 0.8         , 3           , 50          , 0           , 0
0.344576031 , 0.120761223 , -9.773282   , 0.0007448375, 0.00046932057, -0.00135540194, -0.182553589, -0.1640151  , 0.4225428   , -0.0126642548, 0.03624793  , 2.381882    , 0.81        , 3           , 11          , 0.009378178 , 0.00937814452
0.3282988   , 0.114276044 , -9.800551   , -0.00291484012, -0.00201920513, -0.001941394, -0.182621   , -0.163745448, 0.422610223 , -0.0126940962, 0.03622749  , 2.38186288  , 0.82        , 3           , 12          , 0.03599988  , 0
0.339704931 , 0.115105905 , -9.818542   , -0.00270189648, -0.00208815979, -0.000598461542, -0.182755828, -0.163745448, 0.422610223 , -0.0127213206, 0.036206536 , 2.38185716  , 0.83        , 3           , 50          , 0           , 0
0.3520098   , 0.124400273 , -9.807561   , -0.0033426655, -0.00103658892, -0.000741066237, -0.182755828, -0.163745448, 0.422610223 , -0.0127550121, 0.0361960828, 2.38184953  , 0.84        , 3           , 11          , 0.009378178 , 0.00937814452
0.3367448   , 0.13361311  , -9.81035    , -0.00178511767, -0.00180038624, -9.93072E-05, -0.1831603  , -0.163880274, 0.4225428   , -0.0127728879, 0.03617806  , 2.381849    , 0.85        , 3           , 12          , 0.03599988  , 0
0.343294442 , 0.1288737   , -9.7660265  , -0.000938578567, -0.00151308812, 0.00103522744, -0.182688415, -0.163745448, 0.4224754   , -0.0127818929, 0.03616307  , 2.38185954  , 0.86        , 3           , 50          , 0           , 0
0.387844473 , 0.105806522 , -9.770753   , -0.002360326, 0.0003779253, 0.0006784   , -0.182755828, -0.163812861, 0.422812462 , -0.0128052523, 0.0361669324, 2.38186622  , 0.87        , 3           , 11          , 0.009378178 , 0.00937814452
0.378704548 , 0.132997811 , -9.773874   , -0.00158447167, 0.0005239597, 0.000470335362, -0.182688415, -0.163678035, 0.4224754   , -0.0128209265, 0.0361722261, 2.381871    , 0.88        , 3           , 12          , 0.03599988  , 0
0.3663436   , 0.11071378  , -9.812932   , -0.000316413381, 0.000814112544, -0.00206614169, -0.182688415, -0.163678035, 0.4224754   , -0.0128248427, 0.03618011  , 2.38185048  , 0.89        , 3           , 50          , 0           , 0
0.3292611   , 0.08269461  , -9.805196   , -0.00248960033, -0.00216792664, -0.0010184882, -0.182755828, -0.163812861, 0.422677636 , -0.0127511416, 0.0362423956, 2.38184381  , 0.9         , 3           , 11          , 0.008912678 , 0.008912662
0.355504453 , 0.120683551 , -9.788114   , -0.00185223785, -0.00237479876, 0.000467471138, -0.182553589, -0.163812861, 0.422812462 , -0.012769484, 0.0362187028, 2.38184857  , 0.91        , 3           , 12          , 0.0364024341, 0
0.358418941 , 0.138665959 , -9.778525   , -0.00115379714, -0.0008214157, 0.0005437844, -0.182351351, -0.1640151  , 0.4225428   , -0.01278082 , 0.03621056  , 2.3818543   , 0.92        , 3           , 50          , 0           , 0
0.35878706  , 0.127433255 , -9.793937   , -0.0004539772, 0.000239223446, -0.00121715514, -0.182351351, -0.1640151  , 0.4225428   , -0.0127858035, 0.0362128   , 2.381842    , 0.93        , 3           , 11          , 0.008912678 , 0.008912662
0.355417848 , 0.109454639 , -9.803077   , -0.000669760455, 0.001293666 , 0.0009731499, -0.182621   , -0.163812861, 0.4224754   , -0.0127921542, 0.0362258554, 2.381852    , 0.94        , 3           , 12          , 0.0364024341, 0
0.346817136 , 0.110003777 , -9.802236   , -0.00165253377, 9.03287E-05 , 0.000613524462, -0.182621   , -0.163678035, 0.422677636 , -0.0128084561, 0.0362268426, 2.381858    , 0.95        , 3           , 50          , 0           , 0
0.36909163  , 0.117848918 , -9.797513   , -0.000459000847, 0.00129509345, -0.000862356, -0.182755828, -0.163812861, 0.422610223 , -0.0128133669, 0.03623968  , 2.38184953  , 0.96        , 3           , 11          , 0.008912678 , 0.008912662
0.360993028 , 0.124681637 , -9.788507   , -0.001023654, 0.00143206015, 0.000689183245, -0.182755828, -0.163812861, 0.422610223 , -0.0128233619, 0.03625409  , 2.3818562   , 0.97        , 3           , 12          , 0.0364024341, 0
0.3545496   , 0.117083453 , -9.787684   , -0.00136159826, -0.00166754436, 0.000258957647, -0.182486176, -0.163880274, 0.422610223 , -0.0128368763, 0.03623745  , 2.38185859  , 0.98        , 3           , 50          , 0           , 0
0.3678107   , 0.15177606  , -9.818174   , 0.000336158439, -0.00221921224, 0.000972335 , -0.182755828, -0.163880274, 0.422677636 , -0.012833151, 0.0362153836, 2.3818686   , 0.99        , 3           , 11          , 0.008912678 , 0.008912662
0.387253851 , 0.120801911 , -9.799623   , -0.0009719403, -0.00267038448, 0.00195596227, -0.182755828, -0.1640151  , 0.422610223 , -0.0128039438, 0.0362524763, 2.38189     , 1           , 3           , 12          , 0.0368517451, 0
0.3819597   , 0.102752335 , -9.781207   , 7.8862904E-05, -0.00118501019, 0.0002679541, -0.182755828, -0.1640151  , 0.422610223 , -0.0128030516, 0.0362406634, 2.3818934   , 1.01        , 3           , 50          , 0           , 0
0.35293287  , 0.1355626   , -9.775868   , 0.000634966767, 0.000437805371, -0.0009983354, -0.182755828, -0.163812861, 0.4224754   , -0.0127970651, 0.0362449065, 2.381883    , 1.02        , 3           , 11          , 0.008635725 , 0.00863572
0.3561324   , 0.130639821 , -9.798916   , 0.00127046451, 0.0005828889, 0.0002762631, -0.182621   , -0.163745448, 0.4225428   , -0.0127842613, 0.0362507626, 2.38188577  , 1.03        , 3           , 12          , 0.0368517451, 0
0.350643456 , 0.136461243 , -9.766842   , 0.0008531194, -0.0007574118, -0.0002928484, -0.182688415, -0.163812861, 0.4224754   , -0.0127758337, 0.0362431556, 2.381883    , 1.04        , 3           , 50          , 0           , 0
0.3602907   , 0.137354746 , -9.7975     , 0.00211503869, 0.0011517494, 0.00042235048, -0.182688415, -0.163812861, 0.4224754   , -0.0127545353, 0.0362547264, 2.38188672  , 1.05        , 3           , 11          , 0.008635725 , 0.00863572
0.372747481 , 0.117833614 , -9.805622   , 0.00197892683, 0.000235710613, 0.00140916288, -0.182621   , -0.163880274, 0.4224754   , -0.0127342343, 0.036257267 , 2.381901    , 1.06        , 3           , 12          , 0.0368517451, 0
0.373042822 , 0.106541947 , -9.803406   , 0.00176417769, 0.0007270147, 0.0005613221, -0.182755828, -0.163678035, 0.422879875 , -0.012716393, 0.0362646058, 2.38190675  , 1.07        , 3           , 50          , 0           , 0
0.353664219 , 0.116664089 , -9.794021   , -0.0009851574, -0.000206695084, 0.000193899847, -0.182418764, -0.163812861, 0.422407985 , -0.0127261747, 0.0362625644, 2.38190866  , 1.08        , 3           , 11          , 0.008635725 , 0.00863572
0.378553778 , 0.118146107 , -9.784784   , -0.000635071541, 0.0002180359, -0.00128712482, -0.182418764, -0.163812861, 0.422407985 , -0.0127329938, 0.03626458  , 2.3818953   , 1.09        , 3           , 12          , 0.0368517451, 0
0.346739382 , 0.10815531  , -9.789137   , 0.00153923663, -0.000820092566, 0.000349124661, -0.182553589, -0.163880274, 0.422340572 , -0.01265952 , 0.0364259332, 2.381901    , 1.1         , 3           , 50          , 0           , 0
0.35236147  , 0.123866707 , -9.784509   , -1.67356575E-05, -0.0002674665, 0.0006252869, -0.182621   , -0.164217338, 0.422677636 , -0.0126594594, 0.03642334  , 2.3819077   , 1.11        , 3           , 11          , 0.008481377 , 0.008481376
0.366430342 , 0.09478967  , -9.774579   , 0.000537318 , 0.00177769677, -0.0005697173, -0.182553589, -0.163880274, 0.422677636 , -0.0126543017, 0.03644104  , 2.3819015   , 1.12        , 3           , 12          , 0.03734574  , 0
0.347966135 , 0.1066937   , -9.761561   , 0.00223134551, 0.00192994  , -0.000279061234, -0.182486176, -0.164082512, 0.4225428   , -0.012632098, 0.0364603028, 2.38189816  , 1.13        , 3           , 50          , 0           , 0
0.343838453 , 0.123586111 , -9.805366   , 0.0003219687, 0.00262096268, 0.000560746645, -0.182486176, -0.164082512, 0.4225428   , -0.0126286885, 0.03648658  , 2.381904    , 1.14        , 3           , 11          , 0.008481377 , 0.008481376
0.3463683   , 0.107780553 , -9.810384   , -0.00256593642, 0.00119356008, 0.0005450783, -0.182688415, -0.164082512, 0.422610223 , -0.0126541546, 0.036498595 , 2.38190913  , 1.15        , 3           , 12          , 0.03734574  , 0
0.343205929 , 0.114965141 , -9.789136   , -0.002849242, 0.00126203883, -0.0003743768, -0.182553589, -0.163812861, 0.4225428   , -0.0126827881, 0.03651116  , 2.38190484  , 1.16        , 3           , 50          , 0           , 0
0.333091974 , 0.140326142 , -9.78142452 , 0.0006864028, 0.0002300448, -0.000218273592, -0.182553589, -0.163947687, 0.4225428   , -0.0126760034, 0.03651343  , 2.381903    , 1.17        , 3           , 11          , 0.008481377 , 0.008481376
0.3397441   , 0.130313516 , -9.779154   , 0.0003327722, 0.000438833347, 0.000557383639, -0.182553589, -0.163947687, 0.4225428   , -0.0126724746, 0.036517892 , 2.38190866  , 1.18        , 3           , 12          , 0.03734574  , 0
0.358672    , 0.117966637 , -9.796237   , 4.38274874E-05, 0.00170396524, 0.00013421326, -0.182553589, -0.163812861, 0.4225428   , -0.012671995, 0.0365349464, 2.38190961  , 1.19        , 3           , 50          , 0           , 0
0.3709883   , 0.09252913  , -9.789016   , -0.00320982235, 1.71880638E-05, -0.00179012737, -0.182823241, -0.163812861, 0.422677636 , -0.0126383426, 0.036403276 , 2.38189435  , 1.2         , 3           , 11          , 0.008401876 , 0.00840188
0.340419322 , 0.108691484 , -9.792347   , -0.00285650278, 1.95769189E-05, -0.0012940407, -0.182418764, -0.163947687, 0.422340572 , -0.0126673812, 0.0364033058, 2.381881    , 1.21        , 3           , 12          , 0.0378822833, 0
0.357548058 , 0.09994634  , -9.80084    , -0.00321222446, 0.000650713046, -0.000517732464, -0.182418764, -0.163947687, 0.422340572 , -0.0126996962, 0.03640975  , 2.38187575  , 1.22        , 3           , 50          , 0           , 0
0.380882144 , 0.119510785 , -9.796061   , -0.0007356991, -0.000458836439, -0.00100238575, -0.182755828, -0.164082512, 0.4224754   , -0.0127074141, 0.0364050344, 2.38186574  , 1.23        , 3           , 11          , 0.008401876 , 0.00840188
0.3583051   , 0.120719686 , -9.808432   , -0.00129828369, -0.000673824339, 0.001113686 , -0.182688415, -0.164284751, 0.422677636 , -0.012719987, 0.03639843  , 2.38187718  , 1.24        , 3           , 12          , 0.0378822833, 0
0.351013571 , 0.120320328 , -9.798545   , -0.00390417 , -0.002099319, 0.0003929911, -0.182418764, -0.163880274, 0.422677636 , -0.0127588753, 0.03637749  , 2.381881    , 1.25        , 3           , 50          , 0           , 0
0.3673976   , 0.132694677 , -9.778482   , -0.0033418336, -0.00174354634, -0.0009458856, -0.182418764, -0.163880274, 0.422677636 , -0.0127926292, 0.0363599323, 2.38187242  , 1.26        , 3           , 11          , 0.008401876 , 0.00840188
0.322137266 , 0.127438381 , -9.801901   , -0.00123146246, -0.000180614326, -0.00121615943, -0.182553589, -0.164352164, 0.4224754   , -0.0128053837, 0.0363579765, 2.38186     , 1.27        , 3           , 12          , 0.0378822833, 0
0.358652085 , 0.11884325  , -9.788548   , -0.00174046878, 0.00277247629, -0.00142581086, -0.182823241, -0.163880274, 0.4224754   , -0.0128233219, 0.0363855176, 2.38184571  , 1.28        , 3           , 50          , 0           , 0
0.335418642 , 0.104270183 , -9.801895   , -0.00293000136, 0.000652622 , -0.000869587355, -0.182755828, -0.163947687, 0.4224754   , -0.0128529416, 0.03639193  , 2.38183665  , 1.29        , 3           , 11          , 0.008401876 , 0.00840188
0.3497429   , 0.127995253 , -9.795359   , -0.003064832, -0.002539799, -0.0004482516, -0.182755828, -0.163947687, 0.4224754   , -0.01273476 , 0.03626141  , 2.381838    , 1.3         , 3           , 12          , 0.0384592   , 0
0.363892972 , 0.107911    , -9.776351   , -0.000324862427, 0.000153689238, -0.00120826729, -0.182755828, -0.164217338, 0.4225428   , -0.0127384486, 0.03626279  , 2.38182569  , 1.31        , 3           , 50          , 0           , 0
0.35121423  , 0.104488425 , -9.787762   , -0.00216047 , 4.893536E-07, -0.00213529123, -0.182755828, -0.164217338, 0.422677636 , -0.0127608264, 0.0362625159, 2.38180423  , 1.32        , 3           , 11          , 0.008364301 , 0.008364309
0.335222542 , 0.09875508  , -9.771636   , -0.00285860687, -0.00148249918, -0.00108134607, -0.182553589, -0.164082512, 0.422745049 , -0.012789797, 0.0362475552, 2.38179374  , 1.33        , 3           , 12          , 0.0384592   , 0
0.3406198   , 0.122690782 , -9.796355   , -0.00384763815, -0.00120761513, 0.0003978003, -0.182553589, -0.164082512, 0.422745049 , -0.0128281219, 0.03623553  , 2.381798    , 1.34        , 3           , 50          , 0           , 0
0.3575652   , 0.135594115 , -9.801144   , -0.0010374916, 0.00155674177, -0.000503046263, -0.182755828, -0.164149925, 0.422407985 , -0.0128386868, 0.0362510271, 2.38179231  , 1.35        , 3           , 11          , 0.008364301 , 0.008364309
0.3502222   , 0.1311359   , -9.791727   , -0.00166293071, -0.000348117115, 0.000550577068, -0.182621   , -0.164082512, 0.422677636 , -0.0128551144, 0.0362476222, 2.381798    , 1.36        , 3           , 12          , 0.0384592   , 0
0.3348272   , 0.130870029 , -9.793201   , 0.00159650086, -0.002719457, -3.04147534E-06, -0.182621   , -0.163947687, 0.4225428   , -0.0128391366, 0.0362204276, 2.38179851  , 1.37        , 3           , 50          , 0           , 0
0.347423375 , 0.131101266 , -9.771861   , 0.00392224  , -0.00192939793, -0.0007679615, -0.182553589, -0.164082512, 0.4224754   , -0.012800185, 0.0362010375, 2.38179135  , 1.38        , 3           , 11          , 0.008364301 , 0.008364309
0.3195245   , 0.104418449 , -9.790717   , 0.0008753698, 0.000161806325, -0.001343939, -0.182553589, -0.164082512, 0.4224754   , -0.0127919195, 0.03620249  , 2.381778    , 1.39        , 3           , 12          , 0.0384592   , 0
0.343557239 , 0.10371881  , -9.800479   , -0.0003806552, -0.00135761965, 0.00126181624, -0.182755828, -0.164352164, 0.422610223 , -0.0127073023, 0.03599281  , 2.38179326  , 1.4         , 3           , 50          , 0           , 0
0.352407843 , 0.133724019 , -9.764128   , -0.00109541265, 0.000326994021, 0.000696052564, -0.182890654, -0.1640151  , 0.422745049 , -0.0127180079, 0.03599616  , 2.38180041  , 1.41        , 3           , 11          , 0.008345999 , 0.008346013
0.3796123   , 0.133435309 , -9.772962   , 0.0008086958, 0.0006918401, -0.000212762243, -0.182486176, -0.164082512, 0.4224754   , -0.0127099985, 0.0360030457, 2.381798    , 1.42        , 3           , 12          , 0.03907433  , 0
0.3604471   , 0.112113662 , -9.80619049 , 0.00194135413, 0.000136350543, 7.417499E-05, -0.182486176, -0.164082512, 0.4224754   , -0.0126905581, 0.0360044166, 2.381799    , 1.43        , 3           , 50          , 0           , 0
0.3471305   , 0.133021563 , -9.804851   , 0.000369232032, 0.00378618878, -0.00105757685, -0.182621   , -0.164419577, 0.4225428   , -0.0126872649, 0.0360421464, 2.381788    , 1.44        , 3           , 11          , 0.008345999 , 0.008346013
0.358251572 , 0.1264788   , -9.776769   , 0.00128982216, 0.00337005151, 5.5677674E-06, -0.182486176, -0.1640151  , 0.422812462 , -0.012674382, 0.03607584  , 2.38178754  , 1.45        , 3           , 12          , 0.03907433  , 0
0.365267038 , 0.103890628 , -9.79308    , -0.0007438101, 0.000470160623, -0.000573502737, -0.182755828, -0.164352164, 0.422340572 , -0.012682029, 0.03608047  , 2.38178182  , 1.46        , 3           , 50          , 0           , 0
0.351516962 , 0.125712186 , -9.793547   , -0.00158038735, -0.00178809208, -0.001357903, -0.182755828, -0.164352164, 0.422340572 , -0.0126983123, 0.03606242  , 2.38176847  , 1.47        , 3           , 11          , 0.008345999 , 0.008346013
0.346620381 , 0.138782978 , -9.772287   , -0.0003175637, -0.00016049853, -0.00149075058, -0.182553589, -0.164284751, 0.4224754   , -0.0127020255, 0.0360606275, 2.38175321  , 1.48        , 3           , 12          , 0.03907433  , 0
0.366535544 , 0.130955115 , -9.794766   , -0.00371435238, 0.00136518979, -0.001504167, -0.182621   , -0.164149925, 0.422745049 , -0.012739718, 0.0360740833, 2.381738    , 1.49        , 3           , 50          , 0           , 0
0.341002464 , 0.118611515 , -9.792301   , -0.00116133143, -0.00148084282, -0.00107278139, -0.182688415, -0.164419577, 0.422677636 , -0.0127555989, 0.0360855348, 2.38172746  , 1.5         , 3           , 11          , 0.008329907 , 0.008329923
0.3240473   , 0.110163726 , -9.770771   , -0.003055708, -0.00360546587, 0.001599181 , -0.182688415, -0.164419577, 0.422677636 , -0.0127855642, 0.03604969  , 2.38174415  , 1.51        , 3           , 12          , 0.0397255346, 0
0.354154    , 0.1162424   , -9.804414   , -0.00644751359, -0.00313564786, 0.00116033084, -0.182688415, -0.164149925, 0.422340572 , -0.0128496047, 0.0360184833, 2.381756    , 1.52        , 3           , 50          , 0           , 0
0.3627714   , 0.120616615 , -9.793483   , -0.00131305913, 0.0005595471, -0.00177663751, -0.182621   , -0.163947687, 0.4224754   , -0.0128633771, 0.03602385  , 2.38173842  , 1.53        , 3           , 11          , 0.008329907 , 0.008329923
0.327313364 , 0.114668265 , -9.779767   , -0.0008186715, 0.000633283169, -0.0009266119, -0.182621   , -0.164082512, 0.422677636 , -0.0128719024, 0.0360300653, 2.381729    , 1.54        , 3           , 12          , 0.0397255346, 0
0.359609276 , 0.117981717 , -9.803913   , -0.00151332689, -0.00141283218, 0.00132724945, -0.182621   , -0.164082512, 0.422677636 , -0.0128865484, 0.0360161066, 2.38174272  , 1.55        , 3           , 50          , 0           , 0
0.351044536 , 0.124362536 , -9.793104   , -0.003703937, -0.00114607159, 0.0006111334, -0.182486176, -0.164149925, 0.4225428   , -0.0129233627, 0.03600473  , 2.38174844  , 1.56        , 3           , 11          , 0.008329907 , 0.008329923
0.3595075   , 0.116560213 , -9.783581   , -0.00103217468, 0.00105420011, -0.000220605041, -0.182553589, -0.163678035, 0.422677636 , -0.0129337683, 0.0360152349, 2.38174653  , 1.57        , 3           , 12          , 0.0397255346, 0
0.3631531   , 0.115197524 , -9.793502   , -0.00116768607, -0.0002138004, -0.00121209747, -0.182553589, -0.163812861, 0.422745049 , -0.0129458783, 0.03601294  , 2.38173413  , 1.58        , 3           , 50          , 0           , 0
0.353290528 , 0.120304316 , -9.801692   , 0.000316059479, -0.000414947048, -0.00127614324, -0.182823241, -0.163745448, 0.422273159 , -0.0129431775, 0.03600863  , 2.38172174  , 1.59        , 3           , 11          , 0.008329907 , 0.008329923
0.353608578 , 0.117065363 , -9.779103   , 0.00148378522, -0.0008957282, -0.00119738479, -0.182823241, -0.163745448, 0.422273159 , -0.0128025217, 0.0360052846, 2.381714    , 1.6         , 3           , 12          , 0.0404107124, 0
0.364543766 , 0.123688415 , -9.774021   , 0.001414836 , -0.00110737653, -0.000138524119, -0.182688415, -0.163812861, 0.4225428   , -0.0127884187, 0.0359941944, 2.38171315  , 1.61        , 3           , 50          , 0           , 0
0.378748417 , 0.134372443 , -9.780195   , 7.886225E-05, -0.00217231642, 0.000418668118, -0.182688415, -0.163745448, 0.422745049 , -0.01278747 , 0.03597253  , 2.381718    , 1.62        , 3           , 11          , 0.008309992 , 0.008310006
0.367374539 , 0.121517181 , -9.80881    , -0.00034342843, -0.00231596082, 0.00154662575, -0.182621   , -0.163880274, 0.422610223 , -0.0127903363, 0.0359495766, 2.38173318  , 1.63        , 3           , 12          , 0.0404107124, 0
0.348074615 , 0.104549818 , -9.795017   , -0.00162359176, -0.0005647764, 0.0006251648, -0.182621   , -0.163880274, 0.422610223 , -0.0128063466, 0.0359440036, 2.38173985  , 1.64        , 3           , 50          , 0           , 0
0.362013161 , 0.135922566 , -9.780317   , -0.0009866152, -0.0008420436, 0.0008395971, -0.182553589, -0.163880274, 0.4224754   , -0.0128159067, 0.0359356925, 2.38174844  , 1.65        , 3           , 11          , 0.008309992 , 0.008310006
0.36556524  , 0.12912789  , -9.784838   , 0.00211409968, 0.000164438679, -0.00105152582, -0.182890654, -0.1640151  , 0.422610223 , -0.0127951419, 0.0359371975, 2.381738    , 1.66        , 3           , 12          , 0.0404107124, 0
0.353304476 , 0.1265645   , -9.784942   , 0.00196472625, 0.00185287534, -0.000696408737, -0.182553589, -0.163745448, 0.4225428   , -0.0127757536, 0.0359556377, 2.38173032  , 1.67        , 3           , 50          , 0           , 0
0.354349971 , 0.1342552   , -9.79439449 , 0.00268274266, -0.000465259654, 8.028155E-05, -0.182553589, -0.163745448, 0.4225428   , -0.0127488943, 0.0359509923, 2.38173127  , 1.68        , 3           , 11          , 0.008309992 , 0.008310006
0.340542525 , 0.126645312 , -9.7647     , 0.000922620529, -0.00160345971, -0.00084793166, -0.182890654, -0.163947687, 0.422340572 , -0.0127399666, 0.03593485  , 2.38172317  , 1.69        , 3           , 12          , 0.0404107124, 0
0.3497458   , 0.1320148   , -9.783138   , -0.000434361631, -0.000367991743, 0.000913783733, -0.182688415, -0.163947687, 0.422677636 , -0.0127569344, 0.035989996 , 2.38173223  , 1.7         , 3           , 50          , 0           , 0
0.3605059   , 0.121088326 , -9.791689   , 0.0008342642, 6.294973E-05, 0.000567188836, -0.182755828, -0.163812861, 0.422610223 , -0.0127483867, 0.0359907076, 2.381738    , 1.71        , 3           , 11          , 0.00827739853, 0.008277415
0.333720356 , 0.120897874 , -9.776076   , 0.00069659506, -0.0005715248, 0.00127189781, -0.182755828, -0.163812861, 0.422610223 , -0.0127409613, 0.0359851457, 2.38175035  , 1.72        , 3           , 12          , 0.04112781  , 0
0.354879618 , 0.1022491   , -9.805371   , 0.0002724246, -0.000574392267, 0.000351675728, -0.182688415, -0.163678035, 0.422677636 , -0.0127381058, 0.035979446 , 2.38175416  , 1.73        , 3           , 50          , 0           , 0
0.372041672 , 0.103350669 , -9.790319   , -0.00043177756, -0.000931122864, 0.000559743959, -0.182823241, -0.163678035, 0.422812462 , -0.0127422186, 0.0359702073, 2.38176     , 1.74        , 3           , 11          , 0.00827739853, 0.008277415
0.340042621 , 0.113221921 , -9.796399   , -0.00276183616, -0.00108766626, -0.00072275626, -0.182553589, -0.163812861, 0.422610223 , -0.012770093, 0.0359592363, 2.38175273  , 1.75        , 3           , 12          , 0.04112781  , 0
0.343749583 , 0.11681883  , -9.805395   , -0.00304848561, -0.000244881143, -0.0007934058, -0.182553589, -0.163812861, 0.422610223 , -0.0128008612, 0.03595669  , 2.38174462  , 1.76        , 3           , 50          , 0           , 0
0.346324742 , 0.106852554 , -9.802705   , 0.0002649023, 0.0009038235, 7.818585E-07, -0.182553589, -0.163947687, 0.4225428   , -0.0127982162, 0.0359657221, 2.38174462  , 1.77        , 3           , 11          , 0.00827739853, 0.008277415
0.370661974 , 0.132287949 , -9.802865   , 0.000486028119, -0.0009249158, 0.000422755169, -0.182958066, -0.163812861, 0.422610223 , -0.0127932  , 0.03595653  , 2.38174939  , 1.78        , 3           , 12          , 0.04112781  , 0
0.354302675 , 0.125736251 , -9.810249   , -0.00149081543, -0.001008678, 6.02564469E-05, -0.182486176, -0.163678035, 0.422677636 , -0.01280808 , 0.0359464474, 2.38174987  , 1.79        , 3           , 50          , 0           , 0
0.366266072 , 0.109311961 , -9.798474   , -0.00177724985, 0.000699118944, -0.00177224248, -0.182486176, -0.163678035, 0.422677636 , -0.0127297984, 0.03597969  , 2.381736    , 1.8         , 3           , 11          , 0.008233312 , 0.008233322
0.370869339 , 0.148078233 , -9.802798   , 0.00225604512, -0.0010334457, -0.00175618869, -0.182486176, -0.163812861, 0.4225428   , -0.0127078639, 0.0359691344, 2.381718    , 1.81        , 3           , 12          , 0.0418748334, 0
0.353870362 , 0.14093405  , -9.766347   , 0.00281867431, -0.000184921053, 0.001638197 , -0.182755828, -0.163745448, 0.422677636 , -0.0126790879, 0.03596749  , 2.38173461  , 1.82        , 3           , 50          , 0           , 0
0.340750456 , 0.1330627   , -9.794955   , 0.001684785 , 0.000652134244, 0.00163423084, -0.182621   , -0.163947687, 0.422610223 , -0.0126616545, 0.03597422  , 2.3817513   , 1.83        , 3           , 11          , 0.008233312 , 0.008233322
0.34409833  , 0.112265736 , -9.794564   , -0.00282895751, -0.0005046879, 0.000763811753, -0.182755828, -0.164217338, 0.4225428   , -0.0126896668, 0.03596927  , 2.381759    , 1.84        , 3           , 12          , 0.0418748334, 0
0.3592347   , 0.08777271  , -9.809464   , -0.00171769853, 0.003163297 , 0.000209645645, -0.182755828, -0.164217338, 0.4225428   , -0.0127067836, 0.036000926 , 2.38176036  , 1.85        , 3           , 50          , 0           , 0
0.3568715   , 0.119781926 , -9.793079   , 0.001679461 , 0.00149682409, -0.000342229469, -0.182755828, -0.1640151  , 0.4225428   , -0.0126901185, 0.0360158533, 2.381757    , 1.86        , 3           , 11          , 0.008233312 , 0.008233322
0.3508134   , 0.114355579 , -9.76874    , -0.00142969587, 0.002038946 , 0.000209226855, -0.182688415, -0.163745448, 0.422879875 , -0.01270435 , 0.0360362679, 2.381759    , 1.87        , 3           , 12          , 0.0418748334, 0
0.354226738 , 0.12388929  , -9.797603   , -0.00310499268, -0.00163285411, 0.00217344658, -0.182621   , -0.163745448, 0.4225428   , -0.01273461 , 0.0360202119, 2.38178086  , 1.88        , 3           , 50          , 0           , 0
0.3402788   , 0.135284469 , -9.783197   , -0.00167169643, -0.00612835167, 0.000195325832, -0.182621   , -0.163745448, 0.4225428   , -0.0127512272, 0.03595896  , 2.38178325  , 1.89        , 3           , 11          , 0.008233312 , 0.008233322
0.36198014  , 0.134110391 , -9.778065   , -0.003638238, -0.000233631843, 0.00104421482, -0.182621   , -0.163880274, 0.422407985 , -0.0127354357, 0.0359504856, 2.38179612  , 1.9         , 3           , 12          , 0.04264989  , 0
0.3723164   , 0.124551766 , -9.789326   , -0.00166575855, 0.00062443153, 0.0004896602, -0.182755828, -0.163947687, 0.422677636 , -0.0127519211, 0.03595679  , 2.381801    , 1.91        , 3           , 50          , 0           , 0
0.364429355 , 0.107527107 , -9.798043   , -0.00139799865, 0.00316041731, -0.00317810453, -0.182351351, -0.164149925, 0.422610223 , -0.0127670588, 0.03598798  , 2.38176847  , 1.92        , 3           , 11          , 0.008177308 , 0.00817732047
0.336352468 , 0.112316772 , -9.782871   , -0.00194211991, -0.000503736432, 0.00133422  , -0.182351351, -0.164149925, 0.422610223 , -0.0127859963, 0.03598312  , 2.38178182  , 1.93        , 3           , 12          , 0.04264989  , 0
0.332778484 , 0.114630185 , -9.787409   , -0.00250704749, -0.0007891285, -0.001211685, -0.182553589, -0.163745448, 0.422610223 , -0.0128114978, 0.0359750651, 2.38176942  , 1.94        , 3           , 50          , 0           , 0
0.35185945  , 0.112673372 , -9.808515   , 0.001713279 , 0.00261830539, -5.65738046E-05, -0.182553589, -0.163880274, 0.422677636 , -0.0127943959, 0.03600123  , 2.381769    , 1.95        , 3           , 11          , 0.008177308 , 0.00817732047
0.3838958   , 0.110420294 , -9.787035   , -0.000549576071, 0.00316615263, -0.0011963913, -0.182688415, -0.163947687, 0.422407985 , -0.0128003359, 0.0360327438, 2.38175654  , 1.96        , 3           , 12          , 0.04264989  , 0
0.3654678   , 0.09073691  , -9.773699   , 0.00115121342, 0.002051355 , -6.007554E-05, -0.182688415, -0.163947687, 0.422407985 , -0.0127888536, 0.03605324  , 2.38175559  , 1.97        , 3           , 50          , 0           , 0
0.339208782 , 0.119539596 , -9.793667   , 0.00144012086, 0.0006454373, -0.000908540736, -0.182688415, -0.164149925, 0.4225428   , -0.0127747841, 0.03605958  , 2.38174653  , 1.98        , 3           , 11          , 0.008177308 , 0.00817732047
0.362375855 , 0.1300417   , -9.777175   , 0.00059685926, -0.00020498861, -0.00119633088, -0.182688415, -0.164149925, 0.4225428   , -0.0127692474, 0.03605737  , 2.38173461  , 1.99        , 3           , 12          , 0.04264989  , 0
0.366226554 , 0.108833581 , -9.790341   , -0.00070995983, -0.00102581922, 0.00106011285, -0.182755828, -0.1640151  , 0.4224754   , -0.0126389833, 0.03609311  , 2.38175035  , 2           , 3           , 50          , 0           , 0
0.353941232 , 0.105803937 , -9.785928   , -0.0009826287, -0.00299868453, 0.00105575845, -0.182755828, -0.1640151  , 0.4224754   , -0.0126484139, 0.0360632539, 2.38176084  , 2.01        , 3           , 11          , 0.008115015 , 0.008115026
0.3718519   , 0.126332968 , -9.780733   , -0.00127070583, -0.00215590629, -0.00148709386, -0.182621   , -0.1640151  , 0.422407985 , -0.0126616471, 0.0360415056, 2.38174653  , 2.02        , 3           , 12          , 0.0434511341, 0
0.3451504   , 0.121300787 , -9.801297   , 0.00351308053, 0.00153691217, -0.0003289149, -0.182553589, -0.164149925, 0.422677636 , -0.0126266405, 0.03605683  , 2.38174272  , 2.03        , 3           , 50          , 0           , 0
0.349051565 , 0.110399619 , -9.793629   , 0.00182253867, 0.000680756348, -0.0006206558, -0.182621   , -0.164082512, 0.422677636 , -0.0126086446, 0.0360635668, 2.381737    , 2.04        , 3           , 11          , 0.008115015 , 0.008115026
0.3729458   , 0.106463328 , -9.779903   , 0.00042246122, -0.00186288147, -0.00147875841, -0.182621   , -0.164082512, 0.422677636 , -0.0126049435, 0.03604475  , 2.38172221  , 2.05        , 3           , 12          , 0.0434511341, 0
0.356745929 , 0.106289715 , -9.805792   , 0.00578692462, -0.00126345642, 0.000524893461, -0.182486176, -0.163947687, 0.422677636 , -0.01254688 , 0.036032185 , 2.38172746  , 2.06        , 3           , 50          , 0           , 0
0.344654381 , 0.120824717 , -9.792264   , -0.00154797151, -0.00300250668, 0.000205512086, -0.182688415, -0.163812861, 0.4225428   , -0.0125622721, 0.0360021926, 2.38173032  , 2.07        , 3           , 11          , 0.008115015 , 0.008115026
0.337581754 , 0.136671335 , -9.783666   , -0.003532256, -0.00160805264, -0.000366611523, -0.182621   , -0.163812861, 0.422745049 , -0.01259772 , 0.0359860733, 2.3817265   , 2.08        , 3           , 12          , 0.0434511341, 0
0.364017755 , 0.145431414 , -9.796986   , -0.0007057778, -0.00187051436, 0.00105881109, -0.182553589, -0.163947687, 0.422677636 , -0.0126043884, 0.0359675   , 2.38173747  , 2.09        , 3           , 50          , 0           , 0
0.369077682 , 0.119176671 , -9.789824   , -0.00240390375, 0.00124299619, -0.00346403 , -0.182553589, -0.163947687, 0.422677636 , -0.012609168, 0.03601907  , 2.38170362  , 2.1         , 3           , 11          , 0.008038686 , 0.00803870149
0.3357213   , 0.0903063938, -9.810086   , 0.00155760557, 0.000143484882, -5.68789E-05, -0.182418764, -0.164082512, 0.422812462 , -0.0125936139, 0.036020495 , 2.38170266  , 2.11        , 3           , 12          , 0.04427681  , 0
0.34711206  , 0.09558733  , -9.809977   , 0.00127657282, -0.000139990123, -5.862977E-05, -0.182688415, -0.163880274, 0.422812462 , -0.0125808688, 0.036019098 , 2.38170218  , 2.12        , 3           , 50          , 0           , 0
0.350828767 , 0.109904543 , -9.786839   , 0.004103465 , -0.0006840214, -0.0003288658, -0.182553589, -0.163947687, 0.422610223 , -0.0125399474, 0.0360122062, 2.38169885  , 2.13        , 3           , 11          , 0.008038686 , 0.00803870149
0.360284716 , 0.109303951 , -9.775469   , -0.000428562, 0.00181950163, -0.00147618132, -0.182553589, -0.163947687, 0.422610223 , -0.0125447717, 0.0360302143, 2.381684    , 2.14        , 3           , 12          , 0.04427681  , 0
0.350772977 , 0.140136987 , -9.786713   , 0.00296678883, 0.0007161641, -0.000331963849, -0.182688415, -0.163812861, 0.422677636 , -0.0125152282, 0.036037337 , 2.38168073  , 2.15        , 3           , 50          , 0           , 0
0.3433765   , 0.126262039 , -9.794512   , 0.000145308251, 0.000133934256, -0.000346001063, -0.182688415, -0.163812861, 0.422812462 , -0.012513902, 0.0360386334, 2.381677    , 2.16        , 3           , 11          , 0.008038686 , 0.00803870149
0.3585772   , 0.110748224 , -9.79626751 , -0.00040585734, -0.00240396569, 0.00162522192, -0.182553589, -0.1640151  , 0.4224754   , -0.0125173638, 0.0360147953, 2.381694    , 2.17        , 3           , 12          , 0.04427681  , 0
0.353118926 , 0.112577312 , -9.78455    , 0.00268928544, -0.0004120093, -0.00146516645, -0.182553589, -0.1640151  , 0.4224754   , -0.0124909952, 0.0360104926, 2.38167882  , 2.18        , 3           , 50          , 0           , 0
0.3719454   , 0.106843472 , -9.755503   , 0.000426741753, 0.000698982971, 0.00276409555, -0.182553589, -0.163678035, 0.422610223 , -0.0124857333, 0.03601782  , 2.38170648  , 2.19        , 3           , 11          , 0.008038686 , 0.00803870149
0.363746375 , 0.0961871147, -9.778209   , -0.000628760841, 0.000442345365, -0.0014765244, -0.182823241, -0.163812861, 0.422879875 , -0.0123809082, 0.0360703953, 2.381696    , 2.2         , 3           , 12          , 0.0451252759, 0
0.35512507  , 0.121641055 , -9.803028   , -0.0009083997, -0.0001226947, -0.00147870928, -0.182688415, -0.163880274, 0.4224754   , -0.0123905232, 0.036069    , 2.3816812   , 2.21        , 3           , 50          , 0           , 0
0.364415973 , 0.107069895 , -9.796238   , 0.0007874665, -0.00011122867, 0.0007894921, -0.182688415, -0.163880274, 0.4224754   , -0.012382362, 0.0360679738, 2.38168931  , 2.22        , 3           , 11          , 0.007955665 , 0.007955676
0.354120851 , 0.11934     , -9.786323   , -6.55531549E-05, 0.00100930093, 0.0005047394, -0.182823241, -0.164149925, 0.422745049 , -0.01238284 , 0.0360781327, 2.381694    , 2.23        , 3           , 12          , 0.0451252759, 0
0.3403235   , 0.1326426   , -9.802644   , -0.00119124155, 0.000156965019, 0.000215632448, -0.182755828, -0.163745448, 0.422677636 , -0.0123946732, 0.0360797234, 2.381696    , 2.24        , 3           , 50          , 0           , 0
0.35996747  , 0.116114341 , -9.786742   , 0.0004984848, 0.001013117 , -0.000905313937, -0.182553589, -0.163880274, 0.422677636 , -0.01239002 , 0.0360897444, 2.381687    , 2.25        , 3           , 11          , 0.007955665 , 0.007955676
0.3565591   , 0.133291557 , -9.783986   , -0.00147965946, 0.00156288524, 0.00191171  , -0.182553589, -0.163880274, 0.422677636 , -0.0124041336, 0.0361056067, 2.381706    , 2.26        , 3           , 12          , 0.0451252759, 0
0.361222029 , 0.109319016 , -9.783145   , -0.00174666347, -0.001817812, -0.0003551137, -0.182621   , -0.163880274, 0.422610223 , -0.0124217188, 0.0360873826, 2.38170266  , 2.27        , 3           , 50          , 0           , 0
0.3605004   , 0.123761967 , -9.781735   , -0.00118812732, -0.00040616357, 0.0007798396, -0.182890654, -0.163880274, 0.4225428   , -0.0124333156, 0.03608342  , 2.38171029  , 2.28        , 3           , 11          , 0.007955665 , 0.007955676
0.349224925 , 0.123037905 , -9.795383   , -0.00203155214, -0.00125659036, 0.000209511956, -0.182621   , -0.164149925, 0.422879875 , -0.0124535505, 0.03607088  , 2.38171315  , 2.29        , 3           , 12          , 0.0451252759, 0
0.3448559   , 0.138842061 , -9.783601   , 0.00193321728, 0.00161133416, -0.0008966301, -0.182621   , -0.164149925, 0.422879875 , -0.012395395, 0.0361262336, 2.38170457  , 2.3         , 3           , 50          , 0           , 0
0.358072937 , 0.106694683 , -9.79674    , 0.00194936711, -0.00148587744, 0.0005112838, -0.182553589, -0.163880274, 0.422407985 , -0.01237571 , 0.03611144  , 2.38171029  , 2.31        , 3           , 11          , 0.007867695 , 0.007867708
0.364662856 , 0.08815101  , -9.806709   , -0.001161673, -0.000662193052, 0.000215561886, -0.182688415, -0.163947687, 0.422745049 , -0.012387244, 0.036104843 , 2.3817122   , 2.32        , 3           , 12          , 0.0459949523, 0
0.350271642 , 0.104915425 , -9.777371   , 0.00109462731, -8.378457E-05, -0.00033810953, -0.182688415, -0.163812861, 0.422677636 , -0.0123764183, 0.0361039639, 2.38170934  , 2.33        , 3           , 50          , 0           , 0
0.36061582  , 0.0984876454, -9.780483   , 0.00165825011, 0.000201601142, -5.250423E-05, -0.182486176, -0.163947687, 0.4224754   , -0.0123598566, 0.0361059755, 2.38170838  , 2.34        , 3           , 11          , 0.007867695 , 0.007867708
0.346132457 , 0.104018643 , -9.76475048 , -0.00171693182, -0.00263696932, -7.26467842E-05, -0.182486176, -0.163947687, 0.4224754   , -0.0123770395, 0.036079593 , 2.38170838  , 2.35        , 3           , 12          , 0.0459949523, 0
0.337477863 , 0.127213791 , -9.788676   , 0.00223318837, -0.00176553265, 0.0005121668, -0.182553589, -0.163812861, 0.4224754   , -0.0123545136, 0.0360620059, 2.38171363  , 2.36        , 3           , 50          , 0           , 0
0.35871473  , 0.1304991   , -9.766353   , -2.86737341E-05, -0.00178082427, -0.00373643055, -0.182486176, -0.163880274, 0.4230147   , -0.0123561416, 0.0360437445, 2.381677    , 2.37        , 3           , 11          , 0.007867695 , 0.007867708
0.362817    , 0.13449043  , -9.759977   , -0.00171463308, -0.00320010167, -0.000921127154, -0.182553589, -0.163812861, 0.422610223 , -0.0123736048, 0.03601162  , 2.38166785  , 2.38        , 3           , 12          , 0.0459949523, 0
0.3606304   , 0.130562484 , -9.79165    , -0.0003206211, 0.000469794119, -0.0009089014, -0.182553589, -0.163812861, 0.422610223 , -0.01237714 , 0.0360162072, 2.38165879  , 2.39        , 3           , 50          , 0           , 0
0.358270049 , 0.123815745 , -9.789887   , -0.004266336, 0.000189058133, -7.956788E-05, -0.182688415, -0.163812861, 0.422745049 , -0.0124096125, 0.03606222  , 2.38165832  , 2.4         , 3           , 11          , 0.00777544361, 0.00777545571
0.355764329 , 0.109363154 , -9.777311   , 0.001100841 , -5.621905E-05, -0.000620055, -0.182553589, -0.163947687, 0.422879875 , -0.0123988315, 0.03606158  , 2.381652    , 2.41        , 3           , 12          , 0.0468843468, 0
0.3718835   , 0.12368048  , -9.797016   , -0.000289241027, -0.00428923965, 0.0013446135, -0.182755828, -0.164082512, 0.422610223 , -0.0124012185, 0.03601886  , 2.38166642  , 2.42        , 3           , 50          , 0           , 0
0.336618155 , 0.131278738 , -9.786859   , 0.00307241618, 0.00108341174, -0.000326563284, -0.182755828, -0.164082512, 0.422610223 , -0.0123706181, 0.03602965  , 2.38166261  , 2.43        , 3           , 11          , 0.00777544361, 0.00777545571
0.33856684  , 0.108232863 , -9.783775   , 0.00137219019, 0.00247978372, 0.00192800444, -0.182553589, -0.164082512, 0.422677636 , -0.0123562124, 0.0360546857, 2.38168168  , 2.44        , 3           , 12          , 0.0468843468, 0
0.362152338 , 0.107543088 , -9.794897   , 0.00024888906, 0.0007827439, -0.00147031655, -0.182621   , -0.163947687, 0.422610223 , -0.0123542557, 0.03606233  , 2.38166642  , 2.45        , 3           , 50          , 0           , 0
0.373325884 , 0.133998662 , -9.784307   , -0.00171859271, -0.000920010963, 0.0004956235, -0.182890654, -0.164149925, 0.4225428   , -0.01237126 , 0.03605319  , 2.38167214  , 2.46        , 3           , 11          , 0.00777544361, 0.00777545571
0.3538369   , 0.135997087 , -9.774052   , -0.00142517674, -0.00317062181, 0.000210931466, -0.182890654, -0.164149925, 0.4225428   , -0.01238542 , 0.0360215046, 2.381674    , 2.47        , 3           , 12          , 0.0468843468, 0
0.354158252 , 0.114460468 , -9.8112     , -0.0003188414, 0.0016236254, 0.0007886512, -0.182755828, -0.163880274, 0.4224754   , -0.0123883309, 0.03603784  , 2.38168168  , 2.48        , 3           , 50          , 0           , 0
0.358151168 , 0.111667946 , -9.799883   , 0.00137769186, 0.00107195124, -0.00061700237, -0.182621   , -0.163947687, 0.4224754   , -0.012374782, 0.0360484831, 2.381676    , 2.49        , 3           , 11          , 0.00777544361, 0.00777545571
0.3438302   , 0.127596572 , -9.790434   , 0.005057    , 0.001969852 , 0.00109740079, -0.182755828, -0.163880274, 0.422610223 , -0.012305581, 0.03611548  , 2.3816874   , 2.5         , 3           , 12          , 0.04779206  , 0
0.349852443 , 0.104947969 , -9.785511   , -0.00115081377, 0.0008015725, 0.00106669252, -0.182755828, -0.163880274, 0.422610223 , -0.0123167075, 0.0361236259, 2.381698    , 2.51        , 3           , 50          , 0           , 0
0.3586613   , 0.0885729939, -9.777375   , -0.0031218105, -0.0006196275, -0.000639920356, -0.182688415, -0.163880274, 0.4224754   , -0.0123481555, 0.0361173525, 2.38169122  , 2.52        , 3           , 11          , 0.00768036954, 0.00768037746
0.3520884   , 0.104898721 , -9.778714   , -0.00199259259, -0.000611989934, -0.00148226507, -0.182890654, -0.163745448, 0.422745049 , -0.0123686157, 0.0361110531, 2.381677    , 2.53        , 3           , 12          , 0.04779206  , 0
0.35714066  , 0.108469106 , -9.784536   , 0.00139750831, -0.000589065661, 0.0002287628, -0.182755828, -0.163947687, 0.422677636 , -0.0123545527, 0.0361051969, 2.38167882  , 2.54        , 3           , 50          , 0           , 0
0.3691896   , 0.126855314 , -9.792504   , -0.00142462447, -0.00117129856, -0.0009154242, -0.182621   , -0.164082512, 0.4225428   , -0.0123691233, 0.036093358 , 2.38167024  , 2.55        , 3           , 11          , 0.00768036954, 0.00768037746
0.37111178  , 0.135851026 , -9.790644   , -0.002852419, 0.00191636593, -0.00148231047, -0.182621   , -0.164082512, 0.4225428   , -0.0123981936, 0.0361123458, 2.381655    , 2.56        , 3           , 12          , 0.04779206  , 0
0.358394146 , 0.132843316 , -9.791204   , -0.0005751343, -0.00144712953, 0.00050078  , -0.182755828, -0.163947687, 0.422677636 , -0.0124037564, 0.0360979363, 2.38166022  , 2.57        , 3           , 50          , 0           , 0
0.370815635 , 0.11597164  , -9.782141   , 0.00111663854, -0.0008725399, 0.000509549456, -0.182755828, -0.164082512, 0.422677636 , -0.0123924045, 0.036089275 , 2.38166547  , 2.58        , 3           , 11          , 0.00768036954, 0.00768037746
0.3572334   , 0.110329643 , -9.80125    , 0.0008246169, 0.0010965066, 0.0007938076, -0.182418764, -0.1640151  , 0.422677636 , -0.0123838745, 0.03610034  , 2.381673    , 2.59        , 3           , 12          , 0.04779206  , 0
0.341791719 , 0.117613904 , -9.766989   , 0.00225087814, 0.003412084 , -0.0008897741, -0.182418764, -0.1640151  , 0.422677636 , -0.0123163657, 0.03622667  , 2.38166547  , 2.6         , 3           , 50          , 0           , 0
0.360934258 , 0.1232949   , -9.778571   , 0.000855798251, 2.37548375E-05, -0.000336491066, -0.182688415, -0.163812861, 0.422745049 , -0.0123079307, 0.0362268649, 2.38166165  , 2.61        , 3           , 11          , 0.007583897 , 0.007583903
0.351529568 , 0.12259797  , -9.806668   , 0.00112756249, 0.00227818778, 0.0005159096, -0.182823241, -0.1640151  , 0.422745049 , -0.0122964792, 0.0362497158, 2.381667    , 2.62        , 3           , 12          , 0.04871677  , 0
0.345502377 , 0.118535653 , -9.785488   , 1.36044328E-05, -0.00110823778, -0.00118979008, -0.182688415, -0.164082512, 0.422610223 , -0.012296766, 0.0362384841, 2.381655    , 2.63        , 3           , 50          , 0           , 0
0.356149167 , 0.105732009 , -9.772352   , -0.0005551937, 1.42104682E-05, 0.00163468649, -0.182688415, -0.164082512, 0.422610223 , -0.0123017253, 0.0362388231, 2.38167119  , 2.64        , 3           , 11          , 0.007583897 , 0.007583903
0.356777757 , 0.116581529 , -9.780437   , 0.00141900615, 0.0005907103, 0.00164477306, -0.182688415, -0.163947687, 0.422610223 , -0.0122869425, 0.0362449326, 2.38168788  , 2.65        , 3           , 12          , 0.04871677  , 0
0.36456573  , 0.120581761 , -9.789401   , -0.00251577981, -0.00337794167, 0.00105518568, -0.182890654, -0.163947687, 0.422745049 , -0.0123117045, 0.036211282 , 2.38169885  , 2.66        , 3           , 50          , 0           , 0
0.366524339 , 0.09575851  , -9.79446    , -0.00139000232, -0.00280717714, -0.0009164409, -0.182553589, -0.163947687, 0.4225428   , -0.0123259211, 0.0361830965, 2.38169026  , 2.67        , 3           , 11          , 0.007583897 , 0.007583903
0.359357983 , 0.136004344 , -9.795253   , 0.000857770559, -0.0005393794, -0.0017500465, -0.182553589, -0.163947687, 0.4225428   , -0.0123179769, 0.0361774862, 2.38167214  , 2.68        , 3           , 12          , 0.04871677  , 0
0.344597578 , 0.149717316 , -9.796212   , -0.0005523169, -0.0008304912, -0.000626915, -0.182755828, -0.164149925, 0.422677636 , -0.0123237241, 0.036169108 , 2.38166642  , 2.69        , 3           , 50          , 0           , 0
0.3406303   , 0.129394546 , -9.777344   , 0.002531151 , 0.0008958812, -0.000327630434, -0.182823241, -0.163610622, 0.422610223 , -0.0123254424, 0.03620657  , 2.38166165  , 2.7         , 3           , 11          , 0.00748680672, 0.0074868123
0.359056056 , 0.118352011 , -9.778152   , 0.00112787  , -0.0008030568, 0.00051079347, -0.182621   , -0.163880274, 0.422745049 , -0.0123139778, 0.03619861  , 2.38166738  , 2.71        , 3           , 12          , 0.049657248 , 0
0.378076524 , 0.12036334  , -9.771671   , 5.45911462E-06, -0.0022185205, 0.00106843107, -0.182621   , -0.163880274, 0.422745049 , -0.0123135252, 0.0361765549, 2.38167787  , 2.72        , 3           , 50          , 0           , 0
0.3684431   , 0.1051978   , -9.790339   , -0.000277457177, -0.00222043274, 0.000219501657, -0.182486176, -0.163947687, 0.422677636 , -0.0123162083, 0.0361543745, 2.38168073  , 2.73        , 3           , 11          , 0.00748680672, 0.0074868123
0.344465554 , 0.145146847 , -9.77860451 , 0.00337327039, 0.00174630177, -0.00201760279, -0.182486176, -0.163947687, 0.4224754   , -0.0122832144, 0.0361715853, 2.38166022  , 2.74        , 3           , 12          , 0.049657248 , 0
0.3546612   , 0.124315493 , -9.791721   , 0.00282268319, -0.00107316743, -0.0014595011, -0.182486176, -0.163880274, 0.422610223 , -0.01225551 , 0.0361606777, 2.38164544  , 2.75        , 3           , 50          , 0           , 0
0.360112756 , 0.118463829 , -9.81475449 , 0.00168542739, 0.000608587055, -4.94776941E-05, -0.182486176, -0.163880274, 0.422610223 , -0.0122386776, 0.0361667573, 2.38164544  , 2.76        , 3           , 11          , 0.00748680672, 0.0074868123
0.355270028 , 0.131131858 , -9.80796    , 0.005059867 , 0.00372872618, 0.00110124843, -0.182621   , -0.163947687, 0.422610223 , -0.0121876961, 0.03620418  , 2.381656    , 2.77        , 3           , 12          , 0.049657248 , 0
0.3522055   , 0.10945709  , -9.792706   , -2.37261556E-05, 0.003412775 , -0.00118318992, -0.182755828, -0.163812861, 0.422745049 , -0.0121883778, 0.03623816  , 2.38164353  , 2.78        , 3           , 50          , 0           , 0
0.352816939 , 0.119846396 , -9.79808    , 0.000270668417, 0.0011621681, 0.000227342738, -0.182688415, -0.163812861, 0.422812462 , -0.0121855941, 0.03624981  , 2.38164544  , 2.79        , 3           , 11          , 0.00748680672, 0.0074868123
0.365108848 , 0.124220423 , -9.799778   , 0.000254682585, 0.00144829927, 0.00248757866, -0.182621   , -0.164082512, 0.4225428   , -0.0122116432, 0.0362730324, 2.38166928  , 2.8         , 3           , 12          , 0.05061232  , 0
0.348970979 , 0.109888    , -9.775554   , -0.00200784625, 0.00199614838, 0.00191283587, -0.182621   , -0.164082512, 0.4225428   , -0.0122310389, 0.03629323  , 2.38168836  , 2.81        , 3           , 50          , 0           , 0
0.333221823 , 0.119527057 , -9.769306   , 0.00251713744, 0.000618878461, 0.000519049645, -0.182755828, -0.163880274, 0.422610223 , -0.0122056818, 0.036299482 , 2.38169312  , 2.82        , 3           , 11          , 0.00738980062, 0.007389803
0.3367857   , 0.138556123 , -9.804455   , 0.000250752521, 0.002011424 , 0.000510683865, -0.182755828, -0.163812861, 0.422610223 , -0.012203   , 0.03631966  , 2.38169837  , 2.83        , 3           , 12          , 0.05061232  , 0
0.34946698  , 0.135285512 , -9.815218   , -0.00199971977, 2.518494E-05, -0.0009155764, -0.182553589, -0.164217338, 0.4224754   , -0.0122233285, 0.0363198034, 2.38168931  , 2.84        , 3           , 50          , 0           , 0
0.34999764  , 0.112207204 , -9.797683   , -0.00144511356, 0.001999958 , -0.00175751746, -0.182553589, -0.164217338, 0.4224754   , -0.01223843 , 0.0363395847, 2.38167119  , 2.85        , 3           , 11          , 0.00738980062, 0.007389803
0.3330216   , 0.0957082659, -9.796977   , 0.00279612374, 0.00118391542, -0.00060891523, -0.182621   , -0.163880274, 0.422610223 , -0.012210696, 0.0363513529, 2.381665    , 2.86        , 3           , 12          , 0.05061232  , 0
0.345211565 , 0.10089238  , -9.771099   , -0.000297699356, -0.00137117808, -6.223195E-05, -0.182755828, -0.164082512, 0.422812462 , -0.0122136893, 0.03633763  , 2.38166451  , 2.87        , 3           , 50          , 0           , 0
0.346977651 , 0.135575771 , -9.759191   , 0.00111353  , -0.00108006108, 0.000792398932, -0.182553589, -0.163947687, 0.4225428   , -0.0122022638, 0.0363269337, 2.38167214  , 2.88        , 3           , 11          , 0.00738980062, 0.007389803
0.354094267 , 0.123781949 , -9.765512   , 0.00252517522, -0.00107051351, -4.86286772E-05, -0.182553589, -0.163947687, 0.4225428   , -0.012177024, 0.03631622  , 2.38167214  , 2.89        , 3           , 12          , 0.05061232  , 0
0.362003624 , 0.13055864  , -9.795255   , 0.0005283663, 0.00196434581, -0.00146646961, -0.182553589, -0.163947687, 0.422677636 , -0.0121793225, 0.03624172  , 2.381657    , 2.9         , 3           , 50          , 0           , 0
0.3684479   , 0.101630926 , -9.803009   , 0.001930001 , 0.004226419 , -0.000326263456, -0.182553589, -0.163812861, 0.422879875 , -0.01216016 , 0.0362839475, 2.381653    , 2.91        , 3           , 11          , 0.00729357265, 0.00729357172
0.3586439   , 0.115265779 , -9.798056   , -2.98436989E-05, 0.000552698853, -0.00203634822, -0.182621   , -0.164082512, 0.422745049 , -0.0121612009, 0.0362892263, 2.381633    , 2.92        , 3           , 12          , 0.0515809134, 0
0.361836374 , 0.123727858 , -9.776301   , -0.0003121962, 0.000832361 , 0.000505606062, -0.182621   , -0.164082512, 0.422745049 , -0.0121641457, 0.03629761  , 2.38163781  , 2.93        , 3           , 50          , 0           , 0
0.355537325 , 0.127405435 , -9.774526   , 0.000808331359, 0.00252938736, -0.0008992099, -0.182688415, -0.163745448, 0.422340572 , -0.0121564018, 0.0363228023, 2.38162827  , 2.94        , 3           , 11          , 0.00729357265, 0.00729357172
0.338614225 , 0.111842074 , -9.78376    , -0.00255611353, -0.00228013378, 0.000772834755, -0.182553589, -0.163812861, 0.422745049 , -0.0121816723, 0.0363000967, 2.38163686  , 2.95        , 3           , 12          , 0.0515809134, 0
0.352142483 , 0.112530485 , -9.767382   , -0.001996584, -0.00143162417, -0.00120099168, -0.182621   , -0.163947687, 0.4225428   , -0.0122020682, 0.0362856351, 2.38162446  , 2.96        , 3           , 50          , 0           , 0
0.359279752 , 0.0958435461, -9.794517   , 0.000262504327, -0.00141634583, -0.0017555313, -0.182621   , -0.163947687, 0.4225428   , -0.0122000743, 0.0362712629, 2.38160729  , 2.97        , 3           , 11          , 0.00729357265, 0.00729357172
0.367684752 , 0.117825553 , -9.785773   , 0.000255771738, 0.000273052341, 0.001072447 , -0.182553589, -0.163880274, 0.4224754   , -0.0121971285, 0.03627412  , 2.38161778  , 2.98        , 3           , 12          , 0.0515809134, 0
0.365461856 , 0.12547332  , -9.771294   , 0.00194303633, 0.00169233617, 0.000517443346, -0.182621   , -0.163880274, 0.422745049 , -0.0121775176, 0.0362911075, 2.381623    , 2.99        , 3           , 50          , 0           , 0
0.363590747 , 0.117411666 , -9.782641   , 0.001969988 , -0.000546676456, 0.000232172941, -0.182890654, -0.1640151  , 0.422610223 , -0.0121260211, 0.0363124833, 2.38162637  , 3           , 3           , 11          , 0.007199126 , 0.00719912443
0.350397021 , 0.105463356 , -9.806295   , -0.00171008788, 0.00111788372, -6.488082E-05, -0.182890654, -0.1640151  , 0.422610223 , -0.0121431518, 0.03632365  , 2.38162541  , 3.01        , 3           , 12          , 0.05256199  , 0
0.356780946 , 0.110781565 , -9.799896   , -0.001981689, -0.00113654858, -0.0006347442, -0.182621   , -0.1640151  , 0.422407985 , -0.0121631939, 0.03631221  , 2.38161969  , 3.02        , 3           , 50          , 0           , 0
0.350790262 , 0.110766    , -9.7746315  , -0.001976276, -0.00226280955, -0.0009190175, -0.182553589, -0.163745448, 0.422745049 , -0.0121832816, 0.0362894833, 2.38161063  , 3.03        , 3           , 11          , 0.007199126 , 0.00719912443
0.339209139 , 0.119986214 , -9.792309   , 0.00224904879, 0.0002999327, 0.00164747925, -0.182755828, -0.163812861, 0.422745049 , -0.0121601932, 0.03629268  , 2.38162732  , 3.04        , 3           , 12          , 0.05256199  , 0
0.355335951 , 0.1147445   , -9.765992   , -0.0005785713, 0.0005623887, -0.00175570592, -0.182755828, -0.164352164, 0.422610223 , -0.0121666193, 0.036298085 , 2.3816092   , 3.05        , 3           , 50          , 0           , 0
0.348141253 , 0.116655312 , -9.77236748 , -0.00225452078, -0.00310941483, -0.0009216362, -0.182755828, -0.164352164, 0.422610223 , -0.0121894879, 0.036266882 , 2.38160062  , 3.06        , 3           , 11          , 0.007199126 , 0.00719912443
0.340384036 , 0.103753015 , -9.7996     , -0.000561932044, -0.002534821, 0.0004998205, -0.182621   , -0.1640151  , 0.4225428   , -0.0121949138, 0.0362416022, 2.38160586  , 3.07        , 3           , 12          , 0.05256199  , 0
0.3470618   , 0.0982246846, -9.789175   , 0.00393524533, 0.002000783 , 0.00165798445, -0.182688415, -0.164149925, 0.422812462 , -0.0121549685, 0.0362618081, 2.38162255  , 3.08        , 3           , 50          , 0           , 0
0.342684716 , 0.105541624 , -9.802738   , 0.003668241 , -0.00137991412, -0.000608839444, -0.182621   , -0.164082512, 0.422745049 , -0.0121185025, 0.03624794  , 2.38161588  , 3.09        , 3           , 11          , 0.007199126 , 0.00719912443
0.337553352 , 0.125935927 , -9.81128    , -0.0002445008, 0.0005296257, 0.000507335 , -0.182621   , -0.164082512, 0.422745049 , -0.0120174075, 0.03618224  , 2.38162541  , 3.1         , 3           , 12          , 0.0535546057, 0
0.3465488   , 0.119978264 , -9.815304   , 0.00116795953, 0.000539177156, 0.0010789946, -0.182688415, -0.163947687, 0.422610223 , -0.0120053422, 0.03618776  , 2.381636    , 3.11        , 3           , 50          , 0           , 0
0.3563718   , 0.11439307  , -9.798981   , -0.00221533421, -0.0008915735, -0.0009167405, -0.182621   , -0.163947687, 0.422610223 , -0.0120278224, 0.0361787342, 2.38162637  , 3.12        , 3           , 11          , 0.007106037 , 0.007106036
0.356899321 , 0.124714337 , -9.78401852 , -0.0016637682, 0.00192790048, 0.000220382513, -0.182351351, -0.163610622, 0.422610223 , -0.0120443888, 0.03619804  , 2.38162875  , 3.13        , 3           , 12          , 0.0535546057, 0
0.335717767 , 0.120581187 , -9.822617   , 0.00146055955, -0.00171143829, -0.000618384569, -0.182351351, -0.163610622, 0.422610223 , -0.01203    , 0.03618085  , 2.38162255  , 3.14        , 3           , 50          , 0           , 0
0.366437018 , 0.12373367  , -9.793894   , -0.00023753081, -0.0008781998, 0.0005051653, -0.182688415, -0.1640151  , 0.422677636 , -0.0120321866, 0.0361721255, 2.3816278   , 3.15        , 3           , 11          , 0.007106037 , 0.007106036
0.34742862  , 0.127981022 , -9.783174   , -0.0008121425, 0.00108893588, 0.000505569 , -0.182755828, -0.163880274, 0.422677636 , -0.012040128, 0.03618307  , 2.381633    , 3.16        , 3           , 12          , 0.0535546057, 0
0.311617434 , 0.118101574 , -9.80654    , 0.00202253647, -0.0008629169, 0.00164585072, -0.182755828, -0.163947687, 0.422610223 , -0.0120193027, 0.0361746438, 2.38164926  , 3.17        , 3           , 50          , 0           , 0
0.342199922 , 0.140262172 , -9.79401    , 0.00425792625, 0.003938968 , 0.00109868811, -0.182755828, -0.163947687, 0.422610223 , -0.0119763445, 0.0362141654, 2.38165975  , 3.18        , 3           , 11          , 0.007106037 , 0.007106036
0.354575843 , 0.112194858 , -9.809851   , 0.0008869267, 0.0002557021, 0.00107724371, -0.182688415, -0.1640151  , 0.4224754   , -0.0119670872, 0.0362168476, 2.38167071  , 3.19        , 3           , 12          , 0.0535546057, 0
0.3619795   , 0.125629246 , -9.80522    , 0.000310181 , -0.00149070006, -0.000624497654, -0.182958066, -0.163880274, 0.422677636 , -0.0120050609, 0.03608923  , 2.38166356  , 3.2         , 3           , 50          , 0           , 0
0.3531898   , 0.120222688 , -9.777286   , 0.00287342188, -0.005696984, 0.000228457939, -0.182688415, -0.163880274, 0.422677636 , -0.0119762179, 0.03603229  , 2.38166642  , 3.21        , 3           , 11          , 0.00701518543, 0.007015187
0.349580824 , 0.118044227 , -9.787718   , 0.000870926946, -0.000360612816, 0.00192270929, -0.182688415, -0.163880274, 0.422677636 , -0.0119668134, 0.0360289067, 2.3816855   , 3.22        , 3           , 12          , 0.05455787  , 0
0.3469942   , 0.13023302  , -9.780457   , 0.002842917 , 0.0004974483, 0.000520542 , -0.182688415, -0.1640151  , 0.4224754   , -0.0119381994, 0.0360339433, 2.38169074  , 3.23        , 3           , 50          , 0           , 0
0.337614864 , 0.1411617   , -9.777318   , 0.0008753609, -0.00148687838, -5.67888164E-05, -0.182755828, -0.163745448, 0.422745049 , -0.0119294589, 0.0360190757, 2.38169026  , 3.24        , 3           , 11          , 0.00701518543, 0.007015187
0.363924861 , 0.113293067 , -9.766837   , 2.17630513E-05, -8.47799238E-05, 0.00107157975, -0.182621   , -0.163812861, 0.4224754   , -0.0119288554, 0.03601835  , 2.38170123  , 3.25        , 3           , 12          , 0.05455787  , 0
0.3603361   , 0.103096686 , -9.808036   , 0.0002977981, 0.00104338641, -0.0003380548, -0.182621   , -0.163812861, 0.4224754   , -0.0119260047, 0.0360287465, 2.381698    , 3.26        , 3           , 50          , 0           , 0
0.3506965   , 0.09729951  , -9.795027   , 0.002556234 , 0.0010586615, -0.00202274439, -0.182621   , -0.163745448, 0.422340572 , -0.0119011756, 0.03603909  , 2.38167739  , 3.27        , 3           , 11          , 0.00701518543, 0.007015187
0.351495683 , 0.122124135 , -9.79989    , 0.001719201 , -0.0009180217, -0.00118212006, -0.182890654, -0.163745448, 0.4224754   , -0.0118844043, 0.03602977  , 2.38166547  , 3.28        , 3           , 12          , 0.05455787  , 0
0.3674965   , 0.105175167 , -9.780403   , 0.001984158 , 0.00274423766, -4.50120679E-05, -0.182486176, -0.163678035, 0.422745049 , -0.01186459 , 0.036057204 , 2.381665    , 3.29        , 3           , 50          , 0           , 0
0.357022762 , 0.09007319  , -9.814896   , 0.0005950002, -0.00120392127, -5.750182E-05, -0.182621   , -0.163812861, 0.422340572 , -0.0118510844, 0.0360523723, 2.38166451  , 3.3         , 3           , 11          , 0.00692513958, 0.00692513958
0.326527655 , 0.110312521 , -9.823181   , -0.00138166116, -0.00121728959, 0.0004983544, -0.182621   , -0.163812861, 0.422340572 , -0.0118647153, 0.0360402577, 2.38167024  , 3.31        , 3           , 12          , 0.055570934 , 0
0.3529927   , 0.130701229 , -9.806171   , 0.0002997011, 0.00132825272, -0.0006199883, -0.182755828, -0.163745448, 0.422610223 , -0.0118619464, 0.0360534675, 2.38166356  , 3.32        , 3           , 50          , 0           , 0
0.3460655   , 0.126654088 , -9.786353   , -0.00140280859, 0.002724614 , -0.00232094526, -0.182553589, -0.163745448, 0.4225428   , -0.0118768224, 0.03608043  , 2.38163972  , 3.33        , 3           , 11          , 0.00692513958, 0.00692513958
0.355748236 , 0.1378424   , -9.792561   , 0.000862997549, 0.001613637 , -0.000899458, -0.182351351, -0.1640151  , 0.4225428   , -0.0118685272, 0.03609646  , 2.38163114  , 3.34        , 3           , 12          , 0.055570934 , 0
0.346883833 , 0.122109279 , -9.779587   , -0.000806723256, -0.00318442378, 0.00106302567, -0.182351351, -0.1640151  , 0.4225428   , -0.0118761966, 0.0360647477, 2.38164163  , 3.35        , 3           , 50          , 0           , 0
0.355644435 , 0.131063044 , -9.788975   , -0.000267124822, 0.001887567 , 0.0007909329, -0.182688415, -0.163947687, 0.422610223 , -0.011878592, 0.03608372  , 2.38164926  , 3.36        , 3           , 11          , 0.00692513958, 0.00692513958
0.348740548 , 0.118107773 , -9.803543   , 4.53174762E-05, -0.00430495851, -0.000347446476, -0.182688415, -0.163947687, 0.422812462 , -0.0118782464, 0.0360406339, 2.38164639  , 3.37        , 3           , 12          , 0.055570934 , 0
0.3498612   , 0.106740475 , -9.781888   , 2.1619413E-05, 0.000481648429, -0.0003400696, -0.182621   , -0.164082512, 0.422677636 , -0.0118781533, 0.03604541  , 2.381643    , 3.38        , 3           , 50          , 0           , 0
0.366744071 , 0.110666156 , -9.800273   , 0.00144014531, -0.00063505827, 0.00107746653, -0.182621   , -0.164082512, 0.422677636 , -0.011863362, 0.03603919  , 2.381654    , 3.39        , 3           , 11          , 0.00692513958, 0.00692513958
0.3584746   , 0.138264686 , -9.793443   , 0.00198878045, 0.000776134664, -0.00259099435, -0.182688415, -0.163880274, 0.422677636 , -0.0118604908, 0.036045637 , 2.38162732  , 3.4         , 3           , 12          , 0.05659303  , 0
0.354483247 , 0.14820005  , -9.782131   , 0.00424917368, 0.0007914192, -0.000885233865, -0.182688415, -0.163812861, 0.422879875 , -0.0118183214, 0.03605345  , 2.38161826  , 3.41        , 3           , 50          , 0           , 0
0.361967862 , 0.1300833   , -9.788026   , 0.00227111881, 0.001059616 , -0.000328943453, -0.182621   , -0.164149925, 0.422677636 , -0.0117957341, 0.0360640027, 2.381615    , 3.42        , 3           , 11          , 0.006837754 , 0.00683775265
0.348590851 , 0.114862032 , -9.777344   , 0.00170273543, 0.00190049456, 0.000799874251, -0.182621   , -0.164149925, 0.422677636 , -0.0117784245, 0.0360831022, 2.38162255  , 3.43        , 3           , 12          , 0.05659303  , 0
0.352790326 , 0.12428835  , -9.777272   , 0.00143424864, -0.000917066471, 0.000794218 , -0.182688415, -0.163947687, 0.4225428   , -0.0117637888, 0.0360740237, 2.38163114  , 3.44        , 3           , 50          , 0           , 0
0.359880447 , 0.10934858  , -9.787224   , 0.00509629073, 0.00079714827, -0.00116382039, -0.182553589, -0.163745448, 0.4225428   , -0.0117132515, 0.0360818543, 2.38161874  , 3.45        , 3           , 11          , 0.006837754 , 0.00683775265
0.348613918 , 0.10818547  , -9.80449    , 0.0011496119, -0.000637415156, -0.0006193523, -0.182621   , -0.163812861, 0.422879875 , -0.0117019741, 0.03607541  , 2.381613    , 3.46        , 3           , 12          , 0.05659303  , 0
0.360695183 , 0.135078549 , -9.792987   , 0.000863655761, 0.0002053733, 0.0005107823, -0.182621   , -0.163812861, 0.422879875 , -0.0116931545, 0.03607752  , 2.38161778  , 3.47        , 3           , 50          , 0           , 0
0.365125835 , 0.129590392 , -9.786648   , 0.0005866419, -0.0009227979, 0.00022519214, -0.182755828, -0.163678035, 0.4224754   , -0.0116872033, 0.0360683165, 2.38162065  , 3.48        , 3           , 11          , 0.006837754 , 0.00683775265
0.310254425 , 0.127040774 , -9.776682   , 0.00311184418, 0.00219160155, -0.00201848173, -0.182688415, -0.163745448, 0.422610223 , -0.0116568217, 0.0360900052, 2.38159966  , 3.49        , 3           , 12          , 0.05659303  , 0
0.359206915 , 0.128293946 , -9.783083   , -0.00143585622, -0.0009555457, 0.000779226946, -0.182823241, -0.163880274, 0.4225428   , -0.0117774075, 0.036035493 , 2.38160443  , 3.5         , 3           , 50          , 0           , 0
0.34921065  , 0.12391904  , -9.789053   , 0.0019416241, 0.00131989224, -4.91106221E-05, -0.182621   , -0.163812861, 0.422340572 , -0.0117580155, 0.036048688 , 2.38160348  , 3.51        , 3           , 11          , 0.00675186235, 0.00675186049
0.349321425 , 0.135167569 , -9.779966   , 0.0002529655, 0.00018217371, 0.000506326731, -0.182621   , -0.163812861, 0.422340572 , -0.0117553035, 0.0360505655, 2.38160825  , 3.52        , 3           , 12          , 0.05762343  , 0
0.356063217 , 0.1279057   , -9.79079151 , 0.00166756136, -0.000371408183, -5.30311663E-05, -0.182688415, -0.1640151  , 0.422745049 , -0.011738644, 0.03604684  , 2.38160825  , 3.53        , 3           , 50          , 0           , 0
0.363246    , 0.08722686  , -9.795424   , -2.45379124E-05, -0.0009459998, -0.0006268756, -0.182621   , -0.163812861, 0.422610223 , -0.0117391106, 0.0360373147, 2.381602    , 3.54        , 3           , 11          , 0.00675186235, 0.00675186049
0.386728227 , 0.118070073 , -9.790598   , 0.00361273857, 0.005836388 , -0.00201202836, -0.182486176, -0.163947687, 0.4225428   , -0.0117037334, 0.0360954367, 2.38158154  , 3.55        , 3           , 12          , 0.05762343  , 0
0.378764451 , 0.138402551 , -9.771139   , -0.0003299214, 0.00355712883, -0.0017513996, -0.182486176, -0.163947687, 0.4225428   , -0.0117076794, 0.0361307971, 2.38156343  , 3.56        , 3           , 50          , 0           , 0
0.347522378 , 0.0986720249, -9.789622   , 0.00166567788, -8.984539E-05, -0.000900209765, -0.182755828, -0.163947687, 0.422677636 , -0.0116913458, 0.03612979  , 2.38155437  , 3.57        , 3           , 11          , 0.00675186235, 0.00675186049
0.343852937 , 0.09287378  , -9.79690552 , 0.000241813454, 0.00243469421, 0.000509798236, -0.182755828, -0.1640151  , 0.422812462 , -0.0116887521, 0.0361541919, 2.38155913  , 3.58        , 3           , 12          , 0.05762343  , 0
0.3783306   , 0.128603488 , -9.807342   , -0.000859687454, -0.00320424559, 0.00106092682, -0.182351351, -0.163610622, 0.4225428   , -0.0116969524, 0.0361222774, 2.38157     , 3.59        , 3           , 50          , 0           , 0
0.343664169 , 0.152383447 , -9.780841   , -0.0008897918, 0.000484902528, -0.000346267625, -0.182351351, -0.163610622, 0.4225428   , -0.0117327133, 0.036195904 , 2.38156533  , 3.6         , 3           , 11          , 0.006669148 , 0.00666914228
0.345775455 , 0.112582222 , -9.760651   , -0.00116385461, -0.00120639789, -0.000350188173, -0.182553589, -0.163812861, 0.422407985 , -0.0117444722, 0.0361837931, 2.381562    , 3.61        , 3           , 12          , 0.0586614423, 0
0.351598173 , 0.1021956   , -9.778277   , 0.0013720846, -6.294937E-05, -0.0009016751, -0.182621   , -0.1640151  , 0.422610223 , -0.0117310761, 0.03618306  , 2.381553    , 3.62        , 3           , 50          , 0           , 0
0.351884246 , 0.118496031 , -9.795834   , 0.00136855512, 0.0007817489, 0.0002297765, -0.182418764, -0.163947687, 0.422677636 , -0.01171731 , 0.03619091  , 2.38155532  , 3.63        , 3           , 11          , 0.006669148 , 0.00666914228
0.329468668 , 0.1287627   , -9.81856251 , -0.000320593, -0.000355971977, -6.23980741E-05, -0.182418764, -0.163947687, 0.422677636 , -0.0117205372, 0.03618734  , 2.38155484  , 3.64        , 3           , 12          , 0.0586614423, 0
0.352634758 , 0.105415605 , -9.799951   , 0.00137306342, -6.294472E-05, 0.0007935497, -0.182553589, -0.163947687, 0.422745049 , -0.0117065171, 0.0361868031, 2.38156247  , 3.65        , 3           , 50          , 0           , 0
0.350149423 , 0.131076932 , -9.7741     , 0.002489157 , 0.00276034768, 0.00136823172, -0.182890654, -0.1640151  , 0.4225428   , -0.0116811413, 0.036214564 , 2.38157582  , 3.66        , 3           , 11          , 0.006669148 , 0.00666914228
0.350353539 , 0.142401069 , -9.787611   , -0.00173551508, 0.0001976083, -6.811488E-05, -0.182486176, -0.164217338, 0.4225428   , -0.0116985217, 0.03621653  , 2.38157535  , 3.67        , 3           , 12          , 0.0586614423, 0
0.361607254 , 0.1337341   , -9.798861   , 0.00305319531, 0.00276416377, -4.18215932E-05, -0.182486176, -0.164217338, 0.4225428   , -0.0116680162, 0.03624416  , 2.38157487  , 3.68        , 3           , 50          , 0           , 0
0.3373427   , 0.113267422 , -9.800487   , 0.00363542861, -0.0006107944, 0.00108575472, -0.182688415, -0.164082512, 0.422273159 , -0.0116312662, 0.0362381823, 2.38158536  , 3.69        , 3           , 11          , 0.006669148 , 0.00666914228
0.34828347  , 0.119895026 , -9.796761   , 0.0007825691, -0.00290320721, -0.0009102425, -0.182418764, -0.163947687, 0.4225428   , -0.0117187751, 0.0361578949, 2.38157344  , 3.7         , 3           , 12          , 0.05970644  , 0
0.354704767 , 0.12524347  , -9.7994     , -0.0009209341, -0.0009437079, 0.0004975806, -0.182823241, -0.163812861, 0.422677636 , -0.0117278025, 0.03614852  , 2.38157868  , 3.71        , 3           , 50          , 0           , 0
0.359749347 , 0.138627321 , -9.771735   , 0.001903171 , -0.0009246089, 0.000228212491, -0.182823241, -0.163812861, 0.422677636 , -0.0117086824, 0.0361393   , 2.381581    , 3.72        , 3           , 11          , 0.00658801943, 0.006588012
0.3680063   , 0.116821185 , -9.756847   , 0.00247171754, -0.00176548644, -0.0006180677, -0.182553589, -0.163880274, 0.4224754   , -0.01168418 , 0.0361215658, 2.38157487  , 3.73        , 3           , 12          , 0.05970644  , 0
0.364569664 , 0.125941142 , -9.773108   , 0.000771654537, -0.00036911387, 0.00191903766, -0.182755828, -0.163880274, 0.422610223 , -0.0116757685, 0.0361180976, 2.38159442  , 3.74        , 3           , 50          , 0           , 0
0.375312448 , 0.1091981   , -9.796145   , -0.00204645935, -0.00179604266, 0.0004910111, -0.182621   , -0.163610622, 0.422879875 , -0.0116960481, 0.0361001939, 2.38159966  , 3.75        , 3           , 11          , 0.00658801943, 0.006588012
0.380932063 , 0.12401472  , -9.793781   , 0.000196968584, 0.0013164496, -0.0006238299, -0.182553589, -0.163947687, 0.4224754   , -0.0116943093, 0.036113292 , 2.381593    , 3.76        , 3           , 12          , 0.05970644  , 0
0.3475734   , 0.134793639 , -9.796704   , 0.00358855212, 0.0007762376, -0.00117396947, -0.182553589, -0.163947687, 0.4224754   , -0.01165885 , 0.0361209139, 2.38158154  , 3.77        , 3           , 50          , 0           , 0
0.342337877 , 0.120362349 , -9.780984   , 0.00303771324, -0.00176166068, 0.00136232842, -0.182890654, -0.163745448, 0.422610223 , -0.0116279731, 0.0361034535, 2.381595    , 3.78        , 3           , 11          , 0.00658801943, 0.006588012
0.3610841   , 0.131897032 , -9.787573   , 0.00303148455, -0.0006354039, 0.00023391415, -0.182890654, -0.163610622, 0.422677636 , -0.0115975728, 0.0360971279, 2.38159776  , 3.79        , 3           , 12          , 0.05970644  , 0
0.3759242   , 0.127621934 , -9.775725   , 0.00212941249, 0.00106632011, -0.000899048639, -0.182553589, -0.1640151  , 0.422610223 , -0.0116924746, 0.03615329  , 2.38158441  , 3.8         , 3           , 50          , 0           , 0
0.372308046 , 0.125884041 , -9.782991   , 0.000423373 , 0.00330737932, -0.00146855367, -0.182553589, -0.1640151  , 0.422610223 , -0.0116887866, 0.0361861922, 2.38156915  , 3.81        , 3           , 11          , 0.006509155 , 0.00650914526
0.3524719   , 0.124402523 , -9.809816   , 0.005225934 , 0.0033398557, 0.0008141339, -0.182621   , -0.163678035, 0.422610223 , -0.011636246, 0.0362196937, 2.38157678  , 3.82        , 3           , 12          , 0.0607578047, 0
0.376239955 , 0.11366874  , -9.787081   , 0.00242594257, -0.00174742 , -0.0006195335, -0.182418764, -0.163678035, 0.422610223 , -0.0116122067, 0.0362021439, 2.381571    , 3.83        , 3           , 50          , 0           , 0
0.37590763  , 0.125376761 , -9.778898   , -0.0012442125, -0.00205381447, -0.000637087564, -0.182688415, -0.163880274, 0.4225428   , -0.011624868, 0.03618153  , 2.38156438  , 3.84        , 3           , 11          , 0.006509155 , 0.00650914526
0.37262556  , 0.116842113 , -9.778959   , 0.00412074057, -0.001454387, 0.00221417681, -0.182688415, -0.163880274, 0.4225428   , -0.0115828533, 0.0361672454, 2.38158727  , 3.85        , 3           , 12          , 0.0607578047, 0
0.3766586   , 0.115421146 , -9.773058   , 0.0007243224, -6.948301E-05, 0.0016354681, -0.182890654, -0.163745448, 0.422610223 , -0.0115750162, 0.03616674  , 2.38160348  , 3.86        , 3           , 50          , 0           , 0
0.355261624 , 0.14005208  , -9.777188   , -0.0006887905, -7.903756E-05, -6.63411556E-05, -0.182755828, -0.164082512, 0.4225428   , -0.0115819285, 0.03616594  , 2.38160253  , 3.87        , 3           , 11          , 0.006509155 , 0.00650914526
0.34640497  , 0.114505485 , -9.797701   , 0.00158103474, -0.00203471025, 0.00107130641, -0.182755828, -0.1640151  , 0.422677636 , -0.0115657225, 0.03614572  , 2.381614    , 3.88        , 3           , 12          , 0.0607578047, 0
0.35042733  , 0.118878454 , -9.770533   , 0.00016365081, -0.000917998434, 0.00163153256, -0.182755828, -0.1640151  , 0.422677636 , -0.0115634929, 0.0361367278, 2.38163018  , 3.89        , 3           , 50          , 0           , 0
0.367892981 , 0.09708996  , -9.792637   , -0.0021371583, 0.000220793663, -0.000356099481, -0.182486176, -0.163880274, 0.4224754   , -0.0116751948, 0.0362110958, 2.38162255  , 3.9         , 3           , 11          , 0.0064320704, 0.006432057
0.351453632 , 0.120751038 , -9.794021   , 0.003535402 , -0.004527611, 0.000227937024, -0.182823241, -0.163610622, 0.422677636 , -0.0116397385, 0.0361658521, 2.38162541  , 3.91        , 3           , 12          , 0.0618149973, 0
0.3573019   , 0.119758472 , -9.787652   , 0.00264950516, 0.00306891138, -0.00145952229, -0.182621   , -0.1640151  , 0.422407985 , -0.0116137816, 0.0361963771, 2.38161063  , 3.92        , 3           , 50          , 0           , 0
0.359163851 , 0.115314871 , -9.814322   , 0.00152372778, 0.00249814615, 0.000512104365, -0.182621   , -0.1640151  , 0.422407985 , -0.01159837 , 0.03622141  , 2.38161588  , 3.93        , 3           , 11          , 0.0064320704, 0.006432057
0.368443519 , 0.100734666 , -9.804821   , 0.00208030641, 0.0039097853, -0.00174339185, -0.182621   , -0.163880274, 0.4224754   , -0.0115782153, 0.0362603031, 2.38159776  , 3.94        , 3           , 12          , 0.0618149973, 0
0.337066829 , 0.130823791 , -9.787309   , 0.00379060186, 0.00110560306, 0.00136808259, -0.182823241, -0.1640151  , 0.4225428   , -0.0115398187, 0.0362715125, 2.381611    , 3.95        , 3           , 50          , 0           , 0
0.354848266 , 0.145445511 , -9.76948452 , 0.001249917 , 0.0005252753, -0.00147001236, -0.182621   , -0.163947687, 0.422610223 , -0.0115278549, 0.0362765938, 2.38159633  , 3.96        , 3           , 11          , 0.0064320704, 0.006432057
0.380879343 , 0.128435522 , -9.76664448 , -0.0001660729, 0.00136042223, -0.0009102202, -0.182621   , -0.163947687, 0.422610223 , -0.01152985 , 0.03629009  , 2.38158727  , 3.97        , 3           , 12          , 0.0618149973, 0
0.3727816   , 0.1236638   , -9.795201   , 0.004067215 , 0.00195220043, -0.00145467336, -0.182688415, -0.163880274, 0.422610223 , -0.0114897154, 0.0363094471, 2.381572    , 3.98        , 3           , 50          , 0           , 0
0.353617251 , 0.11617969  , -9.78408    , -0.000435538619, -0.00145714288, -0.0026111016, -0.182418764, -0.163880274, 0.422677636 , -0.0114950128, 0.0362945721, 2.38154626  , 3.99        , 3           , 11          , 0.0064320704, 0.006432057
0.36370945  , 0.1242031   , -9.78984451 , 0.00459596934, 0.00225875783, -0.0008877113, -0.182688415, -0.164217338, 0.4224754   , -0.0115429647, 0.0363734663, 2.381533    , 4           , 3           , 12          , 0.06287749  , 0
0.327872455 , 0.122337043 , -9.781087   , 0.00121939369, -0.000298247382, -0.00090742 , -0.182486176, -0.163745448, 0.422340572 , -0.0115310987, 0.036370378 , 2.38152432  , 4.01        , 3           , 50          , 0           , 0
0.347155243 , 0.111244574 , -9.770137   , 0.00178055477, 0.000550270139, -5.58717657E-05, -0.182486176, -0.163745448, 0.422340572 , -0.011513317, 0.0363758728, 2.38152337  , 4.02        , 3           , 11          , 0.006356786 , 0.00635676971
0.362444818 , 0.127419442 , -9.802496   , -0.00104617525, 0.00109430216, 0.000496901455, -0.182418764, -0.163880274, 0.422340572 , -0.0115236035, 0.0363868736, 2.38152814  , 4.03        , 3           , 12          , 0.06287749  , 0
0.362621158 , 0.111567892 , -9.785837   , -0.0007562001, -0.00059318234, -0.000917072466, -0.182755828, -0.163880274, 0.4224754   , -0.0115314964, 0.03638083  , 2.381519    , 4.04        , 3           , 50          , 0           , 0
0.361468524 , 0.125141069 , -9.792569   , 0.00178924494, -0.0011391188, 0.0005065993, -0.182553589, -0.164082512, 0.4224754   , -0.0115134157, 0.0363695   , 2.38152432  , 4.05        , 3           , 11          , 0.006356786 , 0.00635676971
0.367798656 , 0.120595962 , -9.804744   , 0.000659864 , -0.00114675728, 0.00106640661, -0.182553589, -0.164082512, 0.4224754   , -0.0115064243, 0.0363581553, 2.38153481  , 4.06        , 3           , 12          , 0.06287749  , 0
0.353696585 , 0.117583014 , -9.798987   , 0.001505513 , -0.001141035, -0.00175501744, -0.182621   , -0.163880274, 0.4224754   , -0.0114920028, 0.03634655  , 2.38151765  , 4.07        , 3           , 50          , 0           , 0
0.35299933  , 0.107124195 , -9.772822   , 0.00348536321, -0.00140922307, 0.0007966045, -0.182890654, -0.163880274, 0.4224754   , -0.0114568537, 0.03633255  , 2.38152575  , 4.08        , 3           , 11          , 0.006356786 , 0.00635676971
0.3317189   , 0.102910876 , -9.787465   , 0.00122562237, -0.00142450444, 0.000220994072, -0.182621   , -0.1640151  , 0.4225428   , -0.01144451 , 0.036318332 , 2.38152814  , 4.09        , 3           , 12          , 0.06287749  , 0
0.346934    , 0.08160617  , -9.811392   , 0.00120917929, -0.000868842239, -0.000626311463, -0.182621   , -0.1640151  , 0.4225428   , -0.0114687206, 0.0362891145, 2.38152051  , 4.1         , 3           , 50          , 0           , 0
0.378322273 , 0.0974264145, -9.794815   , -0.00329817133, -0.00315192062, -8.577893E-05, -0.182688415, -0.163947687, 0.422407985 , -0.0115017174, 0.03625758  , 2.38152051  , 4.11        , 3           , 11          , 0.00628384668, 0.00628382945
0.354845464 , 0.104006834 , -9.791352   , -0.000202628551, -0.0008783904, -6.782118E-05, -0.182688415, -0.1640151  , 0.422677636 , -0.0115037663, 0.036248792 , 2.38151956  , 4.12        , 3           , 12          , 0.06394479  , 0
0.353912354 , 0.1071196   , -9.774623   , 0.00176476431, 0.00110593578, 0.000226972144, -0.182823241, -0.164217338, 0.422407985 , -0.0114860423, 0.0362598859, 2.38152146  , 4.13        , 3           , 50          , 0           , 0
0.3536209   , 0.113504522 , -9.793582   , 6.94619957E-05, 0.001376044 , 0.00134965451, -0.182823241, -0.164217338, 0.422407985 , -0.0114848632, 0.0362737924, 2.38153481  , 4.14        , 3           , 11          , 0.00628384668, 0.00628382945
0.36427784  , 0.131879479 , -9.793425   , -0.003032799, 0.000228768709, -0.000644329761, -0.182823241, -0.164082512, 0.422407985 , -0.0115154255, 0.03627601  , 2.38152862  , 4.15        , 3           , 12          , 0.06394479  , 0
0.362625569 , 0.112464167 , -9.784026   , -0.00189161347, -0.00201611035, -7.745852E-05, -0.182418764, -0.163812861, 0.422812462 , -0.01153436 , 0.0362558365, 2.38152814  , 4.16        , 3           , 50          , 0           , 0
0.370398641 , 0.1164523   , -9.789372   , -0.001344882, 0.00164805551, -6.918351E-05, -0.182890654, -0.164217338, 0.422610223 , -0.011547843, 0.03627231  , 2.38152719  , 4.17        , 3           , 11          , 0.00628384668, 0.00628382945
0.3385518   , 0.105542585 , -9.788757   , 7.004023E-05, 0.00109447516, -6.346671E-05, -0.182890654, -0.164217338, 0.422610223 , -0.0115471706, 0.0362832434, 2.38152623  , 4.18        , 3           , 12          , 0.06394479  , 0
0.342416763 , 0.126228824 , -9.781411   , 8.832544E-05, -0.00256587 , 0.0002134294, -0.182755828, -0.164082512, 0.422340572 , -0.0115461992, 0.0362576135, 2.381529    , 4.19        , 3           , 50          , 0           , 0
0.3809381   , 0.127144054 , -9.785181   , 6.291666E-05, 0.00165484753, -0.00175798452, -0.182621   , -0.163610622, 0.4225428   , -0.0115556475, 0.0362662226, 2.381511    , 4.2         , 3           , 11          , 0.006212577 , 0.00621255953
0.375930667 , 0.126288131 , -9.781607   , 0.0003579639, -0.00059575605, 0.00078269816, -0.182755828, -0.163812861, 0.422677636 , -0.0115517816, 0.0362603553, 2.3815186   , 4.21        , 3           , 12          , 0.06501643  , 0
0.369241238 , 0.101082958 , -9.777243   , -0.00332006533, 0.0007872421, 0.00161536026, -0.182755828, -0.163812861, 0.422677636 , -0.0115844011, 0.0362684131, 2.38153481  , 4.22        , 3           , 50          , 0           , 0
0.392540127 , 0.110799178 , -9.795555   , 0.000643504958, -0.00115697482, 0.00134822226, -0.182688415, -0.1640151  , 0.422340572 , -0.0115774712, 0.0362570025, 2.38154817  , 4.23        , 3           , 11          , 0.006212577 , 0.00621255953
0.386027128 , 0.132529646 , -9.794159   , 0.0017573142, 0.00166630675, -0.00203262037, -0.182621   , -0.163947687, 0.422407985 , -0.0115606412, 0.0362734236, 2.38152766  , 4.24        , 3           , 12          , 0.06501643  , 0
0.355780244 , 0.110715106 , -9.77685452 , 5.258038E-05, 0.00390737224, -0.000341825536, -0.182621   , -0.163880274, 0.422610223 , -0.0115602557, 0.0363124572, 2.38152385  , 4.25        , 3           , 50          , 0           , 0
0.347212076 , 0.109951586 , -9.788221   , -0.00077862473, 0.0005228581, -0.00148113351, -0.182823241, -0.164217338, 0.422273159 , -0.0115685826, 0.0363175124, 2.381509    , 4.26        , 3           , 11          , 0.006212577 , 0.00621255953
0.356126934 , 0.100804113 , -9.782767   , -0.00163280079, 0.00220652553, 0.00106035639, -0.182823241, -0.164217338, 0.422273159 , -0.0115845352, 0.0363397   , 2.38151956  , 4.27        , 3           , 12          , 0.06501643  , 0
0.352632582 , 0.1125554   , -9.776419   , -0.00248057069, 0.00220079347, 0.000208793179, -0.182755828, -0.163610622, 0.422407985 , -0.0116092712, 0.0363617241, 2.38152146  , 4.28        , 3           , 50          , 0           , 0
0.370567143 , 0.132657453 , -9.778458   , -0.00416381657, -6.318616E-05, 0.0004799576, -0.182553589, -0.163880274, 0.422610223 , -0.0116507336, 0.03636115  , 2.38152623  , 4.29        , 3           , 11          , 0.006212577 , 0.00621255953
0.353797972 , 0.12614584  , -9.79624    , 0.00176072668, -0.000282390916, -0.00203581667, -0.182553589, -0.163745448, 0.4224754   , -0.01165218 , 0.036422126 , 2.3815043   , 4.3         , 3           , 12          , 0.06609199  , 0
0.333720744 , 0.113756575 , -9.799156   , -0.00361276814, 0.00137071474, -0.000363009836, -0.182553589, -0.163745448, 0.4224754   , -0.0116884438, 0.0364357866, 2.38150048  , 4.31        , 3           , 50          , 0           , 0
0.331488967 , 0.116933644 , -9.796902   , 0.000769926934, 0.0005556283, 0.001210057 , -0.182823241, -0.163812861, 0.422407985 , -0.0116803069, 0.0364414826, 2.3815124   , 4.32        , 3           , 11          , 0.006143424 , 0.00614340836
0.37240845  , 0.133107    , -9.784317   , 0.00274273264, 0.0014136933, 0.00122057716, -0.182553589, -0.163812861, 0.4225428   , -0.0116524426, 0.03645576  , 2.38152432  , 4.33        , 3           , 12          , 0.06609199  , 0
0.338689268 , 0.115027353 , -9.791882   , 0.0030184784, 0.00268264418, 0.0005175031, -0.182553589, -0.163947687, 0.422407985 , -0.01162208 , 0.0364826471, 2.381529    , 4.34        , 3           , 50          , 0           , 0
0.333238661 , 0.111952744 , -9.797812   , 6.127955E-05, 0.0009731988, 0.000359803 , -0.182553589, -0.163947687, 0.422407985 , -0.01162134 , 0.0364924222, 2.381533    , 4.35        , 3           , 11          , 0.006143424 , 0.00614340836
0.348915756 , 0.0955600142, -9.808156   , 0.000357646466, -0.001840542, 0.0003567806, -0.182823241, -0.163610622, 0.422273159 , -0.0116176261, 0.03647406  , 2.38153672  , 4.36        , 3           , 12          , 0.06609199  , 0
0.3617608   , 0.114739604 , -9.786735   , 0.000917339232, -0.0009920315, -0.00133450853, -0.182621   , -0.163745448, 0.422610223 , -0.0116089331, 0.0364639834, 2.38152337  , 4.37        , 3           , 50          , 0           , 0
0.375092328 , 0.129031375 , -9.789285   , -0.00106784957, 0.0006839899, -0.00105858594, -0.182553589, -0.163880274, 0.4225428   , -0.0116200019, 0.0364707038, 2.38151288  , 4.38        , 3           , 11          , 0.006143424 , 0.00614340836
0.3934043   , 0.110308677 , -9.786963   , -0.00135528133, 0.00180834311, -6.928598E-05, -0.182553589, -0.163880274, 0.4225428   , -0.0116335889, 0.0364887752, 2.381512    , 4.39        , 3           , 12          , 0.06609199  , 0
0.386333764 , 0.123925239 , -9.78605652 , 0.0004784667, 0.001129064 , -0.000627062051, -0.182621   , -0.163812861, 0.4224754   , -0.0116443634, 0.0365360044, 2.3815043   , 4.4         , 3           , 50          , 0           , 0
0.354583055 , 0.122020416 , -9.77998    , 0.00146991177, 0.0005726195, -0.00034078327, -0.182755828, -0.163745448, 0.4225428   , -0.01162979 , 0.0365416966, 2.38150048  , 4.41        , 3           , 11          , 0.006076767 , 0.00607675361
0.354233742 , 0.128358483 , -9.784928   , 0.00133939809, -0.0015400725, 7.91099737E-05, -0.182688415, -0.163812861, 0.4225428   , -0.0116163585, 0.0365263   , 2.38150144  , 4.42        , 3           , 12          , 0.06717106  , 0
0.3702861   , 0.143067986 , -9.787004   , 0.0031812822, -0.00279470114, -0.00019682 , -0.182688415, -0.163812861, 0.4225428   , -0.0115846079, 0.03649833  , 2.38149953  , 4.43        , 3           , 50          , 0           , 0
0.376003772 , 0.126793712 , -9.797875   , 0.00386901968, 0.001011205 , 0.00065994286, -0.182755828, -0.163812861, 0.422340572 , -0.0115456814, 0.0365085229, 2.3815062   , 4.44        , 3           , 11          , 0.006076767 , 0.00607675361
0.3589913   , 0.108926207 , -9.792656   , 0.00117723027, 0.00282323477, 0.00121532741, -0.182553589, -0.163678035, 0.4225428   , -0.0115334764, 0.03653689  , 2.38151813  , 4.45        , 3           , 12          , 0.06717106  , 0
0.341915846 , 0.119053528 , -9.792744   , -0.0006418161, -0.0005679612, 0.00120156  , -0.182688415, -0.163880274, 0.422812462 , -0.0115394527, 0.0365313441, 2.38153     , 4.46        , 3           , 50          , 0           , 0
0.341209769 , 0.131723613 , -9.800833   , -0.00133426941, -0.00338838855, 0.0006288535, -0.182486176, -0.163947687, 0.422273159 , -0.0115525508, 0.036497537 , 2.38153672  , 4.47        , 3           , 11          , 0.006076767 , 0.00607675361
0.332061768 , 0.125506237 , -9.798669   , 0.0004974046, -0.002531278, 0.0007799841, -0.182486176, -0.163947687, 0.422273159 , -0.0115472833, 0.0364723131, 2.38154531  , 4.48        , 3           , 12          , 0.06717106  , 0
0.3233467   , 0.120160162 , -9.788815   , 0.000628859969, -0.0005593675, 0.0007836801, -0.182553589, -0.163812861, 0.422407985 , -0.0115407063, 0.03646682  , 2.381553    , 4.49        , 3           , 50          , 0           , 0
0.3206966   , 0.12203142  , -9.799221   , -0.00222865422, 0.000383044244, -0.0003592677, -0.182688415, -0.163745448, 0.4225428   , -0.0116468854, 0.0363982245, 2.38154674  , 4.5         , 3           , 11          , 0.00601124251, 0.00601123
0.362900645 , 0.126523942 , -9.806113   , -0.00137920131, -3.35731565E-05, -0.000214699161, -0.182688415, -0.164082512, 0.422407985 , -0.0116607556, 0.03639786  , 2.38154435  , 4.51        , 3           , 12          , 0.06825328  , 0
0.351601869 , 0.134708    , -9.785374   , 0.000318184728, -0.0004444575, 0.00106397015, -0.182688415, -0.164082512, 0.422407985 , -0.011657184, 0.0363935344, 2.38155532  , 4.52        , 3           , 50          , 0           , 0
0.348724484 , 0.121665582 , -9.788162   , 0.000454763882, 0.0005419765, 0.00148995349, -0.182486176, -0.163812861, 0.4224754   , -0.0116520962, 0.0363991261, 2.38157     , 4.53        , 3           , 11          , 0.00601124251, 0.00601123
0.341218084 , 0.137979239 , -9.782728   , -0.00194348418, -3.7390284E-05, 0.0007715479, -0.182688415, -0.164149925, 0.422677636 , -0.01167125 , 0.03639885  , 2.38157773  , 4.54        , 3           , 12          , 0.06825328  , 0
0.366812    , 0.121879905 , -9.78079    , -0.002225785, -0.000180085437, -0.000218867019, -0.182621   , -0.163812861, 0.422610223 , -0.0116935847, 0.0363970175, 2.38157582  , 4.55        , 3           , 50          , 0           , 0
0.3592284   , 0.129650429 , -9.783981   , 0.001436829 , 0.0015341317, -0.00118802441, -0.182621   , -0.163812861, 0.422610223 , -0.0116796568, 0.0364122242, 2.38156343  , 4.56        , 3           , 11          , 0.00601124251, 0.00601123
0.372422427 , 0.124191321 , -9.816445   , 0.00101552438, 0.00110892032, -0.0007668445, -0.182890654, -0.163745448, 0.4224754   , -0.0116697848, 0.0364232175, 2.3815558   , 4.57        , 3           , 12          , 0.06825328  , 0
0.371263385 , 0.114176847 , -9.786665   , -0.0002503543, 0.000114848561, -0.0004917519, -0.182890654, -0.163678035, 0.4225428   , -0.0116724689, 0.0364243127, 2.381551    , 4.58        , 3           , 50          , 0           , 0
0.359959066 , 0.149956    , -9.786602   , 0.00088246743, -0.0004406403, 7.772283E-05, -0.182688415, -0.163610622, 0.4224754   , -0.0116636148, 0.0364199169, 2.381552    , 4.59        , 3           , 11          , 0.00601124251, 0.00601123
0.341344416 , 0.139867008 , -9.807578   , 0.0009867833, -0.0007182444, 0.000641591 , -0.182688415, -0.163610622, 0.4224754   , -0.011773   , 0.0364220254, 2.381554    , 4.6         , 3           , 12          , 0.06933828  , 0
0.3363769   , 0.107426688 , -9.804586   , 0.000557774561, 0.0002643662, -0.000206477955, -0.182553589, -0.163812861, 0.422340572 , -0.0117674991, 0.036424648 , 2.3815515   , 4.61        , 3           , 50          , 0           , 0
0.360159039 , 0.125642926 , -9.802974   , -0.00142080733, 0.000391774665, -0.00176943559, -0.182890654, -0.163678035, 0.422273159 , -0.0117823537, 0.0364283621, 2.38153386  , 4.62        , 3           , 11          , 0.005947347 , 0.005947333
0.347327769 , 0.117633276 , -9.791805   , -0.00156185764, 0.000390820438, -0.00148755661, -0.182486176, -0.163880274, 0.422610223 , -0.011798515, 0.03643209  , 2.3815186   , 4.63        , 3           , 12          , 0.06933828  , 0
0.355892777 , 0.119286977 , -9.776816   , 0.00139800366, 0.001677921 , -0.000341626146, -0.182486176, -0.163880274, 0.422610223 , -0.0117846671, 0.0364488326, 2.38151526  , 4.64        , 3           , 50          , 0           , 0
0.344428867 , 0.110822305 , -9.769256   , 0.00153610273, 0.00224200473, -0.0009051747, -0.182553589, -0.1640151  , 0.422407985 , -0.0117696449, 0.03647114  , 2.3815062   , 4.65        , 3           , 11          , 0.005947347 , 0.005947333
0.3447098   , 0.122655019 , -9.79994    , 0.000137248731, -0.0003016273, 0.000355753815, -0.182890654, -0.163678035, 0.422610223 , -0.0117681408, 0.03646817  , 2.38150954  , 4.66        , 3           , 12          , 0.06933828  , 0
0.353054225 , 0.103151508 , -9.799053   , -0.0008437042, -0.00171613484, 0.00133785594, -0.182621   , -0.1640151  , 0.422407985 , -0.0117760841, 0.03645117  , 2.38152337  , 4.67        , 3           , 50          , 0           , 0
0.3804983   , 0.09956035  , -9.766315   , 0.000281739543, -0.0008638002, 0.00120315677, -0.182621   , -0.1640151  , 0.422407985 , -0.0117728254, 0.03644267  , 2.38153529  , 4.68        , 3           , 11          , 0.005947347 , 0.005947333
0.349813074 , 0.134747386 , -9.790811   , 0.0009960892, -0.00254841615, 0.00106257666, -0.182486176, -0.1640151  , 0.422340572 , -0.0117624654, 0.0364173129, 2.38154626  , 4.69        , 3           , 12          , 0.06933828  , 0
0.361164033 , 0.106593966 , -9.777734   , 0.00112543022, -0.00227094442, 0.0003568805, -0.182621   , -0.163880274, 0.4224754   , -0.0117829461, 0.0363786854, 2.38154912  , 4.7         , 3           , 50          , 0           , 0
0.3643509   , 0.10478542  , -9.787661   , -0.000152497611, -0.00101249968, -0.0009185117, -0.182553589, -0.1640151  , 0.422610223 , -0.0117848013, 0.03636845  , 2.38153958  , 4.71        , 3           , 11          , 0.00588519033, 0.00588517543
0.340723157 , 0.133933261 , -9.78546    , -0.00114193338, -0.000878403371, -0.00134671014, -0.182621   , -0.163745448, 0.4224754   , -0.0117967082, 0.03635951  , 2.38152623  , 4.72        , 3           , 12          , 0.07042572  , 0
0.3393826   , 0.135302678 , -9.785464   , -0.000858527666, -0.00087648863, 0.000349831767, -0.182621   , -0.163745448, 0.4224754   , -0.0118051628, 0.03635079  , 2.38153     , 4.73        , 3           , 50          , 0           , 0
0.353394628 , 0.135118231 , -9.779482   , -0.00183833111, -0.00257256255, 0.0009076938, -0.182688415, -0.1640151  , 0.422610223 , -0.0118232053, 0.03632517  , 2.38153958  , 4.74        , 3           , 11          , 0.00588519033, 0.00588517543
0.354785383 , 0.136021212 , -9.78444    , -0.0009992887, -0.00101822754, -7.484989E-05, -0.182553589, -0.163678035, 0.4224754   , -0.0118332226, 0.0363149755, 2.38153863  , 4.75        , 3           , 12          , 0.07042572  , 0
0.347993255 , 0.135654345 , -9.785849   , 0.0006891623, 0.000260275934, 0.000217541863, -0.182755828, -0.164082512, 0.422407985 , -0.0118262516, 0.0363176167, 2.38154054  , 4.76        , 3           , 50          , 0           , 0
0.351300538 , 0.11036095  , -9.789996   , 0.00153968309, -0.000437907962, -0.0002033984, -0.182755828, -0.164082512, 0.422407985 , -0.0118109277, 0.03631321  , 2.38153863  , 4.77        , 3           , 11          , 0.00588519033, 0.00588517543
0.370011449 , 0.116957143 , -9.803838   , 0.00181768322, 0.0004086961, -0.0006245859, -0.182621   , -0.1640151  , 0.4225428   , -0.0117929811, 0.0363172255, 2.381533    , 4.78        , 3           , 12          , 0.07042572  , 0
0.370915145 , 0.124532938 , -9.77894    , 0.00167995482, -0.00029617158, -0.000626329158, -0.182688415, -0.163745448, 0.4224754   , -0.0117764063, 0.03631419  , 2.38152623  , 4.79        , 3           , 50          , 0           , 0
0.344503045 , 0.115345895 , -9.772853   , -3.491455E-05, -0.000303381472, -0.0009175123, -0.182688415, -0.163947687, 0.4224754   , -0.0118422946, 0.0363247544, 2.38151479  , 4.8         , 3           , 11          , 0.005825069 , 0.00582505437
0.3411904   , 0.10321562  , -9.776997   , -0.0010250099, 0.000112283604, -7.38583E-05, -0.182688415, -0.163947687, 0.4224754   , -0.0118525708, 0.03632586  , 2.38151383  , 4.81        , 3           , 12          , 0.07151528  , 0
0.347799629 , 0.120767862 , -9.786365   , -0.0014426664, -0.00101683964, 0.000628774171, -0.182755828, -0.164082512, 0.4224754   , -0.0118667651, 0.03631577  , 2.38152051  , 4.82        , 3           , 50          , 0           , 0
0.3488372   , 0.125327691 , -9.803966   , -0.00158310111, -0.00115857681, 0.0007691675, -0.182553589, -0.163745448, 0.4224754   , -0.0118823117, 0.0363042764, 2.38152814  , 4.83        , 3           , 11          , 0.005825069 , 0.00582505437
0.348177254 , 0.1148991   , -9.786839   , -0.0007393873, -0.000448934676, 0.0006329344, -0.182486176, -0.163880274, 0.422610223 , -0.0118894735, 0.03629987  , 2.38153481  , 4.84        , 3           , 12          , 0.07151528  , 0
0.360818624 , 0.115613244 , -9.774987   , 0.00053120713, -0.00044034142, 7.378576E-05, -0.182486176, -0.163880274, 0.422610223 , -0.0118841315, 0.0362954661, 2.38153529  , 4.85        , 3           , 50          , 0           , 0
0.3692031   , 0.129990682 , -9.785711   , 0.000392863236, -0.001004426, 0.000213528125, -0.182755828, -0.163880274, 0.4224754   , -0.01188012 , 0.03628544  , 2.38153768  , 4.86        , 3           , 11          , 0.005825069 , 0.00582505437
0.364840776 , 0.10704191  , -9.789454   , 0.000670122 , 0.000123746213, 0.000922924432, -0.182890654, -0.163812861, 0.4224754   , -0.0118730841, 0.0362867862, 2.38154674  , 4.87        , 3           , 12          , 0.07151528  , 0
0.356355727 , 0.115272693 , -9.792198   , 0.00263989484, 0.00154494017, 0.0005105064, -0.182553589, -0.163812861, 0.4225428   , -0.0118465051, 0.0363023058, 2.381552    , 4.88        , 3           , 50          , 0           , 0
0.3264279   , 0.146758273 , -9.792296   , 0.00207422534, 0.00154111627, -0.0009048148, -0.182553589, -0.163812861, 0.4225428   , -0.0118261  , 0.0363176   , 2.38154244  , 4.89        , 3           , 11          , 0.005825069 , 0.00582505437
0.3491987   , 0.127926484 , -9.773216   , 0.000788119563, 0.00124198478, -0.00147689751, -0.182621   , -0.163880274, 0.422340572 , -0.0118725132, 0.0363001972, 2.38152575  , 4.9         , 3           , 12          , 0.07260666  , 0
0.344791234 , 0.129416242 , -9.798103   , -0.0006173782, 0.000106179643, 0.000351275521, -0.182755828, -0.163947687, 0.4225428   , -0.0118785594, 0.0363013   , 2.381529    , 4.91        , 3           , 50          , 0           , 0
0.346973926 , 0.120396882 , -9.807163   , -0.00386134977, -0.00076048146, -8.89772346E-05, -0.182688415, -0.163947687, 0.4224754   , -0.0119172  , 0.036293678 , 2.38152814  , 4.92        , 3           , 11          , 0.00576632423, 0.0057663084
0.3486803   , 0.112256408 , -9.807636   , -0.00372201949, -0.00047796368, -0.0009354973, -0.182688415, -0.163947687, 0.4224754   , -0.0119547583, 0.0362887867, 2.381519    , 4.93        , 3           , 12          , 0.07260666  , 0
0.348086834 , 0.108576916 , -9.785057   , -0.00202680565, -0.000466500758, 0.0002025542, -0.182553589, -0.163812861, 0.422407985 , -0.01197495 , 0.03628414  , 2.38152146  , 4.94        , 3           , 50          , 0           , 0
0.339539737 , 0.121220961 , -9.758403   , -0.000754327863, -0.0007394703, 0.0004905838, -0.182755828, -0.163678035, 0.4225428   , -0.0119823115, 0.0362768061, 2.38152623  , 4.95        , 3           , 11          , 0.00576632423, 0.0057663084
0.3313477   , 0.11503379  , -9.768435   , 0.000665228465, -0.00227852934, 7.09757442E-05, -0.182688415, -0.164284751, 0.4224754   , -0.0119756237, 0.0362540334, 2.38152719  , 4.96        , 3           , 12          , 0.07260666  , 0
0.359496981 , 0.117444389 , -9.778153   , 0.0006665409, -0.002560095, -7.072692E-05, -0.182755828, -0.164082512, 0.422273159 , -0.0119689722, 0.0362284258, 2.38152719  , 4.97        , 3           , 50          , 0           , 0
0.361748159 , 0.11785382  , -9.773614   , 0.00107541808, 0.0005399887, 0.0009249029, -0.182755828, -0.164082512, 0.422273159 , -0.0119578848, 0.03623394  , 2.38153577  , 4.98        , 3           , 11          , 0.00576632423, 0.0057663084
0.3588375   , 0.0949647   , -9.799946   , 0.000501666567, 0.00236634258, 0.00120762724, -0.182688415, -0.1640151  , 0.422273159 , -0.0119524412, 0.03625774  , 2.38154817  , 4.99        , 3           , 12          , 0.07260666  , 0
0.358755469 , 0.122497804 , -9.80209351 , -0.00146549672, 0.00121805014, 0.0007730194, -0.182688415, -0.163812861, 0.4225428   , -0.0119516226, 0.0362408   , 2.38155675  , 5           , 3           , 50          , 0           , 0
0.352972776 , 0.103978194 , -9.77645    , -0.00145180139, -0.00159760169, 0.00034487393, -0.182553589, -0.163880274, 0.4225428   , -0.01196601 , 0.03622487  , 2.38156056  , 5.01        , 3           , 11          , 0.005709324 , 0.005709308
0.355162174 , 0.09898141  , -9.774195   , 0.000375571777, -3.658224E-05, -0.00091559795, -0.182553589, -0.163880274, 0.4225428   , -0.0119625852, 0.03622439  , 2.381551    , 5.02        , 3           , 12          , 0.07369961  , 0
0.359442532 , 0.141875371 , -9.797035   , -5.37260348E-05, 0.00108681235, -0.0010571063, -0.182553589, -0.163947687, 0.422610223 , -0.01196351 , 0.0362351276, 2.38154054  , 5.03        , 3           , 50          , 0           , 0
0.3451843   , 0.129362568 , -9.783637   , -0.000611364958, -0.0003248319, -0.0006381037, -0.182755828, -0.163880274, 0.422610223 , -0.0119698523, 0.0362318046, 2.38153386  , 5.04        , 3           , 11          , 0.005709324 , 0.005709308
0.350074828 , 0.123428531 , -9.780459   , -4.99147063E-05, 0.0003829012, -0.000493116269, -0.182755828, -0.163678035, 0.4225428   , -0.0119705331, 0.03623557  , 2.381529    , 5.05        , 3           , 12          , 0.07369961  , 0
0.339584231 , 0.1132227   , -9.795047   , 0.000232675215, 0.000384811952, -0.00020926178, -0.182755828, -0.163678035, 0.4225428   , -0.0119682839, 0.0362393968, 2.38152719  , 5.06        , 3           , 50          , 0           , 0
0.347001255 , 0.127114266 , -9.79222    , 0.0005257203, -0.00172501535, 7.133801E-05, -0.182621   , -0.163947687, 0.4224754   , -0.0119629931, 0.0362221561, 2.38152814  , 5.07        , 3           , 11          , 0.005709324 , 0.005709308
0.357891083 , 0.135485977 , -9.770407   , 0.00193978194, -0.002137814, -0.000205265722, -0.182688415, -0.163880274, 0.4225428   , -0.0119436616, 0.0362007581, 2.38152623  , 5.08        , 3           , 12          , 0.07369961  , 0
0.369717747 , 0.138069823 , -9.774826   , 0.000238703258, -0.000882232154, -0.0006350208, -0.182486176, -0.163880274, 0.4224754   , -0.0119414972, 0.0361918546, 2.38151956  , 5.09        , 3           , 50          , 0           , 0
