Acc X       , Acc Y       , Acc Z       , Gyro X      , Gyro Y      , Gyro Z      , Magn X      , Magn Y      , Magn Z      , Euler X     , Euler Y     , Euler Z     , Time        , Status      , LowRate X   , LowRate Y   , LowRate Z    
-0.186377466, -0.00162368815, -9.789701   , 0.000217423221, -0.0014828319, -0.000495255867, 0.0759067   , -0.347849548, 0.6460833   , 0.00130708679, -0.01689038 , 1.386493    , 0           , 3           , 11          , 0.0346410163, 0.0346410163
-0.188573539, 0.0155533636, -9.794065   , -0.00151912635, -0.00162916793, 0.000301237626, 0.07570446  , -0.3476473  , 0.6460833   , 0.00129184371, -0.016906675, 1.38649583  , 0.01        , 3           , 12          , 0.0346410163, 0
-0.1701252  , 0.0038060816, -9.799567   , -0.0009959044, 0.000773337262, 0.0004487901, 0.07610894  , -0.347782135, 0.646285534 , 0.00128180813, -0.0168989487, 1.38650012  , 0.02        , 3           , 50          , 0           , 0
-0.148585364, -0.0259869732, -9.805237   , 0.00327553251, 0.00186558557, -5.31855767E-06, 0.07610894  , -0.347916961, 0.6460833   , 0.00131456321, -0.01688029 , 1.38650012  , 0.03        , 3           , 11          , 0.0346410163, 0.0346410163
-0.180996984, -0.0120679252, -9.782997   , 0.00261649978, -0.000132752481, -0.00128401851, 0.07610894  , -0.347916961, 0.6460833   , 0.00134094583, -0.0168816019, 1.38648725  , 0.04        , 3           , 12          , 0.0346410163, 0
-0.185137063, -0.0364968926, -9.771022   , 0.000283170142, -0.00121922593, 0.0003062293, 0.07604153  , -0.347512484, 0.6462181   , 0.00134372746, -0.0168937985, 1.38649011  , 0.05        , 3           , 50          , 0           , 0
-0.1422301  , -0.012848556, -9.815958   , -0.00292349514, -0.00137306948, 0.000967162661, 0.0759067   , -0.3476473  , 0.6462181   , 0.00131432991, -0.0169075448, 1.38650012  , 0.06        , 3           , 11          , 0.0346410163, 0.0346410163
-0.158397838, 0.002842566 , -9.797283   , -0.0005916042, 4.41739539E-05, -2.13021522E-05, 0.0759067   , -0.347512484, 0.6461507   , 0.00130841671, -0.0169071034, 1.38649964  , 0.07        , 3           , 12          , 0.0346410163, 0
-0.161620945, -0.0147215789, -9.7983675  , 0.000676907133, 0.000314966252, 0.0006487043, 0.0759067   , -0.347512484, 0.6461507   , 0.001315077 , -0.0169039629, 1.38650632  , 0.08        , 3           , 50          , 0           , 0
-0.157968268, -0.003020173, -9.79733849 , -0.0006582837, 4.122396E-05, 0.000578514766, 0.07610894  , -0.3475799  , 0.6460833   , 0.00130839576, -0.0169035569, 1.386512    , 0.09        , 3           , 11          , 0.0346410163, 0.0346410163
-0.167004466, -0.008458607, -9.789718   , -0.000127360865, 0.0007806955, -0.0001498031, 0.07583929  , -0.347714722, 0.6462181   , 0.00130714744, -0.0168957487, 1.38651061  , 0.1         , 3           , 12          , 0.0346410163, 0
-0.177063733, -0.0402539223, -9.812239   , -0.00039838042, 0.00163905614, 0.001454419 , 0.07583929  , -0.3476473  , 0.6460159   , 0.00130291784, -0.0168793742, 1.38652539  , 0.11        , 3           , 50          , 0           , 0
-0.175209388, -0.02767318 , -9.807584   , -0.001393405, 3.86178726E-05, 0.000244103387, 0.07583929  , -0.3476473  , 0.6460159   , 0.00128894357, -0.0168789923, 1.3865273   , 0.12        , 3           , 11          , 0.0346410163, 0.0346410163
-0.15713267 , -0.0210539028, -9.797965   , 0.000144164937, -0.000147779268, -0.000954506162, 0.07583929  , -0.347849548, 0.6460833   , 0.00129054673, -0.0168804582, 1.38651776  , 0.13        , 3           , 12          , 0.0346410163, 0
-0.175672889, -0.03035116 , -9.81078    , 0.00154503924, 0.0003907169, -0.00034946212, 0.0757718757, -0.3475799  , 0.646285534 , 0.00130605651, -0.0168765523, 1.38651443  , 0.14        , 3           , 50          , 0           , 0
-0.181011558, -0.0142567353, -9.791169   , 0.00241320371, 0.0005268248, 0.00011921359, 0.07604153  , -0.347714722, 0.6462181   , 0.00133016868, -0.0168712828, 1.38651586  , 0.15        , 3           , 11          , 0.0346410163, 0.0346410163
-0.156665951, -0.0188776758, -9.788435   , 0.00141160085, 0.0003253204, -0.000816642656, 0.07604153  , -0.347714722, 0.6462181   , 0.00134442269, -0.0168680176, 1.38650727  , 0.16        , 3           , 12          , 0.0346410163, 0
-0.145847082, -0.021644868, -9.785719   , -0.0005840453, -0.00155534525, -0.000163565448, 0.07631118  , -0.347782135, 0.6461507   , 0.001338611 , -0.0168835744, 1.38650537  , 0.17        , 3           , 50          , 0           , 0
-0.148170426, -0.0391869172, -9.78997    , -0.00011331818, -0.00215510465, 0.0003670549, 0.07617635  , -0.3475799  , 0.646285534 , 0.00133741624, -0.0169051271, 1.38650918  , 0.18        , 3           , 11          , 0.0346410163, 0.0346410163
-0.150354892, -0.0207263827, -9.785721   , 0.00280964444, 0.00146356458, -0.000141585639, 0.07604153  , -0.347849548, 0.6461507   , 0.001365537 , -0.0168904867, 1.38650775  , 0.19        , 3           , 12          , 0.0346410163, 0
-0.156663775, -0.0174960382, -9.792044   , 0.00147743057, 0.000465631922, -0.00234892173, 0.07604153  , -0.347849548, 0.6461507   , 0.00138084253, -0.0168857165, 1.38648438  , 0.2         , 3           , 50          , 0           , 0
-0.169316739, -0.0219030231, -9.79891    , 0.00114426971, 0.0003247146, -0.00101702451, 0.07604153  , -0.347782135, 0.6460159   , 0.00139245682, -0.016882455, 1.38647389  , 0.21        , 3           , 11          , 0.0346699134, 0.0346699134
-0.145786613, -0.009635506, -9.765228   , 0.000269147829, 0.00171629025, -0.000143972473, 0.0759741142, -0.347714722, 0.6461507   , 0.00139517256, -0.0168652888, 1.386473    , 0.22        , 3           , 12          , 0.0346688069, 0
-0.163475186, -0.03338878 , -9.775013   , -0.00286796014, 0.0009038564, -0.0012864219, 0.0759741142, -0.3476473  , 0.6462181   , 0.001366708 , -0.0168562327, 1.38646007  , 0.23        , 3           , 50          , 0           , 0
-0.167946458, -0.0192756634, -9.789825   , -0.0013975437, 0.000905911846, 0.000115633658, 0.07610894  , -0.347782135, 0.6460159   , 0.00135271274, -0.0168471746, 1.386461    , 0.24        , 3           , 11          , 0.0346699134, 0.0346699134
-0.166587472, -0.01606294 , -9.797487   , -0.00059109315, 3.499386E-05, 0.00211174134, 0.07610894  , -0.347782135, 0.6460159   , 0.00134644553, -0.016846858, 1.386482    , 0.25        , 3           , 12          , 0.0346688069, 0
-0.169269025, -0.008824732, -9.799234   , -0.00119497429, 0.00050326  , 0.0009802526, 0.0757718757, -0.347714722, 0.646285534 , 0.00133433065, -0.0168418344, 1.386492    , 0.26        , 3           , 50          , 0           , 0
-0.148995981, -0.0189171117, -9.78706    , -0.00139896723, 0.00117546367, -0.0005494517, 0.0757718757, -0.347849548, 0.646352947 , 0.0013204331, -0.0168300755, 1.38648629  , 0.27        , 3           , 11          , 0.0346699134, 0.0346699134
-0.147710189, -0.0322622433, -9.810275   , -0.000189149738, -0.000285824062, -0.000289186079, 0.07604153  , -0.347984374, 0.6460833   , 0.00131859165, -0.01683293 , 1.38648343  , 0.28        , 3           , 12          , 0.0346688069, 0
-0.179248646, -0.0213207174, -9.810701   , -0.0007917178, -2.41697653E-05, 0.000111332796, 0.07604153  , -0.347984374, 0.6460833   , 0.0013106548, -0.0168331731, 1.38648438  , 0.29        , 3           , 50          , 0           , 0
-0.144896358, -0.00904623 , -9.782877   , -0.000689663633, -0.00114536914, -2.87386883E-05, 0.07604153  , -0.347916961, 0.646285534 , 0.00191951054, -0.0166127048, 1.38647389  , 0.3         , 3           , 11          , 0.0347534455, 0.03475345
-0.1427311  , -0.0291792862, -9.803442   , 0.0010388532, 0.000791888859, 0.0013178786, 0.0759067   , -0.347512484, 0.6462181   , 0.00192968047, -0.0166048147, 1.38648725  , 0.31        , 3           , 12          , 0.03475387  , 0
-0.1752251  , -0.0312545374, -9.810787   , 0.000372119161, 0.000395653129, -0.000418477721, 0.07604153  , -0.347782135, 0.6461507   , 0.00193347048, -0.0166008454, 1.386483    , 0.32        , 3           , 50          , 0           , 0
-0.161171749, -0.0156394988, -9.796564   , -0.00122305378, -0.00141355512, -0.000364334468, 0.07604153  , -0.347782135, 0.6461507   , 0.00192130194, -0.0166149735, 1.38647962  , 0.33        , 3           , 11          , 0.0347534455, 0.03475345
-0.164741486, -0.00526742265, -9.79511452 , 0.0007818435, -0.00146777043, -0.00069493457, 0.07583929  , -0.3476473  , 0.646352947 , 0.00192923634, -0.0166296382, 1.38647246  , 0.34        , 3           , 12          , 0.03475387  , 0
-0.160652861, 0.00190926529, -9.792317   , 0.00218561175, -0.00153017 , 0.000106727239, 0.0759067   , -0.347782135, 0.6462181   , 0.001951076 , -0.0166449472, 1.38647342  , 0.35        , 3           , 50          , 0           , 0
-0.15305233 , -0.0180039424, -9.786608   , -0.000429539155, 0.0003875145, 0.000446847524, 0.07604153  , -0.347984374, 0.646285534 , 0.00194670574, -0.0166410767, 1.38647771  , 0.36        , 3           , 11          , 0.0347534455, 0.03475345
-0.17789337 , -0.0260269456, -9.786749   , 0.000237415821, 0.0006578701, 0.000449359068, 0.07604153  , -0.347984374, 0.646285534 , 0.00194900483, -0.0166345071, 1.38648248  , 0.37        , 3           , 12          , 0.03475387  , 0
-0.181488588, -0.01913443 , -9.801177   , 0.0005793691, -0.00106684037, -0.00115960743, 0.0759067   , -0.347714722, 0.6460833   , 0.0019549916, -0.016645154, 1.386471    , 0.38        , 3           , 50          , 0           , 0
-0.159412757, -0.0315568522, -9.780417   , 0.0005086413, -0.000204221084, -0.000288313458, 0.0759741142, -0.3476473  , 0.646352947 , 0.00196012529, -0.01664719 , 1.38646817  , 0.39        , 3           , 11          , 0.0347534455, 0.03475345
-0.182403356, -0.0321075246, -9.757391   , 0.001510747 , 0.0006550861, 0.00118448189, 0.07604153  , -0.347849548, 0.6462181   , 0.00200757664, -0.016701391, 1.38647914  , 0.4         , 3           , 12          , 0.03489534  , 0
-0.159778386, -0.004358737, -9.798263   , 0.000444741978, -1.72101645E-05, 0.00111246365, 0.07604153  , -0.347849548, 0.6462181   , 0.00201183837, -0.0167015847, 1.38649011  , 0.41        , 3           , 50          , 0           , 0
-0.167449474, -0.00758431666, -9.786089   , 0.0009777524, 0.000318794453, 0.00118180155, 0.0759067   , -0.347849548, 0.6461507   , 0.00202141912, -0.01669842 , 1.386502    , 0.42        , 3           , 11          , 0.01769235  , 0.0176923238
-0.192272484, -0.007837435, -9.799283   , -0.00129712152, 0.000907774433, 0.0008483994, 0.0757718757, -0.347512484, 0.646352947 , 0.00200830586, -0.01668936 , 1.38651061  , 0.43        , 3           , 12          , 0.03489534  , 0
-0.188246474, -0.0177966934, -9.796201   , 0.00104762614, -0.000345535, 0.0007115719, 0.0757718757, -0.347849548, 0.6462181   , 0.00201866357, -0.0166928284, 1.38651776  , 0.44        , 3           , 50          , 0           , 0
-0.156592235, 0.000483434647, -9.785077   , 0.000112197042, -0.000413043977, -0.000290094176, 0.0757718757, -0.347849548, 0.6462181   , 0.00201983517, -0.0166969541, 1.3865149   , 0.45        , 3           , 11          , 0.01769235  , 0.0176923238
-0.146276921, -0.0143750533, -9.79244    , -0.000953633746, -0.00108849676, 0.000371121831, 0.07604153  , -0.347916961, 0.6461507   , 0.00201023649, -0.0167078432, 1.38651872  , 0.46        , 3           , 12          , 0.03489534  , 0
-0.158444822, -0.0121154785, -9.787469   , 0.0027179867, -0.000332907483, -8.576916E-05, 0.07610894  , -0.347714722, 0.6462181   , 0.00203743065, -0.0167111736, 1.38651776  , 0.47        , 3           , 50          , 0           , 0
-0.163423657, -0.0147330444, -9.796109   , 0.00238019158, 0.0004023623, -0.000948728062, 0.0759067   , -0.3476473  , 0.646352947 , 0.002061391 , -0.0167071279, 1.38650823  , 0.48        , 3           , 11          , 0.01769235  , 0.0176923238
-0.166227773, -0.0394543  , -9.804507   , 0.00164741091, -6.923334E-05, -0.000752487045, 0.0759067   , -0.3476473  , 0.646352947 , 0.00207799114, -0.0167078059, 1.3865006   , 0.49        , 3           , 12          , 0.03489534  , 0
-0.141357362, -0.0209708512, -9.815582   , 0.00336817116, -0.000269409618, -0.001017271, 0.07604153  , -0.347782135, 0.6460159   , 0.00202772534, -0.0167626925, 1.386492    , 0.5         , 3           , 50          , 0           , 0
-0.171116918, -0.0205364879, -9.799807   , 0.00196245825, 0.000315736834, 0.000650383066, 0.0759067   , -0.3476473  , 0.646285534 , 0.00204724143, -0.01675955 , 1.38649821  , 0.51        , 3           , 11          , 0.0134329349, 0.01343293
-0.164456367, -0.0526920035, -9.785164   , 0.000293710618, -9.174853E-05, 0.0002456495, 0.07604153  , -0.347714722, 0.646352947 , 0.00205013854, -0.0167604722, 1.3865006   , 0.52        , 3           , 12          , 0.03509212  , 0
-0.128672674, -0.0145532023, -9.778362   , 0.00115852221, 0.0007145087, -8.183872E-05, 0.07604153  , -0.347714722, 0.646352947 , 0.00206173584, -0.0167533252, 1.38650012  , 0.53        , 3           , 50          , 0           , 0
-0.1471419  , -0.00492928736, -9.789181   , 0.0007577639, 0.0006482165, -0.0006827426, 0.07637859  , -0.3476473  , 0.6460833   , 0.00206942577, -0.01674683 , 1.38649344  , 0.54        , 3           , 11          , 0.0134329349, 0.01343293
-0.170224115, -0.0204416849, -9.812028   , -0.00151037273, -0.000103675819, 0.0007094982, 0.07610894  , -0.3476473  , 0.646352947 , 0.00205420377, -0.01674788 , 1.3865006   , 0.55        , 3           , 12          , 0.03509212  , 0
-0.161138   , -0.008033216, -9.789247   , -0.00278114527, 9.308678E-05, -0.000157871531, 0.0759741142, -0.3475799  , 0.646285534 , 0.00202641776, -0.0167469457, 1.38649869  , 0.56        , 3           , 50          , 0           , 0
-0.1606534  , 0.0009784792, -9.788706   , 0.00122928165, -0.000148684674, -0.00081981736, 0.07610894  , -0.347984374, 0.6461507   , 0.00203884672, -0.0167484172, 1.38649058  , 0.57        , 3           , 11          , 0.0134329349, 0.01343293
-0.173334271, -0.0106275622, -9.797452   , 0.00183229276, -0.000479305221, -0.000687447668, 0.07610894  , -0.347984374, 0.6461507   , 0.00205728551, -0.0167531967, 1.38648391  , 0.58        , 3           , 12          , 0.03509212  , 0
-0.153849974, 0.009464931 , -9.781813   , -0.00265023764, 0.0006309165, -0.00102123467, 0.07604153  , -0.3476473  , 0.646285534 , 0.0020309547, -0.0167468656, 1.38647342  , 0.59        , 3           , 50          , 0           , 0
-0.146222323, 0.000972040056, -9.794554   , -0.005133477, 0.0004489344, -0.0007581452, 0.0759741142, -0.347782135, 0.64642036  , 0.0017448219, -0.0166456271, 1.38647008  , 0.6         , 3           , 11          , 0.0113492813, 0.011349286
-0.162030816, -0.0006381087, -9.811361   , -0.0006505359, -0.00072967977, -2.4785184E-05, 0.0759067   , -0.347782135, 0.646285534 , 0.00173832045, -0.0166529231, 1.3864696   , 0.61        , 3           , 12          , 0.0353428423, 0
-0.158454344, -0.0152932415, -9.784783   , 0.00015770107, -0.00205954351, 0.000168956132, 0.0759067   , -0.347782135, 0.646285534 , 0.00173986866, -0.0166735221, 1.386471    , 0.62        , 3           , 50          , 0           , 0
-0.185037717, -0.007104371, -9.781601   , -0.000516528147, -0.000796476437, 0.000175019042, 0.07604153  , -0.3475799  , 0.6460833   , 0.00173467491, -0.0166814886, 1.386473    , 0.63        , 3           , 11          , 0.0113492813, 0.011349286
-0.156302258, -0.0376296565, -9.811708   , -0.0002566094, 0.0007401376, -0.000215944339, 0.07610894  , -0.3476473  , 0.6462181   , 0.0017321445, -0.0166740865, 1.386471    , 0.64        , 3           , 12          , 0.0353428423, 0
-0.168866485, -0.0247043222, -9.787165   , -0.0011207416, -0.000322184031, -0.00235628057, 0.0759067   , -0.347849548, 0.6460833   , 0.0017213308, -0.016677266, 1.38644719  , 0.65        , 3           , 50          , 0           , 0
-0.18641381 , -0.0157563742, -9.77037048 , -0.00105907477, 0.0008075653, -0.00141663384, 0.0759067   , -0.347849548, 0.6460833   , 0.00171097671, -0.0166691653, 1.38643289  , 0.66        , 3           , 11          , 0.0113492813, 0.011349286
-0.156239   , -0.0237769056, -9.79618    , 0.0002764806, 0.00113563868, 0.00152020785, 0.07604153  , -0.347984374, 0.646352947 , 0.00171348767, -0.0166578349, 1.38644814  , 0.67        , 3           , 12          , 0.0353428423, 0
-0.160243019, -0.00655677356, -9.805076   , 0.00267935265, 0.00168567151, 0.0007269716, 0.0759067   , -0.347714722, 0.6464878   , 0.00174015888, -0.01664099 , 1.38645577  , 0.68        , 3           , 50          , 0           , 0
-0.150739223, 0.00385751971, -9.814911   , 0.001149863 , 8.028548E-05, -1.7556682E-05, 0.0759741142, -0.347782135, 0.646352947 , 0.00175166142, -0.0166401882, 1.3864553   , 0.69        , 3           , 11          , 0.0113492813, 0.011349286
-0.172498435, -0.0263234265, -9.80847    , -0.00304111023, -0.00113081327, -0.000496323337, 0.0759741142, -0.347782135, 0.646352947 , 0.00160795986, -0.0166309  , 1.386452    , 0.7         , 3           , 12          , 0.03564595  , 0
-0.182361558, -0.01709495 , -9.773995   , -0.00317255617, -0.00153702369, 0.000767731341, 0.07583929  , -0.3476473  , 0.6462181   , 0.00157610816, -0.016646279, 1.38645959  , 0.71        , 3           , 50          , 0           , 0
-0.1629674  , -0.0143202282, -9.791576   , -0.000238033725, -0.0003825823, -0.00035462185, 0.0759067   , -0.3475799  , 0.64642036  , 0.001573786 , -0.0166500974, 1.38645625  , 0.72        , 3           , 11          , 0.0101319728, 0.0101319719
-0.156151682, 0.00105985627, -9.800917   , 0.0008282401, 0.0002239043, -0.00048294937, 0.07610894  , -0.347512484, 0.646285534 , 0.00158215  , -0.0166478511, 1.38645148  , 0.73        , 3           , 12          , 0.03564595  , 0
-0.133224487, -0.0187940728, -9.809655   , -0.0003090149, 0.000484628457, -0.0005498504, 0.07610894  , -0.347512484, 0.646285534 , 0.00157915126, -0.0166429952, 1.38644576  , 0.74        , 3           , 50          , 0           , 0
-0.163369745, -0.00312363519, -9.78196049 , -0.0007085238, 0.000151941247, -0.00121890323, 0.07617635  , -0.347849548, 0.646352947 , 0.00157226785, -0.01664146 , 1.38643384  , 0.75        , 3           , 11          , 0.0101319728, 0.0101319719
-0.162566543, -0.0287782  , -9.78809452 , -0.000305820373, -0.000182651027, -0.0004202631, 0.07610894  , -0.347714722, 0.646285534 , 0.00156927877, -0.0166432783, 1.38642955  , 0.76        , 3           , 12          , 0.03564595  , 0
-0.1801918  , -0.0297853649, -9.82301    , -0.00137438718, -0.000260077621, 0.000710911758, 0.07610894  , -0.347984374, 0.646352947 , 0.00155541673, -0.01664589 , 1.3864367   , 0.77        , 3           , 50          , 0           , 0
-0.1778345  , -0.00557507947, -9.806922   , -0.004175345, -0.00147328072, 0.000166654645, 0.07610894  , -0.347984374, 0.646352947 , 0.00151363655, -0.0166606251, 1.38643861  , 0.78        , 3           , 11          , 0.0101319728, 0.0101319719
-0.170653075, -0.017862143, -9.796157   , -0.00178419112, 0.00154384982, -0.000679445569, 0.07604153  , -0.347849548, 0.6462181   , 0.0014959058, -0.0166451763, 1.38643146  , 0.79        , 3           , 12          , 0.03564595  , 0
-0.1715826  , -0.020851139, -9.816564   , 0.000100243466, 0.0006426869, 0.000118371849, 0.07610894  , -0.3475799  , 0.6465552   , 0.00151198532, -0.0167070925, 1.38643241  , 0.8         , 3           , 50          , 0           , 0
-0.149456948, -0.0220895633, -9.784827   , 0.000966241 , 0.00118369667, -0.000543895934, 0.07604153  , -0.347714722, 0.6461507   , 0.0015217386, -0.0166952461, 1.38642716  , 0.81        , 3           , 11          , 0.009377742 , 0.009377738
-0.1706179  , -0.01214288 , -9.778445   , 0.00196678424, 0.00158722163, -7.3525E-05 , 0.07604153  , -0.347714722, 0.6461507   , 0.001541418 , -0.0166793745, 1.38642621  , 0.82        , 3           , 12          , 0.03599971  , 0
-0.16023761 , -0.00567689 , -9.802351   , -0.002368138, -0.000236187523, -0.000223538111, 0.07610894  , -0.347714722, 0.6460833   , 0.00151777489, -0.0166817326, 1.38642383  , 0.83        , 3           , 50          , 0           , 0
-0.161154971, -0.0158140045, -9.774836   , -0.0006965284, -0.000429024163, 0.000244497933, 0.07604153  , -0.347782135, 0.6464878   , 0.00151076913, -0.016686026, 1.38642621  , 0.84        , 3           , 11          , 0.009377742 , 0.009377738
-0.180983827, -0.006119612, -9.793805   , 0.000366393 , 0.000908542948, 0.00065353245, 0.07637859  , -0.347782135, 0.6466226   , 0.00151432247, -0.01667695 , 1.38643289  , 0.85        , 3           , 12          , 0.03599971  , 0
-0.139515013, -0.01669083 , -9.787919   , 0.0005721403, -0.000282964058, -0.00108597113, 0.0759741142, -0.347714722, 0.6462181   , 0.00152022555, -0.0166797619, 1.38642192  , 0.86        , 3           , 50          , 0           , 0
-0.147164166, -0.00703811832, -9.807311   , 0.001032035 , 0.00138551067, -0.0008759638, 0.0759741142, -0.347714722, 0.6462181   , 0.00153069058, -0.0166658945, 1.38641334  , 0.87        , 3           , 11          , 0.009377742 , 0.009377738
-0.167890042, -0.00254330225, -9.796001   , 0.001364722 , 0.00171783031, -0.000207012985, 0.0759741142, -0.3480518  , 0.646285534 , 0.00154437171, -0.0166487135, 1.38641143  , 0.88        , 3           , 12          , 0.03599971  , 0
-0.159297332, -0.0004590843, -9.778756   , 0.00182526442, 0.00319174537, -0.00126461964, 0.07617635  , -0.347714722, 0.646285534 , 0.00156283414, -0.0166167766, 1.38639855  , 0.89        , 3           , 50          , 0           , 0
-0.170639426, -0.0198764037, -9.769918   , -0.0007090525, 0.00053063425, -0.00048221866, 0.07610894  , -0.347782135, 0.6460833   , 0.00145121559, -0.0165796448, 1.38639569  , 0.9         , 3           , 11          , 0.008912676 , 0.008912669
-0.190990448, -0.0305049624, -9.784561   , 2.749207E-05, 0.000263688446, 0.0005172773, 0.07610894  , -0.347782135, 0.6460833   , 0.00145140453, -0.0165770147, 1.38640094  , 0.91        , 3           , 12          , 0.0364022367, 0
-0.165268153, -0.0241396558, -9.802997   , 0.000159728515, 0.000533688057, -8.09463454E-05, 0.07604153  , -0.347849548, 0.646352947 , 0.00145301421, -0.01657168 , 1.3864      , 0.92        , 3           , 50          , 0           , 0
-0.177838326, -0.0111525171, -9.78615    , -0.00277846283, 0.000116066418, 0.000245615724, 0.07637859  , -0.3476473  , 0.64642036  , 0.00142518827, -0.01657052 , 1.38640237  , 0.93        , 3           , 11          , 0.008912676 , 0.008912669
-0.1728908  , -0.01803917 , -9.773075   , -0.0007034066, -0.0006076436, 0.000644623768, 0.07617635  , -0.3480518  , 0.646352947 , 0.00141804747, -0.0165766068, 1.386409    , 0.94        , 3           , 12          , 0.0364022367, 0
-0.142610073, -1.21630719E-05, -9.785953   , -0.00130668667, -0.00021121341, 0.000712599955, 0.07617635  , -0.3480518  , 0.646352947 , 0.00140486378, -0.0165787283, 1.38641572  , 0.95        , 3           , 50          , 0           , 0
-0.16659148 , -0.0188298468, -9.789819   , -0.003641709, -0.00102325645, 0.000504582247, 0.07617635  , -0.347782135, 0.6462181   , 0.00136836327, -0.0165889673, 1.386421    , 0.96        , 3           , 11          , 0.008912676 , 0.008912669
-0.178369984, -0.0276323464, -9.81121349 , -0.00163591071, -0.00133755361, -0.00136063516, 0.0759067   , -0.347849548, 0.6464878   , 0.00135222974, -0.0166023243, 1.38640714  , 0.97        , 3           , 12          , 0.0364022367, 0
-0.14403294 , -0.0194118712, -9.783881   , -0.0005668537, -0.00132995413, -0.00175894878, 0.07617635  , -0.3480518  , 0.6462181   , 0.00134685251, -0.0166156  , 1.38639     , 0.98        , 3           , 50          , 0           , 0
-0.135464087, -0.01661142 , -9.799679   , -9.277352E-05, -0.00253893156, 0.000901361462, 0.07617635  , -0.3480518  , 0.6462181   , 0.00134577614, -0.0166410021, 1.386399    , 0.99        , 3           , 11          , 0.008912676 , 0.008912669
-0.180614009, -0.0277439319, -9.796279   , -0.00252025644, -0.00169903634, 0.0007678382, 0.0762437657, -0.347916961, 0.646285534 , 0.00138162158, -0.0165916849, 1.38640571  , 1           , 3           , 12          , 0.03685152  , 0
-0.157133728, -0.0247879475, -9.782156   , -0.00139090815, -0.000292996672, 0.0008440593, 0.0759067   , -0.347782135, 0.64642036  , 0.00136757246, -0.0165946279, 1.38641381  , 1.01        , 3           , 50          , 0           , 0
-0.169798568, -0.0290713143, -9.804415   , 0.000679782941, -0.000145398, 0.000181391326, 0.0759067   , -0.347916961, 0.646352947 , 0.00137433992, -0.0165960826, 1.38641572  , 1.02        , 3           , 11          , 0.008637265 , 0.008637258
-0.164772123, -0.0147789083, -9.789775   , -0.000454040535, -0.000617189042, -8.95834746E-05, 0.0759067   , -0.347916961, 0.646352947 , 0.0013698152, -0.0166022517, 1.38641477  , 1.03        , 3           , 12          , 0.03685152  , 0
-0.167443365, -0.004839219, -9.791041   , 0.0008152615, -0.00054353883, -8.727205E-05, 0.07631118  , -0.347984374, 0.64642036  , 0.00137798209, -0.0166076869, 1.38641381  , 1.04        , 3           , 50          , 0           , 0
-0.177808121, -0.004913328, -9.777034   , 0.002015891 , -7.109344E-05, 0.000117147123, 0.07604153  , -0.3476473  , 0.6464878   , 0.001398122 , -0.0166083984, 1.38641524  , 1.05        , 3           , 11          , 0.008637265 , 0.008637258
-0.158462361, -0.0170821045, -9.786612   , -0.000586703653, -0.0007575782, 0.00137593527, 0.07617635  , -0.347782135, 0.6464878   , 0.00139202678, -0.01661599 , 1.38642907  , 1.06        , 3           , 12          , 0.03685152  , 0
-0.153498709, -0.0208600573, -9.767621   , -0.0017242115, -0.000431331224, 0.00157603773, 0.07617635  , -0.347782135, 0.6464878   , 0.00137452211, -0.0166203286, 1.38644481  , 1.07        , 3           , 50          , 0           , 0
-0.16926986 , -0.0116243493, -9.787491   , -0.00199184776, -0.000426487415, 0.00010916117, 0.07604153  , -0.347849548, 0.646285534 , 0.00135458575, -0.0166245941, 1.38644576  , 1.08        , 3           , 11          , 0.008637265 , 0.008637258
-0.168408692, -0.0177542  , -9.810638   , -0.00285667554, -0.00129338866, -0.0009635343, 0.0762437657, -0.347782135, 0.64669     , 0.001326179 , -0.0166375134, 1.38643622  , 1.09        , 3           , 12          , 0.03685152  , 0
-0.176934183, -0.0102396328, -9.78795    , 0.0003288115, -0.000975370232, 0.000242221678, 0.07610894  , -0.347714722, 0.6465552   , 0.00138368353, -0.0166795161, 1.38643765  , 1.1         , 3           , 50          , 0           , 0
-0.1639046  , -0.0228466764, -9.796189   , -0.0003507311, 0.00141994841, 0.0005212529, 0.07610894  , -0.347714722, 0.6465552   , 0.00138008944, -0.01666532 , 1.38644242  , 1.11        , 3           , 11          , 0.008482846 , 0.008482839
-0.168422371, -0.02276082 , -9.804802   , 0.000644356245, 0.002958308 , 0.000664673164, 0.07617635  , -0.3476473  , 0.646352947 , 0.00138642057, -0.01663575 , 1.3864491   , 1.12        , 3           , 12          , 0.03734548  , 0
-0.1800585  , 0.000657962635, -9.79600048 , 0.00119091908, 0.00042833935, 0.00051800767, 0.0762437657, -0.347849548, 0.64642036  , 0.00139824348, -0.0166314747, 1.38645482  , 1.13        , 3           , 50          , 0           , 0
-0.158884078, -0.008492457, -9.789246   , -0.000612042029, 9.138122E-05, -0.0009530798, 0.07637859  , -0.347782135, 0.646352947 , 0.00139228126, -0.0166305471, 1.38644528  , 1.14        , 3           , 11          , 0.008482846 , 0.008482839
-0.1444373  , -0.00491753966, -9.791891   , -0.000207946941, -0.000512189057, 0.000377330318, 0.07637859  , -0.347782135, 0.646352947 , 0.00139013957, -0.0166356731, 1.3864491   , 1.15        , 3           , 12          , 0.03734548  , 0
-0.154345661, -0.00177193258, -9.785999   , 0.00152964611, -0.000567586743, -2.03355521E-05, 0.07631118  , -0.347849548, 0.6461507   , 0.00140543934, -0.0166413486, 1.38644862  , 1.16        , 3           , 50          , 0           , 0
-0.1665674  , -0.0115907937, -9.792917   , -0.00221562735, 7.998206E-05, -0.0003556096, 0.07610894  , -0.3476473  , 0.6464878   , 0.00138334243, -0.0166405439, 1.38644528  , 1.17        , 3           , 11          , 0.008482846 , 0.008482839
-0.169701025, -0.006681496, -9.78518    , -0.0016178349, 0.000879891333, 0.0004496742, 0.07617635  , -0.347849548, 0.6464878   , 0.0013670898, -0.0166317523, 1.38644958  , 1.18        , 3           , 12          , 0.03734548  , 0
-0.169273183, -0.0143985264, -9.778916   , 0.000257941167, -0.000110168141, 0.0005135967, 0.0762437657, -0.347849548, 0.646352947 , 0.00136958342, -0.0166328587, 1.38645482  , 1.19        , 3           , 50          , 0           , 0
-0.1593652  , -0.0156680271, -9.793844   , -0.0009913584, 0.001258958 , -0.0005462477, 0.0762437657, -0.347849548, 0.646352947 , 0.00131468719, -0.0166531783, 1.38645     , 1.2         , 3           , 11          , 0.008404293 , 0.008404291
-0.1638425  , -0.00664150529, -9.792862   , 0.00128349953, 0.0006702652, -0.000279503176, 0.07604153  , -0.347849548, 0.6464878   , 0.00132756727, -0.0166464727, 1.38644719  , 1.21        , 3           , 12          , 0.03788199  , 0
-0.145772249, 0.000981262 , -9.79591    , 0.000889382965, -0.0007961086, -0.0008882359, 0.0762437657, -0.347916961, 0.6465552   , 0.00133660925, -0.0166544225, 1.38643813  , 1.22        , 3           , 50          , 0           , 0
-0.16202271 , 0.0006817188, -9.807273   , 0.00329136965, 1.37192592E-05, -8.01972346E-05, 0.0759067   , -0.347849548, 0.646352947 , 0.00136953651, -0.0166542828, 1.38643765  , 1.23        , 3           , 11          , 0.008404293 , 0.008404291
-0.153048873, -0.0124228727, -9.807831   , -0.00178564759, -0.0002843254, 0.000710448949, 0.0759067   , -0.347849548, 0.646352947 , 0.00135156175, -0.0166571382, 1.38644433  , 1.24        , 3           , 12          , 0.03788199  , 0
-0.162523359, -0.0137801683, -9.802889   , 0.001416937 , 0.00055286783, -0.003812901, 0.07617635  , -0.347782135, 0.6465552   , 0.0013663657, -0.0166515578, 1.38640666  , 1.25        , 3           , 50          , 0           , 0
-0.158396065, 0.0009519085, -9.786435   , 0.00142920949, -0.001863342, -9.349262E-05, 0.0759741142, -0.347849548, 0.6465552   , 0.00138067419, -0.01667019 , 1.38640571  , 1.26        , 3           , 11          , 0.008404293 , 0.008404291
-0.180982783, -0.004258048, -9.801031   , -0.000729082967, 0.00238722679, 0.0009936242, 0.0759741142, -0.347714722, 0.646352947 , 0.001373217 , -0.0166463312, 1.38641572  , 1.27        , 3           , 12          , 0.03788199  , 0
-0.175603464, -0.0123498645, -9.806529   , 0.0014191519, 0.0002689678, 0.000185067693, 0.0759741142, -0.347714722, 0.646352947 , 0.00138737739, -0.016643649, 1.38641763  , 1.28        , 3           , 50          , 0           , 0
-0.165666282, -0.014859166, -9.779364   , -0.000183564334, -1.93947562E-06, -0.000885394868, 0.07617635  , -0.347782135, 0.6465552   , 0.00138568913, -0.0166436546, 1.38640857  , 1.29        , 3           , 11          , 0.008404293 , 0.008404291
-0.163841158, -0.011804454, -9.767559   , 0.00188634358, -0.0002983748, 0.0007173637, 0.07604153  , -0.3475799  , 0.6465552   , 0.001325468 , -0.0166856758, 1.38641715  , 1.3         , 3           , 12          , 0.0384588726, 0
-0.14222388 , -0.0180624  , -9.784317   , -0.00132263079, -4.47339844E-05, -0.00035256517, 0.07617635  , -0.347849548, 0.64642036  , 0.00131230068, -0.0166861154, 1.38641334  , 1.31        , 3           , 50          , 0           , 0
-0.143165365, -0.0279486626, -9.788038   , -0.00159150059, 0.000226218166, -0.0016846353, 0.07617635  , -0.347849548, 0.64642036  , 0.0012966661, -0.0166838318, 1.38639665  , 1.32        , 3           , 11          , 0.008366057 , 0.008366055
-0.148187369, -0.04181931 , -9.799051   , 0.00135138771, -0.000294426427, -0.000883236353, 0.07604153  , -0.347916961, 0.646285534 , 0.001310327 , -0.0166867636, 1.38638806  , 1.33        , 3           , 12          , 0.0384588726, 0
-0.1733964  , -0.028705202, -9.792196   , -0.001048069, -0.00163761852, -0.00169425749, 0.07604153  , -0.347849548, 0.64642036  , 0.00130013027, -0.0167031176, 1.3863709   , 1.34        , 3           , 50          , 0           , 0
-0.184669673, -0.0230930764, -9.81209    , -0.00105660793, 0.00022341765, -0.000350665825, 0.07631118  , -0.347916961, 0.646352947 , 0.00128962286, -0.0167008787, 1.38636708  , 1.35        , 3           , 11          , 0.008366057 , 0.008366055
-0.175645858, -0.022206774, -9.814322   , -0.002120763, -0.0008480411, -0.000624893757, 0.07631118  , -0.347916961, 0.646352947 , 0.00126851909, -0.01670935 , 1.38636088  , 1.36        , 3           , 12          , 0.0384588726, 0
-0.163336247, 0.007762214 , -9.790004   , 0.000274708436, 0.00129864144, -0.0006092909, 0.0759741142, -0.347714722, 0.646352947 , 0.0012713687, -0.0166963525, 1.38635468  , 1.37        , 3           , 50          , 0           , 0
-0.164324939, -0.0105266143, -9.81418    , 0.00374723948, 0.00184536877, 0.000732150336, 0.07610894  , -0.3476473  , 0.6465552   , 0.0013087187, -0.01667791 , 1.38636231  , 1.38        , 3           , 11          , 0.008366057 , 0.008366055
-0.160711318, -0.0133978352, -9.795183   , -0.00185334834, -0.000848867465, -9.12244141E-05, 0.07604153  , -0.347714722, 0.64642036  , 0.001290201 , -0.0166863985, 1.38636136  , 1.39        , 3           , 12          , 0.0384588726, 0
-0.1435842  , -0.0161121786, -9.801958   , -0.0007582038, 0.0007465189, -0.000347828376, 0.07604153  , -0.347714722, 0.64642036  , 0.001320886 , -0.0166922435, 1.38635707  , 1.4         , 3           , 50          , 0           , 0
-0.140406519, -0.008841243, -9.810481   , -0.0002213508, 0.000220684728, -0.00141651707, 0.0762437657, -0.347714722, 0.646352947 , 0.001318908 , -0.01669002 , 1.38634324  , 1.41        , 3           , 11          , 0.008346247 , 0.008346253
-0.156218871, -0.0141563527, -9.815101   , -0.00155747437, 0.00020759835, -8.540452E-05, 0.07617635  , -0.347782135, 0.6465552   , 0.00130334822, -0.01668794 , 1.38634229  , 1.42        , 3           , 12          , 0.03907397  , 0
-0.162589312, -0.02994534 , -9.811196   , -0.000747829734, -0.00139153027, 0.000706764462, 0.07617635  , -0.3475799  , 0.646352947 , 0.00129575119, -0.01670187 , 1.38634944  , 1.43        , 3           , 50          , 0           , 0
-0.153472319, -0.005687518, -9.804145   , 0.00165731891, -0.00137027062, -0.0011559769, 0.07617635  , -0.3475799  , 0.646352947 , 0.001312518 , -0.0167155564, 1.38633752  , 1.44        , 3           , 11          , 0.008346247 , 0.008346253
-0.1620616  , -0.0110840145, -9.801955   , -0.00102517521, 0.00073931017, 0.0009849167, 0.0759741142, -0.347782135, 0.6462181   , 0.00130210153, -0.0167081766, 1.38634753  , 1.45        , 3           , 12          , 0.03907397  , 0
-0.1502763  , 0.000456303358, -9.784608   , -0.002088065, -0.0005988308, 0.0007091974, 0.0757718757, -0.347782135, 0.6465552   , 0.00128110184, -0.0167141724, 1.38635468  , 1.46        , 3           , 50          , 0           , 0
-0.147138149, -0.0007552989, -9.803627   , 0.00137674843, 0.00155028573, 0.00152632478, 0.0759067   , -0.347714722, 0.6466226   , 0.00129461358, -0.01669869 , 1.38637     , 1.47        , 3           , 11          , 0.008346247 , 0.008346253
-0.140789   , 0.009638028 , -9.809396   , 0.0005760861, 0.00128034316, 0.00125697849, 0.07610894  , -0.347782135, 0.646352947 , 0.00130016555, -0.0166859031, 1.38638234  , 1.48        , 3           , 12          , 0.03907397  , 0
-0.162493587, -0.01081326 , -9.779317   , -0.00155658927, -5.21967049E-05, -0.00168667966, 0.07610894  , -0.347782135, 0.646352947 , 0.00128488184, -0.0166864023, 1.38636565  , 1.49        , 3           , 50          , 0           , 0
-0.164784417, -0.01792759 , -9.79071    , -0.0008237101, -0.0004614784, 0.000712253 , 0.07617635  , -0.347782135, 0.6466226   , 0.00119311176, -0.0165406466, 1.38637376  , 1.5         , 3           , 11          , 0.008330192 , 0.0083302
-0.184616461, -0.009603929, -9.807431   , 0.00211633136, -0.000443019147, 0.00018348117, 0.0759741142, -0.347782135, 0.6465552   , 0.00121424557, -0.0165450778, 1.38637567  , 1.51        , 3           , 12          , 0.03972514  , 0
-0.182835653, -0.0154498778, -9.8102     , 0.00291553861, 9.704934E-05, -0.0003455733, 0.07570446  , -0.347849548, 0.6464878   , 0.00124345871, -0.0165441018, 1.38637233  , 1.52        , 3           , 50          , 0           , 0
-0.144026667, -0.0138598792, -9.801484   , 0.00104110723, 0.00087992294, 0.00125582726, 0.07570446  , -0.347849548, 0.6464878   , 0.00125366193, -0.0165353231, 1.38638473  , 1.53        , 3           , 11          , 0.008330192 , 0.0083302
-0.154382721, -0.0140248742, -9.776158   , 0.00370873767, 0.00196478958, 0.000465981517, 0.07604153  , -0.347849548, 0.6465552   , 0.00129067281, -0.0165156778, 1.38638949  , 1.54        , 3           , 12          , 0.03972514  , 0
-0.177424222, -0.0201312155, -9.791217   , -0.00296353246, -0.000201959949, -0.000356043369, 0.0757718757, -0.347714722, 0.64669     , 0.00126109633, -0.0165176969, 1.38638616  , 1.55        , 3           , 50          , 0           , 0
-0.192260236, -0.004219724, -9.800607   , -0.00242389622, -0.00126574992, -0.000361191953, 0.07610894  , -0.347984374, 0.646352947 , 0.00123691745, -0.0165303461, 1.38638234  , 1.56        , 3           , 11          , 0.008330192 , 0.0083302
-0.16705662 , -0.0238311533, -9.784435   , -0.00268890732, -0.00179599237, -0.001431105, 0.07610894  , -0.347984374, 0.646352947 , 0.001210265 , -0.01654829 , 1.386368    , 1.57        , 3           , 12          , 0.03972514  , 0
-0.159874514, -0.028635582, -9.807102   , -0.002435282, 0.00113439013, -0.000347771071, 0.0757718757, -0.347782135, 0.646352947 , 0.0011859698, -0.0165369418, 1.38636422  , 1.58        , 3           , 50          , 0           , 0
-0.173783571, -0.007368134, -9.810099   , -0.001367205, 0.00140350638, 0.000455244619, 0.0759067   , -0.347916961, 0.64669     , 0.00117222429, -0.01652291 , 1.386369    , 1.59        , 3           , 11          , 0.008330192 , 0.0083302
-0.170063779, 0.0200185068, -9.797145   , -0.000240141846, -0.00212961319, -0.00062963547, 0.0762437657, -0.347984374, 0.6464878   , 0.00121950358, -0.0166353341, 1.38636136  , 1.6         , 3           , 12          , 0.04041028  , 0
-0.162013441, -0.002223337, -9.782401   , -0.00183868315, -0.00320745423, -0.000104787847, 0.0762437657, -0.347984374, 0.6464878   , 0.00120113464, -0.016667407, 1.38636041  , 1.61        , 3           , 50          , 0           , 0
-0.169247985, -0.00576693 , -9.786982   , -0.00237692776, -0.00241264212, 0.000432130822, 0.07604153  , -0.3475799  , 0.646285534 , 0.001177293 , -0.01669154 , 1.3863647   , 1.62        , 3           , 11          , 0.008308565 , 0.008308565
-0.166578129, -0.0156920683, -9.787524   , 0.00455744332, 0.0008246014, 0.0007272673, 0.0759067   , -0.347849548, 0.64642036  , 0.00122274563, -0.0166833  , 1.38637185  , 1.63        , 3           , 12          , 0.04041028  , 0
-0.161624521, -0.01796115 , -9.787986   , -0.00211988715, -0.0002754192, -8.879266E-05, 0.0759741142, -0.347849548, 0.646352947 , 0.00120156293, -0.0166860558, 1.3863709   , 1.64        , 3           , 50          , 0           , 0
-0.171104789, -0.0183222219, -9.794806   , -0.001848867, -0.00107284868, -0.000359488826, 0.0759741142, -0.347849548, 0.646352947 , 0.00118313509, -0.01669678 , 1.38636756  , 1.65        , 3           , 11          , 0.008308565 , 0.008308565
-0.184573442, -0.00115774386, -9.792407   , -0.00532721635, -0.000295347883, 0.000439571042, 0.0759067   , -0.347984374, 0.646352947 , 0.001129788 , -0.0166997369, 1.38637185  , 1.66        , 3           , 12          , 0.04041028  , 0
-0.185098976, -0.020509908, -9.796672   , 0.00188658619, 0.000285725779, -0.00141284137, 0.07604153  , -0.347512484, 0.6464878   , 0.0011488907, -0.0166968629, 1.38635755  , 1.67        , 3           , 50          , 0           , 0
-0.184598863, -0.00136137381, -9.823196   , -0.00105598534, 0.000800630951, -0.0008810872, 0.07617635  , -0.3476473  , 0.64642036  , 0.00113847735, -0.0166888461, 1.386349    , 1.68        , 3           , 11          , 0.008308565 , 0.008308565
-0.194059908, -0.00379487686, -9.796532   , 0.00242407247, -0.000251587131, 0.0001847762, 0.07617635  , -0.3476473  , 0.64642036  , 0.00116268743, -0.0166913643, 1.38635087  , 1.69        , 3           , 12          , 0.04041028  , 0
-0.1850599  , -0.00780975027, -9.806057   , -0.00108679687, 0.000344601343, -8.194601E-05, 0.07604153  , -0.347849548, 0.6462181   , 0.00111226668, -0.0169158969, 1.38635039  , 1.7         , 3           , 50          , 0           , 0
-0.161146909, -0.007004274, -9.805083   , -0.00295275263, -0.000732413435, -9.0767775E-05, 0.0759741142, -0.3476473  , 0.646285534 , 0.00108275539, -0.016923219, 1.38634944  , 1.71        , 3           , 11          , 0.00827643648, 0.008276439
-0.141277149, -0.00448571332, -9.790973   , -0.00428059 , -0.00260194484, -0.00116976956, 0.07583929  , -0.347782135, 0.646285534 , 0.00104014738, -0.0169492271, 1.38633752  , 1.72        , 3           , 12          , 0.0411273353, 0
-0.152579427, -0.007934226, -9.805523   , -0.00241570966, -0.00126169133, -0.0003595646, 0.07583929  , -0.347782135, 0.646285534 , 0.00101605046, -0.0169618446, 1.38633418  , 1.73        , 3           , 50          , 0           , 0
-0.162993327, -0.01732712 , -9.810167   , -0.0008093881, -0.00178738683, -9.346758E-05, 0.07617635  , -0.347782135, 0.646285534 , 0.00100797159, -0.016979713, 1.38633323  , 1.74        , 3           , 11          , 0.00827643648, 0.008276439
-0.1639226  , -0.0254681539, -9.806628   , -0.0005472238, -0.000718040857, -0.000353725278, 0.0759741142, -0.347512484, 0.6465552   , 0.0010025599, -0.01698689 , 1.38632989  , 1.75        , 3           , 12          , 0.0411273353, 0
-0.180168316, -0.0286254976, -9.799004   , 0.00212306273, -0.00016883442, -0.0006132921, 0.0757718757, -0.347849548, 0.646352947 , 0.001023895 , -0.0169885736, 1.38632321  , 1.76        , 3           , 50          , 0           , 0
-0.1792716  , -0.0290397126, -9.803986   , -1.65063539E-05, 8.609255E-05, -0.0006150659, 0.0757718757, -0.347849548, 0.646352947 , 0.00102383539, -0.0169877056, 1.38631749  , 1.77        , 3           , 11          , 0.00827643648, 0.008276439
-0.1642958  , -0.004276518, -9.806421   , -0.00135389483, 0.000339688326, 0.000717537769, 0.07610894  , -0.347782135, 0.646285534 , 0.00101017451, -0.0169843137, 1.38632464  , 1.78        , 3           , 12          , 0.0411273353, 0
-0.149390578, -0.0007796269, -9.799559   , -0.000552157464, 0.000346392277, 0.000185500889, 0.0759067   , -0.347782135, 0.6464878   , 0.001004623 , -0.0169808529, 1.38632607  , 1.79        , 3           , 50          , 0           , 0
-0.162553385, -0.01721246 , -9.824654   , -0.00131408451, -0.0004574644, 0.0009790934, 0.0759741142, -0.347714722, 0.64642036  , 0.00103699858, -0.0169803035, 1.38633513  , 1.8         , 3           , 11          , 0.00823260751, 0.008232619
-0.166573331, -0.0152739361, -9.783445   , -0.0010457848, -0.0007180858, -8.851217E-05, 0.07604153  , -0.347782135, 0.646352947 , 0.00102655811, -0.0169874821, 1.38633418  , 1.81        , 3           , 12          , 0.0418743268, 0
-0.1602425  , -0.00937094353, -9.791521   , 0.0005608535, -0.001249521, 0.001510738 , 0.07604153  , -0.347782135, 0.646352947 , 0.00103190925, -0.0169999972, 1.386349    , 1.82        , 3           , 50          , 0           , 0
-0.168892249, -0.0286492817, -9.801238   , -0.00265191635, -0.000195833447, 0.000445282756, 0.0762437657, -0.347782135, 0.6464878   , 0.00100531545, -0.0170019548, 1.38635373  , 1.83        , 3           , 11          , 0.00823260751, 0.008232619
-0.1644123  , -0.0423842445, -9.777367   , -0.00157650211, -0.00152221892, 0.000172828572, 0.07583929  , -0.347782135, 0.64669     , 0.0009895219, -0.0170171782, 1.38635564  , 1.84        , 3           , 12          , 0.0418743268, 0
-0.1481322  , -0.0330313444, -9.770442   , -0.000513169, -0.000192113235, 0.00231496221, 0.07610894  , -0.347782135, 0.6464878   , 0.0009839955, -0.0170191228, 1.38637853  , 1.85        , 3           , 50          , 0           , 0
-0.172986716, -0.0381056666, -9.800888   , -0.003446443, -0.00179574348, -0.000631411443, 0.07610894  , -0.347782135, 0.6464878   , 0.0009496382, -0.0170370713, 1.38637233  , 1.86        , 3           , 11          , 0.00823260751, 0.008232619
-0.171479732, 0.00101511925, -9.788279   , -0.00319136283, 0.0008645131, 0.00125032314, 0.07610894  , -0.3476473  , 0.64642036  , 0.000917511 , -0.0170284435, 1.38638473  , 1.87        , 3           , 12          , 0.0418743268, 0
-0.204947218, -0.01857086 , -9.8044     , -0.00131547626, -0.000188486389, 0.000447323429, 0.0759067   , -0.3476473  , 0.6464878   , 0.000904280634, -0.0170303285, 1.386389    , 1.88        , 3           , 50          , 0           , 0
-0.171133131, -0.0269210953, -9.790814   , -0.00131579291, -0.00018274707, -0.000885829737, 0.0762437657, -0.347849548, 0.6462181   , 0.0008912738, -0.0170321483, 1.38638043  , 1.89        , 3           , 11          , 0.00823260751, 0.008232619
-0.162071526, -0.0156615954, -9.793398   , -0.0008955307, -0.000504519267, -0.00115605665, 0.0762437657, -0.347849548, 0.6462181   , 0.00108269835, -0.0171132665, 1.38636518  , 1.9         , 3           , 12          , 0.0426493362, 0
-0.174223676, -0.00654473947, -9.800131   , 0.00205520121, -0.00262984866, 0.0007029175, 0.07604153  , -0.347849548, 0.646285534 , 0.00110313029, -0.0171395745, 1.38637185  , 1.91        , 3           , 50          , 0           , 0
-0.178334713, -0.02050963 , -9.799825   , 0.00204166537, 0.000296768645, 0.00231910474, 0.07604153  , -0.3476473  , 0.6464878   , 0.00112315023, -0.01713663 , 1.38639522  , 1.92        , 3           , 11          , 0.008176348 , 0.008176355
-0.169278875, -0.0119988527, -9.797003   , 0.0009783322, -0.0010333372, 0.000176971065, 0.07610894  , -0.347782135, 0.646352947 , 0.00113290374, -0.0171469674, 1.38639665  , 1.93        , 3           , 12          , 0.0426493362, 0
-0.1738258  , -0.0181631  , -9.813373   , -9.36666038E-05, -0.000500111, -0.00115483231, 0.07610894  , -0.347782135, 0.646352947 , 0.00113216508, -0.0171519537, 1.3863852   , 1.94        , 3           , 50          , 0           , 0
-0.16384685 , -0.007532304, -9.794229   , -0.00169695157, -0.000516962551, 0.0007091334, 0.07637859  , -0.347714722, 0.646285534 , 0.0011150738, -0.0171571337, 1.38639235  , 1.95        , 3           , 11          , 0.008176348 , 0.008176355
-0.1738804  , -0.0335101858, -9.811259   , 0.00203850167, 0.0008416119, -0.000344219239, 0.07583929  , -0.347782135, 0.646285534 , 0.00113551749, -0.0171487126, 1.386389    , 1.96        , 3           , 12          , 0.0426493362, 0
-0.183799982, -0.0353966355, -9.796362   , 0.000437114155, 0.0003028744, -0.0011495424, 0.0759067   , -0.3476473  , 0.6464878   , 0.00114008517, -0.0171456728, 1.38637757  , 1.97        , 3           , 50          , 0           , 0
-0.146721378, -0.0144424476, -9.78384    , -0.00143997418, 0.00162140839, -7.842065E-05, 0.0759067   , -0.3476473  , 0.6464878   , 0.00112569949, -0.0171294585, 1.38637662  , 1.98        , 3           , 11          , 0.008176348 , 0.008176355
-0.144033581, -0.016128676, -9.799696   , -0.00196082424, -0.00131159159, -0.000895532139, 0.0759741142, -0.347782135, 0.646352947 , 0.00110624416, -0.0171425641, 1.386368    , 1.99        , 3           , 12          , 0.0426493362, 0
-0.160716623, -0.0147467479, -9.79565048 , -0.00237955712, -0.00422550039, 0.00175181159, 0.07610894  , -0.347512484, 0.6464878   , 0.00122099277, -0.0171382241, 1.38638282  , 2           , 3           , 50          , 0           , 0
-0.183209017, -0.0008100905, -9.780176   , 0.00294691022, -0.000190139268, 0.000449189334, 0.0759741142, -0.347916961, 0.646352947 , 0.00125038577, -0.0171401333, 1.38638711  , 2.01        , 3           , 11          , 0.008109835 , 0.008109836
-0.1688331  , -0.009604497, -9.814635   , -0.0002645945, 0.000596865953, -0.000617757149, 0.0759741142, -0.347916961, 0.646352947 , 0.00124784722, -0.01713416 , 1.38638091  , 2.02        , 3           , 12          , 0.0434505343, 0
-0.143241   , -0.0444810726, -9.806762   , -0.0005320092, 0.0005976922, -0.0011514267, 0.0759067   , -0.347916961, 0.64642036  , 0.00124272355, -0.0171281658, 1.38636947  , 2.03        , 3           , 50          , 0           , 0
-0.167040855, -0.0151013928, -9.804724   , 0.00268069725, -0.000454847352, -0.000352601957, 0.0757718757, -0.3475799  , 0.646352947 , 0.00126959139, -0.01713271 , 1.38636613  , 2.04        , 3           , 11          , 0.008109835 , 0.008109836
-0.173329681, -0.005526429, -9.815059   , 0.000817145163, -0.00206293073, -0.000897667371, 0.0757718757, -0.3475799  , 0.6465552   , 0.00127791916, -0.0171533283, 1.38635707  , 2.05        , 3           , 12          , 0.0434505343, 0
-0.151671723, -0.00378176 , -9.817704   , 0.001613949 , -0.0009917938, -0.0008904782, 0.0757718757, -0.3475799  , 0.6465552   , 0.0012942116, -0.0171632338, 1.386348    , 2.06        , 3           , 50          , 0           , 0
-0.173330352, -0.01113658 , -9.790214   , 0.0005361311, 0.0008656608, -8.178031E-05, 0.07604153  , -0.3476473  , 0.646285534 , 0.00129958673, -0.0171545818, 1.386347    , 2.07        , 3           , 11          , 0.008109835 , 0.008109836
-0.155327961, -0.0224677  , -9.791183   , -0.00106993713, 0.00138676516, 0.0007186452, 0.0757718757, -0.347714722, 0.6464878   , 0.00128876383, -0.0171407219, 1.38635468  , 2.08        , 3           , 12          , 0.0434505343, 0
-0.1602669  , -0.0166063569, -9.788875   , 0.00239538122, 0.00328297354, -0.00166528625, 0.07604153  , -0.347714722, 0.6462181   , 0.00131300255, -0.01710787 , 1.38633752  , 2.09        , 3           , 50          , 0           , 0
-0.1480579  , -0.009463519, -9.785605   , 0.00136943581, 0.000657411641, -0.000882501365, 0.07610894  , -0.347782135, 0.6461507   , 0.00137012138, -0.0170292165, 1.386328    , 2.1         , 3           , 11          , 0.008034827 , 0.008034834
-0.1628834  , 0.00586987846, -9.779155   , -0.00129560044, -0.0009619674, 0.0001709926, 0.07610894  , -0.347782135, 0.6461507   , 0.00135713629, -0.0170388352, 1.38632989  , 2.11        , 3           , 12          , 0.0442761667, 0
-0.178728521, -0.00284844078, -9.809161   , -0.001026794, -0.00123177166, 0.001236432 , 0.0757718757, -0.347714722, 0.6462181   , 0.00134665868, -0.01705117 , 1.38634229  , 2.12        , 3           , 50          , 0           , 0
-0.1598611  , -0.0222218744, -9.819717   , -0.00316048064, -0.00230222079, -0.00063921226, 0.0759067   , -0.347782135, 0.6464878   , 0.00131516368, -0.01707418 , 1.38633561  , 2.13        , 3           , 11          , 0.008034827 , 0.008034834
-0.134087086, -0.0126496814, -9.788319   , 0.00163938082, 0.0001232209, -0.0003518144, 0.0759067   , -0.347849548, 0.646285534 , 0.00133161689, -0.017072944, 1.38633227  , 2.14        , 3           , 12          , 0.0442761667, 0
-0.14257066 , 0.010811884 , -9.786299   , -0.0015654189, -0.000430072279, 0.000173566892, 0.0759067   , -0.347849548, 0.646285534 , 0.001315935 , -0.0170772485, 1.3863337   , 2.15        , 3           , 50          , 0           , 0
-0.1764891  , -0.007838011, -9.806488   , -0.00290053012, -0.000705249433, 0.0004366657, 0.07583929  , -0.347849548, 0.646285534 , 0.001286856 , -0.017084308, 1.386338    , 2.16        , 3           , 11          , 0.008034827 , 0.008034834
-0.173355922, -0.0141471159, -9.80835152 , 0.00457486836, 0.00119922613, 0.00125842367, 0.07583929  , -0.347714722, 0.6466226   , 0.00133238989, -0.017072333, 1.38635087  , 2.17        , 3           , 12          , 0.0442761667, 0
-0.1598424  , -0.0214801449, -9.79978752 , -0.002623438, -0.00283149839, -0.000908009068, 0.0757718757, -0.347984374, 0.6462181   , 0.00130631088, -0.0171006322, 1.38634133  , 2.18        , 3           , 50          , 0           , 0
-0.1571101  , -0.0133312773, -9.805133   , 0.00138373184, -0.00228298 , 0.0007008791, 0.0757718757, -0.347984374, 0.6462181   , 0.001320028 , -0.0171234719, 1.38634849  , 2.19        , 3           , 11          , 0.008034827 , 0.008034834
-0.161567926, 0.00345058925, -9.815395   , -0.0005067296, -0.00114795775, -0.000362338178, 0.0759741142, -0.347714722, 0.64642036  , 0.001294076 , -0.0170253366, 1.38634515  , 2.2         , 3           , 12          , 0.0451245829, 0
-0.154386491, -0.0107089579, -9.796047   , 0.0005621692, -0.00113748864, -0.00142722821, 0.07583929  , -0.347714722, 0.6464878   , 0.00129994017, -0.0170366876, 1.38633132  , 2.21        , 3           , 50          , 0           , 0
-0.16302672 , -0.0286819935, -9.799867   , -0.000239504865, -0.0011453405, -0.0006285606, 0.07563705  , -0.347916961, 0.64642036  , 0.00129765179, -0.0170481335, 1.38632512  , 2.22        , 3           , 11          , 0.007954017 , 0.00795403
-0.1756886  , -0.033932507, -9.813985   , 0.00163011963, -0.000866076734, -0.001157474, 0.07563705  , -0.347916961, 0.64642036  , 0.001314151 , -0.0170567781, 1.3863132   , 2.23        , 3           , 12          , 0.0451245829, 0
-0.158007085, -0.0096374955, -9.815514   , -0.0007793946, -7.6958815E-05, -0.00168993464, 0.07617635  , -0.347782135, 0.646352947 , 0.00130664418, -0.0170575269, 1.38629651  , 2.24        , 3           , 50          , 0           , 0
-0.173328623, -0.003664853, -9.822285   , -0.00051805214, 0.00125103456, -8.228664E-05, 0.0759741142, -0.347714722, 0.6464878   , 0.00130147708, -0.0170450136, 1.38629556  , 2.25        , 3           , 11          , 0.007954017 , 0.00795403
-0.157597125, -0.0260624755, -9.791677   , -0.0007840116, 0.0009817352, 0.000182444652, 0.07617635  , -0.347849548, 0.646352947 , 0.001293606 , -0.0170352  , 1.38629746  , 2.26        , 3           , 12          , 0.0451245829, 0
-0.161156222, -0.01299257 , -9.789294   , -0.00131991622, 0.00124662637, -8.351104E-05, 0.07617635  , -0.347849548, 0.646352947 , 0.00128042  , -0.01702273 , 1.38629651  , 2.27        , 3           , 50          , 0           , 0
-0.151671275, -0.009871863, -9.789241   , -0.00130612683, -0.00168458233, -0.0006331756, 0.07617635  , -0.347782135, 0.6462181   , 0.00126746669, -0.01703957 , 1.38629031  , 2.28        , 3           , 11          , 0.007954017 , 0.00795403
-0.16384913 , -0.008444909, -9.792879   , 0.00563330436, 0.000485932018, -0.0003440039, 0.0759067   , -0.3475799  , 0.6464878   , 0.00132385863, -0.0170347076, 1.386287    , 2.29        , 3           , 12          , 0.0451245829, 0
-0.1738181  , -0.0182430819, -9.803413   , 0.00189205643, 0.0007792188, 0.00125148566, 0.0757718757, -0.347782135, 0.64642036  , 0.00134513038, -0.01694366 , 1.38629937  , 2.3         , 3           , 50          , 0           , 0
-0.158100933, -0.03674669 , -9.808535   , -0.001849344, 0.000503443356, -0.00142202573, 0.0757718757, -0.347782135, 0.64642036  , 0.00132687832, -0.0169386063, 1.38628554  , 2.31        , 3           , 11          , 0.007866194 , 0.007866206
-0.133219063, -0.02353162 , -9.781178   , -0.000509803765, -3.29047034E-05, 0.0009767081, 0.07610894  , -0.347782135, 0.646352947 , 0.00132161425, -0.016938949, 1.38629508  , 2.32        , 3           , 12          , 0.0459941961, 0
-0.164382234, -0.0338035561, -9.779094   , 2.74291524E-05, -0.000565626135, 0.00150780333, 0.0759067   , -0.347714722, 0.6464878   , 0.001321633 , -0.0169446263, 1.38631034  , 2.33        , 3           , 50          , 0           , 0
-0.157174215, -0.0318561271, -9.800335   , -0.00265323161, 0.00102321687, 0.0007127773, 0.07604153  , -0.347782135, 0.64642036  , 0.00129497924, -0.0169344041, 1.38631749  , 2.34        , 3           , 11          , 0.007866194 , 0.007866206
-0.171994388, -0.0114288665, -9.810586   , 0.0013647544, -0.000818074157, -9.14310658E-05, 0.07604153  , -0.347782135, 0.64642036  , 0.00130864338, -0.016942583, 1.38631654  , 2.35        , 3           , 12          , 0.0459941961, 0
-0.168401167, -0.0187686  , -9.796614   , 2.34438776E-05, 0.000237864253, 0.000712385 , 0.0757718757, -0.347782135, 0.646352947 , 0.00130875688, -0.0169402137, 1.38632321  , 2.36        , 3           , 50          , 0           , 0
-0.1634678  , -0.026444247, -9.797581   , -0.00291432068, -0.000309368043, 0.0001716519, 0.0757718757, -0.3476473  , 0.6465552   , 0.00127958518, -0.0169433076, 1.38632512  , 2.37        , 3           , 11          , 0.007866194 , 0.007866206
-0.15034008 , -0.01432723 , -9.796524   , -0.00291969767, 0.000763100164, -0.00115553651, 0.0759741142, -0.347714722, 0.6464878   , 0.00125058519, -0.0169356689, 1.38631368  , 2.38        , 3           , 12          , 0.0459941961, 0
-0.150776446, -0.009329846, -9.801004   , -0.00397487031, -0.00217742985, -0.0009069416, 0.0759741142, -0.347714722, 0.6464878   , 0.00121099153, -0.0169574283, 1.38630414  , 2.39        , 3           , 50          , 0           , 0
-0.1543905  , -0.009730915, -9.805546   , 0.00114515494, 0.00191814383, -0.00114455936, 0.0759741142, -0.3476473  , 0.6462181   , 0.001319632 , -0.016832158, 1.38629174  , 2.4         , 3           , 11          , 0.007776901 , 0.00777691463
-0.169669539, 0.003757138 , -9.79368    , -0.00152007141, 0.0003022085, -0.0008909572, 0.0759741142, -0.3476473  , 0.6464878   , 0.00130458164, -0.0168291237, 1.38628268  , 2.41        , 3           , 12          , 0.04688353  , 0
-0.157527149, -0.012747827, -9.765288   , 0.0003521466, 4.69600163E-05, -0.00115622219, 0.0759067   , -0.3476473  , 0.646352947 , 0.00130829751, -0.01682864 , 1.38627076  , 2.42        , 3           , 50          , 0           , 0
-0.1688925  , -0.02724219 , -9.808017   , -0.0009785998, -0.00103859475, 0.00150207873, 0.0759067   , -0.347782135, 0.646285534 , 0.0012982568, -0.0168390442, 1.386286    , 2.43        , 3           , 11          , 0.007776901 , 0.00777691463
-0.19643873 , -0.03386622 , -9.812678   , -0.0023178868, -0.000506837969, 0.000169867359, 0.0759067   , -0.347782135, 0.646285534 , 0.00127504917, -0.0168441162, 1.38628793  , 2.44        , 3           , 12          , 0.04688353  , 0
-0.1819076  , -0.010104835, -9.802449   , -0.000178950766, -0.0007502862, -0.00249466533, 0.0759067   , -0.3475799  , 0.646285534 , 0.00127368  , -0.0168515872, 1.38626313  , 2.45        , 3           , 50          , 0           , 0
-0.167434573, 0.000218290836, -9.803216   , -0.0009877721, 0.0008339204, 0.000179364055, 0.07610894  , -0.3481192  , 0.6464878   , 0.00126377109, -0.0168432519, 1.386265    , 2.46        , 3           , 11          , 0.007776901 , 0.00777691463
-0.171994627, -0.01563921 , -9.791612   , -0.000445478829, -0.0007655301, 0.0007044943, 0.07610894  , -0.347916961, 0.646285534 , 0.0012591983, -0.0168509148, 1.38627172  , 2.47        , 3           , 12          , 0.04688353  , 0
-0.150819719, -0.02198637 , -9.797053   , -0.000178507471, -0.000758321257, -0.0006282507, 0.07610894  , -0.347916961, 0.646285534 , 0.00125751947, -0.016858492, 1.38626552  , 2.48        , 3           , 50          , 0           , 0
-0.151764333, -0.0318399221, -9.804849   , -0.000183187876, 0.000301520515, 0.0009774979, 0.07604153  , -0.3475799  , 0.646352947 , 0.001255522 , -0.0168554857, 1.386275    , 2.49        , 3           , 11          , 0.007776901 , 0.00777691463
-0.1490562  , -0.0304610766, -9.809357   , 0.000396857649, 0.00164507574, 0.00151811994, 0.0759067   , -0.347714722, 0.64642036  , 0.00134513329, -0.0168232564, 1.38628888  , 2.5         , 3           , 12          , 0.04779118  , 0
-0.174717531, -0.0201412831, -9.791209   , -0.001459484, -0.00155621383, -0.000635676552, 0.0759067   , -0.347714722, 0.6464878   , 0.0013306468, -0.01683881 , 1.38628268  , 2.51        , 3           , 50          , 0           , 0
-0.184575349, -0.00020150654, -9.79919    , -0.00146852969, 0.000314005156, -0.00142513006, 0.0759067   , -0.347714722, 0.6464878   , 0.0013162028, -0.0168356542, 1.3862679   , 2.52        , 3           , 11          , 0.007683434 , 0.007683432
-0.1733374  , -0.0143398009, -9.784359   , -0.000126585845, -0.000753411849, 0.000437360228, 0.07604153  , -0.347714722, 0.646352947 , 0.001314864 , -0.0168431923, 1.38627267  , 2.53        , 3           , 12          , 0.04779118  , 0
-0.167917341, -0.01302556 , -9.782069   , -0.000391533657, -0.001284802, -0.0003659223, 0.07583929  , -0.3476473  , 0.64642036  , 0.00131101022, -0.0168560371, 1.38626885  , 2.54        , 3           , 50          , 0           , 0
-0.180545256, -0.0134803187, -9.775766   , 0.000927321846, 0.00245380052, 0.000190256615, 0.0759067   , -0.3476473  , 0.6464878   , 0.0013202515, -0.0168314986, 1.38627076  , 2.55        , 3           , 11          , 0.007683434 , 0.007683432
-0.16159007 , -0.006617181, -9.79693    , 0.002008998 , -0.000204848446, -0.000356284261, 0.0759067   , -0.3476473  , 0.6464878   , 0.00134040089, -0.0168335419, 1.386267    , 2.56        , 3           , 12          , 0.04779118  , 0
-0.159886464, -0.03178789 , -9.807585   , 0.00119948015, 0.00139198452, -0.000615192, 0.0759741142, -0.347714722, 0.646285534 , 0.00135249831, -0.0168196131, 1.38626122  , 2.57        , 3           , 50          , 0           , 0
-0.162066549, -0.0161815174, -9.78480148 , -0.00147415849, 0.00163478963, 0.001515263 , 0.0759741142, -0.347714722, 0.6464878   , 0.0013375032, -0.016803287, 1.386276    , 2.58        , 3           , 11          , 0.007683434 , 0.007683432
-0.167940125, -0.0141927  , -9.80517    , 0.0004040049, 5.301733E-05, -0.000357241835, 0.0759067   , -0.347714722, 0.6461507   , 0.00134160311, -0.01680275 , 1.38627267  , 2.59        , 3           , 12          , 0.04779118  , 0
-0.163446531, -0.0191761125, -9.804301   , -0.0009006959, -0.00104228768, 0.0007008349, 0.0759067   , -0.347714722, 0.6461507   , 0.00137807033, -0.0168418754, 1.38627887  , 2.6         , 3           , 50          , 0           , 0
-0.153061762, -0.01603331 , -9.807414   , -0.00170388829, -0.0007788659, 0.00043447112, 0.0759067   , -0.347984374, 0.6461507   , 0.00136095751, -0.0168496668, 1.38628316  , 2.61        , 3           , 11          , 0.00758630456, 0.00758629851
-0.1647312  , -0.0006934814, -9.803219   , 0.000961084559, 0.000841660949, -0.0008856534, 0.0759067   , -0.347714722, 0.6464878   , 0.00137071789, -0.0168412421, 1.38627458  , 2.62        , 3           , 12          , 0.0487158261, 0
-0.175087959, -0.0008511953, -9.778798   , -0.00197762856, 0.000555371633, -9.17422149E-05, 0.07604153  , -0.347849548, 0.64642036  , 0.00135095755, -0.016835684, 1.38627362  , 2.63        , 3           , 50          , 0           , 0
-0.152616471, -0.0220596381, -9.787098   , -0.0017040784, -0.000775422261, -0.0003654208, 0.07604153  , -0.347849548, 0.64642036  , 0.00133397861, -0.0168434363, 1.38626981  , 2.64        , 3           , 11          , 0.00758630456, 0.00758629851
-0.142663836, -0.01255963 , -9.795583   , 0.00229910621, 0.0005765864, 0.000448049163, 0.07604153  , -0.347849548, 0.6462181   , 0.00135689462, -0.0168376733, 1.3862741   , 2.65        , 3           , 12          , 0.0487158261, 0
-0.138149485, -0.0130781569, -9.789238   , 0.0012323577, 3.964016E-05, -8.982707E-05, 0.07583929  , -0.347714722, 0.64642036  , 0.00136923359, -0.0168372765, 1.38627315  , 2.66        , 3           , 50          , 0           , 0
-0.155712262, -0.0035012255, -9.794621   , 0.00256127072, 0.00164593279, 0.000187791491, 0.0759067   , -0.3476473  , 0.646352947 , 0.00139481516, -0.0168208219, 1.386275    , 2.67        , 3           , 11          , 0.00758630456, 0.00758629851
-0.169206664, 0.00971831  , -9.806297   , 0.00150204939, -0.00048995926, -0.0006256626, 0.0759067   , -0.3476473  , 0.646352947 , 0.00140994124, -0.0168257114, 1.38626885  , 2.68        , 3           , 12          , 0.0487158261, 0
-0.1507351  , -0.00133450888, -9.785986   , 0.00123786146, -0.001035124, 0.00177062256, 0.07617635  , -0.3476473  , 0.646285534 , 0.00142202107, -0.0168360863, 1.3862865   , 2.69        , 3           , 50          , 0           , 0
-0.1499174  , -0.0262036975, -9.777624   , 0.001711708 , 0.00142478128, 0.00151900679, 0.07610894  , -0.347714722, 0.6466226   , 0.00135072193, -0.0167222954, 1.38630319  , 2.7         , 3           , 11          , 0.007488678 , 0.007488671
-0.170679852, -0.0255411379, -9.794422   , 0.00145536242, -0.0009687931, -0.000361236685, 0.07583929  , -0.347782135, 0.6466226   , 0.001365336 , -0.0167319756, 1.38629937  , 2.71        , 3           , 12          , 0.0496562272, 0
-0.185083017, -0.0145906843, -9.803859   , 0.00358575932, 0.0006487948, -0.00168217765, 0.0759067   , -0.3476473  , 0.646285534 , 0.00140147551, -0.01672547 , 1.38628268  , 2.72        , 3           , 50          , 0           , 0
-0.173768625, -0.008927917, -9.784307   , 0.00117662514, 0.00143102545, -0.0006148545, 0.0759067   , -0.3476473  , 0.646285534 , 0.00141334347, -0.01671115 , 1.38627648  , 2.73        , 3           , 11          , 0.007488678 , 0.007488671
-0.148458242, 0.00592524  , -9.7927     , 0.000906680361, 0.00196521636, -0.00114554167, 0.07604153  , -0.3476473  , 0.646352947 , 0.0014226021, -0.01669148 , 1.386265    , 2.74        , 3           , 12          , 0.0496562272, 0
-0.1593872  , -0.0210564211, -9.796614   , 0.00331613119, 0.00117724645, -0.0008797113, 0.07604153  , -0.347782135, 0.6464878   , 0.00145590957, -0.0166796949, 1.38625646  , 2.75        , 3           , 50          , 0           , 0
-0.1507659  , -0.009907933, -9.785165   , -0.0001469739, -0.00124658737, 0.0001680846, 0.07610894  , -0.347849548, 0.646285534 , 0.00145441166, -0.0166921616, 1.38625836  , 2.76        , 3           , 11          , 0.007488678 , 0.007488671
-0.184131488, -0.00246834569, -9.79785252 , -0.00122352666, 0.000344184722, 0.0009752912, 0.07610894  , -0.347849548, 0.646285534 , 0.00144201447, -0.0166887343, 1.3862679   , 2.77        , 3           , 12          , 0.0496562272, 0
-0.1620849  , -0.0150544178, -9.81286049 , -0.004427757, -0.000463164237, -0.00143375574, 0.0759741142, -0.347849548, 0.6464878   , 0.00139797688, -0.0166933462, 1.3862536   , 2.78        , 3           , 50          , 0           , 0
-0.161618516, -0.0147470292, -9.795199   , -0.00469852425, 0.000329673843, -9.6537E-05 , 0.07583929  , -0.347714722, 0.6464878   , 0.001351006 , -0.01669005 , 1.38625264  , 2.79        , 3           , 11          , 0.007488678 , 0.007488671
-0.16656661 , -0.0120670926, -9.789753   , -0.0007095891, 0.00168769865, -8.271822E-05, 0.07604153  , -0.347714722, 0.646352947 , 0.00131786487, -0.0166684072, 1.38625216  , 2.8         , 3           , 12          , 0.050611224 , 0
-0.153455615, -0.00726547465, -9.776091   , -0.00390698761, -0.0004622443, -0.000366176129, 0.07604153  , -0.347714722, 0.646352947 , 0.00127885607, -0.0166730266, 1.38624835  , 2.81        , 3           , 50          , 0           , 0
-0.162501   , -0.0102678835, -9.791082   , 0.0008981243, 0.000893024844, 0.0007151488, 0.0757718757, -0.347782135, 0.646352947 , 0.00128771865, -0.0166641045, 1.3862555   , 2.82        , 3           , 11          , 0.00739181368, 0.00739181228
-0.14804028 , -0.00496592 , -9.784204   , 0.0019724   , -0.000168974337, 0.0009774471, 0.0757718757, -0.347512484, 0.6462181   , 0.00130728015, -0.016665807, 1.386265    , 2.83        , 3           , 12          , 0.050611224 , 0
-0.152185187, -0.0241955984, -9.802058   , -0.00336842658, -0.00126279553, 0.000430058455, 0.0759067   , -0.347916961, 0.646352947 , 0.001273524 , -0.01667844 , 1.38626981  , 2.84        , 3           , 50          , 0           , 0
-0.162071913, -0.011913009, -9.811018   , -0.002300223, -0.0009959753, 0.00176633534, 0.0759067   , -0.347916961, 0.646352947 , 0.00125022652, -0.0166884214, 1.386287    , 2.85        , 3           , 11          , 0.00739181368, 0.00739181228
-0.147644475, -0.0165624619, -9.800162   , -0.00150291424, -0.0001777459, -0.00142753427, 0.07570446  , -0.347849548, 0.64642036  , 0.00123543537, -0.0166901816, 1.38627267  , 2.86        , 3           , 12          , 0.050611224 , 0
-0.142683357, -0.01984595 , -9.786599   , 0.00250172568, 0.000904137 , 0.000184336357, 0.07610894  , -0.347782135, 0.6464878   , 0.00126042182, -0.016681144, 1.38627458  , 2.87        , 3           , 50          , 0           , 0
-0.164339319, -0.0192709118, -9.792082   , 0.00197341153, -0.000431065157, -9.05666E-05, 0.0759741142, -0.347849548, 0.646285534 , 0.00128017063, -0.0166854542, 1.38627362  , 2.88        , 3           , 11          , 0.00739181368, 0.00739181228
-0.146713659, -0.00937403552, -9.797372   , 0.00276528159, 0.0017045053, 0.000455848756, 0.0759741142, -0.347849548, 0.646285534 , 0.00130774791, -0.0166684128, 1.38627839  , 2.89        , 3           , 12          , 0.050611224 , 0
-0.171563864, -0.0149609987, -9.82012749 , -0.000440432923, 0.00281184562, -0.0003431631, 0.07604153  , -0.347782135, 0.64642036  , 0.00131680747, -0.016535176, 1.386275    , 2.9         , 3           , 50          , 0           , 0
-0.169746026, -0.0174473673, -9.792077   , 0.00437701354, 0.00150603172, -0.0006099033, 0.07570446  , -0.347512484, 0.6464878   , 0.001360678 , -0.0165201072, 1.38626885  , 2.91        , 3           , 11          , 0.00729705533, 0.00729705067
-0.169778749, -0.02880952 , -9.780869   , 0.00225136  , -0.00117254583, -0.000628080452, 0.07610894  , -0.347714722, 0.6462181   , 0.0013832961, -0.0165318251, 1.38626266  , 2.92        , 3           , 12          , 0.0515797324, 0
-0.144506231, -0.0201155785, -9.808338   , 0.00171570922, -0.000912246236, 0.000172486325, 0.07610894  , -0.347714722, 0.6462181   , 0.00140042533, -0.0165409464, 1.38626409  , 2.93        , 3           , 50          , 0           , 0
-0.158006653, -0.01198264 , -9.804217   , 0.00331437658, 0.000163299323, 0.000180899951, 0.0762437657, -0.347782135, 0.646285534 , 0.00143353909, -0.0165393222, 1.386266    , 2.94        , 3           , 11          , 0.00729705533, 0.00729705067
-0.153009415, -0.003471298, -9.799595   , 0.003305521 , 0.00203007483, 0.000191338433, 0.07617635  , -0.347714722, 0.6464878   , 0.00146656192, -0.01651902 , 1.3862679   , 2.95        , 3           , 12          , 0.0515797324, 0
-0.15796347 , -0.000729560852, -9.801844   , -0.00122850772, -0.00012377146, -0.000894052035, 0.07604153  , -0.347782135, 0.64642036  , 0.00145442435, -0.016520245, 1.38625884  , 2.96        , 3           , 50          , 0           , 0
-0.173421413, -0.034529902, -9.796781   , 0.00118669868, -0.002234822, -0.0030353535, 0.07604153  , -0.347782135, 0.64642036  , 0.00146679254, -0.01654255 , 1.3862288   , 2.97        , 3           , 11          , 0.00729705533, 0.00729705067
-0.1584554  , -0.0152823348, -9.786142   , -0.000156825336, -0.0006512583, -0.0008954019, 0.07604153  , -0.347714722, 0.6464878   , 0.00146537332, -0.0165490489, 1.38621974  , 2.98        , 3           , 12          , 0.0515797324, 0
-0.155683309, 0.005559409 , -9.799966   , 0.00197527977, 0.0006916124, -0.000351419585, 0.07604153  , -0.3476473  , 0.64642036  , 0.00148518325, -0.0165421255, 1.3862164   , 2.99        , 3           , 50          , 0           , 0
-0.165216446, -0.006421976, -9.819575   , -0.001782864, 0.00122002384, 0.00017930023, 0.0759741142, -0.347714722, 0.6464878   , 0.00144011842, -0.0164943915, 1.38621831  , 3           , 3           , 11          , 0.007202297 , 0.00720228953
-0.186895132, -0.0145039847, -9.813823   , 0.00195334945, 0.00256482419, 0.00232551526, 0.0759741142, -0.347714722, 0.6464878   , 0.00145926827, -0.01646878 , 1.3862412   , 3.01        , 3           , 12          , 0.0525607243, 0
-0.164772645, -0.0119647384, -9.80332851 , 0.002775707 , -0.001946   , -0.001964701, 0.0759067   , -0.347916961, 0.646285534 , 0.00148734951, -0.0164882075, 1.38622212  , 3.02        , 3           , 50          , 0           , 0
-0.174307063, -0.0300180465, -9.796739   , 0.000622221734, 0.00124243146, -0.00195007178, 0.07604153  , -0.347714722, 0.6464878   , 0.00149389368, -0.0164757557, 1.3862021   , 3.03        , 3           , 11          , 0.007202297 , 0.00720228953
-0.157963455, -0.004474513, -9.784677   , -0.00285479915, 0.00175210217, -0.0008858724, 0.0759067   , -0.3476473  , 0.6466226   , 0.00146549067, -0.0164582226, 1.38619351  , 3.04        , 3           , 12          , 0.0525607243, 0
-0.168841809, -0.013258554, -9.80878448 , 0.00115863269, 0.0009683572, 0.0004489291, 0.07604153  , -0.3476473  , 0.646352947 , 0.001477002 , -0.0164485443, 1.38619828  , 3.05        , 3           , 50          , 0           , 0
-0.147626787, -0.008788941, -9.813668   , -0.00204300461, -0.000373503979, -0.00169646973, 0.07604153  , -0.3476473  , 0.646352947 , 0.00145685289, -0.0164522529, 1.38618112  , 3.06        , 3           , 11          , 0.007202297 , 0.00720228953
-0.152607679, -0.0188746  , -9.79068851 , -0.00232066517, 0.00200680085, 0.0025826334, 0.0759067   , -0.347849548, 0.6466226   , 0.00143322069, -0.0164322238, 1.38620687  , 3.07        , 3           , 12          , 0.0525607243, 0
-0.161668956, -0.0226478446, -9.821988   , 0.00010048665, -0.00143077329, -0.0011659083, 0.0759067   , -0.347714722, 0.6464878   , 0.00143441663, -0.0164465178, 1.38619542  , 3.08        , 3           , 50          , 0           , 0
-0.155370444, -0.0299831014, -9.80982    , -0.00178027048, 0.0006855114, 0.000442948454, 0.0759741142, -0.347782135, 0.646352947 , 0.00141653989, -0.01643967 , 1.38619924  , 3.09        , 3           , 11          , 0.007202297 , 0.00720228953
-0.136824667, -0.01699906 , -9.806931   , -0.00363019179, 0.000419045042, -0.000628284237, 0.0759741142, -0.347782135, 0.646352947 , 0.00142153015, -0.0164233427, 1.38619256  , 3.1         , 3           , 12          , 0.05355325  , 0
-0.15576607 , -0.01932461 , -9.789343   , -0.00176575454, 0.00176733336, -0.001684494, 0.0759741142, -0.347714722, 0.646352947 , 0.001404149 , -0.0164056476, 1.38617539  , 3.11        , 3           , 50          , 0           , 0
-0.153473347, -0.007549086, -9.79692    , -0.0006975509, 0.002034154 , -0.000348216941, 0.0759741142, -0.347714722, 0.6465552   , 0.00139722927, -0.0163853  , 1.386172    , 3.12        , 3           , 11          , 0.00710847229, 0.007108486
-0.176008165, 0.002148101 , -9.814992   , 0.0035918348, -0.00061145355, 0.000176662346, 0.07617635  , -0.347916961, 0.64642036  , 0.00143312  , -0.016391417, 1.38617349  , 3.13        , 3           , 12          , 0.05355325  , 0
-0.167437524, -0.00255952217, -9.7941885  , 0.00278978073, -0.0006124181, -0.00062445394, 0.07617635  , -0.347916961, 0.64642036  , 0.00146111974, -0.0163975339, 1.38616776  , 3.14        , 3           , 50          , 0           , 0
-0.148466721, 0.004609039 , -9.79724    , -0.00174665148, -0.00223519583, -0.00117360079, 0.07617635  , -0.3475799  , 0.6464878   , 0.00144384732, -0.0164198652, 1.38615537  , 3.15        , 3           , 11          , 0.00710847229, 0.007108486
-0.167916745, -0.01069133 , -9.79200649 , -0.000418750482, -0.000366812455, 0.000172031592, 0.0759741142, -0.3476473  , 0.646285534 , 0.00143963  , -0.0164235365, 1.38615727  , 3.16        , 3           , 12          , 0.05355325  , 0
-0.15749909 , 0.00100308843, -9.793224   , 0.00305738556, -0.000616688048, 0.0007091073, 0.0759067   , -0.3476473  , 0.64642036  , 0.00147008814, -0.0164297149, 1.38616443  , 3.17        , 3           , 50          , 0           , 0
-0.168395519, -0.01180589 , -9.821446   , 0.002254066 , -0.000350970484, -9.051773E-05, 0.0759067   , -0.3476473  , 0.64642036  , 0.00149264466, -0.0164332222, 1.38616347  , 3.18        , 3           , 11          , 0.00710847229, 0.007108486
-0.164784148, -0.0155897159, -9.801102   , -0.00228660461, -0.00116566627, -0.00250160531, 0.07604153  , -0.347849548, 0.646285534 , 0.00147019059, -0.0164448433, 1.3861382   , 3.19        , 3           , 12          , 0.05355325  , 0
-0.162127644, -0.03052511 , -9.795355   , -0.00178505131, 0.000151322325, 0.00150656176, 0.0759067   , -0.347714722, 0.6466226   , 0.00139353785, -0.0164479  , 1.38615441  , 3.2         , 3           , 50          , 0           , 0
-0.151632875, -0.0009093843, -9.782362   , -0.0009774315, -0.00116734975, -0.0008993457, 0.07617635  , -0.347782135, 0.6464878   , 0.00138391182, -0.0164595637, 1.38614535  , 3.21        , 3           , 11          , 0.007016451 , 0.00701645063
-0.172892928, -0.0142724011, -9.792959   , 0.000892889453, -0.0009007126, 0.00150467828, 0.07617635  , -0.347782135, 0.6464878   , 0.00139259384, -0.0164685883, 1.38616014  , 3.22        , 3           , 12          , 0.0545564145, 0
-0.17744793 , -0.0255014282, -9.796249   , -0.00178770814, 0.0006869824, 0.0009762828, 0.0759067   , -0.347849548, 0.6462181   , 0.00137455587, -0.01646173 , 1.38617015  , 3.23        , 3           , 50          , 0           , 0
-0.169289425, -0.0170381926, -9.78709    , -0.00125718059, 0.00149455946, -8.494979E-05, 0.07583929  , -0.3476473  , 0.6464878   , 0.00136199757, -0.0164467841, 1.3861692   , 3.24        , 3           , 11          , 0.007016451 , 0.00701645063
-0.165357217, -0.04895823 , -9.800524   , 8.830518E-05, -0.000368312758, 0.000706544262, 0.07610894  , -0.347849548, 0.646285534 , 0.00136276521, -0.0164504759, 1.38617635  , 3.25        , 3           , 12          , 0.0545564145, 0
-0.161149785, -0.008378634, -9.80238    , 0.0008849188, 0.000706268 , -8.615837E-05, 0.07610894  , -0.347849548, 0.646285534 , 0.00137162872, -0.0164434128, 1.38617539  , 3.26        , 3           , 50          , 0           , 0
-0.158018246, -0.0151385916, -9.804249   , -0.00232879957, 0.00202089851, 0.000183030745, 0.07610894  , -0.347849548, 0.6462181   , 0.00134830945, -0.0164232049, 1.3861773   , 3.27        , 3           , 11          , 0.007016451 , 0.00701645063
-0.176994652, -0.0241214689, -9.799857   , 0.0006211095, -8.950876E-05, -0.00142419327, 0.0759067   , -0.347849548, 0.64642036  , 0.00135475409, -0.01642408 , 1.386163    , 3.28        , 3           , 12          , 0.0545564145, 0
-0.168859988, -0.0168144684, -9.815158   , -0.0015105526, -0.00144041434, -0.000101761238, 0.0759067   , -0.347849548, 0.6465552   , 0.0013396655, -0.0164384823, 1.386162    , 3.29        , 3           , 50          , 0           , 0
-0.162950382, -0.012156859, -9.780237   , -0.00202502427, -0.000130796339, -0.00142868538, 0.0759067   , -0.347849548, 0.6465552   , 0.001378112 , -0.0164978635, 1.38614678  , 3.3         , 3           , 11          , 0.00692697242, 0.0069269794
-0.161570325, -0.004013872, -9.784228   , 0.004111278 , 0.00230199215, -0.001139247, 0.07604153  , -0.347714722, 0.646352947 , 0.00141941046, -0.0164748281, 1.38613534  , 3.31        , 3           , 12          , 0.0555693768, 0
-0.1538538  , 0.007632443 , -9.77821    , 0.00305370172, -0.000107469, -0.000354408432, 0.07604153  , -0.347782135, 0.6465552   , 0.0014500058, -0.0164758973, 1.386132    , 3.32        , 3           , 50          , 0           , 0
-0.1657018  , -0.0243197456, -9.780363   , 0.000114925017, -0.000392610556, 0.000172872213, 0.0759067   , -0.347849548, 0.64642036  , 0.00145112537, -0.0164798256, 1.38613343  , 3.33        , 3           , 11          , 0.00692697242, 0.0069269794
-0.1855276  , -0.0104441047, -9.814685   , 0.00118806225, -0.001190223, 0.000969923 , 0.0759741142, -0.347714722, 0.646285534 , 0.0014628463, -0.0164917409, 1.38614345  , 3.34        , 3           , 12          , 0.0555693768, 0
-0.16395548 , -0.03214729 , -9.817106   , -0.0006970598, 0.00173643918, 0.0001835775, 0.0759741142, -0.347714722, 0.646285534 , 0.00145584368, -0.0164743811, 1.38614488  , 3.35        , 3           , 50          , 0           , 0
-0.163901657, -0.0181963854, -9.813801   , 0.003851644 , 0.000699281634, -0.0008819717, 0.0759741142, -0.3476473  , 0.6464878   , 0.00149450591, -0.0164673775, 1.38613629  , 3.36        , 3           , 11          , 0.00692697242, 0.0069269794
-0.17423135 , -0.0102097113, -9.792923   , 0.00252222549, -0.0006541031, 0.0020414684, 0.07604153  , -0.347849548, 0.6465552   , 0.0015193919, -0.0164739471, 1.3861568   , 3.37        , 3           , 12          , 0.0555693768, 0
-0.174732447, -0.0241989382, -9.79125    , 0.00279552233, -0.00198030542, 0.0007012675, 0.07604153  , -0.347782135, 0.6460833   , 0.00154723052, -0.01649376 , 1.386164    , 3.38        , 3           , 50          , 0           , 0
-0.157619819, -0.03331607 , -9.786769   , 0.000379366131, 0.000147962754, -0.00115689042, 0.07604153  , -0.347782135, 0.6460833   , 0.00155121426, -0.0164922643, 1.38615251  , 3.39        , 3           , 11          , 0.00692697242, 0.0069269794
-0.172365129, 0.00599237159, -9.790044   , 0.000134539412, -0.000149847619, -0.000359216676, 0.07617635  , -0.347849548, 0.646285534 , 0.00159996387, -0.0165528059, 1.38614774  , 3.4         , 3           , 12          , 0.05659137  , 0
-0.175053686, 0.011430827 , -9.792261   , 0.00440248149, 0.00173699507, 0.000457643822, 0.07604153  , -0.347849548, 0.6464878   , 0.00164391194, -0.0165354442, 1.38615251  , 3.41        , 3           , 50          , 0           , 0
-0.168391377, -0.0207428746, -9.775353   , 0.000134349422, -0.000146404025, -0.00115910871, 0.07610894  , -0.347916961, 0.6462181   , 0.00164544745, -0.01653689 , 1.38614058  , 3.42        , 3           , 11          , 0.006838859 , 0.006838858
-0.159345925, -0.0144645311, -9.77527    , -0.00146672188, -0.000690880755, -0.000631278439, 0.07610894  , -0.347916961, 0.6462181   , 0.00163088541, -0.0165437851, 1.38613439  , 3.43        , 3           , 12          , 0.05659137  , 0
-0.179651365, -0.008248022, -9.810122   , -0.00334184966, 0.000104619496, -0.001962815, 0.0759067   , -0.347782135, 0.646285534 , 0.00159779144, -0.0165427048, 1.38611484  , 3.44        , 3           , 50          , 0           , 0
-0.162956   , -0.0046087876, -9.82181549 , 0.0014771783, -0.00147361588, -0.0008978933, 0.0759067   , -0.347714722, 0.6464878   , 0.00161271263, -0.016557429, 1.38610578  , 3.45        , 3           , 11          , 0.006838859 , 0.006838858
-0.15298824 , 0.00239338726, -9.79999    , 0.000133021 , 0.000121426092, -0.001424248, 0.07610894  , -0.347782135, 0.64642036  , 0.00161427946, -0.01655619 , 1.38609147  , 3.46        , 3           , 12          , 0.05659137  , 0
-0.164833352, -0.0300569236, -9.796262   , -0.00146811362, -0.000421902776, -0.00116304867, 0.07610894  , -0.347782135, 0.64642036  , 0.00159979041, -0.01656039 , 1.38608     , 3.47        , 3           , 50          , 0           , 0
-0.173829257, -0.0218716953, -9.800733   , -0.00494165625, -0.0007065395, -0.00143647613, 0.0759741142, -0.347849548, 0.646285534 , 0.00155061181, -0.0165674333, 1.38606572  , 3.48        , 3           , 11          , 0.006838859 , 0.006838858
-0.168743521, 0.008654969 , -9.78638649 , 0.00039936055, 0.000383838429, -8.919545E-05, 0.0759067   , -0.3475799  , 0.64642036  , 0.00155462057, -0.0165635962, 1.38606477  , 3.49        , 3           , 12          , 0.05659137  , 0
-0.165595546, 0.00359661318, -9.775561   , 0.000108775988, 0.0003555514, 0.0007106963, 0.0762437657, -0.347782135, 0.6464878   , 0.0015010736, -0.0166143142, 1.3860724   , 3.5         , 3           , 50          , 0           , 0
-0.170628041, -0.0101649687, -9.800158   , -0.00362281874, -0.00180421746, 0.002026206 , 0.0762437657, -0.347782135, 0.6464878   , 0.00146450754, -0.0166323874, 1.3860929   , 3.51        , 3           , 11          , 0.00675267866, 0.006752703
-0.1562807  , -0.0336410776, -9.803067   , 0.00278070755, 0.000631188334, 0.00204942212, 0.07604153  , -0.347849548, 0.646285534 , 0.00149197411, -0.0166261047, 1.38611341  , 3.52        , 3           , 12          , 0.0576216429, 0
-0.172840834, -0.0021757856, -9.783333   , -0.000690684537, -0.000179925613, 0.000173228254, 0.0759067   , -0.347714722, 0.6465552   , 0.0014850382, -0.0166279059, 1.38611531  , 3.53        , 3           , 50          , 0           , 0
-0.150396168, -0.0310632233, -9.789897   , 0.003575803 , 0.00197704276, 0.000191688014, 0.07617635  , -0.347782135, 0.646285534 , 0.0015207649, -0.0166081414, 1.38611722  , 3.54        , 3           , 11          , 0.00675267866, 0.006752703
-0.161679208, -0.03471169 , -9.779549   , 0.00304375729, 0.00144073949, 0.000187889353, 0.07617635  , -0.347782135, 0.646285534 , 0.00155117118, -0.0165937338, 1.38611913  , 3.55        , 3           , 12          , 0.0576216429, 0
-0.1724658  , -0.0219821651, -9.78760052 , 0.00224980013, -0.000169501436, 0.00151087088, 0.0759067   , -0.347714722, 0.6462181   , 0.00157341757, -0.016595453, 1.38613439  , 3.56        , 3           , 50          , 0           , 0
-0.163043365, -0.0345939547, -9.793586   , 0.000370940252, 0.00142489758, 0.000450438674, 0.0759741142, -0.347714722, 0.646352947 , 0.001577053 , -0.01658121 , 1.38613868  , 3.57        , 3           , 11          , 0.00675267866, 0.006752703
-0.170663029, -0.01869477 , -9.804769   , 0.00184548378, 0.0004990177, 0.0005807794, 0.07604153  , -0.3475799  , 0.64642036  , 0.00159541075, -0.01657623 , 1.3861444   , 3.58        , 3           , 12          , 0.0576216429, 0
-0.15575631 , -0.01568145 , -9.793836   , 0.00118485442, -0.00110474939, 0.000570811855, 0.07604153  , -0.3475799  , 0.64642036  , 0.00160716474, -0.0165872891, 1.38615012  , 3.59        , 3           , 50          , 0           , 0
-0.168444276, -0.0304907076, -9.796729   , -0.00107132946, -0.000857793668, 0.000435244845, 0.07637859  , -0.3476473  , 0.6462181   , 0.0016371659, -0.0166145284, 1.38615346  , 3.6         , 3           , 11          , 0.00666862633, 0.00666864449
-0.16568327 , -0.00812917948, -9.831364   , 0.000396856834, -0.000449688465, 0.000439726427, 0.07604153  , -0.347714722, 0.64642036  , 0.00164106244, -0.0166190378, 1.38615775  , 3.61        , 3           , 12          , 0.0586595349, 0
-0.1575436  , -0.00695952773, -9.812316   , 0.003065309 , 0.000498393434, 0.000449026964, 0.0762437657, -0.347782135, 0.646285534 , 0.0016716402, -0.01661406 , 1.38616252  , 3.62        , 3           , 50          , 0           , 0
-0.164799586, -0.0224506352, -9.788944   , 0.0022615476, 0.000894008554, 0.00045003937, 0.0762437657, -0.347782135, 0.646285534 , 0.00169418077, -0.0166051276, 1.38616681  , 3.63        , 3           , 11          , 0.00666862633, 0.00666864449
-0.155739293, -0.0135180876, -9.7824955  , 0.000390436442, 0.0008854445, 4.72364263E-05, 0.0762437657, -0.347782135, 0.6461507   , 0.00169807684, -0.0165962726, 1.38616776  , 3.64        , 3           , 12          , 0.0586595349, 0
-0.145381942, -0.0128986146, -9.8082695  , -0.0004133886, 0.00128220743, -0.000218381727, 0.0759741142, -0.347512484, 0.6462181   , 0.00169398  , -0.0165834464, 1.3861649   , 3.65        , 3           , 50          , 0           , 0
-0.160679132, -0.001093993, -9.811362   , 0.000792095845, 0.0007525857, 0.000447049068, 0.07604153  , -0.347714722, 0.646285534 , 0.00170182623, -0.01657593 , 1.38616967  , 3.66        , 3           , 11          , 0.00666862633, 0.00666864449
-0.176082149, -0.0176784061, -9.816544   , 0.0006632906, -0.000310860429, -0.0004923271, 0.0759741142, -0.347916961, 0.646285534 , 0.0017085427, -0.01657903 , 1.3861649   , 3.67        , 3           , 12          , 0.0586595349, 0
-0.1638983  , -0.0266570579, -9.770873   , 0.0009259608, 0.0006274404, -0.00128659175, 0.0759741142, -0.347916961, 0.646285534 , 0.00171801529, -0.0165727343, 1.386152    , 3.68        , 3           , 50          , 0           , 0
-0.157464713, 0.00719865458, -9.778675   , 0.0006551307, 0.00142142619, -0.00021600358, 0.07604153  , -0.347782135, 0.646285534 , 0.00172460242, -0.0165585168, 1.38614964  , 3.69        , 3           , 11          , 0.00666862633, 0.00666864449
-0.157974541, -0.00669968175, -9.788321   , -0.0014961065, 0.0006066594, 0.0007097113, 0.07617635  , -0.347714722, 0.646285534 , 0.00166784064, -0.0165498778, 1.38615727  , 3.7         , 3           , 12          , 0.0597044   , 0
-0.1498702  , -0.0121837258, -9.782921   , -0.0006947484, 0.00074211316, 0.00124494254, 0.07610894  , -0.347782135, 0.646285534 , 0.00166068762, -0.0165424813, 1.38616967  , 3.71        , 3           , 50          , 0           , 0
-0.179252654, -0.0240876358, -9.803031   , -0.0009546043, -0.00085658 , 0.0005690106, 0.07610894  , -0.347782135, 0.646285534 , 0.00165104785, -0.0165510532, 1.38617539  , 3.72        , 3           , 11          , 0.006586991 , 0.006587019
-0.146758839, -0.01920185 , -9.808787   , -0.00174758153, -0.00285020028, -0.00197638874, 0.07604153  , -0.3475799  , 0.6461507   , 0.00163390068, -0.0165795237, 1.38615537  , 3.73        , 3           , 12          , 0.0597044   , 0
-0.148017615, 0.00416015461, -9.797697   , -0.00162140152, -0.001251668, -0.00143397634, 0.07604153  , -0.347445071, 0.646352947 , 0.001617925 , -0.0165920164, 1.38614106  , 3.74        , 3           , 50          , 0           , 0
-0.151231736, -0.0149019659, -9.780687   , -0.00163130066, 0.0008777723, -0.000488839345, 0.07604153  , -0.347512484, 0.6460833   , 0.00160169264, -0.01658323 , 1.38613629  , 3.75        , 3           , 11          , 0.006586991 , 0.006587019
-0.15035972 , -0.0155270863, -9.815552   , -0.000432964065, 0.00181834644, -0.0006150988, 0.07604153  , -0.347512484, 0.6460833   , 0.0015974642, -0.01656504 , 1.38613009  , 3.76        , 3           , 12          , 0.0597044   , 0
-0.16386202 , -0.0158003028, -9.775294   , 0.00117164978, 0.00168923032, 0.000453126821, 0.0759067   , -0.347714722, 0.646285534 , 0.0016091055, -0.016548153, 1.38613439  , 3.77        , 3           , 50          , 0           , 0
-0.189159244, -0.0228326768, -9.786293   , 0.00251232786, 0.0007666332, -0.000349943643, 0.07583929  , -0.3476473  , 0.6462181   , 0.001634286 , -0.0165404826, 1.386131    , 3.78        , 3           , 11          , 0.006586991 , 0.006587019
-0.159374446, -0.0183804  , -9.792965   , 0.00211133249, 0.000765577 , -0.0006171864, 0.07604153  , -0.347714722, 0.6460833   , 0.00165550108, -0.016532816, 1.38612485  , 3.79        , 3           , 12          , 0.0597044   , 0
-0.151214734, -0.00712117553, -9.795098   , -0.000430170854, 0.000484622957, -0.0004892055, 0.07604153  , -0.347714722, 0.6460833   , 0.001642273 , -0.0165273044, 1.38612008  , 3.8         , 3           , 50          , 0           , 0
-0.15032123 , -0.0107785948, -9.789246   , 0.00197738223, 9.667643E-05, -0.0002211385, 0.07610894  , -0.347782135, 0.646352947 , 0.0016620839, -0.01652633 , 1.3861177   , 3.81        , 3           , 11          , 0.006507494 , 0.00650752429
-0.162922829, 0.00066326  , -9.804559   , 0.00398027152, 0.00050542457, 0.000317420549, 0.0759741142, -0.347782135, 0.646285534 , 0.0017018338, -0.0165212844, 1.386121    , 3.82        , 3           , 12          , 0.06075563  , 0
-0.1751278  , -0.0112025794, -9.781164   , 0.0002394093, 0.000219892376, -8.97304344E-05, 0.07604153  , -0.347714722, 0.6461507   , 0.001704243 , -0.0165190827, 1.38612008  , 3.83        , 3           , 50          , 0           , 0
-0.159750819, 0.00284396671, -9.796833   , -0.00216630939, 0.000208963422, -0.0006266649, 0.07604153  , -0.347714722, 0.6461507   , 0.00168268313, -0.0165169816, 1.38611388  , 3.84        , 3           , 11          , 0.006507494 , 0.00650752429
-0.178237274, 0.00422169454, -9.791433   , -2.89853233E-05, 0.00048223557, 0.0005779292, 0.0759741142, -0.3475799  , 0.64594847  , 0.00168229733, -0.01651217 , 1.3861196   , 3.85        , 3           , 12          , 0.06075563  , 0
-0.183215037, -0.004024202, -9.772964   , 0.00238097133, -0.000436779665, 0.000309752446, 0.07631118  , -0.3475799  , 0.6461507   , 0.00170605665, -0.01651654 , 1.386123    , 3.86        , 3           , 50          , 0           , 0
-0.158871338, -0.00581643172, -9.785598   , 0.00091306906, -0.000971912639, -0.00116194319, 0.0759067   , -0.347782135, 0.6460159   , 0.00171537977, -0.01652624 , 1.386111    , 3.87        , 3           , 11          , 0.006507494 , 0.00650752429
-0.157161012, -0.0296527855, -9.793976   , -0.00096417754, 0.0003494908, -0.000757398, 0.0759067   , -0.347782135, 0.6460159   , 0.001705863 , -0.0165227335, 1.38610339  , 3.88        , 3           , 12          , 0.06075563  , 0
-0.18376106 , -0.0255033821, -9.793097   , -0.00083097606, 0.000480123039, 4.34435169E-05, 0.07610894  , -0.347714722, 0.6461507   , 0.001697545 , -0.01651793 , 1.38610387  , 3.89        , 3           , 50          , 0           , 0
-0.17601566 , -0.0005824473, -9.811849   , 0.0004911805, 0.0001959201, 0.000710844237, 0.07583929  , -0.3476473  , 0.64642036  , 0.00166154129, -0.0165731255, 1.3861115   , 3.9         , 3           , 11          , 0.006430338 , 0.006430358
-0.160267264, -0.0147302495, -9.797912   , -0.0003131821, 0.0007243024, 0.0008459177, 0.07617635  , -0.3476473  , 0.64642036  , 0.00165826874, -0.0165658947, 1.38612008  , 3.91        , 3           , 12          , 0.0618126653, 0
-0.153100312, -0.02967515 , -9.793059   , -0.000711109664, 5.8262347E-05, 0.000175000838, 0.07617635  , -0.3476473  , 0.64642036  , 0.001651129 , -0.01656532 , 1.386122    , 3.92        , 3           , 50          , 0           , 0
-0.155262709, -0.00442277826, -9.792365   , 0.00102812843, -0.000331635878, 4.210151E-05, 0.07583929  , -0.347714722, 0.64594847  , 0.00166140334, -0.0165686328, 1.38612247  , 3.93        , 3           , 11          , 0.006430338 , 0.006430358
-0.162483841, -0.009042578, -9.775225   , 0.0016883153, 0.00140202872, 0.0008527066, 0.07583929  , -0.347714722, 0.64642036  , 0.00167814491, -0.0165546257, 1.386131    , 3.94        , 3           , 12          , 0.0618126653, 0
-0.172432929, -0.009685593, -9.802874   , 0.00314695062, 0.00381139852, 0.0006017416, 0.07610894  , -0.3475799  , 0.6462181   , 0.00170951232, -0.0165165216, 1.38613725  , 3.95        , 3           , 50          , 0           , 0
-0.176025957, -0.007028872, -9.795159   , 0.00234692078, 0.00340811466, 0.00033164976, 0.0759067   , -0.347782135, 0.6460159   , 0.00173292554, -0.0164824463, 1.38614011  , 3.96        , 3           , 11          , 0.006430338 , 0.006430358
-0.155267149, -0.00671702251, -9.787409   , -0.00111520442, 0.0007227638, 0.000178116636, 0.0759067   , -0.347782135, 0.6460159   , 0.00172174594, -0.0164752249, 1.386142    , 3.97        , 3           , 12          , 0.0618126653, 0
-0.188213319, -0.00690721162, -9.804697   , -0.00097333733, -0.00100993586, 0.000168627841, 0.0757718757, -0.347782135, 0.6462181   , 0.00171198533, -0.0164853241, 1.38614392  , 3.98        , 3           , 50          , 0           , 0
-0.175993517, 0.00386788137, -9.804562   , -0.0005755047, -0.0003421741, 0.00043959872, 0.0759067   , -0.3476473  , 0.6461507   , 0.00170615688, -0.0164887533, 1.38614821  , 3.99        , 3           , 11          , 0.006430338 , 0.006430358
-0.169273481, -0.00550153665, -9.820029   , -0.00101435452, 0.0006898613, 0.001112107 , 0.0757718757, -0.347782135, 0.6460159   , 0.00160775858, -0.0165608786, 1.38616061  , 4           , 3           , 12          , 0.062875    , 0
-0.16611369 , -0.008811019, -9.802397   , -0.0003429718, 2.68292752E-05, 0.00110939925, 0.0757718757, -0.347782135, 0.6460159   , 0.00160414435, -0.0165606271, 1.38617158  , 4.01        , 3           , 50          , 0           , 0
-0.17425473 , -0.013711093, -9.806086   , 0.000195905392, -0.000901324, 0.0005717351, 0.0757718757, -0.347714722, 0.6462181   , 0.0016060085, -0.0165696517, 1.3861773   , 4.02        , 3           , 11          , 0.00635505375, 0.006355079
-0.1687334  , 0.01416696  , -9.799009   , 6.327315E-05, -0.00116414938, -0.000496482768, 0.07583929  , -0.347512484, 0.646352947 , 0.00160672422, -0.0165812857, 1.38617253  , 4.03        , 3           , 12          , 0.062875    , 0
-0.158408463, 0.000144734979, -9.798214   , -0.001542384, -0.00077236857, -0.000630010036, 0.07604153  , -0.347782135, 0.6461507   , 0.00159140606, -0.0165889971, 1.38616586  , 4.04        , 3           , 50          , 0           , 0
-0.163864478, -0.0120298993, -9.79563    , -0.00221209 , -0.000383479957, 0.00110430561, 0.07604153  , -0.347782135, 0.6461507   , 0.00156910182, -0.0165928472, 1.3861773   , 4.05        , 3           , 11          , 0.00635505375, 0.006355079
-0.148553476, -0.0230418853, -9.778949   , 0.000461327465, -0.0005004052, 0.0007076954, 0.07570446  , -0.347782135, 0.6461507   , 0.00157359859, -0.0165978614, 1.386184    , 4.06        , 3           , 12          , 0.062875    , 0
-0.1602194  , -0.000717543066, -9.802302   , 0.0009894514, 0.00083824055, 0.000182706368, 0.0759067   , -0.347782135, 0.646352947 , 0.00158346235, -0.0165894851, 1.38618588  , 4.07        , 3           , 50          , 0           , 0
-0.171939343, 0.00344556  , -9.809988   , 4.742783E-05, 0.00216995226, -0.000611158, 0.07617635  , -0.3476473  , 0.6461507   , 0.00158403732, -0.016567776, 1.38618016  , 4.08        , 3           , 11          , 0.00635505375, 0.006355079
-0.159809157, -0.0148046389, -9.78885651 , -0.000347400346, 0.0008383545, -0.00155243347, 0.07617635  , -0.3476473  , 0.6461507   , 0.00158082088, -0.0165593661, 1.38616443  , 4.09        , 3           , 12          , 0.062875    , 0
-0.149461567, -0.0215732716, -9.792972   , -0.000500559167, -0.00130643719, -0.000630928262, 0.07583929  , -0.347916961, 0.64594847  , 0.00149418332, -0.0165904444, 1.38615918  , 4.1         , 3           , 50          , 0           , 0
-0.142180011, -0.00307163387, -9.798205   , 0.000960542646, 0.000570716045, -0.00115150632, 0.0759741142, -0.347714722, 0.6461507   , 0.00150398  , -0.0165847186, 1.38614774  , 4.11        , 3           , 11          , 0.00628180755, 0.00628182571
-0.161179513, -0.02070792 , -9.783033   , 0.001886689 , 0.00257368  , -0.0006056326, 0.0759741142, -0.347849548, 0.6461507   , 0.00152294675, -0.0165589768, 1.38614154  , 4.12        , 3           , 12          , 0.0639421344, 0
-0.168400735, -0.0154963089, -9.81106949 , 0.0002873894, 0.00175333791, 0.00205375114, 0.0759741142, -0.347849548, 0.6461507   , 0.00152548135, -0.0165414736, 1.386162    , 4.13        , 3           , 50          , 0           , 0
-0.164323539, -0.01428611 , -9.7952     , 0.0004228362, 0.00135577109, 0.00165177253, 0.0759067   , -0.3475799  , 0.64594847  , 0.00152943609, -0.01652794 , 1.38617873  , 4.14        , 3           , 11          , 0.00628180755, 0.00628182571
-0.162982017, -0.0216574445, -9.776255   , 0.00149122917, 0.00149728567, 0.00112088944, 0.07604153  , -0.347512484, 0.6461507   , 0.00154416147, -0.0165129844, 1.3861897   , 4.15        , 3           , 12          , 0.0639421344, 0
-0.187787861, -0.0150678214, -9.799342   , 0.00176114228, 0.0009636687, 0.00151826115, 0.07583929  , -0.347849548, 0.6460159   , 0.00156152213, -0.01650337 , 1.386205    , 4.16        , 3           , 50          , 0           , 0
-0.156610236, 0.0016069077, -9.812683   , 0.00176847959, -0.0006318331, 0.000442791381, 0.07583929  , -0.347849548, 0.6460159   , 0.00157913321, -0.016509695, 1.38620973  , 4.17        , 3           , 11          , 0.00628180755, 0.00628182571
-0.152102679, -0.00164944492, -9.802291   , 0.00149926241, -0.00023270525, 0.000311304815, 0.07583929  , -0.347782135, 0.6460159   , 0.00159407232, -0.016512027, 1.38621259  , 4.18        , 3           , 12          , 0.0639421344, 0
-0.146267667, -0.0116626788, -9.79332    , 0.00109649589, 0.000163966033, 0.000579560059, 0.07610894  , -0.347714722, 0.646285534 , 0.00160494237, -0.0165103972, 1.38621831  , 4.19        , 3           , 50          , 0           , 0
-0.157087222, -0.0126331681, -9.779773   , -0.000921804, -0.00103704177, -0.000229876081, 0.07610894  , -0.347782135, 0.6460833   , 0.001542015 , -0.01650213 , 1.3862164   , 4.2         , 3           , 11          , 0.00621071458, 0.006210725
-0.161143422, -0.003295675, -9.817723   , -0.000249946985, -0.00183054525, -0.0008999059, 0.07610894  , -0.347782135, 0.6460833   , 0.00153966493, -0.0165204238, 1.38620782  , 4.21        , 3           , 12          , 0.0650136   , 0
-0.168827787, -0.0101280585, -9.805586   , -0.0006513532, -0.001702278, -0.000233195882, 0.0757718757, -0.3475799  , 0.6460833   , 0.00153319014, -0.0165374428, 1.38620543  , 4.22        , 3           , 50          , 0           , 0
-0.173270851, 0.006032085 , -9.794573   , 0.000280359556, -0.0008970883, -0.000227293785, 0.07583929  , -0.3476473  , 0.646352947 , 0.00153603125, -0.0165464077, 1.386203    , 4.23        , 3           , 11          , 0.00621071458, 0.006210725
-0.169187814, 0.0113944653, -9.790435   , 0.00027903117, -0.0006292583, -0.0004924332, 0.07610894  , -0.347782135, 0.6461507   , 0.00153890438, -0.0165526941, 1.38619828  , 4.24        , 3           , 12          , 0.0650136   , 0
-0.167456046, -0.00423932448, -9.809598   , -0.00332360086, -0.00185031316, -0.0002380228, 0.07610894  , -0.347782135, 0.6461507   , 0.00150570786, -0.0165711939, 1.38619542  , 4.25        , 3           , 50          , 0           , 0
-0.1589186  , -0.0212398712, -9.773976   , -0.0027870317, -0.00224911957, 0.000160502619, 0.07604153  , -0.347916961, 0.6461507   , 0.00147781055, -0.01659369 , 1.38619733  , 4.26        , 3           , 11          , 0.00621071458, 0.006210725
-0.1463216  , -0.0213996116, -9.81605148 , 1.16172487E-05, -0.0005065696, 0.00164094928, 0.07610894  , -0.347512484, 0.646285534 , 0.00147765456, -0.0165987778, 1.38621354  , 4.27        , 3           , 12          , 0.0650136   , 0
-0.159769759, 0.00163683109, -9.814955   , -0.000260161934, 0.000426496728, 0.00137912983, 0.07604153  , -0.3476473  , 0.646285534 , 0.00147482357, -0.0165945329, 1.38622737  , 4.28        , 3           , 50          , 0           , 0
-0.158820257, 0.01331196  , -9.809405   , -0.000928002642, 0.0002940736, 0.000310841278, 0.0762437657, -0.347714722, 0.64594847  , 0.00146549125, -0.0165915955, 1.38623071  , 4.29        , 3           , 11          , 0.00621071458, 0.006210725
-0.157102153, -0.0129458653, -9.79698    , 0.00091457495, -0.0004869712, -9.0317626E-05, 0.0762437657, -0.347714722, 0.64594847  , 0.00138215383, -0.0165763423, 1.38623071  , 4.3         , 3           , 12          , 0.06608899  , 0
-0.1625512  , -0.01957578 , -9.811094   , 0.0005161731, -0.00102253992, -9.391224E-05, 0.07604153  , -0.347714722, 0.6460833   , 0.00138733059, -0.0165865663, 1.38622975  , 4.31        , 3           , 50          , 0           , 0
-0.172902018, -0.0160503518, -9.796145   , -0.0004263879, 0.000440791162, -0.000487085024, 0.07604153  , -0.347782135, 0.646352947 , 0.00138314627, -0.01658215 , 1.386225    , 4.32        , 3           , 11          , 0.00614150846, 0.00614152569
-0.17145662 , 0.00592357665, -9.781893   , 0.000244235765, -8.66039045E-05, -0.00102230848, 0.07610894  , -0.347782135, 0.6460159   , 0.001385758 , -0.0165830031, 1.38621449  , 4.33        , 3           , 12          , 0.06608899  , 0
-0.186793432, 0.007842211 , -9.789156   , 0.00158953154, -0.0019460324, -0.00103070622, 0.07610894  , -0.347782135, 0.6460159   , 0.00140182534, -0.0166024473, 1.386204    , 4.34        , 3           , 50          , 0           , 0
-0.1719511  , -0.00251729228, -9.79737    , 0.0007845681, -0.001284883, -0.0007615718, 0.0762437657, -0.3476473  , 0.6460159   , 0.00140979793, -0.0166152865, 1.38619637  , 4.35        , 3           , 11          , 0.00614150846, 0.00614152569
-0.150333643, -0.007840825, -9.818193   , -0.00108888326, -0.000763526361, -0.0003615004, 0.07583929  , -0.347849548, 0.6462181   , 0.00139896944, -0.0166229177, 1.386193    , 4.36        , 3           , 12          , 0.06608899  , 0
-0.175144657, -0.014303999, -9.787986   , -0.00149345235, 3.14466452E-05, 0.000308937655, 0.07604153  , -0.347849548, 0.6461507   , 0.00138398283, -0.0166226067, 1.3861959   , 4.37        , 3           , 50          , 0           , 0
-0.18146275 , -0.017530974, -9.776261   , 0.0006425115, 0.0005731228, 0.001115077 , 0.07604153  , -0.347849548, 0.6461507   , 0.00139022293, -0.0166168921, 1.38620734  , 4.38        , 3           , 11          , 0.00614150846, 0.00614152569
-0.151243687, -0.0161818024, -9.789754   , 0.00211281655, 0.000455324625, -0.00061652303, 0.07604153  , -0.3476473  , 0.6462181   , 0.00141145254, -0.0166123286, 1.38620114  , 4.39        , 3           , 12          , 0.06608899  , 0
-0.14851363 , -0.00894555449, -9.793751   , 0.000359074 , 0.0009729025, -0.00168250431, 0.0759067   , -0.347377658, 0.6461507   , 0.00137525925, -0.0166344978, 1.38618445  , 4.4         , 3           , 50          , 0           , 0
-0.156629309, -0.009897027, -9.78382    , -0.000303864, -0.000101517435, -0.0007562822, 0.07604153  , -0.3476473  , 0.6461507   , 0.00137234665, -0.0166355018, 1.38617682  , 4.41        , 3           , 11          , 0.00607418455, 0.006074205
-0.1674383  , -0.005828174, -9.780186   , -0.000166867263, -0.000770931947, 4.00857243E-05, 0.07604153  , -0.3476473  , 0.6461507   , 0.00137067109, -0.0166432131, 1.3861773   , 4.42        , 3           , 12          , 0.06716788  , 0
-0.15342696 , 0.00507472269, -9.796796   , -0.000570234435, -0.000241493428, 0.000442401884, 0.07610894  , -0.347916961, 0.64594847  , 0.00136489584, -0.0166456327, 1.38618159  , 4.43        , 3           , 50          , 0           , 0
-0.165647313, -0.004758684, -9.801903   , -0.000704447739, -0.000110034845, 0.000709574029, 0.0759741142, -0.3476473  , 0.646352947 , 0.0013577335, -0.0166467465, 1.38618875  , 4.44        , 3           , 11          , 0.00607418455, 0.006074205
-0.16384843 , -0.0103246551, -9.783391   , 0.00103146944, 0.000169642168, -8.617381E-05, 0.07631118  , -0.3475799  , 0.6462181   , 0.00136806362, -0.016645046, 1.38618779  , 4.45        , 3           , 12          , 0.06716788  , 0
-0.185979292, -0.0146491313, -9.79616451 , 0.002099894 , 0.00031058272, -0.0004837416, 0.07631118  , -0.3475799  , 0.6462181   , 0.00138914259, -0.0166419316, 1.386183    , 4.46        , 3           , 50          , 0           , 0
-0.157961011, -0.00262748636, -9.79009151 , 0.00289868983, 0.0009799747, -7.884322E-05, 0.0762437657, -0.347782135, 0.6462181   , 0.001418142 , -0.0166321322, 1.38618255  , 4.47        , 3           , 11          , 0.00607418455, 0.006074205
-0.152145237, -0.0143132452, -9.797435   , 0.00263029523, 0.00124231784, 0.0005888164, 0.0759067   , -0.3476473  , 0.6462181   , 0.001444346 , -0.0166197177, 1.38618827  , 4.48        , 3           , 12          , 0.06716788  , 0
-0.144939184, -0.0184304714, -9.793383   , 0.00143059867, 0.0005701479, 0.000316621241, 0.0759741142, -0.347714722, 0.646352947 , 0.00145859981, -0.0166140236, 1.38619161  , 4.49        , 3           , 50          , 0           , 0
-0.1783224  , -0.0211059116, -9.781721   , -0.000318472477, 0.000434815272, 0.000313363416, 0.0759741142, -0.347714722, 0.646352947 , 0.00141812779, -0.0165868588, 1.386195    , 4.5         , 3           , 11          , 0.006008909 , 0.00600894354
-0.178716123, -0.00391374342, -9.788799   , -0.00232164562, 0.000153094908, 0.00124201842, 0.0759067   , -0.3476473  , 0.6460159   , 0.00139470468, -0.01658535 , 1.38620734  , 4.51        , 3           , 12          , 0.06824989  , 0
-0.161551073, 0.00280704722, -9.791405   , -0.00178890431, 0.000554909231, 0.001511702 , 0.0757718757, -0.3476473  , 0.6462181   , 0.00137656485, -0.016579818, 1.38622212  , 4.52        , 3           , 50          , 0           , 0
-0.16018188 , 0.009190265 , -9.800847   , -0.000321635249, 0.00110152084, 0.000317091326, 0.0759741142, -0.3476473  , 0.6461507   , 0.00137329521, -0.0165688079, 1.38622546  , 4.53        , 3           , 11          , 0.006008909 , 0.00600894354
-0.174650535, -0.00211454183, -9.790129   , 0.00101717666, 0.0005783731, -0.000350426853, 0.0759741142, -0.3476473  , 0.6461507   , 0.00138352462, -0.0165630188, 1.38622212  , 4.54        , 3           , 12          , 0.06824989  , 0
-0.174637958, -0.000372948125, -9.782414   , 0.00195012277, 0.00111745449, -0.000479331269, 0.07610894  , -0.347782135, 0.6460833   , 0.00140310545, -0.0165518373, 1.38621736  , 4.55        , 3           , 50          , 0           , 0
-0.1594125  , -0.0254740361, -9.807975   , 0.00128550816, 0.0003171779, -0.00128471712, 0.07570446  , -0.347782135, 0.646285534 , 0.00141617318, -0.0165486466, 1.38620448  , 4.56        , 3           , 11          , 0.006008909 , 0.00600894354
-0.154855311, -0.01286337 , -9.808292   , -4.745256E-05, -0.000362614082, 4.26673541E-05, 0.07563705  , -0.347782135, 0.64642036  , 0.00141569076, -0.016552275, 1.386205    , 4.57        , 3           , 12          , 0.06824989  , 0
-0.178217381, 0.0115043744, -9.799964   , -0.000857318, 0.00136239454, 0.000984343 , 0.0762437657, -0.3476473  , 0.6460833   , 0.00140695472, -0.0165386647, 1.38621449  , 4.58        , 3           , 50          , 0           , 0
-0.14488925 , -0.000694612041, -9.812224   , 0.000611564261, 0.00163601071, 0.00125470944, 0.0762437657, -0.3476473  , 0.6460833   , 0.00141286245, -0.0165223219, 1.38622689  , 4.59        , 3           , 11          , 0.006008909 , 0.00600894354
-0.14991872 , -0.02291324 , -9.794345   , 0.00192623085, 0.0008443354, 0.000319390441, 0.0757718757, -0.3476473  , 0.64642036  , 0.00135374011, -0.0165231321, 1.38623118  , 4.6         , 3           , 12          , 0.06933467  , 0
-0.151668712, -0.0103663281, -9.78381252 , 0.0007249841, 0.000444013 , -0.00115115137, 0.07583929  , -0.3475799  , 0.646285534 , 0.00136118045, -0.0165186767, 1.38621974  , 4.61        , 3           , 50          , 0           , 0
-0.167419657, 0.004275942 , -9.803177   , 0.000594218669, -9.639938E-05, 0.000312130549, 0.07604153  , -0.347849548, 0.6460833   , 0.00136707141, -0.0165196434, 1.3862226   , 4.62        , 3           , 11          , 0.00594530953, 0.00594535144
-0.149924383, -0.0242585223, -9.795262   , 0.0007350107, -0.00156586047, 0.00110402494, 0.07604153  , -0.347849548, 0.6460833   , 0.0013742398, -0.01653532 , 1.38623357  , 4.63        , 3           , 12          , 0.06933467  , 0
-0.155373424, -0.0327609144, -9.800793   , 0.00139924546, -0.0007586966, 0.000309627 , 0.0759741142, -0.347714722, 0.6464878   , 0.00138818042, -0.01654291 , 1.38623691  , 4.64        , 3           , 50          , 0           , 0
-0.173380241, -0.0218515676, -9.803448   , -0.000212927363, 0.0009699388, -0.0006163361, 0.0759067   , -0.347512484, 0.6462181   , 0.001386152 , -0.0165332  , 1.38623071  , 4.65        , 3           , 11          , 0.00594530953, 0.00594535144
-0.1791478  , 0.00197079964, -9.791458   , -0.00381331425, -0.0007793152, -0.001564746, 0.0759067   , -0.347916961, 0.6460833   , 0.00134827755, -0.0165409725, 1.386215    , 4.66        , 3           , 12          , 0.06933467  , 0
-0.166080788, -0.0040043667, -9.783335   , -0.00287622446, -0.00104659377, -0.000231655576, 0.0759067   , -0.347916961, 0.6460833   , 0.00131955254, -0.01655144 , 1.38621259  , 4.67        , 3           , 50          , 0           , 0
-0.156181172, -0.005186612, -9.809128   , -0.00154560315, 0.000284981565, 0.00191088638, 0.07583929  , -0.3476473  , 0.6460833   , 0.00130378141, -0.0165486112, 1.38623214  , 4.68        , 3           , 11          , 0.00594530953, 0.00594535144
-0.147604689, -0.00761452829, -9.791472   , -0.00180786254, -0.000782642863, 0.001771198 , 0.07604153  , -0.347782135, 0.6462181   , 0.00128540967, -0.01655646 , 1.38624978  , 4.69        , 3           , 12          , 0.06933467  , 0
-0.143097311, -0.009932825, -9.785597   , -0.0016813071, -0.00117323722, 0.000836039 , 0.0759741142, -0.347714722, 0.6462181   , 0.00124075077, -0.01655342 , 1.38625836  , 4.7         , 3           , 50          , 0           , 0
-0.173361659, -0.0187683161, -9.794362   , -0.00141610671, -0.000768301, 3.87920772E-05, 0.0759741142, -0.347714722, 0.6462181   , 0.00122658443, -0.016561104, 1.38625836  , 4.71        , 3           , 11          , 0.005883525 , 0.00588355167
-0.177905783, -0.02683412 , -9.798527   , 0.000456206064, -0.00102527149, 0.00017347309, 0.0759741142, -0.3475799  , 0.6462181   , 0.001231118 , -0.01657136 , 1.38626027  , 4.72        , 3           , 12          , 0.07042188  , 0
-0.149933279, -0.02697453 , -9.793931   , 0.000584789668, 4.21921868E-05, 0.000179641982, 0.07617635  , -0.3476473  , 0.646285534 , 0.00123693631, -0.0165709388, 1.38626218  , 4.73        , 3           , 50          , 0           , 0
-0.158944979, -0.0237741061, -9.79528    , -0.000355399417, 0.0009750287, -0.000883089844, 0.07610894  , -0.347782135, 0.6462181   , 0.00123352848, -0.0165611766, 1.38625312  , 4.74        , 3           , 11          , 0.005883525 , 0.00588355167
-0.178796545, -0.0264817066, -9.78585    , 0.00084496144, 0.00151328382, -0.0004783249, 0.07610894  , -0.347782135, 0.6462181   , 0.00124205742, -0.0165460389, 1.38624835  , 4.75        , 3           , 12          , 0.07042188  , 0
-0.1584936  , -0.0251828674, -9.788502   , 0.002715946 , 0.00152414362, -0.0006087832, 0.0757718757, -0.347714722, 0.6462181   , 0.00126931758, -0.0165307932, 1.38624215  , 4.76        , 3           , 50          , 0           , 0
-0.159854725, -0.02275634 , -9.809308   , 0.00325510884, 0.000651756 , 0.0013869165, 0.07583929  , -0.3476473  , 0.6460833   , 0.00130163983, -0.0165242925, 1.38625646  , 4.77        , 3           , 11          , 0.005883525 , 0.00588355167
-0.172864333, -0.00333565846, -9.80734    , -0.000482923, -0.000233524188, 0.000909752562, 0.07631118  , -0.347782135, 0.6462181   , 0.00129666  , -0.01652664 , 1.386265    , 4.78        , 3           , 12          , 0.07042188  , 0
-0.159819022, -0.0142338183, -9.803791   , -8.28768461E-05, -9.338743E-05, -0.000155412272, 0.07631118  , -0.347782135, 0.6462181   , 0.00129585573, -0.01652757 , 1.38626361  , 4.79        , 3           , 50          , 0           , 0
-0.189045325, 0.01062114  , -9.797283   , -0.000945701962, 0.0008345027, -0.0007516434, 0.07583929  , -0.347849548, 0.6460159   , 0.001320245 , -0.016529901, 1.3862555   , 4.8         , 3           , 11          , 0.00582348369, 0.005823506
-0.1886157  , 0.00803433452, -9.812248   , -0.00181502081, 0.0009021369, -0.00208575046, 0.0757718757, -0.3476473  , 0.646285534 , 0.00130243914, -0.0165208485, 1.38623452  , 4.81        , 3           , 12          , 0.07151122  , 0
-0.16161564 , -0.0133726643, -9.797902   , -0.0009359604, -0.00117020553, 0.000303695 , 0.0759741142, -0.347849548, 0.646285534 , 0.00129302894, -0.0165325552, 1.38623738  , 4.82        , 3           , 50          , 0           , 0
-0.153044045, -0.0138772177, -9.795169   , 0.00040324658, -0.0018223899, -0.001364434, 0.0759741142, -0.347849548, 0.646285534 , 0.00129728764, -0.0165507663, 1.386224    , 4.83        , 3           , 11          , 0.00582348369, 0.005823506
-0.14579466 , -0.00767941773, -9.78422451 , 0.00133518118, -0.001021218, -0.0004253245, 0.0759741142, -0.347714722, 0.6461507   , 0.00131070986, -0.016560968, 1.38621974  , 4.84        , 3           , 12          , 0.07151122  , 0
-0.176443741, 0.00292423368, -9.799138   , 0.000138852964, -0.00236382429, 0.000165301855, 0.07583929  , -0.347512484, 0.646352947 , 0.00131207216, -0.0165846087, 1.38622117  , 4.85        , 3           , 50          , 0           , 0
-0.183672   , -0.00442974828, -9.778402   , -0.00013577193, -0.0007088604, 0.00257388945, 0.0759067   , -0.347714722, 0.6462181   , 0.00131028611, -0.0165917333, 1.38624692  , 4.86        , 3           , 11          , 0.00582348369, 0.005823506
-0.1666208  , -0.02226941 , -9.81067848 , -0.00267232023, -0.00138091622, 0.0005665544, 0.0759067   , -0.347714722, 0.6462181   , 0.00128347  , -0.0166055486, 1.38625264  , 4.87        , 3           , 12          , 0.07151122  , 0
-0.154466048, -0.0304772928, -9.804843   , -0.00274070771, -0.00104821788, 0.000634974043, 0.0759741142, -0.3476473  , 0.6460833   , 0.001255956 , -0.0166160371, 1.38625932  , 4.88        , 3           , 50          , 0           , 0
-0.15218474 , -0.026540732, -9.790763   , -0.002869086, -0.00218034326, 0.000161828764, 0.07583929  , -0.347782135, 0.646352947 , 0.001227239 , -0.0166378431, 1.38626075  , 4.89        , 3           , 11          , 0.00582348369, 0.005823506
-0.141709074, 0.00093344046, -9.791826   , -0.00240187952, -0.000446677674, 0.0003054452, 0.0759741142, -0.3475799  , 0.646352947 , 0.00122842449, -0.0166481473, 1.38626313  , 4.9         , 3           , 12          , 0.072602354 , 0
-0.150785148, -0.0186013337, -9.769403   , -0.00119612622, -0.0011030403, -0.0005629958, 0.07604153  , -0.347916961, 0.6460833   , 0.00121655711, -0.01665917 , 1.38625789  , 4.91        , 3           , 50          , 0           , 0
-0.190900236, 0.0008545685, -9.815494   , 0.0005388739, -0.000562994333, 0.000109216046, 0.07604153  , -0.347916961, 0.6460833   , 0.00122192735, -0.016664803, 1.38625884  , 4.92        , 3           , 11          , 0.005764746 , 0.00576477544
-0.175993085, 0.00526769552, -9.810432   , 0.001813489 , -0.00162159558, -0.000161440839, 0.0759067   , -0.347714722, 0.6460833   , 0.00124008884, -0.0166810155, 1.38625741  , 4.93        , 3           , 12          , 0.072602354 , 0
-0.142241746, -0.0248978641, -9.77533    , 0.00166972447, 0.0005111274, -0.000149715212, 0.0759067   , -0.347714722, 0.6462181   , 0.00125681143, -0.0166759025, 1.386256    , 4.94        , 3           , 50          , 0           , 0
-0.159832627, -0.0234544165, -9.778528   , 0.000542369147, -0.00123572629, 0.00150529889, 0.0759741142, -0.347782135, 0.6460159   , 0.0012619847, -0.01668828 , 1.38627076  , 4.95        , 3           , 11          , 0.005764746 , 0.00576477544
-0.182885289, -0.03131689 , -9.799489   , -0.000389090768, -0.00210643862, 0.00123239332, 0.0759741142, -0.347782135, 0.6460159   , 0.00125788781, -0.01670936 , 1.38628316  , 4.96        , 3           , 12          , 0.072602354 , 0
-0.185050115, -0.00603907369, -9.801964   , -0.000800760638, 9.69380853E-05, -2.24119285E-05, 0.0759741142, -0.347849548, 0.646352947 , 0.00124988309, -0.0167083871, 1.38628316  , 4.97        , 3           , 50          , 0           , 0
-0.152087852, 0.004749706 , -9.813094   , 0.0003372533, -0.000360354257, -0.000756521244, 0.0757718757, -0.3476473  , 0.646285534 , 0.00125338207, -0.016711982, 1.38627553  , 4.98        , 3           , 11          , 0.005764746 , 0.00576477544
-0.145329177, -0.0008092746, -9.797738   , 0.00134524459, -0.00155434012, -0.0008950165, 0.0759067   , -0.3476473  , 0.6461507   , 0.00126698473, -0.0167275183, 1.386266    , 4.99        , 3           , 12          , 0.072602354 , 0
-0.165278971, -0.0277719051, -9.799863   , 0.0009339514, -0.0006240894, 0.000109528868, 0.0759067   , -0.3476473  , 0.6461507   , 0.00125548185, -0.01672238 , 1.38626742  , 5           , 3           , 50          , 0           , 0
-0.1629284  , -0.00115104206, -9.803219   , 0.001335674 , -0.000819027366, -0.0005575539, 0.0759067   , -0.347782135, 0.6462181   , 0.0012689319, -0.0167305637, 1.3862617   , 5.01        , 3           , 11          , 0.00570808537, 0.00570811564
-0.16477263 , -0.0138372146, -9.794745   , -0.00106525328, -0.00183087541, -0.000900107436, 0.0759741142, -0.347512484, 0.6461507   , 0.001258431 , -0.01674886 , 1.38625264  , 5.02        , 3           , 12          , 0.07369505  , 0
-0.168855861, -0.0220064912, -9.786234   , -0.00173951383, -0.0005063031, 0.000306166155, 0.07604153  , -0.3476473  , 0.6461507   , 0.00124098489, -0.0167539287, 1.3862555   , 5.03        , 3           , 50          , 0           , 0
-0.166585356, -0.0198297054, -9.777604   , 0.0009261396, 0.00104095286, 0.00051879487, 0.07604153  , -0.3476473  , 0.6461507   , 0.00125015934, -0.0167435259, 1.38626075  , 5.04        , 3           , 11          , 0.00570808537, 0.00570811564
-0.153495938, -0.0133992368, -9.798334   , 0.00119837711, -2.22979688E-05, 4.66345518E-05, 0.0757718757, -0.347714722, 0.6462181   , 0.00126213511, -0.01674375 , 1.38626122  , 5.05        , 3           , 12          , 0.07369505  , 0
