Acc X       , Acc Y       , Acc Z       , Gyro X      , Gyro Y      , Gyro Z      , Magn X      , Magn Y      , Magn Z      , Euler X     , Euler Y     , Euler Z     , Time        , Status      , LowRate X   , LowRate Y   , LowRate Z    
-0.168383718, -0.0152054243, -9.791145   , -0.00024890498, -0.00213381276, 0.00113288662, 0.07610894  , -0.347849548, 0.6460833   , 0.00150546455, -0.01653839 , 1.38537145  , 0           , 3           , 11          , 0.0346410163, 0.0346410163
-0.179256335, -0.02311322 , -9.81207752 , -0.000125049279, -5.64673428E-06, 0.00254483125, 0.07583929  , -0.347849548, 0.646285534 , 0.00150379352, -0.016538484, 1.38539672  , 0.01        , 3           , 12          , 0.0346410163, 0
-0.169258714, -0.007995738, -9.790172   , 0.00214550667, 0.000214890068, 0.000683004269, 0.07610894  , -0.347512484, 0.64642036  , 0.00152513583, -0.0165363457, 1.38540387  , 0.02        , 3           , 50          , 0           , 0
-0.177080885, -0.0527140945, -9.776594   , 0.00186838233, 0.00221985066, -0.000772688247, 0.0762437657, -0.347782135, 0.646352947 , 0.0015439475, -0.01651414 , 1.38539577  , 0.03        , 3           , 11          , 0.0346410163, 0.0346410163
-0.191398159, -0.0150398519, -9.801163   , -0.001268915, 0.00153272285, -4.79776E-05, 0.0762437657, -0.347782135, 0.646352947 , 0.00153126626, -0.0164988078, 1.38539529  , 0.04        , 3           , 12          , 0.0346410163, 0
-0.159755453, 0.005232727 , -9.813561   , -0.00340862619, 0.00185116369, 0.000683855556, 0.07610894  , -0.347849548, 0.6462181   , 0.00149706693, -0.016480308, 1.385402    , 0.05        , 3           , 50          , 0           , 0
-0.173868611, -0.03316477 , -9.798126   , -0.0029909  , -0.00168074574, 0.0007980245, 0.07604153  , -0.3476473  , 0.6465552   , 0.00146702665, -0.0164971314, 1.38541007  , 0.06        , 3           , 11          , 0.0346410163, 0.0346410163
-0.17659533 , -0.03949932 , -9.794121   , -0.000120369215, -0.00112641964, -0.000394443457, 0.07610894  , -0.3476473  , 0.646352947 , 0.00146588823, -0.0165083874, 1.38540626  , 0.07        , 3           , 12          , 0.0346410163, 0
-0.178316981, -0.022098491, -9.770412   , 0.000737642345, 0.0010827888, -0.00138067943, 0.07610894  , -0.3476473  , 0.646352947 , 0.00147349248, -0.0164975375, 1.38539243  , 0.08        , 3           , 50          , 0           , 0
-0.153960913, -0.0230835434, -9.771266   , -0.001064338, 0.0006061764, -0.00138604408, 0.0759067   , -0.347782135, 0.6462181   , 0.0014630768, -0.0164914541, 1.3853786   , 0.09        , 3           , 11          , 0.0346410163, 0.0346410163
-0.169332445, -0.0273568481, -9.79353    , -0.0006648441, 0.00106101308, 0.00188340386, 0.07604153  , -0.347714722, 0.64642036  , 0.00145611865, -0.0164808724, 1.3853972   , 0.1         , 3           , 12          , 0.0346410163, 0
-0.152561039, -0.00204044767, -9.809539   , 6.88537548E-05, 0.00133317115, 0.00155272882, 0.07617635  , -0.3475799  , 0.646285534 , 0.00145655079, -0.0164675657, 1.38541293  , 0.11        , 3           , 50          , 0           , 0
-0.157062471, 0.000216046363, -9.807718   , -0.00159151258, -0.000871549535, 0.000471353065, 0.07617635  , -0.3475799  , 0.646285534 , 0.001440559 , -0.0164762847, 1.3854177   , 0.12        , 3           , 11          , 0.0346410163, 0.0346410163
-0.185493022, -0.008931534, -9.778451   , 0.000609217037, 1.24555072E-05, -0.0007202713, 0.07617635  , -0.347782135, 0.6461507   , 0.0014467705, -0.01647615 , 1.38541055  , 0.13        , 3           , 12          , 0.0346410163, 0
-0.176562369, -0.0314167365, -9.789968   , -0.000260133267, 0.00014159501, -0.000854167447, 0.07604153  , -0.3476473  , 0.6465552   , 0.00144430855, -0.0164747238, 1.385402    , 0.14        , 3           , 50          , 0           , 0
-0.151270926, -0.019643195, -9.807898   , 0.00194654264, -0.00017906123, -0.0009859798, 0.0759741142, -0.3476473  , 0.646285534 , 0.00146393757, -0.0164764989, 1.385392    , 0.15        , 3           , 11          , 0.0346410163, 0.0346410163
-0.148549855, -0.0183988642, -9.795654   , 0.00127772172, -4.9967548E-05, -0.0008529391, 0.0759741142, -0.3476473  , 0.646285534 , 0.0014768549, -0.0164769869, 1.38538337  , 0.16        , 3           , 12          , 0.0346410163, 0
-0.167484179, -0.0175211988, -9.783923   , -4.93407024E-05, -0.00199449132, 7.585754E-07, 0.07604153  , -0.347714722, 0.646285534 , 0.00147636211, -0.0164969321, 1.38538337  , 0.17        , 3           , 50          , 0           , 0
-0.170129448, -0.0012986958, -9.78150749 , 0.0008790514, -0.00045879517, 0.000677338 , 0.0757718757, -0.3476473  , 0.6466226   , 0.00148504158, -0.0165015273, 1.38539     , 0.18        , 3           , 11          , 0.0346410163, 0.0346410163
-0.178281069, -0.005620666, -9.801037   , 0.00227606716, 0.0008808956, 0.00102022511, 0.07610894  , -0.347782135, 0.6465552   , 0.0015076343, -0.0164927375, 1.3854      , 0.19        , 3           , 12          , 0.0346410163, 0
-0.180084884, -0.008897148, -9.785229   , 0.00221362431, -0.000112933041, -0.0005185953, 0.07610894  , -0.347782135, 0.6465552   , 0.00152984308, -0.01649395 , 1.38539529  , 0.2         , 3           , 50          , 0           , 0
-0.167939126, -0.0212244838, -9.771736   , 0.00127144309, 0.00128257961, -0.00064551027, 0.0759067   , -0.347782135, 0.646285534 , 0.00154266343, -0.01648111 , 1.38538861  , 0.21        , 3           , 11          , 0.0346699134, 0.03466991
-0.169324845, -0.0232228544, -9.802998   , -0.000597596052, 0.00087083556, -0.000317315717, 0.07563705  , -0.347849548, 0.646285534 , 0.001536739 , -0.0164724011, 1.38538575  , 0.22        , 3           , 12          , 0.0346688069, 0
-0.189638361, -0.02581608 , -9.807602   , -0.00113085983, 0.0005394224, -0.00145317614, 0.07617635  , -0.347916961, 0.64642036  , 0.00152566843, -0.0164669827, 1.385371    , 0.23        , 3           , 50          , 0           , 0
-0.1651921  , -0.006207438, -9.790144   , 0.0002777163, -0.0004632523, 0.000943050138, 0.0759741142, -0.3475799  , 0.646352947 , 0.00152828963, -0.0164716281, 1.38538051  , 0.24        , 3           , 11          , 0.0346699134, 0.03466991
-0.170154333, -0.00618897565, -9.790156   , -0.00125947443, -0.000405604776, 0.00107439153, 0.0759741142, -0.3475799  , 0.646352947 , 0.00151551841, -0.0164757  , 1.385391    , 0.25        , 3           , 12          , 0.0346688069, 0
-0.151727   , -0.02473901 , -9.790745   , -0.00333473622, 0.000321835745, -0.000191166153, 0.07610894  , -0.3475799  , 0.6464878   , 0.00148220232, -0.01647248 , 1.38538957  , 0.26        , 3           , 50          , 0           , 0
-0.140846819, -0.00707979267, -9.805033   , 9.273708E-06, -0.000260979519, 7.72109343E-05, 0.07617635  , -0.3475799  , 0.6464878   , 0.00148228381, -0.01647509 , 1.38539     , 0.27        , 3           , 11          , 0.0346699134, 0.03466991
-0.162443191, 0.006449932 , -9.795446   , 7.612691E-05, -0.0003221173, -0.00112289761, 0.0759067   , -0.3476473  , 0.6460833   , 0.00148323085, -0.0164782945, 1.3853786   , 0.28        , 3           , 12          , 0.0346688069, 0
-0.182255328, 0.018311318 , -9.80353    , -0.00173418724, 0.000936713535, -0.001585173, 0.0759067   , -0.3476473  , 0.6460833   , 0.00146614912, -0.0164689049, 1.38536286  , 0.29        , 3           , 50          , 0           , 0
-0.158958167, -0.0259774663, -9.80164051 , -0.0006233176, 0.000118702752, -0.0003875638, 0.07631118  , -0.3475799  , 0.646352947 , 0.000858711253, -0.0168599747, 1.38536906  , 0.3         , 3           , 11          , 0.0347534455, 0.03475345
-0.1598213  , -0.0151464194, -9.802443   , 0.001114102 , 0.000127393083, -0.000184937948, 0.07604153  , -0.347445071, 0.6465552   , 0.000869882 , -0.0168587025, 1.38536716  , 0.31        , 3           , 12          , 0.03475387  , 0
-0.15618144 , -0.00565200672, -9.80732    , -0.00169012893, -0.000356164557, 0.00014145537, 0.07604153  , -0.3475799  , 0.6461507   , 0.000852957659, -0.01686226 , 1.38536859  , 0.32        , 3           , 50          , 0           , 0
-0.158029929, -0.0178255141, -9.806539   , -0.0007555382, -0.000151583808, 0.0002773176, 0.07604153  , -0.3475799  , 0.6461507   , 0.0008453553, -0.0168637782, 1.38537145  , 0.33        , 3           , 11          , 0.0347534455, 0.03475345
-0.171930417, 0.00241660886, -9.794152   , 0.00191960321, -0.000604444533, 0.000478762173, 0.0764460042, -0.347849548, 0.6465552   , 0.0008644697, -0.0168698281, 1.38537621  , 0.34        , 3           , 12          , 0.03475387  , 0
-0.164772719, -0.0152406683, -9.788421   , 0.000182294534, -0.000615143566, 0.0007427399, 0.0759067   , -0.347714722, 0.6464878   , 0.0008661678, -0.016875986, 1.38538384  , 0.35        , 3           , 50          , 0           , 0
-0.159879848, -0.0299844947, -9.807568   , -0.000412857131, -0.001950426, 0.000401077355, 0.07617635  , -0.347849548, 0.64642036  , 0.0008619708, -0.0168954954, 1.38538766  , 0.36        , 3           , 11          , 0.0347534455, 0.03475345
-0.174769938, -0.03223426 , -9.801289   , -0.000753324246, -0.000618277641, 0.000274707942, 0.07617635  , -0.347849548, 0.64642036  , 0.0008543917, -0.0169016775, 1.38539052  , 0.37        , 3           , 12          , 0.03475387  , 0
-0.1725354  , -0.0390453972, -9.79637    , 0.0027159648, 0.000596590166, 0.00128658884, 0.07604153  , -0.3476473  , 0.646352947 , 0.000881333137, -0.0168957245, 1.38540339  , 0.38        , 3           , 50          , 0           , 0
-0.151700214, -0.0189324971, -9.783896   , 0.0005095888, 0.0007899316, 1.784474E-05, 0.0759741142, -0.3476473  , 0.6462181   , 0.00088642526, -0.016887825, 1.38540339  , 0.39        , 3           , 11          , 0.0347534455, 0.03475345
-0.160184488, 0.006408818 , -9.791368   , 3.02300014E-05, 0.0001936397, 7.945096E-05, 0.0757718757, -0.347916961, 0.646285534 , 0.00136827969, -0.0168218017, 1.38539624  , 0.4         , 3           , 12          , 0.03489534  , 0
-0.176984608, -0.0218854025, -9.797571   , 0.000236578955, -0.001008772, 0.0008729386, 0.0757718757, -0.347916961, 0.646285534 , 0.00137049775, -0.0168319065, 1.38540483  , 0.41        , 3           , 50          , 0           , 0
-0.159396261, -0.02657932 , -9.782633   , 0.00283956947, -0.000329461327, 0.00128059182, 0.07610894  , -0.347782135, 0.646352947 , 0.00139867864, -0.0168352146, 1.3854177   , 0.42        , 3           , 11          , 0.0176996142, 0.0176996421
-0.1543384  , 0.0004932303, -9.787334   , -0.001102123, -0.000609495444, -0.0006599916, 0.0762437657, -0.3476473  , 0.64642036  , 0.00138776912, -0.0168413017, 1.385411    , 0.43        , 3           , 12          , 0.03489534  , 0
-0.1804528  , 0.0117709376, -9.775972   , -0.0013025573, -0.0006111715, -0.0005269823, 0.07610894  , -0.347714722, 0.6464878   , 0.00137483259, -0.0168474037, 1.38540578  , 0.44        , 3           , 50          , 0           , 0
-0.158437878, -0.0065707583, -9.804166   , -0.000431277673, -0.001140908, -0.000262007641, 0.07610894  , -0.347714722, 0.6464878   , 0.001370565 , -0.0168588143, 1.38540292  , 0.45        , 3           , 11          , 0.0176996142, 0.0176996421
-0.160806924, -0.03674389 , -9.807636   , -0.002702277, -0.00135340961, -0.000266595132, 0.07604153  , -0.347714722, 0.6462181   , 0.00134358765, -0.0168723427, 1.38540053  , 0.46        , 3           , 12          , 0.03489534  , 0
-0.171518654, -0.007005664, -9.800128   , 0.000700806 , -0.0003328946, -0.000655745331, 0.0759741142, -0.3475799  , 0.64642036  , 0.00135070668, -0.01687566 , 1.38539386  , 0.47        , 3           , 50          , 0           , 0
-0.16839391 , -0.0183759164, -9.789366   , 0.002305104 , -0.000395340263, 0.0004128531, 0.07610894  , -0.347782135, 0.646285534 , 0.00137368753, -0.01687962 , 1.38539815  , 0.48        , 3           , 11          , 0.0176996142, 0.0176996421
-0.1634179  , -0.0119843185, -9.801515   , 0.000970055058, -0.0007325965, -0.0003909434, 0.07610894  , -0.347782135, 0.646285534 , 0.00138345477, -0.0168869421, 1.38539433  , 0.49        , 3           , 12          , 0.03489534  , 0
-0.130451858, -0.00638392149, -9.784174   , 0.0009091151, -0.001793776, -0.00159686466, 0.07610894  , -0.3476473  , 0.6462181   , 0.00139813952, -0.0169012453, 1.38537812  , 0.5         , 3           , 50          , 0           , 0
-0.15128164 , -0.0256169382, -9.793921   , 0.000638790953, -0.00113083562, -0.00106028363, 0.07610894  , -0.3476473  , 0.6465552   , 0.00140470755, -0.0169125386, 1.38536716  , 0.51        , 3           , 11          , 0.0134353815, 0.013435401
-0.156222   , -0.0159961116, -9.81059    , 0.000694132934, 0.00139325613, 0.0012203455, 0.0759067   , -0.347849548, 0.64642036  , 0.00141144171, -0.016898619, 1.38537955  , 0.52        , 3           , 12          , 0.0350921229, 0
-0.1273574  , -0.02165187 , -9.793369   , 0.00296873739, 0.0007482235, -0.00091295864, 0.0759067   , -0.347849548, 0.64642036  , 0.001441284 , -0.0168911237, 1.38537049  , 0.53        , 3           , 50          , 0           , 0
-0.161197484, -0.023329407, -9.79347    , 0.000700015051, 6.788013E-05, -0.0006535252, 0.0764460042, -0.347849548, 0.6462181   , 0.00144839427, -0.0168904345, 1.38536382  , 0.54        , 3           , 11          , 0.0134353815, 0.013435401
-0.17024304 , -0.0272662379, -9.804398   , 0.000689135457, 0.0023979058, 0.000159414849, 0.0759067   , -0.347714722, 0.646352947 , 0.00145525811, -0.0168664586, 1.38536572  , 0.55        , 3           , 12          , 0.0350921229, 0
-0.155792058, -0.0274799075, -9.784444   , 0.0012222731, 0.00279254629, 0.00209554  , 0.07610894  , -0.3476473  , 0.64642036  , 0.001467127 , -0.0168385673, 1.38538671  , 0.56        , 3           , 50          , 0           , 0
-0.151728749, -0.0247208383, -9.793008   , 0.00229381258, 0.00226764218, 0.00149427122, 0.07631118  , -0.347782135, 0.646352947 , 0.00148981286, -0.01681591 , 1.38540149  , 0.57        , 3           , 11          , 0.0134353815, 0.013435401
-0.157159209, -0.024522556, -9.815205   , 0.000626361638, 0.00153196929, -0.000112164256, 0.07631118  , -0.347782135, 0.646352947 , 0.001496095 , -0.01680059 , 1.3854      , 0.58        , 3           , 12          , 0.0350921229, 0
-0.180256218, -0.05205152 , -9.80149651 , -0.00385185122, 0.001710812 , -0.0009177739, 0.0759741142, -0.347782135, 0.646352947 , 0.00145772926, -0.0167834684, 1.385391    , 0.59        , 3           , 50          , 0           , 0
-0.152659222, -0.0337853841, -9.78676    , -0.002212397, 0.00129074045, -0.00105308369, 0.0759741142, -0.347849548, 0.64642036  , 0.00173561077, -0.0166582428, 1.38537574  , 0.6         , 3           , 11          , 0.0113499817, 0.0113499975
-0.163790077, 0.00732394727, -9.791367   , 0.002535144 , 0.0007107611, 0.000350616232, 0.07604153  , -0.347849548, 0.646285534 , 0.00176090247, -0.01665114 , 1.38537908  , 0.61        , 3           , 12          , 0.0353428461, 0
-0.155759886, -0.017048547, -9.792037   , 0.000994    , 0.00157132489, -0.000180145362, 0.07604153  , -0.347849548, 0.646285534 , 0.00177087332, -0.0166354217, 1.38537717  , 0.62        , 3           , 50          , 0           , 0
-0.146778122, -0.0278952513, -9.793026   , -0.0009390947, 0.000499682268, -0.00152222218, 0.07617635  , -0.3476473  , 0.646352947 , 0.00176173553, -0.0166303981, 1.38536191  , 0.63        , 3           , 11          , 0.0113499817, 0.0113499975
-0.159374446, -0.0202528778, -9.784381   , 0.000129393229, 0.0006394749, -0.0016531595, 0.07637859  , -0.347714722, 0.6464878   , 0.00176330423, -0.0166239738, 1.3853457   , 0.64        , 3           , 12          , 0.0353428461, 0
-0.178717643, 0.00218725018, -9.818619   , 0.00100867462, -0.00155874772, -0.0009975589, 0.0759741142, -0.347849548, 0.6462181   , 0.001773557 , -0.0166395456, 1.38533568  , 0.65        , 3           , 50          , 0           , 0
-0.171522334, -0.00603125244, -9.809175   , -0.00106309145, -0.00138217665, 0.00180001813, 0.0759741142, -0.347849548, 0.6462181   , 0.00176262669, -0.0166533962, 1.3853538   , 0.66        , 3           , 11          , 0.0113499817, 0.0113499975
-0.176926315, -0.0131301479, -9.764888   , -0.00120152731, -0.000442923163, 0.0002719071, 0.07617635  , -0.347714722, 0.6460833   , 0.001750565 , -0.0166578311, 1.38535619  , 0.67        , 3           , 12          , 0.0353428461, 0
-0.176951349, -0.0170823652, -9.778056   , -0.0008046281, 0.0003636322, -0.0007228719, 0.0757718757, -0.3476473  , 0.6465552   , 0.0017426397, -0.01665418 , 1.385349    , 0.68        , 3           , 50          , 0           , 0
-0.169287771, -0.01471486 , -9.79567051 , 0.000258720334, 0.00157158868, -0.00118113274, 0.0764460042, -0.347714722, 0.646352947 , 0.00174542272, -0.0166384447, 1.38533711  , 0.69        , 3           , 11          , 0.0113499817, 0.0113499975
-0.13822861 , -0.0333191678, -9.795321   , -0.000415081246, -0.000145851547, -0.000124662169, 0.0764460042, -0.347714722, 0.646352947 , 0.0017122149, -0.0167296287, 1.38533664  , 0.7         , 3           , 12          , 0.03564596  , 0
-0.164748639, -0.009874083, -9.782935   , -0.004159406, 0.0003626367, 0.00087247137, 0.0759741142, -0.347782135, 0.646352947 , 0.0016704757, -0.01672602 , 1.3853457   , 0.71        , 3           , 50          , 0           , 0
-0.17785795 , -0.016097337, -9.788009   , -0.00409860956, 0.00156910054, -0.0005205271, 0.07610894  , -0.347512484, 0.6462181   , 0.00162957655, -0.0167103186, 1.38534     , 0.72        , 3           , 11          , 0.0101345554, 0.0101345647
-0.171610355, -0.0308607426, -9.805342   , -0.00108736556, 0.0006554001, -0.00125438918, 0.07610894  , -0.347782135, 0.6464878   , 0.00161891279, -0.0167037454, 1.38532758  , 0.73        , 3           , 12          , 0.03564596  , 0
-0.164815739, -0.0236868523, -9.803444   , -0.00142296159, 0.00104612543, 0.00048043672, 0.07610894  , -0.347782135, 0.6464878   , 0.00160460325, -0.0166932922, 1.38533235  , 0.74        , 3           , 50          , 0           , 0
-0.183296233, -0.0204984415, -9.798932   , -0.002822081, 0.000110188652, -0.0007267631, 0.07631118  , -0.347714722, 0.6460833   , 0.00157650327, -0.0166921783, 1.38532519  , 0.75        , 3           , 11          , 0.0101345554, 0.0101345647
-0.151193544, -0.0012564864, -9.795493   , -0.00175174267, -8.82498061E-05, 0.0002736159, 0.0759741142, -0.347714722, 0.6461507   , 0.00155893981, -0.0166930668, 1.385328    , 0.76        , 3           , 12          , 0.03564596  , 0
-0.17198123 , -0.00735304132, -9.81281    , -0.00368516846, -0.00103200378, 0.0001987801, 0.07637859  , -0.3476473  , 0.646285534 , 0.00152205571, -0.0167033877, 1.38533     , 0.77        , 3           , 50          , 0           , 0
-0.172050834, -0.0244162772, -9.821579   , -0.00307070836, -0.00376391178, 0.0005843594, 0.07637859  , -0.3476473  , 0.646285534 , 0.001491252 , -0.0167410374, 1.38533568  , 0.78        , 3           , 11          , 0.0101345554, 0.0101345647
-0.158382908, 0.00502773933, -9.78866    , -0.001212122, -0.00115175289, 0.000201809671, 0.0762437657, -0.347849548, 0.646285534 , 0.00147909729, -0.0167525578, 1.38533759  , 0.79        , 3           , 12          , 0.03564596  , 0
-0.166992158, -0.0071824044, -9.780199   , -0.000367671164, 0.00135954341, 0.0008174655, 0.07610894  , -0.347512484, 0.646285534 , 0.0014548141, -0.0167793445, 1.38534617  , 0.8         , 3           , 50          , 0           , 0
-0.170692772, -0.0254066251, -9.811172   , 0.00257271784, 0.0012498271, -0.0009118898, 0.07604153  , -0.3476473  , 0.646285534 , 0.0014806937, -0.01676683 , 1.38533711  , 0.81        , 3           , 11          , 0.009380103 , 0.009380109
-0.162221074, -0.05061705 , -9.82       , 0.00290942239, 0.000839013956, 0.00201932061, 0.07604153  , -0.3476473  , 0.646285534 , 0.00150944921, -0.016758468, 1.38535714  , 0.82        , 3           , 12          , 0.0359997228, 0
-0.151271686, -0.0247843135, -9.785311   , -8.79534637E-05, -0.00124086044, 0.00120328029, 0.07610894  , -0.347714722, 0.646352947 , 0.00150836713, -0.0167708937, 1.38536906  , 0.83        , 3           , 50          , 0           , 0
-0.1719837  , -0.014348465, -9.783903   , -0.00142267055, -0.00170600566, -0.000867757539, 0.0762437657, -0.347714722, 0.64642036  , 0.00149428775, -0.01678794 , 1.38536048  , 0.84        , 3           , 11          , 0.009380103 , 0.009380109
-0.159773618, 0.0016768201, -9.819935   , 0.000433923648, 0.00136883021, -0.000314490346, 0.07617635  , -0.347714722, 0.6464878   , 0.00149867858, -0.0167742483, 1.38535714  , 0.85        , 3           , 12          , 0.0359997228, 0
-0.15484345 , -0.0111145061, -9.801484   , 0.00191068125, -2.3743678E-05, -0.000186759164, 0.0762437657, -0.347984374, 0.6461507   , 0.00151781691, -0.016774483, 1.38535523  , 0.86        , 3           , 50          , 0           , 0
-0.18278791 , -0.007989015, -9.784773   , 0.00238207215, -0.000818349246, -0.0008570951, 0.0762437657, -0.347984374, 0.6461507   , 0.00154178147, -0.0167826544, 1.38534665  , 0.87        , 3           , 11          , 0.009380103 , 0.009380109
-0.172868669, -0.00609892234, -9.800123   , 0.00284228334, 0.000783454743, -0.000647460634, 0.07604153  , -0.3476473  , 0.646285534 , 0.001570314 , -0.016774809, 1.38534045  , 0.88        , 3           , 12          , 0.0359997228, 0
-0.161551014, 0.007955449 , -9.814898   , 0.00136595289, 0.00210734922, -0.000308961055, 0.0759741142, -0.3475799  , 0.646352947 , 0.00158402452, -0.0167537313, 1.38533711  , 0.89        , 3           , 50          , 0           , 0
-0.16656749 , -0.009249287, -9.80376    , -3.240872E-05, -0.0006578774, -0.0006582759, 0.07617635  , -0.347714722, 0.6461507   , 0.00147908577, -0.01679644 , 1.38533235  , 0.9         , 3           , 11          , 0.00891387  , 0.008913859
-0.1692617  , -0.008901065, -9.789728   , -0.000502282055, -0.000256407977, -0.00158996065, 0.07617635  , -0.347714722, 0.6461507   , 0.00147432927, -0.01679898 , 1.38531661  , 0.91        , 3           , 12          , 0.0364022441, 0
-0.167083919, -0.0305684544, -9.787671   , -0.0007724637, 0.0004039496, -0.000453460467, 0.07604153  , -0.3476473  , 0.646352947 , 0.00146667974, -0.016794933, 1.38531232  , 0.92        , 3           , 50          , 0           , 0
-0.157008633, 0.008549526 , -9.778661   , -0.00350098545, -0.00194658991, -4.088317E-06, 0.0762437657, -0.3476473  , 0.64642036  , 0.00143167144, -0.0168143976, 1.38531232  , 0.93        , 3           , 11          , 0.00891387  , 0.008913859
-0.156229153, -0.0206027739, -9.798412   , 0.0005069431, -0.00165557093, -0.0005297364, 0.07651342  , -0.347714722, 0.6461507   , 0.0014368305, -0.0168309528, 1.3853066   , 0.94        , 3           , 12          , 0.0364022441, 0
-0.176952779, -0.0133228786, -9.797035   , -0.00323262229, -0.00220835931, -0.0008050633, 0.07651342  , -0.347714722, 0.6461507   , 0.001404641 , -0.0168530215, 1.38529849  , 0.95        , 3           , 50          , 0           , 0
-0.180098429, -0.0129693411, -9.783457   , -0.004302913, -0.00194985024, -0.00027194334, 0.07617635  , -0.3476473  , 0.646352947 , 0.00136165845, -0.0168725159, 1.38529563  , 0.96        , 3           , 11          , 0.00891387  , 0.008913859
-0.16669853 , -0.04439743 , -9.806367   , 0.00102905813, 0.0010107467, 0.000285883871, 0.07604153  , -0.347512484, 0.646352947 , 0.00137190148, -0.0168624129, 1.38529849  , 0.97        , 3           , 12          , 0.0364022441, 0
-0.157600537, -0.02836762 , -9.785362   , -0.00110197207, -0.0005953628, -0.00105948164, 0.0759741142, -0.347984374, 0.6464878   , 0.00136106031, -0.0168683529, 1.385288    , 0.98        , 3           , 50          , 0           , 0
-0.161638111, -0.0271817464, -9.762723   , 0.000238579931, -0.00139380153, 0.0002712386, 0.0759741142, -0.347984374, 0.6464878   , 0.0013634   , -0.0168822948, 1.38529038  , 0.99        , 3           , 11          , 0.00891387  , 0.008913859
-0.157950118, 0.00053573586, -9.790965   , -0.0028749872, -0.00116002571, 0.00293256971, 0.07610894  , -0.3476473  , 0.64642036  , 0.00145277428, -0.0168986917, 1.385318    , 1           , 3           , 12          , 0.0368515328, 0
-0.163538873, -0.0486413464, -9.78467    , -0.00128100149, 0.0007316366, -0.0007873721, 0.07610894  , -0.347714722, 0.6464878   , 0.00144009723, -0.01689136 , 1.38530993  , 1.01        , 3           , 50          , 0           , 0
-0.188663989, -0.0129956314, -9.776235   , -0.000205270611, -0.0006004884, 0.000273326819, 0.07617635  , -0.347714722, 0.646285534 , 0.00143799884, -0.01689737 , 1.3853128   , 1.02        , 3           , 11          , 0.008636816 , 0.008636818
-0.171944022, -0.00118655153, -9.794641   , 5.436354E-05, 0.0010022223, 1.60515629E-05, 0.07617635  , -0.347714722, 0.646285534 , 0.00143853878, -0.0168873463, 1.3853128   , 1.03        , 3           , 12          , 0.0368515328, 0
-0.155331567, -0.0200898442, -9.806554   , 0.00247260649, -0.00165137521, 4.812624E-06, 0.0762437657, -0.347782135, 0.646285534 , 0.00146326469, -0.01690386 , 1.38531327  , 1.04        , 3           , 50          , 0           , 0
-0.163857326, -0.0130406674, -9.782059   , 0.00165151292, 0.00234904164, -0.00104056613, 0.07610894  , -0.3475799  , 0.6466226   , 0.00147995586, -0.0168803539, 1.38530278  , 1.05        , 3           , 11          , 0.008636816 , 0.008636818
-0.164288819, -0.00434922054, -9.797368   , -0.000467435, -0.00166983448, 0.0005335844, 0.07617635  , -0.347714722, 0.646285534 , 0.001475191 , -0.01689706 , 1.385308    , 1.06        , 3           , 12          , 0.0368515328, 0
-0.15206708 , 0.007342115 , -9.799034   , 6.60027E-05 , -0.00140250928, 0.00106915319, 0.07617635  , -0.347714722, 0.646285534 , 0.00147567107, -0.0169110987, 1.38531852  , 1.07        , 3           , 50          , 0           , 0
-0.157053754, 0.00199763663, -9.804984   , -0.0007409851, -0.0003390407, 0.000807262957, 0.07631118  , -0.347782135, 0.6462181   , 0.00146812492, -0.0169145018, 1.38532662  , 1.08        , 3           , 11          , 0.008636816 , 0.008636818
-0.158462122, -0.0147442361, -9.797002   , -0.00127834466, 0.000195976449, -0.000257093372, 0.07583929  , -0.3475799  , 0.64642036  , 0.00145538582, -0.01691254 , 1.38532424  , 1.09        , 3           , 12          , 0.0368515328, 0
-0.182848811, -0.0232706647, -9.790809   , -0.00267003779, -0.000557155348, -0.0002626791, 0.0762437657, -0.347849548, 0.6461507   , 0.001359302 , -0.0168543272, 1.38532281  , 1.1         , 3           , 50          , 0           , 0
-0.170170024, -0.009770332, -9.793361   , 0.0002592511, 0.00184996543, 0.00188827619, 0.0762437657, -0.347849548, 0.6461507   , 0.00136157661, -0.0168358553, 1.38534188  , 1.11        , 3           , 11          , 0.008481752 , 0.008481753
-0.156630456, -0.00567213446, -9.80460548 , -0.0005378692, 0.0007845675, 0.0005479339, 0.07617635  , -0.347916961, 0.6462181   , 0.00135610555, -0.0168280136, 1.38534713  , 1.12        , 3           , 12          , 0.0373455   , 0
-0.168918759, -0.03399041 , -9.809894   , 0.002404386 , 0.00027540166, -0.00131697371, 0.0759741142, -0.347714722, 0.64642036  , 0.0013803707, -0.016825242, 1.38533378  , 1.13        , 3           , 50          , 0           , 0
-0.1648126  , -0.025592044, -9.790786   , 0.0010544731, 0.0031935242, 0.0005638036, 0.07610894  , -0.3476473  , 0.646352947 , 0.0013908199, -0.0167933162, 1.38534     , 1.14        , 3           , 11          , 0.008481752 , 0.008481753
-0.153952286, -0.017087983, -9.787959   , 0.000257479434, 0.00212583039, -0.000243277565, 0.07610894  , -0.3476473  , 0.646352947 , 0.00139343448, -0.0167720541, 1.38533711  , 1.15        , 3           , 12          , 0.0373455   , 0
-0.162473112, -0.00119635276, -9.797785   , 0.00160372374, 5.459071E-06, -0.00158631976, 0.07604153  , -0.3475799  , 0.6462181   , 0.00140973786, -0.0167719778, 1.38532138  , 1.16        , 3           , 50          , 0           , 0
-0.193619967, -0.00742517738, -9.79385    , 3.75555828E-07, -1.02445738E-05, 1.1015276E-05, 0.0759741142, -0.347782135, 0.6462181   , 0.00140973972, -0.0167720784, 1.38532138  , 1.17        , 3           , 11          , 0.008481752 , 0.008481753
-0.18412748 , -0.005318871, -9.77977    , 0.00106687064, 0.000531293161, -0.000517631066, 0.07617635  , -0.347714722, 0.64642036  , 0.00142049533, -0.0167667624, 1.38531613  , 1.18        , 3           , 12          , 0.0373455   , 0
-0.17969209 , -0.0195265524, -9.809326   , 0.0002710169, -0.000557062, 0.003474639 , 0.07637859  , -0.347849548, 0.6461507   , 0.00142262317, -0.01677238 , 1.385351    , 1.19        , 3           , 50          , 0           , 0
-0.165257081, -0.0219144914, -9.799353   , -0.000289970631, 0.00174026634, -0.000245180941, 0.07637859  , -0.347849548, 0.6461507   , 0.0014036725, -0.0168868732, 1.385349    , 1.2         , 3           , 11          , 0.008402057 , 0.008402057
-0.148991182, -0.0166265015, -9.791563   , 0.00318977074, 0.00069378753, -0.0005124707, 0.07610894  , -0.3475799  , 0.646285534 , 0.00143565668, -0.0168799311, 1.38534379  , 1.21        , 3           , 12          , 0.0378820039, 0
-0.159821138, -0.014212002, -9.806508   , 0.00157370814, 0.003346054 , 0.00083314575, 0.07604153  , -0.3476473  , 0.6466226   , 0.00145125226, -0.01684648 , 1.38535237  , 1.22        , 3           , 50          , 0           , 0
-0.1851022  , -0.0218806416, -9.794422   , 0.00158465083, 0.0009539491, -0.00104668958, 0.07617635  , -0.347714722, 0.646285534 , 0.00146727462, -0.01683693 , 1.38534188  , 1.23        , 3           , 11          , 0.008402057 , 0.008402057
-0.177824721, -0.00754935248, -9.785662   , -0.00267658615, -0.0022731917, -0.000271222263, 0.07617635  , -0.347714722, 0.646285534 , 0.0014405566, -0.0168596562, 1.385339    , 1.24        , 3           , 12          , 0.0378820039, 0
-0.164740458, -0.00527832843, -9.79375648 , -0.000559347041, 0.00202040118, -0.003710296, 0.07583929  , -0.347714722, 0.646285534 , 0.00143558846, -0.0168393981, 1.38530183  , 1.25        , 3           , 50          , 0           , 0
-0.169787332, -0.0259117279, -9.804836   , -8.576579E-06, -0.00119521259, 0.000538715743, 0.07617635  , -0.3476473  , 0.646352947 , 0.00143541186, -0.0168513618, 1.38530707  , 1.26        , 3           , 11          , 0.008402057 , 0.008402057
-0.172405839, -0.007158634, -9.780664   , 0.000522077549, -0.000389931258, 1.07444066E-05, 0.07610894  , -0.347782135, 0.6462181   , 0.00144063088, -0.0168552585, 1.38530755  , 1.27        , 3           , 12          , 0.0378820039, 0
-0.154404968, -0.0198786519, -9.777121   , 0.00105829863, -0.0006605619, 0.00160985312, 0.07610894  , -0.347782135, 0.6462181   , 0.00145094225, -0.0168618876, 1.38532376  , 1.28        , 3           , 50          , 0           , 0
-0.1616399  , -0.01592871 , -9.81649    , -1.52186685E-05, 0.000143938058, -0.0007869813, 0.07637859  , -0.347916961, 0.6461507   , 0.00145092374, -0.0168604366, 1.38531566  , 1.29        , 3           , 11          , 0.008402057 , 0.008402057
-0.17060788 , -0.00616185 , -9.793327   , 0.00106536679, 0.000125610939, -0.0005188769, 0.07610894  , -0.3475799  , 0.64642036  , 0.00147448562, -0.0168851614, 1.38530993  , 1.3         , 3           , 12          , 0.0384588875, 0
-0.158073291, -0.0318854973, -9.796263   , -0.00186708407, -0.00149294164, 9.477081E-07, 0.0762437657, -0.347714722, 0.6462181   , 0.00145581481, -0.01690009 , 1.38530993  , 1.31        , 3           , 50          , 0           , 0
-0.186431825, -0.01088796 , -9.815145   , -0.000808052835, 0.000646393746, 1.45099184E-05, 0.0762437657, -0.347714722, 0.6462181   , 0.00144773175, -0.016893629, 1.38531041  , 1.32        , 3           , 11          , 0.008365584 , 0.008365585
-0.158066854, -0.0235266089, -9.826515   , 0.00213344349, 0.000394727133, 0.000284138776, 0.07604153  , -0.347714722, 0.6462181   , 0.00146901852, -0.0168896839, 1.38531327  , 1.33        , 3           , 12          , 0.0384588875, 0
-0.13771382 , -0.0143233249, -9.802832   , -0.00187593978, 0.0003738338, 1.13861752E-05, 0.0762437657, -0.347714722, 0.646285534 , 0.00145025656, -0.0168859474, 1.38531327  , 1.34        , 3           , 50          , 0           , 0
-0.1598699  , -0.0272793937, -9.807541   , -0.000802802329, -0.000423778751, 0.000808436947, 0.07631118  , -0.347714722, 0.646285534 , 0.00144209294, -0.0168901961, 1.38532138  , 1.35        , 3           , 11          , 0.008365584 , 0.008365585
-0.170659542, -0.0187311247, -9.80024052 , 3.9007864E-07, -0.000687200634, 0.00107480073, 0.07631118  , -0.347714722, 0.646285534 , 0.00144191564, -0.0168970842, 1.38533235  , 1.36        , 3           , 12          , 0.0384588875, 0
-0.174143925, 0.0122855417, -9.786818   , -1.68160768E-05, 0.002793443 , -0.002105381, 0.07604153  , -0.347714722, 0.6460159   , 0.00144210306, -0.0168691184, 1.38531089  , 1.37        , 3           , 50          , 0           , 0
-0.173434883, -0.0353261754, -9.809917   , 0.005342228 , 0.00014453003, 0.000554175756, 0.07604153  , -0.3476473  , 0.646352947 , 0.00149543083, -0.01686768 , 1.38531661  , 1.38        , 3           , 11          , 0.008365584 , 0.008365585
-0.167067289, -0.0227840245, -9.802535   , 0.000532182632, -0.000146305843, 1.207694E-05, 0.07604153  , -0.3476473  , 0.64642036  , 0.00150074961, -0.01686915 , 1.38531661  , 1.39        , 3           , 12          , 0.0384588875, 0
-0.146748886, -0.01649675 , -9.808762   , -0.000756520254, -0.0004401369, 0.000274432474, 0.07604153  , -0.3476473  , 0.64642036  , 0.0015458382, -0.0168947242, 1.38531852  , 1.4         , 3           , 50          , 0           , 0
-0.14947319 , -0.0247292276, -9.793002   , -0.00315844337, -0.00125111267, -0.0002669756, 0.07610894  , -0.347849548, 0.6460833   , 0.00151429942, -0.01690723 , 1.38531613  , 1.41        , 3           , 11          , 0.008345853 , 0.00834585447
-0.175611988, -0.0169419814, -9.796161   , -0.00209036679, -0.0009819963, 0.00053604  , 0.0759741142, -0.347849548, 0.6464878   , 0.00149330543, -0.01691706 , 1.38532138  , 1.42        , 3           , 12          , 0.0390739851, 0
-0.160350412, -0.0339932069, -9.813494   , -0.00369048957, -0.00178741582, -0.0002707743, 0.07617635  , -0.347512484, 0.646285534 , 0.00145644753, -0.0169349313, 1.38531852  , 1.43        , 3           , 50          , 0           , 0
-0.177052736, -0.0394322053, -9.802271   , -0.000484171935, -0.00150539633, 0.000268875738, 0.07617635  , -0.347512484, 0.646285534 , 0.00145156018, -0.0169499889, 1.3853209   , 1.44        , 3           , 11          , 0.008345853 , 0.00834585447
-0.175134823, -0.00738491537, -9.807385   , -0.00182187709, -0.00124606141, 0.000268326316, 0.07617635  , -0.347782135, 0.6462181   , 0.00143329648, -0.0169624537, 1.38532376  , 1.45        , 3           , 12          , 0.0390739851, 0
-0.149490282, -0.026423566, -9.806601   , 0.00217846083, 0.000645051245, -0.000248374534, 0.07610894  , -0.3476473  , 0.646352947 , 0.00145512319, -0.0169559978, 1.38532138  , 1.46        , 3           , 50          , 0           , 0
-0.1536187  , -0.04442066 , -9.809504   , 0.00272062747, -0.00095210335, -0.000256505562, 0.07617635  , -0.3475799  , 0.646352947 , 0.00148237555, -0.0169655159, 1.38531852  , 1.47        , 3           , 11          , 0.008345853 , 0.00834585447
-0.164381742, -0.02725534 , -9.808458   , -0.000758102, -0.000167715363, -0.00105722947, 0.07610894  , -0.347714722, 0.6462181   , 0.00147497386, -0.0169671774, 1.385308    , 1.48        , 3           , 12          , 0.0390739851, 0
-0.156684265, -0.0233680084, -9.790744   , -0.00129742187, 0.0008903356, 0.00028107228, 0.07610894  , -0.347714722, 0.6462181   , 0.00146195083, -0.01695828 , 1.38531089  , 1.49        , 3           , 50          , 0           , 0
-0.169687152, -0.00448540971, -9.777915   , 0.0002060878, -9.789091E-05, -0.00105882972, 0.07610894  , -0.347714722, 0.646285534 , 0.00165200024, -0.0168835651, 1.38529706  , 1.5         , 3           , 11          , 0.008329451 , 0.008329457
-0.158551022, -0.0367559232, -9.807178   , -0.000856802159, -0.00143603177, -0.001334549, 0.0762437657, -0.347782135, 0.646352947 , 0.00164365652, -0.0168979056, 1.38528371  , 1.51        , 3           , 12          , 0.0397251546, 0
-0.131452143, -0.0278287027, -9.80838    , 0.000481219671, -0.0017011062, -8.4626663E-07, 0.0759741142, -0.3476473  , 0.6461507   , 0.00164846971, -0.0169149172, 1.38528371  , 1.52        , 3           , 50          , 0           , 0
-0.137293041, -0.02524357 , -9.790712   , -0.000334813754, 0.00123258133, -0.00105218985, 0.0759741142, -0.3476473  , 0.6461507   , 0.00164529937, -0.0169025734, 1.38527322  , 1.53        , 3           , 11          , 0.008329451 , 0.008329457
-0.171982318, -0.0143630058, -9.782092   , 0.00260314066, 0.0017763701, 0.0002884352, 0.0759741142, -0.347714722, 0.6462181   , 0.00167128234, -0.0168848149, 1.38527608  , 1.54        , 3           , 12          , 0.0397251546, 0
-0.157549948, -0.0101700164, -9.805557   , -0.00327479187, 0.00121297431, -0.0002567874, 0.07610894  , -0.3476473  , 0.6462181   , 0.00163857744, -0.0168726817, 1.38527322  , 1.55        , 3           , 50          , 0           , 0
-0.153049663, -0.008201618, -9.828163   , 0.000473439082, -9.756937E-05, -0.0007917909, 0.07604153  , -0.3475799  , 0.6461507   , 0.00164344558, -0.0168736409, 1.38526559  , 1.56        , 3           , 11          , 0.008329451 , 0.008329457
-0.166521609, 0.00244373269, -9.800023   , -0.00112896063, -0.000374215946, -0.0005291003, 0.07604153  , -0.3475799  , 0.6461507   , 0.00163224584, -0.0168773755, 1.38526034  , 1.57        , 3           , 12          , 0.0397251546, 0
-0.162136525, -0.031368643, -9.802607   , -0.00112402684, -0.001438649, -0.00106832641, 0.07617635  , -0.347512484, 0.6461507   , 0.00162118592, -0.016891744, 1.38524938  , 1.58        , 3           , 50          , 0           , 0
-0.166151449, -0.0191842169, -9.802045   , -0.001927156, -0.00117637531, -0.00106805959, 0.0762437657, -0.347512484, 0.646352947 , 0.00160209637, -0.0169034954, 1.38523889  , 1.59        , 3           , 11          , 0.008329451 , 0.008329457
-0.193623722, -0.00598174147, -9.805154   , -0.00215513934, -0.0013659515, -0.000270825229, 0.07617635  , -0.3476473  , 0.6461507   , 0.0016255544, -0.01681972 , 1.38523507  , 1.6         , 3           , 12          , 0.0404103   , 0
-0.176446676, -0.00172605179, -9.781527   , -0.00214242516, -0.00403392175, -1.91067156E-05, 0.07617635  , -0.3476473  , 0.6461507   , 0.0016041334, -0.0168600585, 1.38523507  , 1.61        , 3           , 50          , 0           , 0
-0.159307882, -0.005498424, -9.768844   , -0.0013472666, -0.00268921512, -0.00161021 , 0.07604153  , -0.3476473  , 0.646285534 , 0.00159093435, -0.0168869253, 1.38521886  , 1.62        , 3           , 11          , 0.008307698 , 0.008307698
-0.142269835, -0.0292863958, -9.790313   , 0.00558495335, 0.00107450574, 0.000287692761, 0.07610894  , -0.3476473  , 0.6462181   , 0.00164673419, -0.0168761835, 1.38522172  , 1.63        , 3           , 12          , 0.0404103   , 0
-0.153520465, -0.0220381  , -9.789364   , -0.00242015044, -0.001896194, -0.00134073838, 0.07604153  , -0.347782135, 0.646285534 , 0.00162275962, -0.0168951247, 1.38520837  , 1.64        , 3           , 50          , 0           , 0
-0.172948852, -0.0282014981, -9.798982   , -0.000287855248, -0.0005567669, 3.13593773E-06, 0.07604153  , -0.347782135, 0.646285534 , 0.00161987985, -0.01690069 , 1.38520837  , 1.65        , 3           , 11          , 0.008307698 , 0.008307698
-0.161620691, -0.014256184, -9.800175   , -0.00241483678, -0.00296751433, -0.000280180655, 0.07617635  , -0.347782135, 0.6460833   , 0.00159578014, -0.01693036 , 1.38520551  , 1.66        , 3           , 12          , 0.0404103   , 0
-0.164301291, -0.006559852, -9.802822   , 0.0023710453, 0.0023925798, -0.000243010072, 0.07604153  , -0.347714722, 0.6464878   , 0.00161953119, -0.0169064309, 1.38520265  , 1.67        , 3           , 50          , 0           , 0
-0.150394246, -0.032019455, -9.783115   , 0.00131985813, -0.00135144067, 0.0008010029, 0.07604153  , -0.3475799  , 0.6462181   , 0.00163259392, -0.0169199575, 1.38521123  , 1.68        , 3           , 11          , 0.008307698 , 0.008307698
-0.139084578, -0.0216264129, -9.791135   , 0.001850639 , -0.0005484552, 0.0008062929, 0.07604153  , -0.3475799  , 0.6462181   , 0.00165096321, -0.0169254579, 1.38521886  , 1.69        , 3           , 12          , 0.0404103   , 0
-0.144857734, 0.005999064 , -9.803556   , -0.00105457474, 8.218799E-05, 0.0008039923, 0.07617635  , -0.347512484, 0.6460833   , 0.00168624939, -0.01678554 , 1.38522649  , 1.7         , 3           , 50          , 0           , 0
-0.174231708, -0.008333605, -9.801959   , 0.000283383823, -0.0001817387, 0.00187106442, 0.07604153  , -0.347512484, 0.6462181   , 0.00168877025, -0.0167873874, 1.38524508  , 1.71        , 3           , 11          , 0.008276078 , 0.008276073
-0.173763379, -0.0108549278, -9.768932   , -0.00183986593, -0.00339138461, 0.00131664355, 0.0759067   , -0.3476473  , 0.646352947 , 0.00167014985, -0.0168213248, 1.385258    , 1.72        , 3           , 12          , 0.0411273539, 0
-0.172858119, -0.0048045367, -9.792867   , 1.81193373E-05, -0.0007073896, -0.000265371229, 0.0759067   , -0.3476473  , 0.646352947 , 0.0016703764, -0.0168283936, 1.38525558  , 1.73        , 3           , 50          , 0           , 0
-0.163888454, -0.0178655  , -9.798858   , 0.0008159981, 0.000100508907, -0.00105956511, 0.0762437657, -0.3476473  , 0.6460159   , 0.00167871488, -0.016827371, 1.38524461  , 1.74        , 3           , 11          , 0.008276078 , 0.008276073
-0.162956312, -0.0120950583, -9.787932   , 0.0008137213, 0.0006292818, 9.939831E-06, 0.0762437657, -0.347714722, 0.646285534 , 0.00168684917, -0.016821079, 1.38524461  , 1.75        , 3           , 12          , 0.0411273539, 0
-0.171100438, -0.0155589515, -9.802022   , 0.00241466565, 0.00117605424, -0.00105115143, 0.07610894  , -0.347782135, 0.6461507   , 0.00171117333, -0.0168093  , 1.38523459  , 1.76        , 3           , 50          , 0           , 0
-0.166181862, -0.03150624 , -9.783603   , 0.0008074591, 0.00196154532, 0.000284026552, 0.07610894  , -0.347782135, 0.6461507   , 0.00171920017, -0.0167896859, 1.385237    , 1.77        , 3           , 11          , 0.008276078 , 0.008276073
-0.172071651, -0.03402955 , -9.803563   , 1.1730539E-05, 0.0006271694, -0.000524545845, 0.07631118  , -0.347782135, 0.6462181   , 0.00171940506, -0.01678341 , 1.38523221  , 1.78        , 3           , 12          , 0.0411273539, 0
-0.17967236 , -0.0169232469, -9.796623   , -0.00105602981, 0.000352313829, 5.59170439E-06, 0.07617635  , -0.347782135, 0.64642036  , 0.00170884491, -0.0167798847, 1.38523221  , 1.79        , 3           , 50          , 0           , 0
-0.1571401  , -0.0223810077, -9.801148   , -0.00102575077, -0.000768150436, 0.00186570478, 0.0759067   , -0.347714722, 0.646285534 , 0.0017297552, -0.0168456417, 1.38524985  , 1.8         , 3           , 11          , 0.00823218748, 0.008232193
-0.157089651, -0.01260772 , -9.782943   , -0.00156203518, -0.00049637194, -3.4851837E-08, 0.0762437657, -0.347512484, 0.6460159   , 0.00171413529, -0.0168506037, 1.38525033  , 1.81        , 3           , 12          , 0.04187434  , 0
-0.16933167 , -0.0240881983, -9.807533   , 4.41597222E-05, -0.00101977214, -0.000267199124, 0.0762437657, -0.347512484, 0.6460159   , 0.00171462249, -0.016860798, 1.38524747  , 1.82        , 3           , 50          , 0           , 0
-0.181091428, -0.0307455063, -9.815326   , 4.43497047E-05, -0.00102321571, 0.000532692764, 0.07604153  , -0.3476473  , 0.646285534 , 0.00171497581, -0.0168710425, 1.38525271  , 1.83        , 3           , 11          , 0.00823218748, 0.008232193
-0.157991543, -0.0126079991, -9.782492   , -0.000763839751, 0.00030578734, 0.0005389244, 0.0759741142, -0.347782135, 0.64642036  , 0.001707245 , -0.01686799 , 1.385258    , 1.84        , 3           , 12          , 0.04187434  , 0
-0.156607315, -0.002636157, -9.789636   , 0.0008443787, -0.0007417945, -0.0018642674, 0.07617635  , -0.347714722, 0.6461507   , 0.0017160041, -0.0168753769, 1.38523936  , 1.85        , 3           , 50          , 0           , 0
-0.168342575, 0.00121787  , -9.814981   , -0.002092626, -0.001302801, 0.000794567168, 0.07617635  , -0.347714722, 0.6461507   , 0.00169494224, -0.01688842 , 1.38524747  , 1.86        , 3           , 11          , 0.00823218748, 0.008232193
-0.14848645 , 0.0001332555, -9.801358   , 0.0005671599, 0.00138675049, -0.00105285388, 0.07604153  , -0.3476473  , 0.6460833   , 0.0017007913, -0.0168745331, 1.385237    , 1.87        , 3           , 12          , 0.04187434  , 0
-0.162968278, -0.0133748995, -9.797      , 4.82083124E-05, -0.00182441017, 0.0007948497, 0.07604153  , -0.347782135, 0.646285534 , 0.00170113961, -0.0168927889, 1.38524461  , 1.88        , 3           , 50          , 0           , 0
-0.179267138, -0.0286179483, -9.80036    , 0.00138192822, -0.00128025492, -1.9048457E-08, 0.0762437657, -0.347714722, 0.6461507   , 0.001714959 , -0.01690559 , 1.38524461  , 1.89        , 3           , 11          , 0.00823218748, 0.008232193
-0.165650174, -0.004260568, -9.807783   , -0.00265331659, -0.00129515573, -0.0008055955, 0.0762437657, -0.347714722, 0.6461507   , 0.00165462319, -0.0169136655, 1.38523746  , 1.9         , 3           , 12          , 0.0426493473, 0
-0.131872967, -0.0239293315, -9.788423   , -0.00105559768, 4.13324342E-05, 0.0005374625, 0.0759741142, -0.3476473  , 0.6461507   , 0.001643978 , -0.0169132575, 1.3852427   , 1.91        , 3           , 50          , 0           , 0
-0.170209721, -0.0191872865, -9.799792   , 0.000822945731, -0.001547327, 0.0002647416, 0.07610894  , -0.347782135, 0.6461507   , 0.00165216241, -0.0169287361, 1.38524556  , 1.92        , 3           , 11          , 0.00817612  , 0.00817612652
-0.166569233, -0.011103591, -9.79744    , -0.0002500016, -0.0007531583, 0.0002675827, 0.0759741142, -0.347512484, 0.6462181   , 0.0016496171, -0.01693627 , 1.385248    , 1.93        , 3           , 12          , 0.0426493473, 0
-0.159312338, -0.007792665, -9.7638855  , 0.000545473653, 0.000585808943, 9.63248E-06 , 0.0759741142, -0.347512484, 0.6462181   , 0.00165507093, -0.0169304162, 1.385248    , 1.94        , 3           , 50          , 0           , 0
-0.149876133, -0.012121914, -9.790616   , -0.00319194118, -0.000493456668, -0.00186846068, 0.07610894  , -0.347849548, 0.6460159   , 0.00162346731, -0.0169353168, 1.38522935  , 1.95        , 3           , 11          , 0.00817612  , 0.00817612652
-0.156663239, -0.014692775, -9.804241   , 0.00294961082, 0.000869159645, -0.000785095035, 0.07604153  , -0.347445071, 0.646285534 , 0.00165309582, -0.01692661 , 1.38522172  , 1.96        , 3           , 12          , 0.0426493473, 0
-0.164373159, -0.0282806475, -9.793074   , 1.31111792E-05, 5.52451238E-05, -0.00132731942, 0.07610894  , -0.347782135, 0.6460833   , 0.00165345171, -0.0169260353, 1.38520837  , 1.97        , 3           , 50          , 0           , 0
-0.162444144, 0.00411933661, -9.785962   , -0.0002678396, 0.00298268883, -0.00024480166, 0.07610894  , -0.347782135, 0.6460833   , 0.00165081408, -0.01689621 , 1.38520551  , 1.98        , 3           , 11          , 0.00817612  , 0.00817612652
-0.174710736, -0.0174034629, -9.79525852 , -0.000249811623, -0.000756601861, 0.0010674746, 0.0759741142, -0.347849548, 0.6460159   , 0.00164813607, -0.01690379 , 1.38521647  , 1.99        , 3           , 12          , 0.0426493473, 0
-0.175153121, -0.0156201962, -9.792525   , -0.003480119, -0.002342036, 0.0007874856, 0.07604153  , -0.3475799  , 0.64642036  , 0.00157156249, -0.0168845523, 1.385225    , 2           , 3           , 50          , 0           , 0
-0.181488663, -0.0205378737, -9.794853   , 0.001586904 , 8.717082E-05, 0.000542030437, 0.07610894  , -0.347714722, 0.6461507   , 0.00158733956, -0.016883688, 1.3852303   , 2.01        , 3           , 11          , 0.008109767 , 0.008109774
-0.188722685, -0.0268956386, -9.785878   , -2.47945682E-05, 0.00168533484, -0.00105125492, 0.07610894  , -0.347714722, 0.6461507   , 0.00158726936, -0.0168668237, 1.38521981  , 2.02        , 3           , 12          , 0.0434505381, 0
-0.175235555, -0.0367628932, -9.798618   , 0.00104334578, 0.00195330335, 1.839138E-05, 0.0759741142, -0.3476473  , 0.6460159   , 0.00159769866, -0.0168472882, 1.38522029  , 2.03        , 3           , 50          , 0           , 0
-0.162532687, -0.0197684672, -9.787101   , 0.003997683 , -0.0009686293, 0.001073    , 0.0759741142, -0.347445071, 0.6461507   , 0.0016374957, -0.0168569889, 1.38523078  , 2.04        , 3           , 11          , 0.008109767 , 0.008109774
-0.146167353, 0.0144430194, -9.787631   , 0.000246478769, 0.0008833141, -0.0002554285, 0.07617635  , -0.3475799  , 0.646352947 , 0.00164000341, -0.0168481525, 1.3852284   , 2.05        , 3           , 12          , 0.0434505381, 0
-0.153025731, -0.007514411, -9.801445   , -1.82791155E-05, 0.0003484802, -0.000258819055, 0.07617635  , -0.3475799  , 0.646352947 , 0.00163986522, -0.01684467 , 1.38522553  , 2.06        , 3           , 50          , 0           , 0
-0.1656583  , -0.007452879, -9.803287   , 0.00131348055, 0.00141566887, 0.00134897023, 0.07583929  , -0.3475799  , 0.6460833   , 0.0016527737, -0.0168305319, 1.38523889  , 2.07        , 3           , 11          , 0.008109767 , 0.008109774
-0.176521182, -0.02061087 , -9.788051   , -0.0005501983, -0.000190118866, 0.000270643563, 0.0759741142, -0.3476473  , 0.6460833   , 0.00164722733, -0.0168324374, 1.38524175  , 2.08        , 3           , 12          , 0.0434505381, 0
-0.160704076, -0.0130051505, -9.787936   , 0.00212103664, 9.814469E-05, -0.00132356794, 0.07604153  , -0.347714722, 0.646352947 , 0.00166865962, -0.0168314334, 1.3852284   , 2.09        , 3           , 50          , 0           , 0
-0.1417651  , -0.0106541533, -9.808692   , -0.000315045065, 0.000340368919, -0.000258698827, 0.07604153  , -0.3475799  , 0.6460833   , 0.00162354379, -0.0168374944, 1.385227    , 2.1         , 3           , 11          , 0.008034324 , 0.008034323
-0.160631835, 0.008712009 , -9.797232   , -0.00245113554, -0.000199011571, -0.0015980996, 0.07604153  , -0.3475799  , 0.6460833   , 0.001599301 , -0.016839454, 1.38521123  , 2.11        , 3           , 12          , 0.0442761742, 0
-0.179696441, -0.0241622962, -9.793526   , 0.000758977432, -0.000717038871, -0.00106292311, 0.0759741142, -0.3475799  , 0.646285534 , 0.00160707033, -0.0168466084, 1.38520026  , 2.12        , 3           , 50          , 0           , 0
-0.1472458  , -0.03240207 , -9.793073   , -0.00110533333, -0.002067623, 0.0005265478, 0.07604153  , -0.3476473  , 0.646352947 , 0.00159592973, -0.0168672912, 1.38520551  , 2.13        , 3           , 11          , 0.008034324 , 0.008034323
-0.112413876, -0.00872349 , -9.781887   , 0.00529522  , 0.0009091824, -0.00131366833, 0.07604153  , -0.3476473  , 0.6461507   , 0.00164910418, -0.0168581847, 1.38519216  , 2.14        , 3           , 12          , 0.0442761742, 0
-0.139138043, -0.0374534354, -9.785403   , 0.001284761 , 0.00115152786, -0.000785037642, 0.07604153  , -0.3476473  , 0.6461507   , 0.00166208262, -0.0168466531, 1.38518453  , 2.15        , 3           , 50          , 0           , 0
-0.152988568, 0.0005245488, -9.791858   , -0.00219358853, 0.00192902843, 1.40221537E-05, 0.0759067   , -0.3476473  , 0.6461507   , 0.00164014439, -0.0168273617, 1.38518453  , 2.16        , 3           , 11          , 0.008034324 , 0.008034323
-0.143046036, 0.006385036 , -9.796304   , 0.0020918753, 8.57635E-05 , 1.01137848E-05, 0.07604153  , -0.3475799  , 0.646285534 , 0.00166106061, -0.016826503, 1.38518453  , 2.17        , 3           , 12          , 0.0442761742, 0
-0.144868255, -0.0009127408, -9.785061   , -3.22592459E-05, -0.002864088, 0.00105696789, 0.07610894  , -0.3476473  , 0.645881057 , 0.00166056037, -0.0168551616, 1.38519549  , 2.18        , 3           , 50          , 0           , 0
-0.167095691, -0.0365313068, -9.775052   , 0.0002230097, -0.000450999738, -0.00159550935, 0.07610894  , -0.3476473  , 0.645881057 , 0.00166305969, -0.0168596469, 1.38517928  , 2.19        , 3           , 11          , 0.008034324 , 0.008034323
-0.167517409, -0.026069181, -9.78627    , -0.000610764546, 0.00180119334, 1.51401182E-05, 0.07610894  , -0.347512484, 0.6462181   , 0.00162408082, -0.0166490022, 1.38518023  , 2.2         , 3           , 12          , 0.0451245829, 0
-0.17874755 , -0.009203978, -9.80379    , -0.002213291, 0.00152684248, -0.000255430525, 0.0759067   , -0.347512484, 0.6462181   , 0.00160199055, -0.01663373 , 1.38517785  , 2.21        , 3           , 50          , 0           , 0
-0.152120635, -0.00614339672, -9.804146   , 0.00100156583, -5.2174335E-05, -0.00105937209, 0.0759067   , -0.347714722, 0.6460159   , 0.00161218282, -0.0166342352, 1.38516688  , 2.22        , 3           , 11          , 0.007952242 , 0.007952244
-0.171980619, -0.008763766, -9.805579   , 0.00073573296, -0.0003237696, -0.000261379551, 0.0759067   , -0.347714722, 0.6460159   , 0.00161958451, -0.0166374668, 1.385164    , 2.23        , 3           , 12          , 0.0451245829, 0
-0.152652517, -0.0268335752, -9.810235   , 0.00152861467, 0.00154970994, -0.0007829779, 0.0759741142, -0.347512484, 0.6460833   , 0.00163500011, -0.0166219566, 1.38515639  , 2.24        , 3           , 50          , 0           , 0
-0.149984658, -0.039078407, -9.802651   , 0.00366533687, 0.00183388684, -0.002111375, 0.07604153  , -0.347512484, 0.646352947 , 0.00167200353, -0.0166035872, 1.38513494  , 2.25        , 3           , 11          , 0.007952242 , 0.007952244
-0.160269633, -0.0151738338, -9.798821   , 0.00313911168, 0.000217080291, 0.00107842928, 0.0759741142, -0.347714722, 0.6462181   , 0.00170321518, -0.01660143 , 1.3851459   , 2.26        , 3           , 12          , 0.0451245829, 0
-0.147589952, -0.00636377 , -9.778783   , -0.0003283588, -0.001396376, -0.0002689769, 0.0759741142, -0.347714722, 0.6462181   , 0.00169997709, -0.01661539 , 1.38514352  , 2.27        , 3           , 50          , 0           , 0
-0.1485193  , -0.0102908351, -9.79467    , 0.000475655455, -0.00191844522, -0.0018705189, 0.0759067   , -0.3475799  , 0.64594847  , 0.00170504465, -0.0166345444, 1.38512444  , 2.28        , 3           , 11          , 0.007952242 , 0.007952244
-0.163452208, -0.01864891 , -9.813805   , 0.004204089 , 0.00102989178, -0.000515248452, 0.07617635  , -0.3476473  , 0.6460833   , 0.00174717139, -0.0166242328, 1.38511968  , 2.29        , 3           , 12          , 0.0451245829, 0
-0.153497592, -0.0175950415, -9.781172   , 0.00018095164, 0.001599867 , 0.000548217446, 0.07604153  , -0.347512484, 0.6460833   , 0.00173110259, -0.01651085 , 1.38512492  , 2.3         , 3           , 50          , 0           , 0
-0.162961468, -0.0125095574, -9.792464   , -0.00222128863, 0.0007946306, -0.00132634386, 0.07604153  , -0.347512484, 0.6460833   , 0.00170910766, -0.01650288 , 1.385112    , 2.31        , 3           , 11          , 0.007864379 , 0.007864383
-0.17834039 , -0.0255998634, -9.783576   , 0.000458487018, -0.0005344171, 0.00106995716, 0.0759741142, -0.3476473  , 0.6461507   , 0.00171351677, -0.0165082421, 1.38512254  , 2.32        , 3           , 12          , 0.0459941961, 0
-0.159388229, -0.0247904621, -9.780804   , 0.000459245435, -0.0007919165, -0.001064579, 0.07604153  , -0.347782135, 0.6462181   , 0.00171828445, -0.0165161435, 1.385112    , 2.33        , 3           , 50          , 0           , 0
-0.167448   , -0.0061954055, -9.790602   , -0.000342238578, -0.0008032119, 0.0005339803, 0.07610894  , -0.347714722, 0.6461507   , 0.00171477557, -0.0165241864, 1.38511729  , 2.34        , 3           , 11          , 0.007864379 , 0.007864383
-0.185545623, -0.0200864673, -9.793047   , -0.00114688615, -0.0002696642, -0.0005307842, 0.07610894  , -0.347714722, 0.6461507   , 0.00170339411, -0.0165268742, 1.385112    , 2.35        , 3           , 12          , 0.0459941961, 0
-0.137217045, -0.006842319, -9.78012    , -8.235113E-05, 0.0007949073, 0.00134322769, 0.0759741142, -0.3475799  , 0.6460833   , 0.00170234812, -0.0165189467, 1.3851254   , 2.36        , 3           , 50          , 0           , 0
-0.142224669, -0.0157136228, -9.796065   , -0.00327886455, -0.00161483046, -0.0005415053, 0.0759741142, -0.3476473  , 0.6462181   , 0.00166964985, -0.0165350866, 1.38511968  , 2.37        , 3           , 11          , 0.007864379 , 0.007864383
-0.1598741  , -0.0253632851, -9.821557   , -0.00462795561, 0.00104464474, -0.0005286338, 0.0759741142, -0.3475799  , 0.6462181   , 0.00162345706, -0.0165246315, 1.38511491  , 2.38        , 3           , 12          , 0.0459941961, 0
-0.181425527, -0.00247114524, -9.798751   , 0.0007303922, -0.00159164146, -0.0008020139, 0.0759741142, -0.3475799  , 0.6462181   , 0.001630894 , -0.0165405311, 1.38510633  , 2.39        , 3           , 50          , 0           , 0
-0.162065074, -0.0147926118, -9.789314   , 0.00177939155, 0.000284151174, -0.00105637615, 0.07610894  , -0.347849548, 0.645881057 , 0.00163088157, -0.0165344886, 1.38509631  , 2.4         , 3           , 11          , 0.00777406851, 0.00777408
-0.1427262  , -0.0292301849, -9.797104   , -0.0003613162, 0.000803464558, -0.000523397466, 0.0759741142, -0.3476473  , 0.646352947 , 0.00162735442, -0.0165264457, 1.38509107  , 2.41        , 3           , 12          , 0.0468835272, 0
-0.162565768, -0.0273820274, -9.793513   , 0.00204933621, -0.00025003968, -0.00052568916, 0.0759741142, -0.3476473  , 0.6462181   , 0.00164793641, -0.0165289417, 1.38508582  , 2.42        , 3           , 50          , 0           , 0
-0.174669534, -0.00472511724, -9.801925   , -0.00250183372, 0.00131933449, 0.0008094729, 0.0762437657, -0.347714722, 0.6461507   , 0.001622782 , -0.0165157579, 1.38509393  , 2.43        , 3           , 11          , 0.00777406851, 0.00777408
-0.189560473, -0.004626112, -9.807394   , -0.000353345677, -0.00080351613, 0.001067439 , 0.0762437657, -0.347714722, 0.6461507   , 0.0016190738, -0.01652381 , 1.38510442  , 2.44        , 3           , 12          , 0.0468835272, 0
-0.158445731, -0.0074252  , -9.81006    , 0.000168009516, 0.00187657587, -0.00131650839, 0.07617635  , -0.347849548, 0.646285534 , 0.00162097148, -0.0165050216, 1.38509107  , 2.45        , 3           , 50          , 0           , 0
-0.154938087, -0.03774739 , -9.79767    , 0.00070834253, 0.0008001593, 0.00161127991, 0.07631118  , -0.3475799  , 0.646285534 , 0.001627788 , -0.0164970458, 1.38510728  , 2.46        , 3           , 11          , 0.00777406851, 0.00777408
-0.1544952  , -0.03859988 , -9.804016   , -0.000355054042, -0.00052879873, -0.0007974842, 0.07617635  , -0.3475799  , 0.6460833   , 0.00162437093, -0.0165023245, 1.38509917  , 2.47        , 3           , 12          , 0.0468835272, 0
-0.164359033, -0.021874221, -9.804783   , -9.137133E-05, 0.000269273849, 7.289491E-06, 0.07617635  , -0.3475799  , 0.6460833   , 0.00162345509, -0.0164996274, 1.38509965  , 2.48        , 3           , 50          , 0           , 0
-0.184629112, -0.01274897 , -9.808821   , -0.000888175, -0.0008018634, 1.002627E-07, 0.07610894  , -0.347782135, 0.6460159   , 0.00161457446, -0.0165076461, 1.38509965  , 2.49        , 3           , 11          , 0.00777406851, 0.00777408
-0.159855172, -0.02041121 , -9.820603   , 0.000476186775, -2.88345473E-05, 6.1585456E-06, 0.0759067   , -0.347445071, 0.6461507   , 0.0016720657, -0.0165650342, 1.3850987   , 2.5         , 3           , 12          , 0.0477911755, 0
-0.171518028, -0.008416383, -9.792898   , -0.00111969747, -0.00164233579, 0.001061285 , 0.07604153  , -0.3476473  , 0.6460833   , 0.001660693 , -0.0165814739, 1.38510919  , 2.51        , 3           , 50          , 0           , 0
-0.1611715  , -0.01704659 , -9.789787   , -0.000321691972, -0.000836733263, 0.000800352369, 0.07604153  , -0.3476473  , 0.6460833   , 0.00165734533, -0.01658986 , 1.38511682  , 2.52        , 3           , 11          , 0.00767931854, 0.00767931947
-0.144010112, -0.009351386, -9.80144    , 0.000475238368, 0.0002321084, 0.001340803 , 0.0759741142, -0.347782135, 0.6461507   , 0.00166187424, -0.0165875554, 1.38513064  , 2.53        , 3           , 12          , 0.0477911755, 0
-0.131791174, 0.00424152054, -9.815312   , -0.00220194366, 0.00102664391, -0.000791849743, 0.07610894  , -0.3475799  , 0.646285534 , 0.00163998827, -0.0165772811, 1.38512254  , 2.54        , 3           , 50          , 0           , 0
-0.152638853, -0.0218269639, -9.81607151 , -0.000322135253, -0.0008286981, -0.001066062, 0.0759741142, -0.347714722, 0.6462181   , 0.00163694378, -0.0165855475, 1.385112    , 2.55        , 3           , 11          , 0.00767931854, 0.00767931947
-0.1580118  , -0.0123971421, -9.808749   , 0.00075062213, -0.00161942339, -0.001868795, 0.0759741142, -0.347714722, 0.6462181   , 0.00164476049, -0.01660171 , 1.385093    , 2.56        , 3           , 12          , 0.0477911755, 0
-0.184140027, -0.00706046633, -9.787484   , 0.00207017385, 0.00210655248, 0.00162032072, 0.0759067   , -0.3475799  , 0.6460159   , 0.00166519289, -0.0165806729, 1.38510919  , 2.57        , 3           , 50          , 0           , 0
-0.163870528, -0.0114990678, -9.805586   , 0.00100968778, 0.000237342974, 0.000808357843, 0.07610894  , -0.347512484, 0.646352947 , 0.00167515408, -0.016578313, 1.38511777  , 2.58        , 3           , 11          , 0.00767931854, 0.00767931947
-0.140010029, -0.02419001 , -9.808367   , 0.00154546567, -2.525262E-05, 0.0005410523, 0.07604153  , -0.347782135, 0.6460159   , 0.00169051893, -0.0165785737, 1.385123    , 2.59        , 3           , 12          , 0.0477911755, 0
-0.149401814, -0.00581168756, -9.790553   , 0.0004603756, 1.2577395E-05, -0.001326793, 0.07604153  , -0.347782135, 0.6460159   , 0.001668609 , -0.0165169146, 1.38511014  , 2.6         , 3           , 50          , 0           , 0
-0.149862275, -0.008053357, -9.791934   , -0.00167109654, -0.00134177192, 0.000795531145, 0.0759741142, -0.3476473  , 0.6461507   , 0.001651766 , -0.0165303461, 1.38511825  , 2.61        , 3           , 11          , 0.00758291036, 0.00758291129
-0.170592859, -0.00444569625, -9.782445   , -0.0006168089, 0.00185855315, 0.00214821147, 0.07604153  , -0.347512484, 0.646352947 , 0.00164524117, -0.016511796, 1.3851397   , 2.62        , 3           , 12          , 0.04871582  , 0
-0.142167285, 0.00147685781, -9.803142   , -0.00141329749, 0.000537951768, -0.00185992871, 0.0759741142, -0.347782135, 0.6460159   , 0.00163141545, -0.0165063851, 1.38512111  , 2.63        , 3           , 50          , 0           , 0
-0.142730847, -0.0268414151, -9.813832   , -0.003544706, -0.0008175455, 0.000529026 , 0.0759741142, -0.347782135, 0.6460159   , 0.00159588258, -0.0165145677, 1.38512635  , 2.64        , 3           , 11          , 0.00758291036, 0.00758291129
-0.180490658, 0.00186677289, -9.777881   , -0.00220851926, -0.0008056071, -0.0005354559, 0.0759067   , -0.347782135, 0.6460833   , 0.001573886 , -0.0165226161, 1.38512063  , 2.65        , 3           , 12          , 0.04871582  , 0
-0.1416818  , 0.009543222 , -9.797174   , 0.00179694244, 1.7628714E-05, -0.0007914909, 0.07604153  , -0.347445071, 0.6462181   , 0.00159198663, -0.016522428, 1.385113    , 2.66        , 3           , 50          , 0           , 0
-0.150351331, -0.01748682 , -9.796103   , 0.000981099 , 0.00294787274, -0.00104294263, 0.07631118  , -0.347714722, 0.646285534 , 0.001601968 , -0.0164929312, 1.38510251  , 2.67        , 3           , 11          , 0.00758291036, 0.00758291129
-0.159860909, -0.0269048847, -9.79803    , 0.00286634779, 1.89149E-05 , 0.000276664156, 0.07631118  , -0.347714722, 0.646285534 , 0.00163058727, -0.0164927449, 1.38510537  , 2.68        , 3           , 12          , 0.04871582  , 0
-0.144874915, -0.00271614641, -9.785079   , 0.00126787  , -0.001060074, 0.00106814236, 0.0759741142, -0.347916961, 0.64594847  , 0.00164309086, -0.0165033657, 1.38511586  , 2.69        , 3           , 50          , 0           , 0
-0.170639187, -0.0137935849, -9.797476   , 0.000678693643, 0.000864841742, 0.000811783539, 0.07583929  , -0.347445071, 0.6462181   , 0.00156803022, -0.0163875781, 1.3851254   , 2.7         , 3           , 11          , 0.007486094 , 0.0074861
-0.182379723, -0.016905902, -9.797536   , -0.0006530661, -0.000202347, -0.0007960057, 0.07610894  , -0.3476473  , 0.6460833   , 0.00156163087, -0.0163895879, 1.38511729  , 2.71        , 3           , 12          , 0.04965622  , 0
-0.167495787, -0.0150597254, -9.809705   , 0.003351257 , 0.000885275134, -0.0005172883, 0.0759741142, -0.347849548, 0.6461507   , 0.001595228 , -0.0163807273, 1.385112    , 2.72        , 3           , 50          , 0           , 0
-0.157594532, -0.02328103 , -9.801158   , 0.00013880388, 0.00193322322, -0.000249590375, 0.0759741142, -0.347849548, 0.6461507   , 0.00159665628, -0.0163613912, 1.38510966  , 2.73        , 3           , 11          , 0.007486094 , 0.0074861
-0.159877747, -0.0300063025, -9.804852   , 0.00254857121, 0.00113951415, 0.00134939293, 0.07583929  , -0.3476473  , 0.6461507   , 0.00162192225, -0.0163500141, 1.38512349  , 2.74        , 3           , 12          , 0.04965622  , 0
-0.1778483  , -0.010112673, -9.803345   , 0.00255578174, -0.000453692017, -0.000259338063, 0.07583929  , -0.3475799  , 0.6460159   , 0.00164752221, -0.0163545478, 1.38512063  , 2.75        , 3           , 50          , 0           , 0
-0.148134857, -0.0245779287, -9.812466   , -0.00118112669, -0.00154214038, -4.38610732E-06, 0.07631118  , -0.347849548, 0.6460833   , 0.0016357128, -0.01636997 , 1.38512063  , 2.76        , 3           , 11          , 0.007486094 , 0.0074861
-0.150801569, -0.0165579841, -9.799265   , -0.00306599541, 0.00137993041, 0.000275790924, 0.07631118  , -0.347849548, 0.6460833   , 0.00160500756, -0.0163561776, 1.38512349  , 2.77        , 3           , 12          , 0.04965622  , 0
-0.163884431, -0.0244609844, -9.763607   , -0.000385398162, -0.0002077648, 0.0008041862, 0.07610894  , -0.3476473  , 0.6460833   , 0.00160102092, -0.0163582657, 1.38513112  , 2.78        , 3           , 50          , 0           , 0
-0.163432449, -0.0197905563, -9.783935   , -0.000656608, 0.0005931083, 0.0002749905, 0.07583929  , -0.347714722, 0.6461507   , 0.00159440946, -0.0163523387, 1.385134    , 2.79        , 3           , 11          , 0.007486094 , 0.0074861
-0.158913851, -0.0152043086, -9.79565    , 0.0038972667, 0.00248374557, -0.000241176123, 0.0759067   , -0.3476473  , 0.6460159   , 0.00166855776, -0.0163338166, 1.38513112  , 2.8         , 3           , 12          , 0.0506112128, 0
-0.13542816 , -0.007623492, -9.795968   , -0.000644479471, 0.00193228829, -0.00185088057, 0.0759067   , -0.3476473  , 0.6460159   , 0.00166241417, -0.0163144637, 1.385113    , 2.81        , 3           , 50          , 0           , 0
-0.137683272, -0.00621528924, -9.801846   , -0.00170812791, 0.000851646648, 7.936484E-06, 0.0757718757, -0.3475799  , 0.6460833   , 0.0016453315, -0.0163059458, 1.385113    , 2.82        , 3           , 11          , 0.00738947652, 0.00738947745
-0.17695494 , -0.0165769868, -9.78484249 , 0.00177338521, -0.000470697269, 0.00187220075, 0.07631118  , -0.347714722, 0.646352947 , 0.00166276  , -0.0163106844, 1.3851316   , 2.83        , 3           , 12          , 0.0506112128, 0
-0.144426554, -0.00643368624, -9.771532   , -0.0001006678, 6.156435E-05, -0.000260718982, 0.07617635  , -0.3476473  , 0.6460833   , 0.00166179636, -0.0163100623, 1.38512921  , 2.84        , 3           , 50          , 0           , 0
-0.167943418, -0.0150943995, -9.805179   , 0.0007053715, -0.0007409614, 0.00133581564, 0.07617635  , -0.3476473  , 0.6460833   , 0.0016686325, -0.0163174961, 1.38514209  , 2.85        , 3           , 11          , 0.00738947652, 0.00738947745
-0.167509243, -0.0214734282, -9.797091   , 0.00177667371, -0.00126156083, -0.000265318144, 0.07631118  , -0.3476473  , 0.6460833   , 0.00168644416, -0.0163301118, 1.3851397   , 2.86        , 3           , 12          , 0.0506112128, 0
-0.167506   , -0.0257201232, -9.773589   , 0.00257183239, 8.314564E-05, -0.00185642147, 0.0759741142, -0.3476473  , 0.6460833   , 0.00171246647, -0.0163292438, 1.38512063  , 2.87        , 3           , 50          , 0           , 0
-0.157116443, -0.0202867165, -9.781207   , 0.0004321998, 0.000339220482, -0.00212482619, 0.0759067   , -0.3476473  , 0.6461507   , 0.00171713519, -0.0163258146, 1.38509965  , 2.88        , 3           , 11          , 0.00738947652, 0.00738947745
-0.178340688, -0.0185753461, -9.816105   , 0.00149686146, 0.00140149635, 0.000282447145, 0.0759067   , -0.3476473  , 0.6461507   , 0.00173205684, -0.0163118057, 1.38510251  , 2.89        , 3           , 12          , 0.0506112128, 0
-0.137697056, -0.0107528791, -9.798269   , 0.0017661975, 0.001653989 , -0.000515551539, 0.0759067   , -0.347377658, 0.6460159   , 0.00175652641, -0.0163318925, 1.38509727  , 2.9         , 3           , 50          , 0           , 0
-0.156624526, -0.007606419, -9.788326   , 0.00257059163, 0.00112503266, -0.000517309643, 0.07583929  , -0.347714722, 0.6462181   , 0.0017823173, -0.01632063 , 1.385092    , 2.91        , 3           , 11          , 0.00729330163, 0.00729330443
-0.171505928, -0.00245717354, -9.805064   , 0.00203462364, 0.00139107183, -0.00104989589, 0.0759067   , -0.347782135, 0.6461507   , 0.00180283387, -0.0163067  , 1.38508153  , 2.92        , 3           , 12          , 0.0515797138, 0
-0.157971323, -0.00345647731, -9.799154   , 0.000163987686, 0.00137389882, 0.000547030941, 0.0759067   , -0.347782135, 0.6461507   , 0.001804384 , -0.0162929725, 1.38508725  , 2.93        , 3           , 50          , 0           , 0
-0.18145135 , -0.0115644932, -9.789333   , 0.00231266557, -0.0007523955, 0.0016048887, 0.07617635  , -0.347782135, 0.6461507   , 0.00182725058, -0.0163005255, 1.385103    , 2.94        , 3           , 11          , 0.00729330163, 0.00729330443
-0.174686581, -0.006888479, -9.813265   , 0.00310529443, 0.00112567574, 1.67679391E-05, 0.07610894  , -0.3476473  , 0.6461507   , 0.001858301 , -0.01628927 , 1.385103    , 2.95        , 3           , 12          , 0.0515797138, 0
-0.147558719, 0.0036094673, -9.785477   , -0.00116751879, 0.0003021185, 5.76421735E-06, 0.07617635  , -0.347714722, 0.6460833   , 0.00184662547, -0.0162862483, 1.385103    , 2.96        , 3           , 50          , 0           , 0
-0.161230922, -0.0290668514, -9.80892    , 0.00337365759, 0.000863906462, -0.000784207, 0.07617635  , -0.347714722, 0.6460833   , 0.00188048917, -0.0162775926, 1.38509536  , 2.97        , 3           , 11          , 0.00729330163, 0.00729330443
-0.171176255, -0.034898255, -9.808097   , 0.00177473656, -0.000207047473, -0.00185914326, 0.0762437657, -0.347916961, 0.64594847  , 0.0018985382, -0.0162796285, 1.38507676  , 2.98        , 3           , 12          , 0.0515797138, 0
-0.1665566  , -0.009831019, -9.787467   , 0.00151004188, -0.0007430293, -0.00159590307, 0.07610894  , -0.347512484, 0.6461507   , 0.00191389909, -0.0162870288, 1.38506055  , 2.99        , 3           , 50          , 0           , 0
-0.162995473, -0.0205812324, -9.797976   , 0.0009494489, -0.000777555339, -0.000796361244, 0.0759741142, -0.347849548, 0.6461507   , 0.00187153369, -0.0163506232, 1.3850534   , 3           , 3           , 11          , 0.007198583 , 0.007198596
-0.170213044, -0.0182165168, -9.808384   , 0.00308402139, 3.309884E-05, -0.000521992, 0.0759741142, -0.347849548, 0.6461507   , 0.00190245989, -0.0163502861, 1.38504815  , 3.01        , 3           , 12          , 0.0525607   , 0
-0.162851274, 0.0130253145, -9.77184    , -0.000114452814, -0.00185360538, -4.06670733E-06, 0.07631118  , -0.347916961, 0.64594847  , 0.00190131576, -0.0163688175, 1.38504815  , 3.02        , 3           , 50          , 0           , 0
-0.150693133, 0.0071225916, -9.772321   , -0.000126345287, 0.0005557176, -0.002123691, 0.0759741142, -0.3475799  , 0.6462181   , 0.00190039945, -0.01636322 , 1.38502669  , 3.03        , 3           , 11          , 0.007198583 , 0.007198596
-0.18498382 , 0.0101224687, -9.793203   , -0.00226800144, 0.001335974 , -0.000256067869, 0.0759741142, -0.347782135, 0.646285534 , 0.00187776145, -0.0163498577, 1.38502431  , 3.04        , 3           , 12          , 0.0525607   , 0
-0.176064327, -0.0178638212, -9.793454   , 0.00308136456, 0.0005687591, -0.00105227076, 0.07617635  , -0.347714722, 0.645881057 , 0.00190874562, -0.0163441487, 1.38501382  , 3.05        , 3           , 50          , 0           , 0
-0.145433024, -0.03577196 , -9.767293   , -0.0004009072, 0.00214860216, -0.000781998562, 0.07617635  , -0.347714722, 0.645881057 , 0.00190486433, -0.0163226482, 1.38500619  , 3.06        , 3           , 11          , 0.007198583 , 0.007198596
-0.147599727, -0.00626198528, -9.791459   , 0.002545713 , 0.0008290588, -0.000251703954, 0.0762437657, -0.347714722, 0.6461507   , 0.00193036406, -0.0163143557, 1.38500333  , 3.07        , 3           , 12          , 0.0525607   , 0
-0.165724516, -0.0240834486, -9.809788   , -0.0009197955, -0.00106370624, 0.00133233564, 0.0759741142, -0.347782135, 0.646285534 , 0.00192094885, -0.0163250156, 1.38501668  , 3.08        , 3           , 50          , 0           , 0
-0.148112848, -0.024806967, -9.783945   , -0.000385662774, -0.00105273235, -0.0005332625, 0.07604153  , -0.3476473  , 0.6460159   , 0.00191717851, -0.0163355339, 1.38501143  , 3.09        , 3           , 11          , 0.007198583 , 0.007198596
-0.163388878, 0.0003522411, -9.821768   , -0.002821746, 0.0005423401, -0.00239404943, 0.07604153  , -0.3476473  , 0.6460159   , 0.0018432989, -0.01632973 , 1.38498807  , 3.1         , 3           , 12          , 0.0535532162, 0
-0.155757114, -0.0133326808, -9.805584   , -0.00120865577, -0.00132480182, -0.000268993841, 0.07631118  , -0.3475799  , 0.6461507   , 0.00183125772, -0.0163429752, 1.38498569  , 3.11        , 3           , 50          , 0           , 0
-0.157078162, -0.00711025856, -9.793755   , -0.000146650986, 0.000273134 , 0.00160800025, 0.0759741142, -0.3475799  , 0.6462181   , 0.00182952872, -0.01634027 , 1.38500142  , 3.12        , 3           , 11          , 0.007105376 , 0.007105405
-0.1634684  , -0.026906006, -9.796228   , 0.000385331543, 0.0008105851, 0.00134516845, 0.07631118  , -0.347782135, 0.645746231 , 0.00183316355, -0.0163321886, 1.38501477  , 3.13        , 3           , 12          , 0.0535532162, 0
-0.162515163, -0.0129293641, -9.796541   , -0.00121928321, 0.000817838649, -0.00239010947, 0.07631118  , -0.347782135, 0.645746231 , 0.00182135892, -0.0163239669, 1.38499093  , 3.14        , 3           , 50          , 0           , 0
-0.171998978, -0.0146575291, -9.801563   , -0.0030987747, 0.00266744127, -0.0007827438, 0.0759741142, -0.3476473  , 0.646285534 , 0.00179049931, -0.01629728 , 1.3849833   , 3.15        , 3           , 11          , 0.007105376 , 0.007105405
-0.1774886  , -0.03350403 , -9.810362   , -0.000415520772, 0.000544086157, 0.000275930332, 0.07604153  , -0.347714722, 0.646285534 , 0.0017862987, -0.0162918437, 1.38498616  , 3.16        , 3           , 12          , 0.0535532162, 0
-0.160797313, -0.0377801061, -9.79089451 , 0.00305802166, 0.0008287228, 0.00054935785, 0.07583929  , -0.347714722, 0.6462181   , 0.00181679055, -0.016283568, 1.38499141  , 3.17        , 3           , 50          , 0           , 0
-0.153920636, -0.00571492873, -9.800524   , 0.00199373974, -0.0002404402, -0.000258131418, 0.07583929  , -0.347714722, 0.6462181   , 0.00183677033, -0.0162859652, 1.384989    , 3.18        , 3           , 11          , 0.007105376 , 0.007105405
-0.168914378, -0.0349720865, -9.799943   , -0.000142097226, -0.0007844122, -0.0005310095, 0.0759741142, -0.347714722, 0.6460159   , 0.00183543493, -0.0162938  , 1.3849833   , 3.19        , 3           , 12          , 0.0535532162, 0
-0.151196674, -0.00309624337, -9.790984   , -0.00173167558, -0.0005486147, -0.000265507551, 0.07610894  , -0.347782135, 0.6461507   , 0.00185067847, -0.0163435638, 1.38498044  , 3.2         , 3           , 50          , 0           , 0
-0.167842746, 0.009135181 , -9.790454   , 0.00414461223, 0.0002883505, -0.00131857768, 0.07604153  , -0.347782135, 0.6461507   , 0.00189234084, -0.0163406581, 1.38496709  , 3.21        , 3           , 11          , 0.00701362  , 0.007013652
-0.15123716 , -0.01578186 , -9.783411   , 0.002275241 , 4.49518848E-06, 0.0002768581, 0.07604153  , -0.347782135, 0.6461507   , 0.00191504776, -0.0163406171, 1.38497     , 3.22        , 3           , 12          , 0.05455637  , 0
-0.154866055, -0.01509217 , -9.811483   , -0.00334697915, 0.00184615259, -0.00105442735, 0.0759741142, -0.3476473  , 0.64594847  , 0.0018817489, -0.0163221341, 1.38495946  , 3.23        , 3           , 50          , 0           , 0
-0.1386443  , -0.02338787 , -9.796583   , -0.00173041027, -0.000815297069, -0.000266998773, 0.07604153  , -0.3475799  , 0.646352947 , 0.00186448824, -0.0163302831, 1.3849566   , 3.24        , 3           , 11          , 0.00701362  , 0.007013652
-0.161149248, -0.0130652785, -9.780241   , 0.003340408 , 0.000813863066, -0.0005169277, 0.07631118  , -0.3475799  , 0.645881057 , 0.00189797685, -0.0163221341, 1.38495183  , 3.25        , 3           , 12          , 0.05455637  , 0
-0.153929964, -0.00983075052, -9.79332    , 0.0006678445, 0.0007934296, 0.000812144135, 0.07631118  , -0.3475799  , 0.645881057 , 0.00190452347, -0.0163142141, 1.38495994  , 3.26        , 3           , 50          , 0           , 0
-0.151648775, 0.00019226782, -9.807252   , 0.00226777722, 0.00160229264, 0.0008190666, 0.07604153  , -0.347782135, 0.6461507   , 0.00192706729, -0.0162982065, 1.384968    , 3.27        , 3           , 11          , 0.00701362  , 0.007013652
-0.167407587, 0.001341803 , -9.774683   , -0.00012174865, -0.00187091355, -0.000803776, 0.0762437657, -0.347782135, 0.6460833   , 0.001925981 , -0.0163169019, 1.38495994  , 3.28        , 3           , 12          , 0.05455637  , 0
-0.149801984, 0.00489405356, -9.775962   , -0.001193431, -0.00134342676, -0.0008024262, 0.0759741142, -0.347714722, 0.6461507   , 0.001914178 , -0.01633032 , 1.38495183  , 3.29        , 3           , 50          , 0           , 0
-0.14493598 , -0.0133147789, -9.8128     , 0.00153923873, 0.002020051 , 2.12350187E-05, 0.0759741142, -0.347714722, 0.6461507   , 0.00180232129, -0.0162709039, 1.38495374  , 3.3         , 3           , 11          , 0.00692366669, 0.00692368671
-0.139601558, -0.0382589325, -9.797185   , 0.00434063934, 0.00310335681, -0.000235145359, 0.07651342  , -0.347782135, 0.645881057 , 0.00184576493, -0.0162398648, 1.38495183  , 3.31        , 3           , 12          , 0.0555693246, 0
-0.143159777, -0.02426188 , -9.797962   , 0.00234749145, 0.0006899005, 0.000281634 , 0.07610894  , -0.3476473  , 0.646285534 , 0.00186919386, -0.016232973, 1.38495469  , 3.32        , 3           , 50          , 0           , 0
-0.162515238, -0.012460337, -9.798801   , -0.0011202629, -0.000796528, 0.000401441968, 0.07637859  , -0.3476473  , 0.6461507   , 0.001857926 , -0.0162409432, 1.38495851  , 3.33        , 3           , 11          , 0.00692366669, 0.00692368671
-0.151298463, -0.0343357921, -9.774991   , -0.0013924212, 0.000265287876, 0.00120689045, 0.0759067   , -0.3476473  , 0.64594847  , 0.00184380624, -0.0162383113, 1.38497043  , 3.34        , 3           , 12          , 0.0555693246, 0
-0.1498852  , -0.0157723464, -9.78522    , 0.000474293716, 0.00120666577, 0.001748228 , 0.0759067   , -0.3476473  , 0.64594847  , 0.00184826553, -0.01622628 , 1.38498807  , 3.35        , 3           , 50          , 0           , 0
-0.171045661, -0.0030223988, -9.791035   , 0.00208744663, -0.0007834866, 0.00147286209, 0.07610894  , -0.3475799  , 0.6460159   , 0.00186890084, -0.0162341427, 1.38500237  , 3.36        , 3           , 11          , 0.00692366669, 0.00692368671
-0.163061261, -0.0376844667, -9.801765   , 0.00262050424, -0.000509274134, 0.000408646971, 0.0759741142, -0.347782135, 0.6460833   , 0.00189503992, -0.0162392426, 1.38500667  , 3.37        , 3           , 12          , 0.0555693246, 0
-0.159492388, -0.050856173, -9.79147148 , 0.0008796846, 0.000153045636, -0.000790115737, 0.07604153  , -0.347714722, 0.6460159   , 0.00190396537, -0.0162376966, 1.38499856  , 3.38        , 3           , 50          , 0           , 0
-0.162064224, -0.0101205148, -9.809643   , -0.000326274225, 0.000813138846, -0.0007882242, 0.07604153  , -0.347714722, 0.6460159   , 0.00190083182, -0.016229555, 1.38499093  , 3.39        , 3           , 11          , 0.00692366669, 0.00692368671
-0.1666132  , -0.0218803678, -9.802978   , -0.000311343727, 0.0008174779, -0.000255197083, 0.07610894  , -0.347849548, 0.6460833   , 0.00193110807, -0.0162064228, 1.38498759  , 3.4         , 3           , 12          , 0.0565913   , 0
-0.147134736, -0.000322625041, -9.80136    , 0.00102851226, 0.000153527842, 0.0008096381, 0.0762437657, -0.3476473  , 0.6461507   , 0.00194126135, -0.0162049029, 1.3849957   , 3.41        , 3           , 50          , 0           , 0
-0.172941789, -0.023125805, -9.81342    , 0.002495908 , 0.0006978438, 0.000148288746, 0.07617635  , -0.347714722, 0.645881057 , 0.00196619635, -0.0161979254, 1.38499761  , 3.42        , 3           , 11          , 0.00683603575, 0.006836059
-0.1553415  , -0.0209224634, -9.815165   , 0.000360513252, 2.39743949E-05, -0.0009252269, 0.07617635  , -0.347714722, 0.645881057 , 0.001969953 , -0.0161976684, 1.38498807  , 3.43        , 3           , 12          , 0.0565913   , 0
-0.125957757, -0.00669159926, -9.804085   , 0.000229462792, -0.0005112727, -0.000661782746, 0.07610894  , -0.347714722, 0.6460159   , 0.001972355 , -0.01620277 , 1.38498139  , 3.44        , 3           , 50          , 0           , 0
-0.149444059, -0.0147341723, -9.802412   , -0.000174031084, 2.04615844E-05, -0.000792727864, 0.07610894  , -0.347849548, 0.6460159   , 0.0019707426, -0.0162025485, 1.38497376  , 3.45        , 3           , 11          , 0.00683603575, 0.006836059
-0.189103588, -0.005624013, -9.795631   , -0.00071294 , 0.0009491889, -0.000388378976, 0.0762437657, -0.347916961, 0.64594847  , 0.00196367642, -0.01619305 , 1.38497     , 3.46        , 3           , 12          , 0.0565913   , 0
-0.177819565, -0.005262386, -9.789715   , -0.000576734135, 0.0004159852, -0.000257842, 0.0762437657, -0.347916961, 0.64594847  , 0.00195795065, -0.0161888842, 1.38496709  , 3.47        , 3           , 50          , 0           , 0
-0.164845124, -0.0285298619, -9.81798    , -0.0007120858, 0.0008118301, 0.000544082664, 0.07617635  , -0.347714722, 0.645813644 , 0.00195074244, -0.01618078 , 1.38497233  , 3.48        , 3           , 11          , 0.00683603575, 0.006836059
-0.170265734, -0.03077488 , -9.816656   , -0.000177351423, 0.0008118993, 0.00121147546, 0.07604153  , -0.3475799  , 0.6461507   , 0.0019487713, -0.016172681, 1.38498473  , 3.49        , 3           , 12          , 0.0565913   , 0
-0.162063718, -0.009189729, -9.813256   , -0.0008436545, -0.0004161778, 0.00147049839, 0.0759741142, -0.347782135, 0.6460159   , 0.00193119212, -0.0162306819, 1.38499951  , 3.5         , 3           , 50          , 0           , 0
-0.178804934, -0.0245219823, -9.805298   , 0.000891155854, 0.000127311825, 0.00134281837, 0.0759741142, -0.347782135, 0.6460159   , 0.001939886 , -0.0162294321, 1.38501287  , 3.51        , 3           , 11          , 0.00675024651, 0.00675027771
-0.168837339, -0.0184542239, -9.7794075  , 0.00129303627, -0.000131427019, 8.78635547E-06, 0.0762437657, -0.347782135, 0.6460159   , 0.00195281417, -0.0162307471, 1.38501287  , 3.52        , 3           , 12          , 0.0576215722, 0
-0.175108612, -0.00578510575, -9.782016   , 0.0007608955, -0.000666008564, -0.000394958217, 0.07631118  , -0.347445071, 0.6462181   , 0.00196048734, -0.0162374  , 1.385009    , 3.53        , 3           , 50          , 0           , 0
-0.1571707  , -0.0337649658, -9.787224   , 0.00222591916, 0.00040880224, -0.000386748725, 0.0762437657, -0.347714722, 0.6461507   , 0.00198280951, -0.0162333045, 1.38500524  , 3.54        , 3           , 11          , 0.00675024651, 0.00675027771
-0.151657373, -0.005803298, -9.790559   , 0.001286521 , 0.00120542792, -0.0007836495, 0.0762437657, -0.347714722, 0.6461507   , 0.0019958003, -0.0162212346, 1.38499761  , 3.55        , 3           , 12          , 0.0576215722, 0
-0.1516704  , -0.00707223453, -9.800984   , 0.00141896307, 0.00147169689, -0.00051532354, 0.0759741142, -0.3475799  , 0.6461507   , 0.00201007258, -0.0162065048, 1.38499236  , 3.56        , 3           , 50          , 0           , 0
-0.1435787  , -0.0157013144, -9.796974   , 0.001819326 , 0.00160609419, -0.000247335178, 0.0759067   , -0.3475799  , 0.646285534 , 0.00202830555, -0.01619044 , 1.38499     , 3.57        , 3           , 11          , 0.00675024651, 0.00675027771
-0.152627483, -0.0247538332, -9.788484   , -0.000318851671, 0.00159204321, 0.000282661 , 0.0759741142, -0.347714722, 0.6461507   , 0.00202507013, -0.0161745269, 1.38499284  , 3.58        , 3           , 12          , 0.0576215722, 0
-0.152568936, -0.008043293, -9.791942   , 0.00102454633, 0.000132637986, 0.000276499981, 0.0759741142, -0.347714722, 0.6461507   , 0.002035271 , -0.0161732044, 1.3849957   , 3.59        , 3           , 50          , 0           , 0
-0.144553185, -0.0336701721, -9.804849   , 0.000876169943, -0.000929453468, 0.0004039148, 0.07604153  , -0.347714722, 0.64594847  , 0.00199658913, -0.0161683075, 1.385       , 3.6         , 3           , 11          , 0.00666670455, 0.006666731
-0.178362027, -0.0272469334, -9.80306    , 0.000736454 , 0.0003986315, 0.00147768937, 0.0762437657, -0.3476473  , 0.6462181   , 0.00200371421, -0.0161643513, 1.38501477  , 3.61        , 3           , 12          , 0.0586594567, 0
-0.155753776, -0.0161759313, -9.788407   , 0.00260462333, 0.0009480211, 0.00015037549, 0.07610894  , -0.347782135, 0.646285534 , 0.002029737 , -0.0161548741, 1.3850162   , 3.62        , 3           , 50          , 0           , 0
-0.157133371, -0.0247915834, -9.781704   , 6.769542E-05, 0.000404714723, -0.000789691461, 0.07610894  , -0.347782135, 0.646285534 , 0.00203054119, -0.01615081 , 1.3850081   , 3.63        , 3           , 11          , 0.00666670455, 0.006666731
-0.159841552, -0.0168080367, -9.820115   , -0.000468619779, 0.000798929657, -0.000121694233, 0.07610894  , -0.3476473  , 0.6460833   , 0.00202587387, -0.0161428172, 1.38500714  , 3.64        , 3           , 12          , 0.0586594567, 0
-0.173010543, -0.0430068448, -9.80818    , 0.000866112532, 0.00120285631, 0.0006824751, 0.07604153  , -0.347916961, 0.6462181   , 0.00203442457, -0.0161308032, 1.38501382  , 3.65        , 3           , 50          , 0           , 0
-0.177435279, -0.0223563835, -9.794861   , 0.00127093482, 0.000403292 , 0.00107855955, 0.07617635  , -0.3476473  , 0.6460833   , 0.00204696157, -0.0161267947, 1.38502479  , 3.66        , 3           , 11          , 0.00666670455, 0.006666731
-0.152537212, 0.00286073983, -9.802247   , 0.00100396271, 0.0002742209, -0.000255747262, 0.0759741142, -0.347714722, 0.6461507   , 0.002057043 , -0.0161240436, 1.38502192  , 3.67        , 3           , 12          , 0.0586594567, 0
-0.146234   , -0.00171489082, -9.79684448 , 0.00192985591, 0.00228177616, -0.000776396, 0.0759741142, -0.347714722, 0.6461507   , 0.002076466 , -0.01610121 , 1.3850143   , 3.68        , 3           , 50          , 0           , 0
-0.163411647, -0.0101772752, -9.8019495  , 0.00206843368, 0.00121807784, -0.00131541817, 0.07610894  , -0.347512484, 0.6460159   , 0.00209736172, -0.0160890017, 1.38500142  , 3.69        , 3           , 11          , 0.00666670455, 0.006666731
-0.1742372  , -0.0124894083, -9.789776   , 0.00125711237, -0.00146122882, -0.00159786385, 0.07604153  , -0.3475799  , 0.64642036  , 0.002055991 , -0.0161262657, 1.38498569  , 3.7         , 3           , 12          , 0.0597043037, 0
-0.169679642, 0.000117616735, -9.789641   , 0.0003180305, -0.000670342648, -0.0006616113, 0.0764460042, -0.347782135, 0.645881057 , 0.00205927761, -0.0161329545, 1.384979    , 3.71        , 3           , 50          , 0           , 0
-0.163017571, -0.0217556432, -9.820172   , -0.00195423327, -0.0005552309, 0.000668818364, 0.0764460042, -0.347782135, 0.645881057 , 0.0020396274, -0.01613852 , 1.38498569  , 3.72        , 3           , 11          , 0.00658520823, 0.00658524036
-0.155795842, -0.0241639912, -9.804332   , -7.755589E-05, -0.00174444087, 0.0005316495, 0.07604153  , -0.347714722, 0.6461507   , 0.00203876686, -0.0161559749, 1.38499093  , 3.73        , 3           , 12          , 0.0597043037, 0
-0.152595729, -0.01572228 , -9.790206   , 0.00112059072, -0.000800423266, -0.0003945019, 0.07610894  , -0.347512484, 0.6462181   , 0.00205003726, -0.0161639713, 1.38498712  , 3.74        , 3           , 50          , 0           , 0
-0.168360859, -0.0126348343, -9.77437    , 4.580901E-05, 0.00039262115, -0.0001227933, 0.07637859  , -0.347849548, 0.6461507   , 0.00205051433, -0.016160043, 1.38498569  , 3.75        , 3           , 11          , 0.00658520823, 0.00658524036
-0.175205916, -0.0239645839, -9.820225   , 0.00111113407, 0.00119911949, -0.000250002457, 0.07637859  , -0.347849548, 0.6461507   , 0.00206166576, -0.0161480475, 1.3849833   , 3.76        , 3           , 12          , 0.0597043037, 0
-0.162097558, -0.0181994587, -9.814249   , 0.0009760983, 0.00146736274, -0.0007819767, 0.0759067   , -0.347714722, 0.6462181   , 0.00207155314, -0.016133355, 1.38497567  , 3.77        , 3           , 50          , 0           , 0
-0.1602991  , -0.0214203019, -9.807033   , -8.929006E-05, 0.000662012259, -0.000921398, 0.07610894  , -0.347714722, 0.646352947 , 0.00207080971, -0.0161267184, 1.38496614  , 3.78        , 3           , 11          , 0.00658520823, 0.00658524036
-0.162569419, -0.02266266 , -9.819728   , 0.0005776015, 0.000933515839, -0.00118551706, 0.0762437657, -0.347782135, 0.6462181   , 0.002076777 , -0.0161173586, 1.38495469  , 3.79        , 3           , 12          , 0.0597043037, 0
-0.15528132 , -0.003761068, -9.818619   , 0.0009748413, -1.760377E-05, -0.00118995784, 0.0762437657, -0.347782135, 0.6462181   , 0.00206619757, -0.0161678977, 1.38494277  , 3.8         , 3           , 50          , 0           , 0
-0.170072928, 0.0149646336, -9.785422   , 0.00244505215, -1.18177923E-05, -0.0006544518, 0.07610894  , -0.347849548, 0.64594847  , 0.00209075445, -0.016168002, 1.38493657  , 3.81        , 3           , 11          , 0.00650625  , 0.00650628749
-0.147535428, 0.01319729  , -9.80032349 , 0.002440751 , 0.000919274171, -0.000115971285, 0.07617635  , -0.347782135, 0.6460833   , 0.00211517885, -0.016158808, 1.38493514  , 3.82        , 3           , 12          , 0.06075553  , 0
-0.153559551, -0.02912083 , -9.805733   , 0.000702208665, 0.00117468333, 0.000282813038, 0.0762437657, -0.347849548, 0.6462181   , 0.00212215539, -0.0161470678, 1.384938    , 3.83        , 3           , 50          , 0           , 0
-0.151672214, -0.0103299785, -9.78834    , -0.00117143244, 0.00169948384, -0.000117007425, 0.0762437657, -0.347849548, 0.6462181   , 0.00211046  , -0.0161300674, 1.38493657  , 3.84        , 3           , 11          , 0.00650625  , 0.00650628749
-0.153934047, -0.014001104, -9.779326   , -0.00183718547, 0.00116359384, -0.000387640845, 0.07610894  , -0.347714722, 0.6460159   , 0.00209215144, -0.016118424, 1.38493276  , 3.85        , 3           , 12          , 0.06075553  , 0
-0.171165928, -0.03406927 , -9.799034   , 0.0007053713, 0.000507978 , 0.000279084954, 0.07604153  , -0.347714722, 0.646285534 , 0.00209915871, -0.0161133464, 1.38493562  , 3.86        , 3           , 50          , 0           , 0
-0.178830072, -0.0317501277, -9.803557   , 0.000301213266, 0.00117362721, 1.557014E-05, 0.07610894  , -0.347714722, 0.6462181   , 0.00210216828, -0.0161016136, 1.38493562  , 3.87        , 3           , 11          , 0.00650625  , 0.00650628749
-0.165247634, -0.018267693, -9.804297   , -0.0006280326, -0.000163779, -0.000259944965, 0.07610894  , -0.347714722, 0.6462181   , 0.00209593028, -0.0161032453, 1.38493323  , 3.88        , 3           , 12          , 0.06075553  , 0
-0.163883239, -0.0141750881, -9.809234   , 0.00057786284, -0.000822724367, -0.0005284671, 0.0759741142, -0.347714722, 0.6460833   , 0.002101794 , -0.01611146 , 1.384928    , 3.89        , 3           , 50          , 0           , 0
-0.16297698 , -0.0189014431, -9.782566   , 0.00216549681, -0.0002985718, -0.00105603016, 0.0759741142, -0.3475799  , 0.6465552   , 0.002088723 , -0.0161672086, 1.384918    , 3.9         , 3           , 11          , 0.00642913161, 0.00642917352
-0.125985384, -0.017170215, -9.790606   , 0.00283276825, -3.3955348E-05, 0.0002796346, 0.07617635  , -0.347512484, 0.646285534 , 0.00211700541, -0.016167555, 1.38492084  , 3.91        , 3           , 12          , 0.06181256  , 0
-0.150415733, -0.0308596324, -9.815249   , 0.00122733251, 0.000353807874, 0.0010793145, 0.07617635  , -0.347512484, 0.646285534 , 0.00212910632, -0.0161640439, 1.38493133  , 3.92        , 3           , 50          , 0           , 0
-0.13859956 , -0.009342434, -9.805048   , 0.00149373466, 0.000493209867, 1.3945737E-05, 0.07637859  , -0.347714722, 0.646285534 , 0.00214404077, -0.0161591116, 1.3849318   , 3.93        , 3           , 11          , 0.00642913161, 0.00642917352
-0.152160957, -0.0141496435, -9.817806   , 0.002430286 , 0.000235688058, -0.0009193242, 0.07637859  , -0.347512484, 0.646352947 , 0.00216849218, -0.0161567312, 1.38492227  , 3.94        , 3           , 12          , 0.06181256  , 0
-0.172018513, -0.0219438467, -9.792579   , 0.00349614862, 0.000910567 , -0.00144722487, 0.0759067   , -0.347782135, 0.646285534 , 0.00220368756, -0.0161475986, 1.384908    , 3.95        , 3           , 50          , 0           , 0
-0.161691681, -0.0369223133, -9.785003   , 0.00362735777, 0.0014429444, -0.00104409247, 0.0759741142, -0.347714722, 0.6460833   , 0.00224012858, -0.0161331426, 1.38489747  , 3.96        , 3           , 11          , 0.00642913161, 0.00642917352
-0.151252955, -0.0151492283, -9.806043   , 0.00123077934, -0.000439925469, -0.000391627575, 0.0759741142, -0.347714722, 0.6460833   , 0.00225250027, -0.016137531, 1.38489366  , 3.97        , 3           , 12          , 0.06181256  , 0
-0.167512566, -0.01863017 , -9.814268   , 0.00123330951, -0.000973290065, -0.00039461 , 0.07610894  , -0.347714722, 0.6462181   , 0.002264896 , -0.0161472578, 1.38488984  , 3.98        , 3           , 50          , 0           , 0
-0.178862765, -0.0412398  , -9.800934   , 0.000559965731, 9.0913185E-05, -0.0006562961, 0.07610894  , -0.3475799  , 0.6464878   , 0.00227060262, -0.0161463339, 1.38488317  , 3.99        , 3           , 11          , 0.00642913161, 0.00642917352
-0.172933951, -0.0222713742, -9.807525   , 0.000154995141, 0.00167745643, -0.000514642859, 0.0759741142, -0.347849548, 0.6462181   , 0.00228162855, -0.0161582679, 1.3848784   , 4           , 3           , 12          , 0.06287489  , 0
-0.171100318, -0.0197729319, -9.782597   , 0.00055921654, 0.00101065927, 1.55025973E-05, 0.0759741142, -0.347849548, 0.6462181   , 0.002287216 , -0.016148163, 1.3848784   , 4.01        , 3           , 50          , 0           , 0
-0.172459081, -0.0187753122, -9.793908   , -0.0011691415, -0.0008685373, 0.000668987865, 0.07631118  , -0.347782135, 0.6462181   , 0.002275418 , -0.0161568634, 1.38488507  , 4.02        , 3           , 11          , 0.006353997 , 0.006354035
-0.184182346, -0.0173864  , -9.793018   , -0.000637064048, -0.0003328079, 0.0008061019, 0.07610894  , -0.347714722, 0.646352947 , 0.00226891669, -0.01616021 , 1.38489318  , 4.03        , 3           , 12          , 0.06287489  , 0
-0.188186109, 0.000299122185, -9.80372    , 0.0005655103, -0.000322177919, -0.000125268765, 0.07610894  , -0.347916961, 0.6462181   , 0.00227459148, -0.0161634255, 1.38489175  , 4.04        , 3           , 50          , 0           , 0
-0.1765438  , -0.0245885383, -9.798049   , -0.000905743858, -6.529922E-05, 0.000273923652, 0.07610894  , -0.347916961, 0.6462181   , 0.00226549129, -0.0161640886, 1.38489461  , 4.05        , 3           , 11          , 0.006353997 , 0.006354035
-0.1440428  , -0.0207135249, -9.790233   , -0.0003781258, 0.00140439172, 0.0002829416, 0.0759741142, -0.347782135, 0.6462181   , 0.00226166355, -0.016150048, 1.38489747  , 4.06        , 3           , 12          , 0.06287489  , 0
-0.132746264, -0.009247914, -9.819521   , 0.0006888436, 0.00181545806, -0.000913027034, 0.0762437657, -0.347714722, 0.64642036  , 0.002268699 , -0.0161318742, 1.38488793  , 4.07        , 3           , 50          , 0           , 0
-0.153577   , -0.03268401 , -9.8112     , -0.000108624241, 0.00087823614, -0.001052786, 0.07610894  , -0.347714722, 0.646352947 , 0.00226778327, -0.0161230713, 1.38487744  , 4.08        , 3           , 11          , 0.006353997 , 0.006354035
-0.191393554, -0.0118111968, -9.810186   , 0.00123496377, -0.0005846128, -0.00025905497, 0.07610894  , -0.347714722, 0.646352947 , 0.00228017382, -0.016128907, 1.384875    , 4.09        , 3           , 12          , 0.06287489  , 0
-0.182822481, -0.0132465269, -9.803841   , 0.000290692056, -0.0014168  , -0.000131350636, 0.07604153  , -0.347782135, 0.6462181   , 0.002248651 , -0.0162153915, 1.38487458  , 4.1         , 3           , 50          , 0           , 0
-0.17785351 , -0.0138030853, -9.792967   , -0.00065000297, -0.000352918083, -0.0006600755, 0.07583929  , -0.3476473  , 0.646352947 , 0.00224225782, -0.0162189081, 1.38486791  , 4.11        , 3           , 11          , 0.006280896 , 0.00628096052
-0.167515442, -0.0200045351, -9.811564   , 0.00161327957, 0.0015229038, 0.00015372393, 0.07610894  , -0.3476473  , 0.646352947 , 0.00225836621, -0.016203681, 1.38486934  , 4.12        , 3           , 12          , 0.06394202  , 0
-0.15669781 , -0.0255677216, -9.797556   , 0.000147781524, 0.0005785646, 0.0008128365, 0.07610894  , -0.3476473  , 0.646352947 , 0.002259713 , -0.0161979161, 1.38487744  , 4.13        , 3           , 50          , 0           , 0
-0.149798244, 0.007195575 , -9.781825   , -0.00131863379, -0.000227268087, 0.000272856967, 0.07610894  , -0.3476473  , 0.6462181   , 0.002246483 , -0.01620019 , 1.3848803   , 4.14        , 3           , 11          , 0.006280896 , 0.00628096052
-0.150323   , -0.00701545738, -9.808678   , -0.0002527711, 0.0004476109, -0.0002550438, 0.07604153  , -0.3475799  , 0.6464878   , 0.00224399567, -0.01619571 , 1.38487744  , 4.15        , 3           , 12          , 0.06394202  , 0
-0.162108287, -0.0204282664, -9.81744    , 0.001083163 , 0.0005860033, 0.00028100374, 0.07604153  , -0.3475799  , 0.6464878   , 0.00225478178, -0.0161898546, 1.3848803   , 4.16        , 3           , 50          , 0           , 0
-0.152574867, -0.011726439, -9.782471   , 0.001622926 , -0.000480082439, 0.0008091164, 0.07604153  , -0.3475799  , 0.6464878   , 0.00227087946, -0.0161946751, 1.38488841  , 4.17        , 3           , 11          , 0.006280896 , 0.00628096052
-0.158918709, -0.017025888, -9.793404   , 0.001354974 , -0.000347636844, 0.000676138559, 0.0762437657, -0.347714722, 0.646285534 , 0.00228431984, -0.0161981657, 1.38489556  , 4.18        , 3           , 12          , 0.06394202  , 0
-0.170241743, -0.0268117525, -9.804846   , 0.00241789548, 0.0009899301, 0.00108517311, 0.0759741142, -0.3476473  , 0.6464878   , 0.00230832282, -0.0161882937, 1.384906    , 4.19        , 3           , 50          , 0           , 0
-0.152636737, -0.0255937278, -9.796188   , 0.00293326029, 0.000846572861, 0.00148551061, 0.07631118  , -0.347714722, 0.6464878   , 0.00228144112, -0.0162114017, 1.38492227  , 4.2         , 3           , 11          , 0.00620989548, 0.006209947
-0.1796995  , -0.0227261353, -9.803925   , 0.0003978195, 3.25667024E-05, 0.00147715991, 0.07631118  , -0.347714722, 0.6464878   , 0.00228518061, -0.0162111111, 1.38493657  , 4.21        , 3           , 12          , 0.06501348  , 0
-0.171562865, -0.0219927914, -9.786693   , -0.002408673, 1.65639558E-05, 0.00160618988, 0.0762437657, -0.347714722, 0.646352947 , 0.00226083188, -0.0162109789, 1.38495278  , 4.22        , 3           , 50          , 0           , 0
-0.171972647, -0.0102508254, -9.788843   , -0.000539744564, 0.000430316781, 0.0008113918, 0.07610894  , -0.3476473  , 0.6465552   , 0.00225530472, -0.0162067  , 1.38496089  , 4.23        , 3           , 11          , 0.00620989548, 0.006209947
-0.169234633, -0.00450162776, -9.776103   , -0.00053873274, 0.00016822599, -0.000256621948, 0.07617635  , -0.347714722, 0.64642036  , 0.00224995939, -0.01620501 , 1.38495851  , 4.24        , 3           , 12          , 0.06501348  , 0
-0.1764257  , 0.006949177 , -9.795025   , -0.00320955669, -0.000249361125, 0.000403636426, 0.07617635  , -0.347714722, 0.64642036  , 0.00221779873, -0.0162075143, 1.38496232  , 4.25        , 3           , 50          , 0           , 0
-0.161158159, -0.008291379, -9.813245   , -0.00267377915, -0.0005119567, 0.0001363309, 0.07651342  , -0.347916961, 0.6461507   , 0.00219104  , -0.0162126347, 1.38496375  , 4.26        , 3           , 11          , 0.00620989548, 0.006209947
-0.15032655 , -0.0121275056, -9.789712   , -5.42186172E-06, 0.000437847048, -0.000254314451, 0.07570446  , -0.347714722, 0.64642036  , 0.0021910267, -0.0162082519, 1.38496137  , 4.27        , 3           , 12          , 0.06501348  , 0
-0.160314292, -0.0278158151, -9.796681   , 0.00119633076, 0.000707124069, 0.000682220561, 0.07617635  , -0.347782135, 0.6466226   , 0.00220287871, -0.0162011944, 1.384968    , 4.28        , 3           , 50          , 0           , 0
-0.18375437 , -0.0222965349, -9.799403   , -3.30258E-06, 3.380616E-05, 0.0006766559, 0.07610894  , -0.347782135, 0.6461507   , 0.00220273621, -0.01620087 , 1.38497472  , 4.29        , 3           , 11          , 0.00620989548, 0.006209947
-0.165328965, -0.0417628177, -9.798188   , -0.000828281569, 0.0008061512, 0.0001470273, 0.07610894  , -0.347782135, 0.6461507   , 0.00213919417, -0.0162664447, 1.38497758  , 4.3         , 3           , 12          , 0.06608886  , 0
-0.154399574, -0.0133813377, -9.800147   , -0.000293895573, 0.0008125336, -0.000652048446, 0.07617635  , -0.347782135, 0.64642036  , 0.00213636085, -0.0162583049, 1.3849709   , 4.31        , 3           , 50          , 0           , 0
-0.1539113  , -0.00534405746, -9.79056    , 0.00091130397, 0.000288077281, -0.00118645548, 0.07610894  , -0.347512484, 0.646352947 , 0.00214566686, -0.0162554  , 1.384959    , 4.32        , 3           , 11          , 0.006141119 , 0.006141174
-0.174757481, -0.0300236382, -9.795835   , -0.000152281878, -0.0009155748, -0.00172805961, 0.07617635  , -0.347714722, 0.646285534 , 0.002144425 , -0.0162645169, 1.38494182  , 4.33        , 3           , 12          , 0.06608886  , 0
-0.145764217, 0.00277012773, -9.794083   , -0.00109066756, -0.000259177526, -0.0005259222, 0.07617635  , -0.347714722, 0.646285534 , 0.00213360414, -0.0162670966, 1.38493657  , 4.34        , 3           , 50          , 0           , 0
-0.166059583, -0.00188462064, -9.76656151 , -0.0004270329, 0.000802616 , 0.00148079253, 0.07610894  , -0.3475799  , 0.646285534 , 0.002129093 , -0.0162591077, 1.38495088  , 4.35        , 3           , 11          , 0.006141119 , 0.006141174
-0.169216067, 0.006071519 , -9.801353   , 0.000781993556, -0.0005224611, 0.00107522728, 0.07610894  , -0.3476473  , 0.646352947 , 0.00213673734, -0.0162643511, 1.38496184  , 4.36        , 3           , 12          , 0.06608886  , 0
-0.18549636 , -0.00234333426, -9.812796   , 0.0003826742, -0.0009195232, -0.000127459571, 0.0759741142, -0.347782135, 0.64642036  , 0.00214058487, -0.0162735432, 1.38496041  , 4.37        , 3           , 50          , 0           , 0
-0.159733281, 0.00406563841, -9.780523   , 0.0002493469, -0.0009259972, 0.00120548939, 0.0759741142, -0.347782135, 0.64642036  , 0.00214288337, -0.0162828285, 1.38497281  , 4.38        , 3           , 11          , 0.006141119 , 0.006141174
-0.150383785, -0.0246386137, -9.803869   , 0.0014431607, 0.000949686568, 0.0006845032, 0.07617635  , -0.347849548, 0.646285534 , 0.00215720478, -0.0162733514, 1.38497949  , 4.39        , 3           , 12          , 0.06608886  , 0
-0.17113483 , -0.0254994724, -9.799402   , 0.00167420111, 0.001216714 , -0.00184611056, 0.07610894  , -0.3476473  , 0.6464878   , 0.00207288121, -0.0162966084, 1.38496232  , 4.4         , 3           , 50          , 0           , 0
-0.162008911, -0.000398121774, -9.785099   , 0.000611217 , 2.15737828E-06, 0.000145276135, 0.07610894  , -0.3476473  , 0.6464878   , 0.002078969 , -0.01629659 , 1.38496327  , 4.41        , 3           , 11          , 0.00607383251, 0.006073872
-0.14763993 , -0.0166097246, -9.794277   , -0.000188464284, -0.000407439453, 0.00134165282, 0.07610894  , -0.3476473  , 0.6464878   , 0.002076867 , -0.016300695, 1.38497663  , 4.42        , 3           , 12          , 0.06716774  , 0
-0.1702351  , -0.0250083525, -9.804829   , -0.0009867229, -0.00120845076, 0.000536063 , 0.07604153  , -0.347714722, 0.6462181   , 0.00206691283, -0.0163127929, 1.38498235  , 4.43        , 3           , 50          , 0           , 0
-0.175634861, -0.0195125658, -9.812938   , -0.000589649542, -0.000405052153, 0.0002745182, 0.07610894  , -0.3476473  , 0.6465552   , 0.00206097169, -0.0163168479, 1.38498521  , 4.44        , 3           , 11          , 0.00607383251, 0.006073872
-0.158928484, -0.0187965687, -9.797496   , 0.00154675671, 6.7263727E-06, 0.00028002  , 0.07617635  , -0.347714722, 0.646352947 , 0.002076393 , -0.0163167864, 1.38498807  , 4.45        , 3           , 12          , 0.06716774  , 0
-0.15083088 , -0.0256149825, -9.794373   , 0.000878600171, 1.90500486E-06, 0.0005456303, 0.07617635  , -0.347714722, 0.646352947 , 0.00208509085, -0.0163167771, 1.38499331  , 4.46        , 3           , 50          , 0           , 0
-0.171102345, -0.0164751951, -9.80022049 , 0.002348653 , 1.0560706E-05, 0.000414559734, 0.0762437657, -0.347782135, 0.646285534 , 0.00210851058, -0.01631668 , 1.38499761  , 4.47        , 3           , 11          , 0.00607383251, 0.006073872
-0.163454011, -0.0237791389, -9.792575   , 0.0034191017, -0.000250817859, 0.0005480164, 0.07610894  , -0.3476473  , 0.646285534 , 0.00214261282, -0.0163192  , 1.38500285  , 4.48        , 3           , 12          , 0.06716774  , 0
-0.144957155, -0.0247969069, -9.78665352 , 0.00247690384, 0.00108405063, -0.0009790822, 0.07610894  , -0.3476473  , 0.64642036  , 0.00216754084, -0.0163083356, 1.38499284  , 4.49        , 3           , 50          , 0           , 0
-0.1593324  , -0.008519864, -9.785625   , -0.00200944138, 0.00165483891, -0.0003825502, 0.07610894  , -0.3476473  , 0.64642036  , 0.00212768349, -0.0162979718, 1.3849895   , 4.5         , 3           , 11          , 0.006008544 , 0.006008582
-0.165659592, -0.009779848, -9.794255   , -0.00234249141, 0.00151191279, 0.00141595083, 0.0759741142, -0.3480518  , 0.646352947 , 0.002104027 , -0.0162828825, 1.38500381  , 4.51        , 3           , 12          , 0.06824973  , 0
-0.1589013  , -0.00971776247, -9.805103   , -0.001535931, 0.000456192356, -0.000121915655, 0.07610894  , -0.347714722, 0.646285534 , 0.00208868715, -0.0162783191, 1.38500237  , 4.52        , 3           , 50          , 0           , 0
-0.158451915, -0.0115737468, -9.798781   , -0.00260551018, 0.000518994057, -0.0005897791, 0.0759067   , -0.347714722, 0.6464878   , 0.00206272746, -0.0162731167, 1.38499665  , 4.53        , 3           , 11          , 0.006008544 , 0.006008582
-0.153022587, -0.009419609, -9.788786   , -0.00180416775, 0.000654734555, -0.000121205463, 0.0759067   , -0.347714722, 0.6464878   , 0.00204470544, -0.0162665658, 1.3849957   , 4.54        , 3           , 12          , 0.06824973  , 0
-0.163010061, -0.0246425215, -9.797562   , 2.95190148E-06, 6.31832663E-05, 0.000211482518, 0.07583929  , -0.3476473  , 0.646285534 , 0.0020447   , -0.0162659381, 1.38499761  , 4.55        , 3           , 50          , 0           , 0
-0.1512512  , -0.0151674077, -9.803779   , 0.00127619132, -0.0007267272, -0.000524286763, 0.0762437657, -0.347714722, 0.6464878   , 0.00205754838, -0.0162731968, 1.38499236  , 4.56        , 3           , 11          , 0.006008544 , 0.006008582
-0.163008153, -0.0199813321, -9.816533   , 0.00113996968, -0.000132305169, 0.0006120446, 0.0759741142, -0.3476473  , 0.64642036  , 0.00206884719, -0.01627453 , 1.38499856  , 4.57        , 3           , 12          , 0.06824973  , 0
-0.162514791, -0.0148054752, -9.787505   , 0.00161093357, -0.0008582314, -0.000524522155, 0.07604153  , -0.347782135, 0.646285534 , 0.00208504312, -0.0162831061, 1.38499284  , 4.58        , 3           , 50          , 0           , 0
-0.167064488, -0.0246855877, -9.79033    , 0.000603796565, 0.000198395763, 0.0005464347, 0.07604153  , -0.347782135, 0.646285534 , 0.00209099078, -0.01628113 , 1.38499856  , 4.59        , 3           , 11          , 0.006008544 , 0.006008582
-0.139111832, -0.0250878017, -9.80927849 , 0.0007892828, 0.00146707566, -0.000512560655, 0.07610894  , -0.3476473  , 0.646352947 , 0.00207203  , -0.016278049, 1.38499379  , 4.6         , 3           , 12          , 0.06933451  , 0
-0.172853425, -0.00204490684, -9.79963    , -0.0001991155, -0.00147222588, -0.000463836768, 0.07583929  , -0.3476473  , 0.64642036  , 0.00207011565, -0.01629276 , 1.384989    , 4.61        , 3           , 50          , 0           , 0
-0.16344583 , -0.0173109081, -9.811979   , -0.00179854222, -0.00235120323, 0.000328759867, 0.0759741142, -0.347782135, 0.6462181   , 0.00205207779, -0.01631628 , 1.38499236  , 4.62        , 3           , 11          , 0.00594524434, 0.00594529975
-0.16656217 , -0.011645332, -9.786126   , -0.00159758609, -0.0024808594, -0.0002715985, 0.0759741142, -0.347782135, 0.6462181   , 0.00203614659, -0.01634108 , 1.3849895   , 4.63        , 3           , 12          , 0.06933451  , 0
-0.163440675, -0.0168964025, -9.807449   , -6.27203462E-06, 6.86121E-05 , -0.00192142488, 0.07617635  , -0.347849548, 0.64642036  , 0.00203639781, -0.0163403563, 1.38497043  , 4.64        , 3           , 50          , 0           , 0
-0.177433461, -0.020971112, -9.798922   , -0.000337535224, -0.000472328538, -0.000591764168, 0.07610894  , -0.3476473  , 0.6464878   , 0.00203312025, -0.0163450688, 1.38496423  , 4.65        , 3           , 11          , 0.00594524434, 0.00594529975
-0.165733382, -0.0324168839, -9.782705   , -0.000198071968, -0.00173489063, -0.0013985351, 0.07604153  , -0.3475799  , 0.646352947 , 0.00203136867, -0.01636239 , 1.3849504   , 4.66        , 3           , 12          , 0.06933451  , 0
-0.174651921, -0.00209999457, -9.791939   , 0.0007306208, -0.0002046469, 0.000544539769, 0.07604153  , -0.3475799  , 0.646352947 , 0.00203858642, -0.0163644478, 1.38495564  , 4.67        , 3           , 50          , 0           , 0
-0.1512552  , -0.02167926 , -9.778942   , -0.00140507438, -0.0008121328, -0.000461945339, 0.0759067   , -0.3476473  , 0.64642036  , 0.002024612 , -0.0163725577, 1.38495088  , 4.68        , 3           , 11          , 0.00594524434, 0.00594529975
-0.1549071  , -0.0319845  , -9.78539    , -0.00160093862, -0.0018107103, -0.0010677625, 0.07604153  , -0.3476473  , 0.6464878   , 0.00200877921, -0.016390644, 1.38494039  , 4.69        , 3           , 12          , 0.06933451  , 0
-0.152997717, -0.004529331, -9.780137   , -0.002008795, -0.0004193155, -0.0006605427, 0.0759067   , -0.347714722, 0.646352947 , 0.00198760536, -0.0164098684, 1.38493371  , 4.7         , 3           , 50          , 0           , 0
-0.142678574, -0.0138103832, -9.808271   , -0.001006022, -0.000482771633, -0.00012612369, 0.0759067   , -0.347714722, 0.646352947 , 0.00197756756, -0.0164146945, 1.38493276  , 4.71        , 3           , 11          , 0.00588329975, 0.0058833384
-0.169708982, -0.00144947879, -9.819085   , 0.0009948749, 0.000327721675, 1.47262326E-05, 0.07604153  , -0.347714722, 0.6462181   , 0.00198751222, -0.0164114181, 1.38493276  , 4.72        , 3           , 12          , 0.0704217   , 0
-0.179651171, -0.0110585541, -9.797019   , 0.000729705556, -0.0001387198, -0.0003882375, 0.07604153  , -0.347714722, 0.646285534 , 0.0019948734, -0.0164127983, 1.384929    , 4.73        , 3           , 50          , 0           , 0
-0.168368444, -0.0148963593, -9.773486   , 0.00125939457, 0.0008059289, -0.00231527421, 0.0759741142, -0.347714722, 0.646285534 , 0.002007847 , -0.01640469 , 1.384906    , 4.74        , 3           , 11          , 0.00588329975, 0.0058833384
-0.162401125, 0.014437994 , -9.779523   , 0.001124233 , 0.00119833043, -0.0007134575, 0.0759741142, -0.347714722, 0.646285534 , 0.002019206 , -0.0163926929, 1.38489842  , 4.75        , 3           , 12          , 0.0704217   , 0
-0.163866773, -0.0110700279, -9.802865   , 0.002201956 , -0.0005964709, -0.0005885753, 0.07617635  , -0.347782135, 0.64642036  , 0.00204132288, -0.0163986478, 1.3848927   , 4.76        , 3           , 50          , 0           , 0
-0.149412721, -0.00897491 , -9.78968    , 0.004607691 , -0.000585829, 1.50167925E-05, 0.07604153  , -0.347714722, 0.64642036  , 0.002087398 , -0.016404504, 1.3848927   , 4.77        , 3           , 11          , 0.00588329975, 0.0058833384
-0.161546543, 0.000887310132, -9.77693748 , 0.00206756918, -0.000400924648, 0.0002788886, 0.07617635  , -0.347714722, 0.6464878   , 0.00210802839, -0.0164085161, 1.38489556  , 4.78        , 3           , 12          , 0.0704217   , 0
-0.169785991, -0.02358477 , -9.813869   , -0.00100244791, -0.00121786934, 0.000269721466, 0.07617635  , -0.347714722, 0.6464878   , 0.00209796056, -0.0164207015, 1.38489842  , 4.79        , 3           , 50          , 0           , 0
-0.171501487, -0.000162923709, -9.810022   , -0.000100940189, 0.000520230446, -0.0007186843, 0.0762437657, -0.347849548, 0.6462181   , 0.00201452244, -0.0164309535, 1.38489175  , 4.8         , 3           , 11          , 0.00582330069, 0.00582334539
-0.158942983, -0.0195819344, -9.811992   , 0.00122552121, 0.00259752176, -0.00143832108, 0.0759741142, -0.347512484, 0.64642036  , 0.00202701427, -0.016404951, 1.38487744  , 4.81        , 3           , 12          , 0.07151102  , 0
-0.149944186, -0.0282652732, -9.80164    , 0.0007024106, 0.00025393875, 0.000214256055, 0.07610894  , -0.347782135, 0.6466226   , 0.00203400315, -0.0164024141, 1.38487983  , 4.82        , 3           , 50          , 0           , 0
-0.142219484, -0.019044077, -9.774367   , -0.000164789089, -8.246782E-05, -0.00018888028, 0.07610894  , -0.347782135, 0.6466226   , 0.00203238544, -0.0164032355, 1.38487792  , 4.83        , 3           , 11          , 0.00582330069, 0.00582334539
-0.157506064, -0.0026691556, -9.78510952 , -0.000768970232, 0.0005131131, 8.018731E-05, 0.0759741142, -0.347714722, 0.646352947 , 0.00202468224, -0.0163981076, 1.38487887  , 4.84        , 3           , 12          , 0.07151102  , 0
-0.159016743, -0.0497088768, -9.766107   , -0.00149520417, -0.00135684223, -0.0001313465, 0.0759067   , -0.3475799  , 0.64642036  , 0.00200975221, -0.0164116714, 1.38487744  , 4.85        , 3           , 50          , 0           , 0
-0.163073644, -0.0403641164, -9.804961   , 0.00150457514, 0.000191963409, 0.0001484501, 0.0762437657, -0.3476473  , 0.6464878   , 0.00202477537, -0.0164097566, 1.38487887  , 4.86        , 3           , 11          , 0.00582330069, 0.00582334539
-0.162039623, -0.00756810047, -9.790603   , 0.0001779236, -0.001881884, 6.819489E-05, 0.0762437657, -0.3476473  , 0.6464878   , 0.00202654372, -0.0164285749, 1.38487935  , 4.87        , 3           , 12          , 0.07151102  , 0
-0.152616918, -0.0197144989, -9.798394   , -0.00142884057, -0.00122629059, 0.0006027354, 0.07610894  , -0.3476473  , 0.6464878   , 0.00201215618, -0.01644085 , 1.38488555  , 4.88        , 3           , 50          , 0           , 0
-0.175630718, -0.0139387725, -9.833257   , 0.000101407546, 0.000121595956, -0.0007872727, 0.0759067   , -0.347714722, 0.64642036  , 0.00201329915, -0.0164396167, 1.38487744  , 4.89        , 3           , 11          , 0.00582330069, 0.00582334539
-0.1566478  , -0.0134492991, -9.790646   , -0.000502518844, 0.000178624876, 0.0006787239, 0.0759067   , -0.3476473  , 0.6465552   , 0.00199970184, -0.01643792 , 1.38488507  , 4.9         , 3           , 12          , 0.07260215  , 0
-0.175533712, 0.00237187  , -9.786919   , -0.00150005776, -0.000888735754, -0.000461951568, 0.07610894  , -0.347782135, 0.6462181   , 0.00198477763, -0.016446799, 1.3848803   , 4.91        , 3           , 50          , 0           , 0
-0.175974309, 0.00741288625, -9.796829   , 0.000508223951, -0.00161367387, 0.000136927483, 0.07610894  , -0.347782135, 0.6462181   , 0.00198983913, -0.0164629389, 1.38488126  , 4.92        , 3           , 11          , 0.00576471072, 0.00576477265
-0.1521323  , -0.014447757, -9.780684   , 0.00103792956, -0.0005474501, 0.000943600433, 0.07617635  , -0.347782135, 0.6464878   , 0.00200006249, -0.0164684318, 1.38489079  , 4.93        , 3           , 12          , 0.07260215  , 0
-0.170205519, -0.019230919, -9.794358   , 0.0021719425, -0.000140033851, 0.000680941157, 0.0757718757, -0.3476473  , 0.6464878   , 0.00202167  , -0.0164698455, 1.38489747  , 4.94        , 3           , 50          , 0           , 0
-0.1782836  , -0.008871138, -9.789298   , 0.0003686657, -0.000349390117, 0.0005437526, 0.07610894  , -0.347714722, 0.6464878   , 0.00202526851, -0.016473351, 1.38490319  , 4.95        , 3           , 11          , 0.00576471072, 0.00576477265
-0.175563425, -0.00293653645, -9.799645   , -0.000160754935, -0.00142077974, 0.000936917437, 0.07610894  , -0.347714722, 0.6464878   , 0.00202350668, -0.0164875779, 1.38491273  , 4.96        , 3           , 12          , 0.07260215  , 0
-0.167575181, -0.0376385972, -9.805398   , -0.000703586149, 0.0002493587, -0.0005210473, 0.07604153  , -0.347714722, 0.6462181   , 0.002016557 , -0.0164850745, 1.384907    , 4.97        , 3           , 50          , 0           , 0
-0.17168659 , -0.05159986 , -9.805546   , -0.000703412748, 0.000124339611, -0.002454865, 0.07604153  , -0.3475799  , 0.6465552   , 0.00200992753, -0.0164837819, 1.38488269  , 4.98        , 3           , 11          , 0.00576471072, 0.00576477265
-0.178765327, -0.01838095 , -9.783959   , 0.00137928163, -0.00213939347, -0.000531305152, 0.0759741142, -0.347714722, 0.6464878   , 0.00202381029, -0.0165051669, 1.38487744  , 4.99        , 3           , 12          , 0.07260215  , 0
-0.149914145, -0.026705455, -9.771292   , 0.00124831963, -0.002426899, -0.000332853349, 0.0759741142, -0.347714722, 0.6464878   , 0.00204097177, -0.0165943038, 1.38487458  , 5           , 3           , 50          , 0           , 0
-0.1553912  , -0.0363204479, -9.806713   , -0.000232075181, -0.000298079161, -0.00112306047, 0.0759741142, -0.3475799  , 0.6465552   , 0.00203883741, -0.01659726 , 1.38486362  , 5.01        , 3           , 11          , 0.00570758339, 0.00570764346
-0.149874926, -0.007453451, -9.810492   , 0.000366350054, 0.00036848904, -0.00031852207, 0.0759741142, -0.347714722, 0.6466226   , 0.00204255385, -0.01659357 , 1.38486028  , 5.02        , 3           , 12          , 0.07369482  , 0
-0.157038644, 0.00324475183, -9.791842   , 0.00210565142, -2.25571184E-05, -0.000184790712, 0.07604153  , -0.347782135, 0.6464878   , 0.00206364132, -0.0165937915, 1.38485837  , 5.03        , 3           , 50          , 0           , 0
-0.169683844, 0.000161245465, -9.795074   , 0.00396200875, 0.00305658323, -0.000631388451, 0.07604153  , -0.347782135, 0.6464878   , 0.002103365 , -0.0165632125, 1.38485217  , 5.04        , 3           , 11          , 0.00570758339, 0.00570764346
-0.158832371, 0.009225218 , -9.805823   , 0.00443245145, 0.00252292026, 3.29199465E-05, 0.0757718757, -0.347782135, 0.64642036  , 0.00214768318, -0.0165379811, 1.38485265  , 5.05        , 3           , 12          , 0.07369482  , 0
-0.167936519, -0.016570555, -9.7898     , 0.00364337978, -0.000211824125, -0.000716823735, 0.0759741142, -0.347782135, 0.64669     , 0.00218423619, -0.0165400878, 1.3848455   , 5.06        , 3           , 50          , 0           , 0
