Acc X       , Acc Y       , Acc Z       , Gyro X      , Gyro Y      , Gyro Z      , Magn X      , Magn Y      , Magn Z      , Euler X     , Euler Y     , Euler Z     , Time        , Status      , LowRate X   , LowRate Y   , LowRate Z    
-0.159892067, -0.0298572537, -9.823413   , -0.00133185857, -0.00150326057, 0.000720176031, 0.07604153  , -0.3476473  , 0.6460159   , 0.00155619  , -0.0165023189, 1.385412    , 0           , 3           , 11          , 0.0346410163, 0.0346410163
-0.157672852, -0.045870807, -9.795493   , -0.00153555046, -0.0008365094, 0.0004569674, 0.07583929  , -0.3475799  , 0.645746231 , 0.00154076016, -0.0165106915, 1.38541627  , 0.01        , 3           , 12          , 0.0346410163, 0
-0.1661381  , -0.01791892 , -9.791167   , -0.000874652236, 0.000701448 , 0.000266589283, 0.07610894  , -0.347377658, 0.64594847  , 0.001531969 , -0.0165036786, 1.38541913  , 0.02        , 3           , 50          , 0           , 0
-0.174684316, -0.00597587228, -9.814614   , 0.00205797283, 0.002316844 , 0.000479998853, 0.07604153  , -0.347512484, 0.645813644 , 0.00155246921, -0.0164805185, 1.3854239   , 0.03        , 3           , 11          , 0.0346410163, 0.0346410163
-0.1769223  , -0.004745811, -9.798309   , -0.000210164173, 0.0015040203, 0.0005387137, 0.07604153  , -0.347512484, 0.645813644 , 0.00155027944, -0.0164654851, 1.38542914  , 0.04        , 3           , 12          , 0.0346410163, 0
-0.16796574 , -0.0242241081, -9.791233   , -0.000667623652, -0.0006960968, -7.422183E-05, 0.07610894  , -0.347512484, 0.6456788   , 0.00154361548, -0.0164724477, 1.38542867  , 0.05        , 3           , 50          , 0           , 0
-0.17063047 , -0.0138844717, -9.786158   , -0.00206813426, -0.00130212447, -0.0004796657, 0.0759067   , -0.347512484, 0.64594847  , 0.00152301369, -0.0164854582, 1.3854239   , 0.06        , 3           , 11          , 0.0346410163, 0.0346410163
-0.1656486  , -0.008958116, -9.784287   , -1.412127E-06, -0.000290391239, -0.0005375683, 0.07604153  , -0.347512484, 0.645881057 , 0.00152308831, -0.0164883584, 1.38541818  , 0.07        , 3           , 12          , 0.0346410163, 0
-0.145422846, -0.0288565159, -9.786242   , 0.0024570385, 0.00265756622, -0.0007173628, 0.07604153  , -0.347512484, 0.645881057 , 0.00154777663, -0.01646177 , 1.385411    , 0.08        , 3           , 50          , 0           , 0
-0.151259586, -0.0188251045, -9.797477   , -0.000205451812, 0.000504535856, 0.00039980642, 0.0762437657, -0.347445071, 0.64594847  , 0.001545656 , -0.0164567288, 1.38541532  , 0.09        , 3           , 11          , 0.0346410163, 0.0346410163
-0.179671511, -0.01225114 , -9.816953   , -0.00167064939, -0.000506187032, 0.0009918879, 0.07617635  , -0.3475799  , 0.6460159   , 0.00152878661, -0.0164618082, 1.38542485  , 0.1         , 3           , 12          , 0.0346410163, 0
-0.173853517, -0.03004517 , -9.793568   , -0.00181675458, 0.00209552585, 0.000472961867, 0.07604153  , -0.347512484, 0.64594847  , 0.00151054  , -0.0164408572, 1.38542962  , 0.11        , 3           , 50          , 0           , 0
-0.187877789, -0.037068598, -9.810876   , -0.00281674438, 0.00156009465, -0.000331443036, 0.07604153  , -0.347512484, 0.64594847  , 0.00148242654, -0.016425252, 1.38542676  , 0.12        , 3           , 11          , 0.0346410163, 0.0346410163
-0.173385829, -0.0236658715, -9.802107   , -0.0007429533, 0.001103067 , 6.905636E-05, 0.0759067   , -0.3476473  , 0.645746231 , 0.001474986 , -0.0164142232, 1.38542724  , 0.13        , 3           , 12          , 0.0346410163, 0
-0.166111931, -0.012574153, -9.782966   , -0.0007335601, -0.0008953279, -0.000342073734, 0.07631118  , -0.347512484, 0.64594847  , 0.0014677064, -0.0164231677, 1.3854239   , 0.14        , 3           , 50          , 0           , 0
-0.156144381, 0.00472846441, -9.808578   , 0.00160078215, 5.09171077E-05, -0.000333283329, 0.0759741142, -0.347377658, 0.645881057 , 0.00148376892, -0.0164226573, 1.38542056  , 0.15        , 3           , 11          , 0.0346410163, 0.0346410163
-0.15846917 , -0.0179474466, -9.791147   , 0.003864523 , 0.00179655442, -0.000253463659, 0.0759741142, -0.347377658, 0.645881057 , 0.00152245653, -0.0164046865, 1.3854177   , 0.16        , 3           , 12          , 0.0346410163, 0
-0.171155885, -0.0355781429, -9.779581   , -0.000868595846, -0.000627084868, -0.000874047866, 0.0759741142, -0.347445071, 0.6456788   , 0.00151391479, -0.0164109431, 1.38540912  , 0.17        , 3           , 50          , 0           , 0
-0.162062719, -0.0162215084, -9.779821   , -0.000997717, -0.00156292925, -0.0004795252, 0.07610894  , -0.347445071, 0.6460159   , 0.00150401669, -0.0164265651, 1.38540435  , 0.18        , 3           , 11          , 0.0346410163, 0.0346410163
-0.1453723  , -0.01955226 , -9.765777   , 0.00353218429, 0.00145792146, 0.000544054 , 0.07610894  , -0.347445071, 0.6460833   , 0.00153924793, -0.0164119937, 1.38540959  , 0.19        , 3           , 12          , 0.0346410163, 0
-0.167498931, -0.02064443 , -9.788029   , 0.00226139813, 0.00165496988, -0.000389974419, 0.07610894  , -0.347445071, 0.6460833   , 0.00156199012, -0.0163954683, 1.38540578  , 0.2         , 3           , 50          , 0           , 0
-0.159852087, -0.0274648  , -9.784452   , 0.0005911166, 0.00157997641, -0.0005928709, 0.0759741142, -0.3475799  , 0.645881057 , 0.00156799809, -0.01637966 , 1.3854      , 0.21        , 3           , 11          , 0.0346699134, 0.03466991
-0.154870749, -0.02159676 , -9.787553   , 0.000119219316, 0.00244469638, -0.000722054159, 0.0759067   , -0.3475799  , 0.645813644 , 0.001569307 , -0.0163552016, 1.3853929   , 0.22        , 3           , 12          , 0.0346688069, 0
-0.161191821, -0.02198413 , -9.792552   , -0.00254061422, -0.000304925576, -0.000408131978, 0.0759067   , -0.347512484, 0.64594847  , 0.00154396694, -0.0163582452, 1.38538861  , 0.23        , 3           , 50          , 0           , 0
-0.188225716, -0.0114593413, -9.799309   , -0.00141106034, 0.00109738344, 0.000534638646, 0.0762437657, -0.3476473  , 0.645746231 , 0.00152977009, -0.01634728 , 1.38539386  , 0.24        , 3           , 11          , 0.0346699134, 0.03466991
-0.151719108, -0.01499122 , -9.825511   , -0.002339057, -0.0005064179, 0.0001909746, 0.0762437657, -0.3476473  , 0.645746231 , 0.001506348 , -0.0163523462, 1.38539577  , 0.25        , 3           , 12          , 0.0346688069, 0
-0.141847536, -0.03554181 , -9.797616   , -0.002476449, 0.000292033161, 0.000395217154, 0.07617635  , -0.347512484, 0.6460159   , 0.00148151931, -0.016349433, 1.38539958  , 0.26        , 3           , 50          , 0           , 0
-0.140481964, -0.03192914 , -9.798936   , -0.00134031684, 0.000234477222, -0.0002699977, 0.0759067   , -0.347310245, 0.6460833   , 0.00146816089, -0.0163470823, 1.3853972   , 0.27        , 3           , 11          , 0.0346699134, 0.03466991
-0.136763841, -0.0068658106, -9.777403   , -0.0003991317, -0.000960162841, -0.000341937324, 0.07610894  , -0.3475799  , 0.645746231 , 0.00146422535, -0.01635668 , 1.38539338  , 0.28        , 3           , 12          , 0.0346688069, 0
-0.175117522, -0.004756164, -9.797852   , -0.00100652326, 0.000302984641, -0.00026911468, 0.07610894  , -0.3475799  , 0.645746231 , 0.00145420362, -0.0163536463, 1.385391    , 0.29        , 3           , 50          , 0           , 0
-0.1494641  , -0.022951277, -9.789816   , -0.00125762972, -0.000151457876, -0.0008723014, 0.0759067   , -0.3475799  , 0.645881057 , 0.00173245952, -0.0161257256, 1.38537765  , 0.3         , 3           , 11          , 0.03475348  , 0.03475348
-0.145818114, -0.0125842365, -9.791063   , -0.00125742354, -9.425717E-05, 0.00132777425, 0.0759741142, -0.3475799  , 0.6460833   , 0.00171967142, -0.0161266886, 1.38539052  , 0.31        , 3           , 12          , 0.03475387  , 0
-0.176128522, -0.0359196439, -9.790915   , -0.00226266379, 0.000440484117, -0.0002705577, 0.0759067   , -0.347377658, 0.64594847  , 0.00169708766, -0.0161222834, 1.38538814  , 0.32        , 3           , 50          , 0           , 0
-0.16477944 , -0.0165750366, -9.790697   , -0.00298984628, -0.00122945965, -0.0004809731, 0.0759067   , -0.347377658, 0.64594847  , 0.00166726718, -0.0161345657, 1.38538337  , 0.33        , 3           , 11          , 0.03475348  , 0.03475348
-0.1665338  , -0.00491892546, -9.781533   , 0.0004832849, -0.0008154995, 0.000726407336, 0.07583929  , -0.347445071, 0.64594847  , 0.00167198374, -0.0161427334, 1.38539052  , 0.34        , 3           , 12          , 0.03475387  , 0
-0.152645648, -0.0264372621, -9.80344    , 0.00047589984, 0.0007199322, 0.000268378149, 0.07610894  , -0.3475799  , 0.6460833   , 0.00167670043, -0.01613554 , 1.38539338  , 0.35        , 3           , 50          , 0           , 0
-0.156676531, -0.0164271  , -9.81286049 , 0.00068308675, -0.000680482364, 0.0005941437, 0.0759741142, -0.347512484, 0.6460159   , 0.00168343622, -0.0161423534, 1.3853991   , 0.36        , 3           , 11          , 0.03475348  , 0.03475348
-0.147630274, -0.0124975434, -9.801027   , 0.00128064223, 0.000123731341, 0.000399562618, 0.0759741142, -0.347512484, 0.6460159   , 0.00169617787, -0.0161411241, 1.38540292  , 0.37        , 3           , 12          , 0.03475387  , 0
-0.14762117 , -0.01446454 , -9.780672   , 0.00121313974, 0.000196634821, -0.0011332928, 0.0759067   , -0.347512484, 0.645813644 , 0.00170849112, -0.0161391385, 1.385392    , 0.38        , 3           , 50          , 0           , 0
-0.152985856, 0.0009644926, -9.790496   , 0.00154881529, -0.000134594244, -0.00120130426, 0.0759067   , -0.347445071, 0.6460833   , 0.00172417355, -0.0161404628, 1.38538     , 0.39        , 3           , 11          , 0.03475348  , 0.03475348
-0.15397577 , -0.0201203264, -9.803381   , 0.000465908961, 0.000202818657, -6.7715664E-05, 0.07610894  , -0.347377658, 0.6460833   , 0.00161441346, -0.01600221 , 1.385381    , 0.4         , 3           , 12          , 0.03489534  , 0
-0.142736837, -0.030055536, -9.80662    , 0.002876641 , -0.000852120342, 0.000263280963, 0.07610894  , -0.347377658, 0.6460833   , 0.00164313824, -0.0160107352, 1.38538337  , 0.41        , 3           , 50          , 0           , 0
-0.142608419, -0.00143378973, -9.777364   , 0.000399340119, 0.000136928531, -0.000334821147, 0.07604153  , -0.347512484, 0.645746231 , 0.00164718507, -0.0160093587, 1.38538     , 0.42        , 3           , 11          , 0.0176981539, 0.0176981073
-0.161595836, -0.009365911, -9.791524   , -0.00233916077, -0.000204598517, -0.00194065238, 0.0759741142, -0.347445071, 0.6460833   , 0.00162410433, -0.0160113722, 1.385361    , 0.43        , 3           , 12          , 0.03489534  , 0
-0.158047467, -0.02466462 , -9.797097   , -0.0008665462, -0.00066895003, -0.000607864058, 0.07604153  , -0.347512484, 0.64594847  , 0.0016155357, -0.0160180554, 1.38535476  , 0.44        , 3           , 50          , 0           , 0
-0.162474155, -0.00305791362, -9.79056    , 0.000607080641, -0.00133446092, 0.0009904365, 0.07604153  , -0.347512484, 0.64594847  , 0.00162144785, -0.0160314161, 1.38536477  , 0.45        , 3           , 11          , 0.0176981539, 0.0176981073
-0.17648761 , -0.010194052, -9.793834   , -0.00294669368, 0.00124392542, 0.00153282925, 0.07617635  , -0.347445071, 0.645881057 , 0.0015917354, -0.0160190016, 1.38538     , 0.46        , 3           , 12          , 0.03489534  , 0
-0.175167084, -0.0192197263, -9.793467   , 0.0008037825, -0.0005948173, -0.000204994445, 0.0759741142, -0.347175419, 0.6460159   , 0.00159980659, -0.0160249434, 1.38537765  , 0.47        , 3           , 50          , 0           , 0
-0.170174748, -0.0125299664, -9.786597   , 0.0008685807, -0.000131199646, 0.0005976091, 0.0759741142, -0.347512484, 0.6461507   , 0.00160839735, -0.0160262659, 1.38538384  , 0.48        , 3           , 11          , 0.0176981539, 0.0176981073
-0.143531248, -0.00308841444, -9.795492   , 0.0003288177, 0.000934886164, 6.949638E-05, 0.0759741142, -0.347512484, 0.6461507   , 0.00161167455, -0.01601692 , 1.3853848   , 0.49        , 3           , 12          , 0.03489534  , 0
-0.148956746, -0.00341006159, -9.809091   , 0.00110401341, 0.00152659742, -0.0010586991, 0.07604153  , -0.347512484, 0.645881057 , 0.00150960765, -0.0160863139, 1.38537574  , 0.5         , 3           , 50          , 0           , 0
-0.152120382, -0.00567801856, -9.805952   , -2.2267E-05 , -0.0005444261, -0.00153859425, 0.07610894  , -0.347310245, 0.645881057 , 0.00150963222, -0.016091736, 1.38536048  , 0.51        , 3           , 11          , 0.013437042 , 0.0134370076
-0.148062527, -0.008947229, -9.793749   , 0.000916040561, -0.00107752613, -0.000406967971, 0.07617635  , -0.347445071, 0.64594847  , 0.00151885918, -0.0161025058, 1.38535619  , 0.52        , 3           , 12          , 0.03509212  , 0
-0.159370452, -0.0156134926, -9.800634   , 0.00439118  , -0.00118746026, -0.00140227284, 0.0759067   , -0.347377658, 0.645813644 , 0.0015629956, -0.016114356, 1.38534236  , 0.53        , 3           , 50          , 0           , 0
-0.168366447, -0.0107041933, -9.790197   , 0.0023783755, 0.0005335188, -0.00106235256, 0.0759067   , -0.347377658, 0.645813644 , 0.0015869512, -0.0161090046, 1.38533139  , 0.54        , 3           , 11          , 0.013437042 , 0.0134370076
-0.17878896 , -0.0242201854, -9.786734   , 0.000566844246, 0.002119102 , 1.03623852E-05, 0.07570446  , -0.3475799  , 0.645813644 , 0.00159261806, -0.0160878152, 1.38533187  , 0.55        , 3           , 12          , 0.03509212  , 0
-0.170195967, -0.0109047461, -9.820538   , 0.000304869958, 0.00104631239, 0.001070512 , 0.07610894  , -0.347175419, 0.6460159   , 0.001595494 , -0.01607737 , 1.38534284  , 0.56        , 3           , 50          , 0           , 0
-0.154772356, 0.007337641 , -9.797229   , 0.00130653579, 0.00118573755, 0.0009394727, 0.07631118  , -0.347512484, 0.645813644 , 0.00160840817, -0.0160655268, 1.3853519   , 0.57        , 3           , 11          , 0.013437042 , 0.0134370076
-0.150751   , 0.00163961947, -9.81946    , -0.000554312544, -0.0010197981, -0.000208866913, 0.07631118  , -0.347512484, 0.645813644 , 0.00160289847, -0.0160757229, 1.38534951  , 0.58        , 3           , 12          , 0.03509212  , 0
-0.169277936, -0.0115407333, -9.797903   , -0.00108991633, -0.0008212905, -0.000541853, 0.07631118  , -0.347512484, 0.645881057 , 0.00159208721, -0.016083926, 1.38534427  , 0.59        , 3           , 50          , 0           , 0
-0.158008546, -0.0166438371, -9.785249   , 0.000916725 , -0.00011144056, 0.00046630812, 0.0759741142, -0.347377658, 0.6460833   , 0.00141714991, -0.01617648 , 1.38535142  , 0.6         , 3           , 11          , 0.0113509037, 0.01135089
-0.1522095  , -0.03377252 , -9.788569   , 0.004593137 , -0.000356770557, 0.000203798118, 0.0759741142, -0.3476473  , 0.645881057 , 0.00146304781, -0.01618005 , 1.38535333  , 0.61        , 3           , 12          , 0.0353428423, 0
-0.134588882, -0.0266316347, -9.787551   , 0.00238200184, 0.000897847349, 0.000207514313, 0.0759741142, -0.3476473  , 0.645881057 , 0.0014868346, -0.0161710735, 1.38535571  , 0.62        , 3           , 50          , 0           , 0
-0.140858069, -0.0121118519, -9.796027   , -0.0006934397, 0.00115423161, -0.00132881419, 0.07604153  , -0.347445071, 0.645881057 , 0.00148011534, -0.0161595121, 1.38534236  , 0.63        , 3           , 11          , 0.0113509037, 0.01135089
-0.141707867, 0.001856951 , -9.794533   , -0.0013544485, -0.000320785621, -0.0002715136, 0.07617635  , -0.347310245, 0.6460833   , 0.00146661536, -0.0161627177, 1.3853395   , 0.64        , 3           , 12          , 0.0353428423, 0
-0.13498801 , -0.0103193671, -9.797352   , -0.00135111145, -0.0009906478, 0.000457992632, 0.07610894  , -0.347512484, 0.645813644 , 0.0014530312, -0.0161726288, 1.38534427  , 0.65        , 3           , 50          , 0           , 0
-0.131403372, -0.0166337937, -9.798763   , -0.002355007, -0.00066309236, 0.0005249838, 0.07610894  , -0.347512484, 0.645813644 , 0.00142939854, -0.01617927 , 1.38534951  , 0.66        , 3           , 11          , 0.0113509037, 0.01135089
-0.146671519, 0.00188996072, -9.796356   , -0.00168822589, -0.0003286487, 0.001127787 , 0.0759067   , -0.3476473  , 0.645881057 , 0.00141233311, -0.01618257 , 1.38536048  , 0.67        , 3           , 12          , 0.0353428423, 0
-0.147237062, -0.0306204818, -9.79033852 , -0.000165394522, 0.00255524321, -0.0008535655, 0.07610894  , -0.347445071, 0.6460159   , 0.00141081621, -0.016157005, 1.3853519   , 0.68        , 3           , 50          , 0           , 0
-0.15348208 , -0.0112031475, -9.791069   , -0.00136676722, 0.00227907929, -0.000190316612, 0.07617635  , -0.347310245, 0.645746231 , 0.00139717828, -0.0161342118, 1.38535     , 0.69        , 3           , 11          , 0.0113509037, 0.01135089
-0.169722334, -0.00458725542, -9.82138    , -0.002296529, 0.000182973978, -0.000537435466, 0.07617635  , -0.347310245, 0.645746231 , 0.0013645388, -0.01590449 , 1.38534474  , 0.7         , 3           , 12          , 0.035645958 , 0
-0.160326838, -0.0314298943, -9.795812   , -0.003430526, -0.00022472917, -0.000208118567, 0.07583929  , -0.347377658, 0.6456788   , 0.00133026729, -0.0159067325, 1.38534284  , 0.71        , 3           , 50          , 0           , 0
-0.14497906 , -0.02878185 , -9.795747   , -0.00256400649, 0.000245879462, -4.209596E-06, 0.07583929  , -0.347310245, 0.64594847  , 0.00130462716, -0.0159042738, 1.38534284  , 0.72        , 3           , 11          , 0.0101314224, 0.0101314224
-0.1751676  , -0.0182780344, -9.798437   , 0.00104151911, 0.0008051072, -0.00139552832, 0.0762437657, -0.347512484, 0.64594847  , 0.00131526438, -0.0158962049, 1.38532853  , 0.73        , 3           , 12          , 0.035645958 , 0
-0.17017056 , -0.0069561596, -9.806915   , 0.000913062133, -0.000264652161, -0.000868435949, 0.0762437657, -0.347512484, 0.64594847  , 0.00132453372, -0.0158988424, 1.38532     , 0.74        , 3           , 50          , 0           , 0
-0.159775764, -0.00532223471, -9.790575   , -0.00108933623, -0.000682296348, 0.000659392448, 0.07610894  , -0.3476473  , 0.645746231 , 0.00131353678, -0.01590567 , 1.38532662  , 0.75        , 3           , 11          , 0.0101314224, 0.0101314224
-0.171515524, -0.00516590476, -9.804638   , -0.00142245 , -0.000885005866, 0.000857736857, 0.0759067   , -0.347310245, 0.64594847  , 0.0012991759, -0.0159145333, 1.38533473  , 0.76        , 3           , 12          , 0.035645958 , 0
-0.185991228, -0.0178014468, -9.796649   , -0.000354088726, -0.0007429173, 0.000193538435, 0.07610894  , -0.347310245, 0.645881057 , 0.00129560463, -0.0159219615, 1.38533664  , 0.77        , 3           , 50          , 0           , 0
-0.149438635, -0.0157267582, -9.791102   , 0.0005845658, -0.001465124, -0.00120894471, 0.07610894  , -0.347310245, 0.645881057 , 0.00130164286, -0.0159365963, 1.38532472  , 0.78        , 3           , 11          , 0.0101314224, 0.0101314224
-0.14450866 , -0.02570755 , -9.785756   , 0.00158427074, -0.0009245276, -0.001604378, 0.0759741142, -0.347377658, 0.645813644 , 0.00131774065, -0.01594582 , 1.3853085   , 0.79        , 3           , 12          , 0.035645958 , 0
-0.171998024, -0.01419941 , -9.802464   , 0.00208383519, -0.0006953277, -2.8731165E-06, 0.07604153  , -0.347445071, 0.645813644 , 0.001392726 , -0.0160076786, 1.38530755  , 0.8         , 3           , 50          , 0           , 0
-0.172428727, -0.0116016921, -9.78885651 , 0.00174605648, 0.000100586571, 0.0005343516, 0.07604153  , -0.3476473  , 0.64594847  , 0.00141009979, -0.0160066783, 1.38531327  , 0.81        , 3           , 11          , 0.009378353 , 0.009378346
-0.17203632 , -0.02737586 , -9.789916   , 0.0008053458, 0.00116475532, -6.10309E-05, 0.0759067   , -0.347445071, 0.6456788   , 0.00141816342, -0.01599503 , 1.38531232  , 0.82        , 3           , 12          , 0.03599972  , 0
-0.173312575, -0.0038320946, -9.80146    , -0.0008561274, -0.000776152767, -0.0004743389, 0.0759067   , -0.347445071, 0.6456788   , 0.0014096786, -0.0160027854, 1.38530755  , 0.83        , 3           , 50          , 0           , 0
-0.153479725, -0.008887097, -9.798743   , -0.00131723925, -0.0021178748, 0.000850644 , 0.0759067   , -0.347377658, 0.64594847  , 0.00139636977, -0.0160239749, 1.38531613  , 0.84        , 3           , 11          , 0.009378353 , 0.009378346
-0.166163981, -0.0284157116, -9.775424   , 0.000671116752, 0.00129650114, 0.000139483629, 0.07610894  , -0.347310245, 0.6460833   , 0.00140305888, -0.0160110127, 1.38531756  , 0.85        , 3           , 12          , 0.03599972  , 0
-0.167446762, -0.00339942425, -9.801894   , -0.0006627619, 0.0006942842, -0.00106575014, 0.07617635  , -0.3475799  , 0.645544    , 0.0013966012, -0.0160040539, 1.3853066   , 0.86        , 3           , 50          , 0           , 0
-0.138631567, -0.0169668924, -9.810104   , 0.000876025937, 0.000302996865, -0.0011322978, 0.07617635  , -0.3475799  , 0.645544    , 0.00140554353, -0.0160010085, 1.38529515  , 0.87        , 3           , 11          , 0.009378353 , 0.009378346
-0.1362958  , -0.002362622, -9.776905   , 0.002405041 , 0.001977923 , -0.00105397333, 0.07610894  , -0.347377658, 0.6460159   , 0.00142976141, -0.0159812141, 1.38528466  , 0.88        , 3           , 12          , 0.03599972  , 0
-0.147193   , -0.02218521 , -9.773956   , 0.00207053567, 0.00210512313, -5.38729873E-05, 0.0757718757, -0.347445071, 0.64594847  , 0.00145047333, -0.01596016 , 1.38528466  , 0.89        , 3           , 50          , 0           , 0
-0.175159112, -0.0207067914, -9.77673    , -0.0007302534, 0.000770105631, -0.000132284709, 0.07604153  , -0.347445071, 0.645881057 , 0.00144238654, -0.0159335211, 1.38528323  , 0.9         , 3           , 11          , 0.008913071 , 0.00891307
-0.165113479, 0.0131027792, -9.780449   , 8.40987E-06 , -2.2743603E-05, -0.000868870236, 0.07604153  , -0.347445071, 0.645881057 , 0.00144260959, -0.0159337316, 1.38527417  , 0.91        , 3           , 12          , 0.0364022441, 0
-0.136740938, 0.004598126 , -9.801286   , -0.000258245564, -0.000157554154, -0.0008700239, 0.0759067   , -0.347512484, 0.64594847  , 0.00144016545, -0.0159352943, 1.38526559  , 0.92        , 3           , 50          , 0           , 0
-0.162546724, -0.02477144 , -9.781717   , -0.00352937658, -0.000781042, 0.0003881167, 0.0759067   , -0.347242832, 0.6460833   , 0.00140480942, -0.0159431119, 1.3852694   , 0.93        , 3           , 11          , 0.008913071 , 0.00891307
-0.150422156, -0.0373460427, -9.793581   , -0.00273429672, 0.0006260308, -0.000202748968, 0.07604153  , -0.347714722, 0.645881057 , 0.00137749861, -0.0159368478, 1.3852675   , 0.94        , 3           , 12          , 0.0364022441, 0
-0.16485104 , -0.035957966, -9.79134    , 0.0004763857, -2.41897069E-05, 6.505124E-05, 0.07604153  , -0.347714722, 0.645881057 , 0.001382253 , -0.01593709 , 1.38526845  , 0.95        , 3           , 50          , 0           , 0
-0.17338565 , -0.0227314513, -9.806172   , -0.0020569202, -0.00124252355, 0.00105432828, 0.07604153  , -0.347512484, 0.645746231 , 0.00136151654, -0.0159495287, 1.38527894  , 0.96        , 3           , 11          , 0.008913071 , 0.00891307
-0.165191308, -0.00293878466, -9.804148   , 0.00161425688, -0.000478899223, -0.00126897718, 0.07610894  , -0.347310245, 0.645881057 , 0.0013778616, -0.0159542989, 1.38526607  , 0.97        , 3           , 12          , 0.0364022441, 0
-0.152660444, -0.0328364223, -9.792637   , 0.00121224928, -0.000339727238, -0.00313525787, 0.07637859  , -0.347512484, 0.645813644 , 0.001390485 , -0.0159576572, 1.38523459  , 0.98        , 3           , 50          , 0           , 0
-0.148595273, -0.0343095  , -9.779511   , 0.000344560132, -0.000423512945, -0.000270677963, 0.07637859  , -0.347512484, 0.645813644 , 0.00139397406, -0.0159618855, 1.38523173  , 0.99        , 3           , 11          , 0.008913071 , 0.00891307
-0.166596085, -0.020186035, -9.789379   , -0.00181138935, -0.00165868737, 0.00038396506, 0.0762437657, -0.347445071, 0.645746231 , 0.00151401118, -0.0160032362, 1.38523316  , 1           , 3           , 12          , 0.0368515253, 0
-0.170135558, -0.00217131525, -9.785137   , -0.00195445842, 0.0003395468, 0.000661575643, 0.07617635  , -0.347310245, 0.645881057 , 0.00149436051, -0.0159998462, 1.38523984  , 1.01        , 3           , 50          , 0           , 0
-0.1751429  , -0.01619465 , -9.777137   , -0.00115275267, 0.0003468247, -3.77649485E-06, 0.0762437657, -0.347377658, 0.64594847  , 0.00148283353, -0.0159963779, 1.38523984  , 1.02        , 3           , 11          , 0.00863668  , 0.008636687
-0.165250257, -0.0229216162, -9.786233   , 0.000258590531, -0.00131538161, 0.000722280354, 0.0762437657, -0.347377658, 0.64594847  , 0.00148530456, -0.0160095431, 1.385247    , 1.03        , 3           , 12          , 0.0368515253, 0
-0.149416119, -0.013152536, -9.77478    , 0.000454612833, -0.0003806047, 0.000661148 , 0.07604153  , -0.347512484, 0.645813644 , 0.00148974522, -0.01601336 , 1.38525367  , 1.04        , 3           , 50          , 0           , 0
-0.171962515, -0.0103562512, -9.775715   , -0.000218556743, 0.000680442 , 0.00113269617, 0.07617635  , -0.347445071, 0.645881057 , 0.0014873785, -0.0160065759, 1.38526464  , 1.05        , 3           , 11          , 0.00863668  , 0.008636687
-0.15527077 , -0.004339164, -9.802777   , -0.000610238058, -0.00131757429, 0.000121035009, 0.07617635  , -0.3475799  , 0.64594847  , 0.00148125808, -0.01601975 , 1.38526607  , 1.06        , 3           , 12          , 0.0368515253, 0
-0.1481577  , -0.03276595 , -9.803491   , -0.000472972548, -0.00205279863, 0.0007170572, 0.07617635  , -0.3475799  , 0.64594847  , 0.001476414 , -0.01604029 , 1.38527322  , 1.07        , 3           , 50          , 0           , 0
-0.153097451, -0.0283007957, -9.795763   , 0.000388202083, -0.000449364277, 0.00106061925, 0.07583929  , -0.347310245, 0.645746231 , 0.00148012652, -0.0160448  , 1.38528371  , 1.08        , 3           , 11          , 0.00863668  , 0.008636687
-0.160203248, 0.004263634 , -9.80497    , 0.00145838154, -0.0007058646, 6.089559E-05, 0.0759067   , -0.347377658, 0.645881057 , 0.00149470125, -0.0160518568, 1.38528419  , 1.09        , 3           , 12          , 0.0368515253, 0
-0.17651771 , -0.0169022735, -9.800692   , 0.000134971589, -0.000608896, 0.001325911 , 0.07631118  , -0.3475799  , 0.64594847  , 0.001511548 , -0.01608567 , 1.38529706  , 1.1         , 3           , 50          , 0           , 0
-0.161628827, -0.0137035493, -9.812846   , 0.00119588466, 0.00113070314, 0.00127057871, 0.07631118  , -0.3475799  , 0.64594847  , 0.00152330252, -0.0160743855, 1.38530946  , 1.11        , 3           , 11          , 0.008481423 , 0.008481432
-0.130519465, -0.0192549936, -9.809653   , 0.00172636448, 0.001939141 , 9.373121E-06, 0.07610894  , -0.347377658, 0.64594847  , 0.00154056365, -0.0160549879, 1.38530993  , 1.12        , 3           , 12          , 0.03734549  , 0
-0.173878372, -0.0368079245, -9.793635   , 0.00413682731, 0.0008890804, -0.000792810344, 0.07604153  , -0.347242832, 0.645881057 , 0.001582058 , -0.0160460882, 1.38530183  , 1.13        , 3           , 50          , 0           , 0
-0.1567826  , -0.04528153 , -9.813143   , -0.000672838651, 0.0005913572, 0.000264874543, 0.07617635  , -0.347310245, 0.6456114   , 0.00157528743, -0.0160401762, 1.38530469  , 1.14        , 3           , 11          , 0.008481423 , 0.008481432
-0.144456342, -0.00752812065, -9.803688   , 0.002278842 , -0.001794915, 0.0007892043, 0.07617635  , -0.3475799  , 0.6456788   , 0.00159795035, -0.0160581414, 1.38531232  , 1.15        , 3           , 12          , 0.03734549  , 0
-0.169732541, -0.009630226, -9.811015   , 0.0001402846, -0.00180207868, -0.000280583248, 0.07617635  , -0.3475799  , 0.6456788   , 0.00159939856, -0.016076155, 1.38530946  , 1.16        , 3           , 50          , 0           , 0
-0.168928117, -0.03436127 , -9.819858   , -0.000124473183, -0.00233691279, -0.000283973815, 0.07583929  , -0.347377658, 0.6456788   , 0.00159820018, -0.0160995182, 1.3853066   , 1.17        , 3           , 11          , 0.008481423 , 0.008481432
-0.146362737, -0.0378229059, -9.792217   , 0.003863214 , 0.002221022 , -0.0007857625, 0.0762437657, -0.3476473  , 0.6460159   , 0.00163695787, -0.0160772987, 1.385299    , 1.18        , 3           , 12          , 0.03734549  , 0
-0.14491199 , -0.00935166 , -9.80099    , 0.00173503021, 7.580902E-05, -0.000800957147, 0.07610894  , -0.347445071, 0.645746231 , 0.00165443728, -0.0160765257, 1.38529086  , 1.19        , 3           , 50          , 0           , 0
-0.147550285, 0.008670613 , -9.798103   , -5.9683327E-05, 0.00168316462, 0.0005369006, 0.07610894  , -0.347445071, 0.645746231 , 0.00174885022, -0.01603321 , 1.38529468  , 1.2         , 3           , 11          , 0.008401987 , 0.008402
-0.197233677, -0.00408492237, -9.815105   , 0.00101712253, 8.78009741E-05, 0.0007962164, 0.0762437657, -0.347310245, 0.64594847  , 0.00175889384, -0.0160323456, 1.38530278  , 1.21        , 3           , 12          , 0.037882    , 0
-0.1818305  , 0.0115614329, -9.805406   , 0.000486088538, -0.0007105932, -0.000275595929, 0.07583929  , -0.347377658, 0.645881057 , 0.00176379876, -0.016039446, 1.38529992  , 1.22        , 3           , 50          , 0           , 0
-0.180080637, -0.00753732771, -9.78612    , 0.00369139458, -0.000166482932, 0.00133206788, 0.0762437657, -0.347377658, 0.645813644 , 0.00180049858, -0.0160411336, 1.38531327  , 1.23        , 3           , 11          , 0.008401987 , 0.008402
-0.175100267, -0.00212740526, -9.788318   , -0.00271858415, -0.00126618193, 0.0007830466, 0.0762437657, -0.347377658, 0.645813644 , 0.00177318719, -0.01605381 , 1.3853209   , 1.24        , 3           , 12          , 0.037882    , 0
-0.169748127, -0.0155530833, -9.803376   , 0.000474196073, 0.00169872981, -0.00239522033, 0.07610894  , -0.347512484, 0.6456114   , 0.00177831214, -0.01603678 , 1.38529706  , 1.25        , 3           , 50          , 0           , 0
-0.16208306 , -0.0155416252, -9.808338   , 0.00289332564, -0.000970938, 0.00132636982, 0.0757718757, -0.347242832, 0.64594847  , 0.001807033 , -0.0160465129, 1.38531041  , 1.26        , 3           , 11          , 0.008401987 , 0.008402
-0.15254356 , -0.000349747017, -9.795487   , 0.001826197 , -0.001500997, -0.0008112901, 0.0762437657, -0.347377658, 0.645881057 , 0.00182542508, -0.01606151 , 1.38530183  , 1.27        , 3           , 12          , 0.037882    , 0
-0.143622041, -0.02976129 , -9.786698   , 0.00262097712, 9.43217E-05 , 0.00133192656, 0.0762437657, -0.347377658, 0.645881057 , 0.00185142132, -0.0160605889, 1.38531518  , 1.28        , 3           , 50          , 0           , 0
-0.1463208  , -0.0200034324, -9.821471   , -0.0005909074, 0.000888214 , -0.00133480388, 0.0762437657, -0.3476473  , 0.6456788   , 0.00184572628, -0.0160516817, 1.38530183  , 1.29        , 3           , 11          , 0.008401987 , 0.008402
-0.163847387, -0.004718134, -9.807783   , -0.001987924, -0.000485926284, -0.0005433012, 0.07617635  , -0.347377658, 0.6456788   , 0.00175030215, -0.0160902739, 1.38529754  , 1.3         , 3           , 12          , 0.0384588838, 0
-0.154775679, 0.006435938 , -9.797237   , 0.000421590084, -0.00127504382, -1.0840391E-05, 0.07610894  , -0.347445071, 0.645746231 , 0.00175452069, -0.0161030237, 1.38529754  , 1.31        , 3           , 50          , 0           , 0
-0.172864556, -0.005673524, -9.796948   , -0.00306200981, 0.0005726292, -5.707625E-06, 0.07610894  , -0.347445071, 0.645746231 , 0.00172390079, -0.0160972979, 1.38529754  , 1.32        , 3           , 11          , 0.00836449  , 0.008364516
-0.19016099 , -0.0475388281, -9.797402   , 0.0017431021, 0.00192789838, 0.00107561727, 0.07610894  , -0.3475799  , 0.645544    , 0.00174115866, -0.0160780363, 1.3853085   , 1.33        , 3           , 12          , 0.0384588838, 0
-0.187430784, -0.0393681675, -9.805465   , -0.000652432442, -0.00021763629, 0.0007933837, 0.0759741142, -0.347310245, 0.6456788   , 0.001734507 , -0.0160802249, 1.38531613  , 1.34        , 3           , 50          , 0           , 0
-0.176474512, -0.007521667, -9.789733   , -0.000652432442, -0.00021763629, 0.0007933837, 0.0762437657, -0.3475799  , 0.645746231 , 0.00172785413, -0.0160824154, 1.38532376  , 1.35        , 3           , 11          , 0.00836449  , 0.008364516
-0.161076933, 0.00631038053, -9.778693   , -0.0006462337, -0.00154875161, 0.000252666534, 0.0762437657, -0.3475799  , 0.645746231 , 0.00172135141, -0.0160979088, 1.38532662  , 1.36        , 3           , 12          , 0.0384588838, 0
-0.1660341  , 0.007212369 , -9.776433   , -0.00118485827, -0.0007470524, -0.00081019866, 0.07604153  , -0.3475799  , 0.645746231 , 0.00170963316, -0.0161053631, 1.38531852  , 1.37        , 3           , 50          , 0           , 0
-0.172883511, -0.008753132, -9.806488   , 0.000953445851, -0.000735297159, -0.00080693356, 0.07610894  , -0.347445071, 0.645746231 , 0.00171929831, -0.016112702, 1.38531041  , 1.38        , 3           , 11          , 0.00836449  , 0.008364516
-0.148627073, -0.0321061946, -9.829291   , 0.000699315453, -0.00341277174, 0.00131079124, 0.0759741142, -0.347445071, 0.6456788   , 0.00172608113, -0.0161468536, 1.38532329  , 1.39        , 3           , 12          , 0.0384588838, 0
-0.161256909, -0.03534968 , -9.812604   , 0.00409501325, 0.00183683168, -0.00131935126, 0.0759741142, -0.347445071, 0.6456788   , 0.00170693861, -0.0162585769, 1.38531089  , 1.4         , 3           , 50          , 0           , 0
-0.148072228, -0.005569512, -9.821334   , 9.733217E-05, -0.000589941046, -0.000272371515, 0.07604153  , -0.347512484, 0.6456788   , 0.00170795713, -0.01626447 , 1.3853085   , 1.41        , 3           , 11          , 0.00834529847, 0.008345329
-0.158012927, -0.0137896808, -9.803782   , 0.001967968 , -0.000572768, -0.00186929852, 0.07617635  , -0.347377658, 0.645746231 , 0.00172794145, -0.0162701663, 1.38528943  , 1.42        , 3           , 12          , 0.03907398  , 0
-0.170592844, -0.008190656, -9.765277   , -0.00203977013, -0.0008672307, -0.000543758448, 0.07617635  , -0.3475799  , 0.645881057 , 0.00170763244, -0.01627883 , 1.38528371  , 1.43        , 3           , 50          , 0           , 0
-0.144023091, -0.01623774 , -9.786115   , 0.00143870607, -0.00164702709, -0.000809557, 0.07617635  , -0.3475799  , 0.6456114   , 0.00172215048, -0.0162952859, 1.38527608  , 1.44        , 3           , 11          , 0.00834529847, 0.008345329
-0.130009964, -0.0128429253, -9.766125   , 0.00197220687, -0.00138084963, -7.35759431E-06, 0.07617635  , -0.3475799  , 0.6456114   , 0.00174187508, -0.0163091  , 1.38527608  , 1.45        , 3           , 12          , 0.03907398  , 0
-0.148567989, -0.021954773, -9.802028   , -0.000438318937, -0.000329641218, 0.0005281953, 0.07583929  , -0.347512484, 0.64594847  , 0.00173740613, -0.0163124017, 1.38528132  , 1.46        , 3           , 50          , 0           , 0
-0.173372746, -0.0209934879, -9.798006   , 0.00249659875, 0.0007566949, -0.000261242269, 0.0759741142, -0.347512484, 0.645813644 , 0.00176241435, -0.01630483 , 1.38527846  , 1.47        , 3           , 11          , 0.00834529847, 0.008345329
-0.148166329, -0.03876152 , -9.786798   , -0.000722433149, 0.00314264558, -0.00105261081, 0.07610894  , -0.3475799  , 0.6456788   , 0.001755362 , -0.0162733868, 1.38526845  , 1.48        , 3           , 12          , 0.03907398  , 0
-0.150776014, -0.01167498 , -9.789708   , -0.000976121752, 0.000213411011, -0.00240257569, 0.07610894  , -0.3475799  , 0.6456788   , 0.00174599071, -0.01627121 , 1.38524413  , 1.49        , 3           , 50          , 0           , 0
-0.160262823, -0.0105635356, -9.811454   , -0.0006877609, 8.327301E-06, -0.00187082554, 0.07617635  , -0.3475799  , 0.6454766   , 0.00176218315, -0.0161988884, 1.385225    , 1.5         , 3           , 11          , 0.008330713 , 0.008330741
-0.177392542, -0.0106306411, -9.795198   , -0.000683649, -0.0007974588, -0.0005421459, 0.0759067   , -0.347310245, 0.645746231 , 0.00175543467, -0.0162068531, 1.38521981  , 1.51        , 3           , 12          , 0.03972515  , 0
-0.14667891 , -0.00318209641, -9.78237152 , 0.002255254 , -0.000514613057, -0.0005361653, 0.07617635  , -0.347512484, 0.645746231 , 0.00177807442, -0.0162119884, 1.38521409  , 1.52        , 3           , 50          , 0           , 0
-0.156259671, -0.0305832829, -9.790813   , -0.002561054, 0.0005268143, -0.0008041773, 0.07617635  , -0.347512484, 0.645746231 , 0.00175259425, -0.0162067078, 1.38520646  , 1.53        , 3           , 11          , 0.008330713 , 0.008330741
-0.169340357, -0.029614741, -9.793099   , 0.00544892065, 0.002434229 , 1.8396895E-05, 0.07610894  , -0.347512484, 0.6456788   , 0.00180708047, -0.0161823649, 1.38520646  , 1.54        , 3           , 12          , 0.03972515  , 0
-0.161591917, -0.0042575  , -9.810037   , -0.0006985768, 0.00239813677, 0.000542271067, 0.0759741142, -0.347377658, 0.645813644 , 0.00180000614, -0.0161583964, 1.38521218  , 1.55        , 3           , 50          , 0           , 0
-0.170603514, -0.005271053, -9.791961   , -0.00202907133, 0.00106426561, -0.00106700941, 0.07631118  , -0.347512484, 0.6456788   , 0.00177988713, -0.0161477346, 1.38520122  , 1.56        , 3           , 11          , 0.008330713 , 0.008330741
-0.170243576, -0.02632455 , -9.809368   , -0.00175539462, -0.000268824049, -0.0008074267, 0.07631118  , -0.347512484, 0.6456788   , 0.00176246371, -0.0161504075, 1.38519311  , 1.57        , 3           , 12          , 0.03972515  , 0
-0.159339562, -0.00750909559, -9.799197   , -0.000152678214, 2.08320853E-06, 0.0002630359, 0.0762437657, -0.347377658, 0.645409167 , 0.00176089408, -0.01615039 , 1.385196    , 1.58        , 3           , 50          , 0           , 0
-0.171974421, -0.00461521 , -9.816858   , -0.00416832371, 0.00131345319, 0.00026437  , 0.07631118  , -0.347512484, 0.645746231 , 0.001719169 , -0.0161372609, 1.38519883  , 1.59        , 3           , 11          , 0.008330713 , 0.008330741
-0.151733026, -0.0242081787, -9.800699   , -0.000987644, -0.003271989, -0.0016216134, 0.07610894  , -0.347445071, 0.645881057 , 0.00165272434, -0.01626203 , 1.3851831   , 1.6         , 3           , 12          , 0.0404102877, 0
-0.176060557, -0.017434787, -9.790734   , -0.0025894104, -0.00356011442, 0.00130738353, 0.07610894  , -0.347445071, 0.645881057 , 0.00162661937, -0.0162976515, 1.385196    , 1.61        , 3           , 50          , 0           , 0
-0.16381745 , 0.00105565973, -9.796861   , -0.003395386, -0.00275873672, -2.25203985E-05, 0.0762437657, -0.347512484, 0.645409167 , 0.00159266929, -0.0163252354, 1.385196    , 1.62        , 3           , 11          , 0.008309301 , 0.008309327
-0.158466831, -0.01563139 , -9.7988205  , 0.00406938465, 0.00128837954, -0.00132187782, 0.07604153  , -0.347445071, 0.645813644 , 0.00163357973, -0.016312331, 1.38518262  , 1.63        , 3           , 12          , 0.0404102877, 0
-0.176942483, -0.01062141 , -9.796556   , -0.0007298435, -0.00114854076, 0.00105703063, 0.07617635  , -0.3475799  , 0.6456788   , 0.00162610854, -0.0163238365, 1.38519311  , 1.64        , 3           , 50          , 0           , 0
-0.157151088, -0.0250752009, -9.802532   , -0.00153455429, -0.0006138451, -0.000274364429, 0.07617635  , -0.3475799  , 0.6456788   , 0.00161080947, -0.01632997 , 1.38519025  , 1.65        , 3           , 11          , 0.008309301 , 0.008309327
-0.171113059, -0.0243214276, -9.77766    , -0.00259984774, -0.00142091722, -1.38399491E-05, 0.07637859  , -0.3475799  , 0.645813644 , 0.00158481381, -0.01634418 , 1.38519025  , 1.66        , 3           , 12          , 0.0404102877, 0
-0.149030954, -0.0274469126, -9.791669   , 0.00246698526, 0.0010117332, -0.00105918711, 0.07631118  , -0.347445071, 0.6456788   , 0.00160965731, -0.0163340438, 1.38517928  , 1.67        , 3           , 50          , 0           , 0
-0.168871135, -0.02231556 , -9.803893   , -0.00126732967, -0.0006112278, -0.000540586945, 0.07637859  , -0.347242832, 0.645881057 , 0.00159707246, -0.0163401477, 1.385174    , 1.68        , 3           , 11          , 0.008309301 , 0.008309327
-0.1607374  , -0.01546667 , -9.818294   , 0.00114199449, -0.00139690191, -0.0008080179, 0.07637859  , -0.347242832, 0.645881057 , 0.00160862436, -0.0163541  , 1.38516593  , 1.69        , 3           , 12          , 0.0404102877, 0
-0.158920273, -0.017945772, -9.791148   , -0.000440475036, 0.00121214986, 0.00160362688, 0.07617635  , -0.347782135, 0.6456114   , 0.00164485583, -0.0163893662, 1.38518119  , 1.7         , 3           , 50          , 0           , 0
-0.14666906 , -0.00188044272, -9.77602    , 0.000105106825, -0.00117816415, -8.761563E-06, 0.07617635  , -0.347445071, 0.645409167 , 0.00164590869, -0.0164011475, 1.38518119  , 1.71        , 3           , 11          , 0.008278992 , 0.008279003
-0.170590192, -0.0002608057, -9.798249   , -0.00283487141, -0.0011977714, 0.0007866408, 0.0762437657, -0.347377658, 0.6456788   , 0.00161743257, -0.0164131429, 1.38518882  , 1.72        , 3           , 12          , 0.04112734  , 0
-0.179240614, -0.0232768152, -9.791705   , -0.00417403132, -0.0006683102, -1.23092323E-05, 0.0762437657, -0.3475799  , 0.645341754 , 0.00157569489, -0.0164198224, 1.38518882  , 1.73        , 3           , 50          , 0           , 0
-0.177448645, -0.0236216839, -9.805738   , -0.000162751065, -0.001169303, -0.00240884535, 0.0762437657, -0.3475799  , 0.645341754 , 0.00157446181, -0.0164314788, 1.385165    , 1.74        , 3           , 11          , 0.008278992 , 0.008279003
-0.183358371, -0.03670361 , -9.802259   , 0.00170877145, -0.00116819993, -0.0002729434, 0.07610894  , -0.3475799  , 0.6456788   , 0.00159159431, -0.0164431557, 1.38516212  , 1.75        , 3           , 12          , 0.04112734  , 0
-0.141370863, -0.026915526, -9.805227   , -0.0004383248, 0.000685672741, 8.606585E-07, 0.07610894  , -0.3475799  , 0.645813644 , 0.001587211 , -0.0164363012, 1.38516212  , 1.76        , 3           , 50          , 0           , 0
-0.158443719, -0.0125954133, -9.783851   , 0.00116553  , 0.000692193455, 0.0005365707, 0.07637859  , -0.3476473  , 0.6456114   , 0.00159877643, -0.0164293852, 1.38516736  , 1.77        , 3           , 11          , 0.008278992 , 0.008279003
-0.188330382, -0.03845583 , -9.806364   , -0.00017242851, 0.000956120144, -0.0005305013, 0.07637859  , -0.3476473  , 0.6456114   , 0.00159713929, -0.0164198168, 1.38516259  , 1.78        , 3           , 12          , 0.04112734  , 0
-0.184240386, -0.0294212047, -9.81034    , -0.000704347738, 0.000417520961, -1.03868661E-06, 0.0762437657, -0.3476473  , 0.6456114   , 0.00159009523, -0.0164156426, 1.38516259  , 1.79        , 3           , 50          , 0           , 0
-0.157632992, -0.0336469561, -9.801712   , -0.00113001687, -0.00130061735, -0.00134541432, 0.0759741142, -0.347310245, 0.645881057 , 0.00170817063, -0.0165821165, 1.38514686  , 1.8         , 3           , 11          , 0.008234506 , 0.008234523
-0.1639534  , -0.0302966256, -9.822974   , -0.0019352329, -0.0005130139, 0.0005242494, 0.07631118  , -0.347445071, 0.645544    , 0.00168873009, -0.0165872555, 1.3851521   , 1.81        , 3           , 12          , 0.0418743268, 0
-0.147671178, -0.0228380132, -9.80475    , -0.00165662239, -0.00291053648, 0.000244606053, 0.07631118  , -0.347445071, 0.645544    , 0.00167212472, -0.0166163649, 1.385154    , 1.82        , 3           , 50          , 0           , 0
-0.149932951, -0.02323321 , -9.810646   , -0.00139875989, -0.001031961, -0.002144223, 0.0759741142, -0.3475799  , 0.6456788   , 0.00165849424, -0.0166266467, 1.385133    , 1.83        , 3           , 11          , 0.008234506 , 0.008234523
-0.159382582, -0.0159552731, -9.814221   , -0.000318980485, -0.003168724, -2.1475149E-05, 0.0762437657, -0.347377658, 0.6456788   , 0.0016553076, -0.0166583341, 1.38513255  , 1.84        , 3           , 12          , 0.0418743268, 0
-0.161661521, -0.0250656884, -9.801638   , 0.00100341684, -0.000225576659, -0.000536292442, 0.0762437657, -0.3475799  , 0.6454766   , 0.00166543131, -0.0166605823, 1.38512731  , 1.85        , 3           , 50          , 0           , 0
-0.168777317, -0.002227245, -9.778795   , -0.003268321, -0.00131237274, -0.00134867942, 0.0762437657, -0.3475799  , 0.6454766   , 0.00163297285, -0.0166736823, 1.385114    , 1.86        , 3           , 11          , 0.008234506 , 0.008234523
-0.1584055  , -0.00269487873, -9.781491   , 0.00126823806, 0.000308109273, -0.000266271265, 0.07604153  , -0.347445071, 0.6456114   , 0.00164569973, -0.0166706033, 1.38511109  , 1.87        , 3           , 12          , 0.0418743268, 0
-0.165644333, -0.00385334552, -9.802346   , 0.000734927133, 3.84883024E-05, -0.000268578733, 0.07604153  , -0.347512484, 0.6456788   , 0.001653094 , -0.01667021 , 1.38510823  , 1.88        , 3           , 50          , 0           , 0
-0.181482762, -0.018727202, -9.79574    , -0.000596136, -0.00104132714, 0.00105656893, 0.07617635  , -0.347377658, 0.645544    , 0.00164695666, -0.016680643, 1.38511872  , 1.89        , 3           , 11          , 0.008234506 , 0.008234523
-0.1677999  , 0.01851942  , -9.779949   , -0.00114178914, 0.000800356269, -2.510351E-07, 0.07617635  , -0.347377658, 0.645544    , 0.00163294608, -0.0167079028, 1.3851192   , 1.9         , 3           , 12          , 0.04264933  , 0
-0.151638448, -0.000851217657, -9.789606   , -6.643828E-05, -0.000524881645, -0.0005393359, 0.07617635  , -0.347512484, 0.6454766   , 0.001632372 , -0.0167131443, 1.385114    , 1.91        , 3           , 50          , 0           , 0
-0.15576756 , -0.0188410431, -9.793413   , 0.002607075 , -0.000521666138, 0.00213105185, 0.07637859  , -0.347310245, 0.645544    , 0.00165808573, -0.0167183951, 1.38513494  , 1.92        , 3           , 11          , 0.008177952 , 0.008177965
-0.148087323, -0.014306535, -9.80014    , -0.000337394973, 0.000271399884, -2.00906652E-06, 0.07637859  , -0.3475799  , 0.645544    , 0.00165471155, -0.0167156812, 1.38513494  , 1.93        , 3           , 12          , 0.04264933  , 0
-0.146743372, -0.01983084 , -9.786609   , -0.000335686578, -3.3172837E-06, 0.00186291407, 0.07637859  , -0.3475799  , 0.645544    , 0.00165104389, -0.0167157445, 1.38515353  , 1.94        , 3           , 50          , 0           , 0
-0.1395767  , -0.033368662, -9.788534   , -0.0019325841, -0.0015984528, -0.00134804961, 0.0759741142, -0.347310245, 0.645544    , 0.00163194374, -0.0167317074, 1.38514018  , 1.95        , 3           , 11          , 0.008177952 , 0.008177965
-0.157938674, -0.0009876844, -9.769703   , 0.00207041041, -0.000243000482, -0.00133447163, 0.0759741142, -0.347242832, 0.6456114   , 0.00165287079, -0.0167341139, 1.38512683  , 1.96        , 3           , 12          , 0.04264933  , 0
-0.161082089, 0.0115133189, -9.808977   , -0.00193758123, -0.000532871753, -0.001075454, 0.07610894  , -0.347445071, 0.6454766   , 0.00163367542, -0.0167394262, 1.38511586  , 1.97        , 3           , 50          , 0           , 0
-0.157524228, -0.00435258448, -9.800068   , -0.000870769145, 2.92679761E-06, -0.000270947174, 0.07610894  , -0.347445071, 0.6454766   , 0.00162501342, -0.0167393927, 1.385113    , 1.98        , 3           , 11          , 0.008177952 , 0.008177965
-0.167978317, -0.0297106635, -9.781778   , -0.00219670869, -0.00214476534, 0.00131486624, 0.07617635  , -0.347512484, 0.645409167 , 0.00160282617, -0.0167608615, 1.38512635  , 1.99        , 3           , 12          , 0.04264933  , 0
-0.158916831, -0.0142371748, -9.803789   , -0.00357189937, -0.00288063427, -2.42044989E-05, 0.07637859  , -0.347310245, 0.6456788   , 0.00150921871, -0.0166995265, 1.38512731  , 2           , 3           , 50          , 0           , 0
-0.144434467, 0.00207425281, -9.820345   , 0.0006947144, -0.0007259616, 0.000527516531, 0.07610894  , -0.347310245, 0.6456788   , 0.00151607837, -0.0167067926, 1.38513207  , 2.01        , 3           , 11          , 0.008111137 , 0.008111151
-0.169236153, 0.00159936212, -9.805924   , -0.000649632944, 0.0008725241, -0.00079873 , 0.07610894  , -0.347310245, 0.6456788   , 0.00150971452, -0.0166980568, 1.38512444  , 2.02        , 3           , 12          , 0.04345052  , 0
-0.17113097 , -0.0217945129, -9.811591   , 0.0009595354, -0.000192275533, 0.0007975376, 0.0762437657, -0.347445071, 0.645274341 , 0.00151917618, -0.01669999 , 1.38513255  , 2.03        , 3           , 50          , 0           , 0
-0.167115077, -0.03726577 , -9.795885   , 0.00256105  , 0.000344166 , 0.0021361222, 0.07617635  , -0.347377658, 0.6456114   , 0.00154443074, -0.01669658 , 1.38515353  , 2.04        , 3           , 11          , 0.008111137 , 0.008111151
-0.1570308  , 0.00784414448, -9.803116   , 0.00149271986, 7.964125E-05, 0.000266583957, 0.07617635  , -0.347310245, 0.645544    , 0.0015593135, -0.0166957863, 1.38515639  , 2.05        , 3           , 12          , 0.04345052  , 0
-0.175625145, -0.0210178159, -9.793938   , 0.00175595912, 0.0008857488, -0.0007950568, 0.07610894  , -0.347512484, 0.6454766   , 0.00157700584, -0.0166869164, 1.38514829  , 2.06        , 3           , 50          , 0           , 0
-0.179624453, -0.00665548071, -9.783847   , 0.00122789852, -0.000454044784, -3.43725E-06, 0.07610894  , -0.347512484, 0.6454766   , 0.00158928486, -0.0166914575, 1.38514829  , 2.07        , 3           , 11          , 0.008111137 , 0.008111151
-0.152589619, -0.0111047123, -9.803742   , -0.0011779468, -0.000462678028, -0.001073633, 0.07617635  , -0.347445071, 0.6456114   , 0.00157768489, -0.0166960657, 1.3851378   , 2.08        , 3           , 12          , 0.04345052  , 0
-0.154054552, -0.0384924859, -9.817596   , 0.000152547727, 0.0008711932, 0.0005356475, 0.0759741142, -0.347377658, 0.645746231 , 0.00157912064, -0.0166873634, 1.385143    , 2.09        , 3           , 50          , 0           , 0
-0.167034835, -0.0156322252, -9.794768   , -0.000365003565, -0.00178727717, 0.00158635958, 0.07604153  , -0.347445071, 0.645544    , 0.00158107607, -0.01668263 , 1.38515878  , 2.1         , 3           , 11          , 0.00803652  , 0.008036529
-0.168408245, -0.0182268638, -9.807927   , -0.00276718033, -0.00259366143, -2.157077E-05, 0.07604153  , -0.347445071, 0.645544    , 0.00155340752, -0.0167085677, 1.3851583   , 2.11        , 3           , 12          , 0.0442761555, 0
-0.142672986, -0.015741026, -9.792444   , 0.000704843667, -0.002037751, -0.0008131745, 0.0762437657, -0.347377658, 0.6456114   , 0.00156059267, -0.0167289339, 1.38515019  , 2.12        , 3           , 50          , 0           , 0
-0.137698829, -0.008862222, -9.809116   , -0.0006311531, -0.00205313321, 0.00105119916, 0.07604153  , -0.347377658, 0.6454766   , 0.00155410555, -0.0167494826, 1.38516068  , 2.13        , 3           , 11          , 0.00803652  , 0.008036529
-0.157931685, 0.0008120835, -9.769231   , 0.00123322092, -0.00070369686, -0.000271640951, 0.0757718757, -0.347445071, 0.645341754 , 0.00156648352, -0.0167565122, 1.38515782  , 2.14        , 3           , 12          , 0.0442761555, 0
-0.138629615, -0.021668084, -9.786154   , -0.00144838833, 0.001146089 , 0.0002679775, 0.0757718757, -0.347445071, 0.645341754 , 0.00155195524, -0.016745057, 1.38516068  , 2.15        , 3           , 50          , 0           , 0
-0.177922457, -0.0308735967, -9.800831   , -0.00412221672, 0.00139233773, 0.00159854046, 0.07610894  , -0.347377658, 0.6454766   , 0.00151046424, -0.0167311579, 1.3851769   , 2.16        , 3           , 11          , 0.00803652  , 0.008036529
-0.167071208, -0.0278924331, -9.784022   , 0.00149291835, 0.000897866033, -0.000262285583, 0.07604153  , -0.347310245, 0.6456114   , 0.00152543641, -0.0167221744, 1.385174    , 2.17        , 3           , 12          , 0.0442761555, 0
-0.150358975, -0.0248967391, -9.771728   , -0.0006274212, -0.002852032, 0.0007800949, 0.07610894  , -0.347242832, 0.645341754 , 0.00151903229, -0.0167507082, 1.38518167  , 2.18        , 3           , 50          , 0           , 0
-0.135933235, -0.02437962 , -9.786626   , 0.00203634985, -0.000965970859, -0.000271907775, 0.07610894  , -0.347242832, 0.645341754 , 0.00153944211, -0.0167603642, 1.3851788   , 2.19        , 3           , 11          , 0.00803652  , 0.008036529
-0.169244856, -0.00205470063, -9.800075   , 0.000220846981, -0.00142133958, 0.0021208846, 0.0759741142, -0.347445071, 0.645274341 , 0.001618971 , -0.0166285057, 1.38519883  , 2.2         , 3           , 12          , 0.0451245643, 0
-0.172413111, -0.005678842, -9.796495   , -0.0008515952, -0.0008800786, -0.00107733312, 0.07604153  , -0.347445071, 0.6454766   , 0.00161063357, -0.0166372862, 1.38518834  , 2.21        , 3           , 50          , 0           , 0
-0.145359531, -0.007982889, -9.80279    , 0.000746060745, 0.000457557617, -9.056821E-07, 0.0762437657, -0.347377658, 0.6454766   , 0.00161809393, -0.0166327115, 1.38518834  , 2.22        , 3           , 11          , 0.007953446 , 0.007953458
-0.145821363, -0.0120824873, -9.797398   , 0.000216038461, -0.000602927234, -0.002140732, 0.0762437657, -0.347377658, 0.6454766   , 0.00162061059, -0.0166387036, 1.38516641  , 2.23        , 3           , 12          , 0.0451245643, 0
-0.1662309  , -0.0412940569, -9.799997   , 0.001284242 , -0.000336106634, -0.0008044549, 0.07610894  , -0.347377658, 0.645409167 , 0.00163358659, -0.01664205 , 1.38515878  , 2.24        , 3           , 50          , 0           , 0
-0.1588991  , -0.0139535554, -9.782961   , 0.00313027319, 0.005002084 , 0.0005613793, 0.0759741142, -0.347512484, 0.645544    , 0.00166479521, -0.0165920444, 1.3851645   , 2.25        , 3           , 11          , 0.007953446 , 0.007953458
-0.1597727  , -0.00675840676, -9.780176   , 0.004220805 , 0.000476659916, 4.400019E-06, 0.07604153  , -0.347377658, 0.645409167 , 0.001707002 , -0.0165872741, 1.3851645   , 2.26        , 3           , 12          , 0.0451245643, 0
-0.167969435, -0.02137722 , -9.808862   , -0.00138870149, -0.000349652866, -0.001075167, 0.07604153  , -0.347377658, 0.645409167 , 0.0016932938, -0.0165907536, 1.38515353  , 2.27        , 3           , 50          , 0           , 0
-0.169828385, -0.0390591063, -9.795911   , 0.00102726475, -0.00247447751, -1.690087E-05, 0.07631118  , -0.347377658, 0.6451395   , 0.00170357071, -0.0166154951, 1.385153    , 2.28        , 3           , 11          , 0.007953446 , 0.007953458
-0.139499843, -0.010295311, -9.798269   , 0.00315563823, -0.000332707947, 0.000798185647, 0.07604153  , -0.347310245, 0.645341754 , 0.00173499587, -0.01661884 , 1.38516116  , 2.29        , 3           , 12          , 0.0451245643, 0
-0.144077823, -0.0254983734, -9.812012   , 0.000768588448, -0.0008236245, -0.0005419784, 0.07604153  , -0.347310245, 0.6454766   , 0.00176792592, -0.0165501535, 1.38515544  , 2.3         , 3           , 50          , 0           , 0
-0.157604128, -0.024117291, -9.809316   , -0.0008493725, 0.00210680277, -0.001861177, 0.07604153  , -0.347310245, 0.6454766   , 0.00175973971, -0.0165290516, 1.38513684  , 2.31        , 3           , 11          , 0.007865548 , 0.007865563
-0.148959428, -0.009467438, -9.784703   , -3.865271E-05, 0.000244435563, -0.00187039119, 0.07610894  , -0.347445071, 0.6450047   , 0.00175966206, -0.0165265761, 1.38511777  , 2.32        , 3           , 12          , 0.04599418  , 0
-0.17019628 , -0.0146460682, -9.803821   , 0.00237117778, -0.0005504216, -4.77710273E-06, 0.07583929  , -0.347310245, 0.645341754 , 0.00178337446, -0.0165320784, 1.38511777  , 2.33        , 3           , 50          , 0           , 0
-0.181939542, -0.0163258482, -9.81382751 , 0.00130044413, -0.000283877627, -0.00133807177, 0.07610894  , -0.347377658, 0.6452069   , 0.00179660076, -0.0165348928, 1.38510442  , 2.34        , 3           , 11          , 0.007865548 , 0.007865563
-0.135878026, -0.008570777, -9.790093   , -4.07396E-05, 0.0007697649, -9.942305E-07, 0.07604153  , -0.347445071, 0.645274341 , 0.00179619307, -0.0165271945, 1.38510442  , 2.35        , 3           , 12          , 0.04599418  , 0
-0.151242822, -0.0171271283, -9.78433    , 0.0007625795, 0.000504047261, 0.0007986309, 0.07604153  , -0.347445071, 0.645274341 , 0.00180368556, -0.01652217 , 1.38511252  , 2.36        , 3           , 50          , 0           , 0
-0.171997935, -0.01466844 , -9.800205   , -0.00297458237, -0.0005798098, -1.29397222E-05, 0.07610894  , -0.347175419, 0.645274341 , 0.00177394412, -0.01652797 , 1.385112    , 2.37        , 3           , 11          , 0.007865548 , 0.007865563
-0.153457925, -0.00256065279, -9.800492   , -0.00164092588, -3.45067529E-05, -0.00107443915, 0.0759741142, -0.347175419, 0.645409167 , 0.00175771187, -0.0165282935, 1.38510156  , 2.38        , 3           , 12          , 0.04599418  , 0
-0.131850719, -0.01807555 , -9.78746    , -0.00270615588, -0.0008427269, -0.0005472841, 0.0759741142, -0.347377658, 0.6451395   , 0.00173074019, -0.01653671 , 1.38509583  , 2.39        , 3           , 50          , 0           , 0
-0.139062181, -0.012965735, -9.802822   , 0.0002047139, 0.001112407 , 1.13685383E-06, 0.0759741142, -0.347377658, 0.6451395   , 0.00169984775, -0.0164063741, 1.38509631  , 2.4         , 3           , 11          , 0.00777417142, 0.00777419563
-0.1629332  , -0.00718660234, -9.781546   , -0.000862034562, 0.0005754603, -0.000536739361, 0.07617635  , -0.347445071, 0.645274341 , 0.00169131614, -0.0164006148, 1.38509107  , 2.41        , 3           , 12          , 0.0468835123, 0
-0.161152542, -0.0139669795, -9.78025    , -0.0005870294, -0.00102545938, -1.2017219E-05, 0.07610894  , -0.347445071, 0.6452069   , 0.001685449 , -0.016410863, 1.38509107  , 2.42        , 3           , 50          , 0           , 0
-0.150789022, -0.01294392 , -9.800134   , -0.00138756493, -0.00129769742, 0.000251897844, 0.07617635  , -0.347445071, 0.6450721   , 0.001671533 , -0.0164238457, 1.38509345  , 2.43        , 3           , 11          , 0.00777417142, 0.00777419563
-0.156181946, -0.0122002177, -9.777956   , -0.0016625704, 0.0003032221, -0.0002728243, 0.07617635  , -0.347445071, 0.6450721   , 0.00165495207, -0.01642081 , 1.38509059  , 2.44        , 3           , 12          , 0.0468835123, 0
-0.160700664, -0.0125724766, -9.785668   , -0.00326996669, 0.00109215674, 0.0002624618, 0.07604153  , -0.347512484, 0.6452069   , 0.00162220921, -0.01640989 , 1.385093    , 2.45        , 3           , 50          , 0           , 0
-0.1390611  , -0.01672159 , -9.784296   , -0.00193232507, 0.0008339692, -3.619396E-06, 0.07631118  , -0.347445071, 0.6452069   , 0.00160288613, -0.01640155 , 1.385093    , 2.46        , 3           , 11          , 0.00777417142, 0.00777419563
-0.156191036, -0.0102332179, -9.79831    , 0.000467131642, 0.0021771614, 0.000807401666, 0.07610894  , -0.347445071, 0.6450721   , 0.001607425 , -0.01637979 , 1.38510108  , 2.47        , 3           , 12          , 0.0468835123, 0
-0.1616801  , -0.0281489324, -9.810723   , -4.37242852E-05, -0.00288700056, -0.000554900733, 0.07610894  , -0.347445071, 0.6450721   , 0.00160707906, -0.0164086539, 1.38509583  , 2.48        , 3           , 50          , 0           , 0
-0.1543727  , -0.00617137225, -9.799624   , -0.00272274 , -0.00157172675, 0.000248365977, 0.0759067   , -0.347242832, 0.6450047   , 0.0015798118, -0.0164243728, 1.38509822  , 2.49        , 3           , 11          , 0.00777417142, 0.00777419563
-0.149004012, -0.0188334975, -9.797471   , -0.00113761611, -0.000179446521, 0.00105829118, 0.0759741142, -0.347377658, 0.6452069   , 0.00154752517, -0.0163372774, 1.38510919  , 2.5         , 3           , 12          , 0.04779116  , 0
-0.161155   , -0.0101965778, -9.800587   , -0.00033600544, -0.000170446845, -7.00699457E-06, 0.07617635  , -0.347377658, 0.6450721   , 0.00154416554, -0.0163389817, 1.38510919  , 2.51        , 3           , 50          , 0           , 0
-0.1535245  , -0.0173151027, -9.8160305  , -0.0022055665, -0.000450858555, 0.000788536738, 0.07617635  , -0.347377658, 0.6450721   , 0.0015219812, -0.0163435042, 1.38511682  , 2.52        , 3           , 11          , 0.00767983729, 0.00767985173
-0.155354664, -0.0287432484, -9.795773   , -0.00193467317, -0.00124599214, -1.54206209E-05, 0.0759741142, -0.347377658, 0.6451395   , 0.0015026374, -0.0163559671, 1.38511682  , 2.53        , 3           , 12          , 0.04779116  , 0
-0.13419649 , -0.0367883742, -9.814361   , -0.004342732, -0.000727000355, 0.000250519282, 0.0759741142, -0.347377658, 0.645409167 , 0.00145916862, -0.0163632371, 1.3851192   , 2.54        , 3           , 50          , 0           , 0
-0.1526446  , -0.0227032136, -9.81925    , 0.000729477964, 0.0006331817, 0.0005323604, 0.07617635  , -0.347310245, 0.6450047   , 0.00146637566, -0.0163569134, 1.38512444  , 2.55        , 3           , 11          , 0.00767983729, 0.00767985173
-0.159802616, -0.012532209, -9.791098   , 0.0009936024, 0.00117949431, -0.00213055545, 0.07617635  , -0.347310245, 0.6450047   , 0.00147666  , -0.0163450856, 1.385103    , 2.56        , 3           , 12          , 0.04779116  , 0
-0.16844891 , -0.02810194 , -9.813456   , 0.000728149549, 0.000901011867, 0.000267221039, 0.0759741142, -0.347310245, 0.6450047   , 0.00148389756, -0.0163360778, 1.38510585  , 2.57        , 3           , 50          , 0           , 0
-0.162546143, -0.0149473082, -9.82599    , -0.00141926354, 0.00276062381, -0.0007921281, 0.07604153  , -0.347242832, 0.6449373   , 0.001469833 , -0.0163084641, 1.38509774  , 2.58        , 3           , 11          , 0.00767983729, 0.00767985173
-0.149029687, -0.0213749949, -9.817869   , -0.00247664959, 0.0003477188, 0.000792602252, 0.0759741142, -0.3475799  , 0.645409167 , 0.001444937 , -0.016304994, 1.38510585  , 2.59        , 3           , 12          , 0.04779116  , 0
-0.162099451, -0.020988185, -9.803864   , -1.69317937E-05, -0.00145903626, -0.00161467877, 0.0759741142, -0.3475799  , 0.645409167 , 0.00152410439, -0.0162566639, 1.38508821  , 2.6         , 3           , 50          , 0           , 0
-0.1900421  , -0.01834989 , -9.78263    , 0.00103975926, 0.00121022016, -0.000798242167, 0.0762437657, -0.347377658, 0.644869864 , 0.0015346302, -0.01624455 , 1.38508058  , 2.61        , 3           , 11          , 0.00758410944, 0.00758410944
-0.146327168, -0.0307038166, -9.78037548 , 0.00290451315, 0.00255276938, -0.0005212986, 0.0759067   , -0.347175419, 0.6451395   , 0.00156375871, -0.0162190124, 1.38507485  , 2.62        , 3           , 12          , 0.0487158038, 0
-0.1472395  , -0.03246751 , -9.784923   , 0.00104488293, 0.000142343284, -0.0005375764, 0.0759741142, -0.347242832, 0.6450721   , 0.00157429336, -0.01621758 , 1.38507009  , 2.63        , 3           , 50          , 0           , 0
-0.149004787, -0.0221021473, -9.783468   , -0.00455538742, -0.00255763228, -2.779795E-05, 0.07631118  , -0.347377658, 0.6450047   , 0.00152874494, -0.0162431542, 1.38506961  , 2.64        , 3           , 11          , 0.00758410944, 0.00758410944
-0.157962337, -0.00120950118, -9.798227   , -0.00135419378, -0.001207736, 0.000251186342, 0.07631118  , -0.347377658, 0.6450047   , 0.00151516183, -0.0162552372, 1.385072    , 2.65        , 3           , 12          , 0.0487158038, 0
-0.150796592, -0.0170779116, -9.790668   , -0.0005572634, -0.000138894771, 0.000791636761, 0.0762437657, -0.347310245, 0.6450721   , 0.00150946062, -0.0162566379, 1.3850801   , 2.66        , 3           , 50          , 0           , 0
-0.152639329, -0.028375173, -9.786707   , 0.00130496034, 0.00173701881, 0.00107156276, 0.0759067   , -0.347175419, 0.645274341 , 0.00152233581, -0.0162392873, 1.38509059  , 2.67        , 3           , 11          , 0.00758410944, 0.00758410944
-0.134625286, -0.03327442 , -9.802556   , 0.002914824 , 0.000415867835, 0.000266663672, 0.07610894  , -0.347445071, 0.6449373   , 0.00155144092, -0.0162351336, 1.38509345  , 2.68        , 3           , 12          , 0.0487158038, 0
-0.141833186, -0.03943582 , -9.761888   , 0.00104785641, -0.000399056269, 0.00132585561, 0.07610894  , -0.347445071, 0.6449373   , 0.00156170467, -0.01623914 , 1.38510633  , 2.69        , 3           , 50          , 0           , 0
-0.1774331  , -0.0228472184, -9.78988552 , -0.000763562857, 0.00285857334, 0.000806242 , 0.07610894  , -0.347242832, 0.6450721   , 0.00168791437, -0.0160935447, 1.38511252  , 2.7         , 3           , 11          , 0.007487608 , 0.007487594
-0.15718545 , -0.03501572 , -9.799913   , 0.00138081342, 0.00154150883, -0.000264471542, 0.07610894  , -0.347310245, 0.645341754 , 0.00170176453, -0.0160781238, 1.38511014  , 2.71        , 3           , 12          , 0.0496562   , 0
-0.158969328, -0.027733596, -9.807544   , 0.00326479715, -0.00112076686, 0.00105662644, 0.07617635  , -0.347175419, 0.644869864 , 0.00173424312, -0.0160893518, 1.38512063  , 2.72        , 3           , 50          , 0           , 0
-0.184556544, 0.00709207542, -9.809077   , 0.00272705755, -0.000578862731, -0.00160751375, 0.07617635  , -0.347175419, 0.644869864 , 0.00176177383, -0.01609511 , 1.38510442  , 2.73        , 3           , 11          , 0.007487608 , 0.007487594
-0.154412568, -0.0183952264, -9.793406   , 0.00405021524, 0.00235051033, 0.00107723649, 0.0759741142, -0.347310245, 0.6449373   , 0.00180210243, -0.0160716269, 1.38511491  , 2.74        , 3           , 12          , 0.0496562   , 0
-0.1445352  , -0.0291762147, -9.802994   , 0.003515259 , 0.00235445867, -0.000523363531, 0.0762437657, -0.347310245, 0.6451395   , 0.00183733855, -0.0160480719, 1.38511014  , 2.75        , 3           , 50          , 0           , 0
-0.135433733, -0.009437798, -9.794628   , -0.00207621953, -0.00221114466, -0.0002906542, 0.0762437657, -0.347310245, 0.6449373   , 0.00181662338, -0.0160701759, 1.3851068   , 2.76        , 3           , 11          , 0.007487608 , 0.007487594
-0.134566128, -0.01797459 , -9.798785   , -0.00181753375, -0.000347491237, 0.000786714838, 0.0762437657, -0.347310245, 0.6449373   , 0.00179832138, -0.0160736684, 1.38511491  , 2.77        , 3           , 12          , 0.0496562   , 0
-0.169399858, -0.04491093 , -9.797324   , -0.00341265928, -0.00221849186, -0.000292694836, 0.07617635  , -0.347242832, 0.6450047   , 0.00176424312, -0.0160958432, 1.38511157  , 2.78        , 3           , 50          , 0           , 0
-0.15395309 , -0.0166116785, -9.791123   , -0.00235470338, 0.000184082339, 0.0005222504, 0.07610894  , -0.347108   , 0.6451395   , 0.00174061186, -0.0160940122, 1.38511682  , 2.79        , 3           , 11          , 0.007487608 , 0.007487594
-0.16294089 , -0.00148919038, -9.817258   , 0.000617108832, 0.00183248124, -0.000264939968, 0.07631118  , -0.347377658, 0.6450047   , 0.00181988627, -0.0160225052, 1.385113    , 2.8         , 3           , 12          , 0.0506111942, 0
-0.154851735, -0.015241228, -9.792923   , -0.0007114874, 0.000220449292, 0.000790594553, 0.07631118  , -0.347377658, 0.6450047   , 0.00181264512, -0.0160203166, 1.38512063  , 2.81        , 3           , 50          , 0           , 0
-0.182829455, -0.0169187672, -9.795726   , -0.00258029 , -0.0003174618, -0.0005483979, 0.07617635  , -0.347445071, 0.6450721   , 0.00178692956, -0.01602348 , 1.38511539  , 2.82        , 3           , 11          , 0.0073907543, 0.007390753
-0.176434934, 0.00610927446, -9.802729   , 0.002503496 , -0.0013608631, 0.0005199143, 0.0759067   , -0.347310245, 0.6450721   , 0.00181188108, -0.0160370991, 1.38512063  , 2.83        , 3           , 12          , 0.0506111942, 0
-0.155190319, 0.0163563266, -9.797143   , -0.00150215568, -0.00218065549, -2.39425135E-05, 0.0762437657, -0.347512484, 0.644869864 , 0.00179686351, -0.0160589051, 1.38512015  , 2.84        , 3           , 50          , 0           , 0
-0.15173389 , -0.0232628565, -9.806123   , -0.00176267477, -0.00352357142, 0.00183460768, 0.0762437657, -0.347512484, 0.644869864 , 0.00177894311, -0.0160941724, 1.38513875  , 2.85        , 3           , 11          , 0.0073907543, 0.007390753
-0.164891824, -0.0397465937, -9.824881   , -0.00257611461, -0.00112439552, 0.0010469124, 0.0759067   , -0.347512484, 0.6449373   , 0.001753013 , -0.0161054358, 1.38514924  , 2.86        , 3           , 12          , 0.0506111942, 0
-0.169284642, -0.0147475805, -9.791596   , -0.0009879477, 0.00209149485, -0.000532528153, 0.0759741142, -0.347242832, 0.6451395   , 0.00174321968, -0.0160845127, 1.38514352  , 2.87        , 3           , 50          , 0           , 0
-0.1657054  , -0.0181969386, -9.8129     , 0.002495842 , 0.000240377936, 0.000262230984, 0.0759741142, -0.347377658, 0.6450721   , 0.00176813547, -0.0160821117, 1.38514638  , 2.88        , 3           , 11          , 0.0073907543, 0.007390753
-0.140873432, -0.01569684 , -9.798779   , 0.00195215689, 0.002108806 , -0.000794669264, 0.0759741142, -0.347377658, 0.6450721   , 0.00178778463, -0.01606101 , 1.38513827  , 2.89        , 3           , 12          , 0.0506111942, 0
-0.150313929, -0.00336503214, -9.81407452 , 8.689232E-05, -0.0008521489, 0.0007860027, 0.0762437657, -0.347512484, 0.644869864 , 0.00177213619, -0.0160892587, 1.38514638  , 2.9         , 3           , 50          , 0           , 0
-0.167974144, -0.0260093287, -9.793514   , 0.00274047931, 0.00316851842, -0.000520701, 0.0762437657, -0.347242832, 0.6449373   , 0.00179962313, -0.0160575621, 1.38514113  , 2.91        , 3           , 11          , 0.007294777 , 0.007294781
-0.150816217, -0.0220227242, -9.792526   , 0.00115085719, 0.000222753632, 0.0002603389, 0.07604153  , -0.347108   , 0.6450721   , 0.00181108993, -0.0160553381, 1.38514352  , 2.92        , 3           , 12          , 0.0515796952, 0
-0.149417162, -0.013141633, -9.776138   , 0.000876990554, 0.00155928684, -0.0007991358, 0.07604153  , -0.347108   , 0.6450721   , 0.00181998825, -0.016039731, 1.38513589  , 2.93        , 3           , 50          , 0           , 0
-0.180090845, -0.00883534551, -9.792924   , 0.0008862262, -0.000314376026, 0.0007902095, 0.07610894  , -0.347445071, 0.6449373   , 0.0018287244, -0.0160428882, 1.38514352  , 2.94        , 3           , 11          , 0.007294777 , 0.007294781
-0.186925   , -0.01887434 , -9.831069   , 0.00167645107, 0.0020947638, -0.000261667679, 0.07604153  , -0.347310245, 0.6450721   , 0.00184553128, -0.0160219371, 1.38514113  , 2.95        , 3           , 12          , 0.0515796952, 0
-0.153938621, -0.008336419, -9.810964   , 7.784671E-05, 0.0010180705, -3.45068133E-06, 0.07617635  , -0.347512484, 0.6450721   , 0.0018463108, -0.0160117578, 1.38514113  , 2.96        , 3           , 50          , 0           , 0
-0.158912092, -0.01522249 , -9.793386   , 0.003009981 , 0.00264236261, -0.00185642845, 0.07604153  , -0.347310245, 0.644869864 , 0.00187670579, -0.015985297, 1.38512254  , 2.97        , 3           , 11          , 0.007294777 , 0.007294781
-0.162616163, -0.03902778 , -9.803136   , 0.001141495 , 0.00209871214, -0.00186226773, 0.07604153  , -0.347310245, 0.644869864 , 0.00188841869, -0.0159642771, 1.385104    , 2.98        , 3           , 12          , 0.0515796952, 0
-0.164864883, -0.0311331749, -9.830682   , 0.0006096392, 0.0015589653, -0.00106617447, 0.07583929  , -0.347377658, 0.6450047   , 0.00189468486, -0.0159486663, 1.385093    , 2.99        , 3           , 50          , 0           , 0
-0.151748985, -0.0282549281, -9.802096   , -0.000435584137, -0.0008929968, 0.000518426648, 0.07617635  , -0.347512484, 0.6451395   , 0.001914388 , -0.0160350874, 1.38509822  , 3           , 3           , 11          , 0.00720019545, 0.007200204
-0.155679643, 0.00832995  , -9.808088   , -0.000448045059, 0.00177038182, 0.00133323064, 0.0759067   , -0.3475799  , 0.644869864 , 0.00190969289, -0.016017409, 1.38511157  , 3.01        , 3           , 12          , 0.05256068  , 0
-0.1557041  , 0.00483948551, -9.822611   , -0.00123536121, -0.00142273423, -0.0013521947, 0.0759067   , -0.3475799  , 0.644869864 , 0.00189755717, -0.01603161 , 1.38509774  , 3.02        , 3           , 50          , 0           , 0
-0.166999429, -0.00570260547, -9.79603    , 0.00142081943, 0.00206342014, -0.00239525014, 0.0759741142, -0.347445071, 0.6450047   , 0.00191214867, -0.01601093 , 1.3850739   , 3.03        , 3           , 11          , 0.00720019545, 0.007200204
-0.147587851, -0.006385587, -9.776067   , 0.000355969183, 0.00124831311, -0.000268311182, 0.07610894  , -0.347175419, 0.6451395   , 0.00191575172, -0.0159984417, 1.385071    , 3.04        , 3           , 12          , 0.05256068  , 0
-0.149438187, -0.0180719029, -9.779808   , 0.0006205371, 0.00178659055, -0.00106481253, 0.07604153  , -0.347377658, 0.644869864 , 0.00192212674, -0.0159805547, 1.38506055  , 3.05        , 3           , 50          , 0           , 0
-0.1526491  , -0.0282733757, -9.799383   , -0.0009755371, 0.000176532718, -0.0008095779, 0.07604153  , -0.347377658, 0.644869864 , 0.001912501 , -0.0159787778, 1.38505244  , 3.06        , 3           , 11          , 0.00720019545, 0.007200204
-0.147727266, -0.037701536, -9.806706   , 0.0008907986, 0.00124666037, 0.000799027563, 0.07610894  , -0.347108   , 0.644869864 , 0.00192128087, -0.0159663241, 1.38506055  , 3.07        , 3           , 12          , 0.05256068  , 0
-0.16034326 , -0.0312590152, -9.817089   , 0.000633251329, -0.000881379761, -0.000813094, 0.0759067   , -0.347377658, 0.6450721   , 0.00192774541, -0.0159751233, 1.385052    , 3.08        , 3           , 50          , 0           , 0
-0.156754777, -0.0376134366, -9.81352    , -0.00230166642, -0.00196771557, -2.36563646E-05, 0.07617635  , -0.347310245, 0.6450047   , 0.00190473231, -0.0159947984, 1.385052    , 3.09        , 3           , 11          , 0.00720019545, 0.007200204
-0.16978018 , -0.0213050712, -9.817016   , -0.0022839366, -9.273026E-05, -0.0008135844, 0.07617635  , -0.347310245, 0.6450047   , 0.00193693687, -0.0159859285, 1.38504243  , 3.1         , 3           , 12          , 0.05355319  , 0
-0.15664275 , -0.008820817, -9.805541   , -0.00282838 , 0.00203319732, 0.000264051545, 0.0759067   , -0.347242832, 0.644869864 , 0.00190860929, -0.0159656033, 1.38504529  , 3.11        , 3           , 50          , 0           , 0
-0.148911655, 0.006886782 , -9.799935   , -0.00015809352, 0.00258240383, 4.48460924E-06, 0.07570446  , -0.347242832, 0.6451395   , 0.00190702779, -0.0159397759, 1.38504529  , 3.12        , 3           , 11          , 0.007106742 , 0.00710675446
-0.173271656, 0.0102533363, -9.814905   , 0.000914790551, 0.00178938243, -0.000264987146, 0.07617635  , -0.347310245, 0.644802451 , 0.00191621715, -0.0159218777, 1.38504243  , 3.13        , 3           , 12          , 0.05355319  , 0
-0.167886391, 0.00209971517, -9.812708   , 0.00010988969, 0.00232752156, -0.00239627436, 0.07617635  , -0.347310245, 0.644802451 , 0.00191769633, -0.01589856 , 1.38501859  , 3.14        , 3           , 50          , 0           , 0
-0.160783023, -0.0304392539, -9.806669   , -0.00362524716, 0.000963208033, -9.768351E-06, 0.07617635  , -0.347377658, 0.644869864 , 0.00188144564, -0.0158889256, 1.38501859  , 3.15        , 3           , 11          , 0.007106742 , 0.00710675446
-0.147680521, -0.0250813551, -9.806131   , -0.000677931763, -0.000612686854, -0.00188064063, 0.0759741142, -0.347310245, 0.6450721   , 0.0018749662, -0.0158950165, 1.38499951  , 3.16        , 3           , 12          , 0.05355319  , 0
-0.140398681, -0.006114332, -9.813171   , 0.00172702875, -0.0003442586, 0.000790830061, 0.0759067   , -0.347175419, 0.6450047   , 0.0018921108, -0.0158984754, 1.38500762  , 3.17        , 3           , 50          , 0           , 0
-0.154856965, -0.0151866982, -9.799713   , 0.000667300657, -0.00247096759, -0.00215566927, 0.0759067   , -0.347175419, 0.6450047   , 0.00189912645, -0.0159231424, 1.38498616  , 3.18        , 3           , 11          , 0.007106742 , 0.00710675446
-0.157562092, -0.0123842694, -9.810559   , -0.004944039, -0.00277654245, -0.0002993166, 0.07610894  , -0.347377658, 0.6446677   , 0.001849735 , -0.0159509033, 1.3849833   , 3.19        , 3           , 12          , 0.05355319  , 0
-0.177457452, -0.0268067177, -9.802148   , -0.0009787496, 0.00125240977, -0.00107035367, 0.07604153  , -0.347310245, 0.6452069   , 0.00178745924, -0.0159315262, 1.38497281  , 3.2         , 3           , 50          , 0           , 0
-0.1851638  , -0.0352825448, -9.809946   , 0.004642333 , -0.000324861117, 0.0007956842, 0.07604153  , -0.347377658, 0.6451395   , 0.001833756 , -0.0159347858, 1.38498092  , 3.21        , 3           , 11          , 0.007015348 , 0.007015357
-0.1683897  , -0.009526193, -9.8245945  , 0.00330412085, -5.6342993E-05, -0.00133791042, 0.07604153  , -0.347377658, 0.6451395   , 0.00186701142, -0.0159353241, 1.38496757  , 3.22        , 3           , 12          , 0.0545563437, 0
-0.168764085, 0.006996991 , -9.804512   , -0.00124844117, 0.00178200926, -0.000534518156, 0.0759741142, -0.347175419, 0.644802451 , 0.00185461249, -0.015917493, 1.38496232  , 3.23        , 3           , 50          , 0           , 0
-0.157992855, -0.0111900028, -9.79062748 , -0.000697418931, -0.00168192119, -0.0005530876, 0.0759067   , -0.347175419, 0.6450047   , 0.00184772711, -0.0159343053, 1.3849566   , 3.24        , 3           , 11          , 0.007015348 , 0.007015357
-0.161085144, 0.007332051 , -9.793624   , -0.0001703068, -8.11846548E-05, -1.00628095E-05, 0.07604153  , -0.347377658, 0.6450721   , 0.001846028 , -0.0159351155, 1.3849566   , 3.25        , 3           , 12          , 0.0545563437, 0
-0.1614725  , 0.02586222  , -9.798877   , 0.00170051935, -6.74551848E-05, -0.0008070978, 0.0759741142, -0.347445071, 0.644802451 , 0.0018631604, -0.015935773, 1.384948    , 3.26        , 3           , 50          , 0           , 0
-0.174208924, -0.00154903519, -9.804609   , 0.00197014748, -0.0005959067, -0.00160956406, 0.0759741142, -0.347445071, 0.644802451 , 0.00188311958, -0.0159417037, 1.38493228  , 3.27        , 3           , 11          , 0.007015348 , 0.007015357
-0.162981361, -0.016047284, -9.8011     , 0.000644208165, -0.00274359877, -2.375053E-05, 0.0759741142, -0.347377658, 0.6449373   , 0.00188956584, -0.0159691367, 1.3849318   , 3.28        , 3           , 12          , 0.0545563437, 0
-0.168837443, -0.0142402444, -9.798834   , -0.0001613878, -0.001949108, 0.000246129377, 0.07617635  , -0.347377658, 0.6450047   , 0.00188791309, -0.015988633, 1.38493419  , 3.29        , 3           , 50          , 0           , 0
-0.166564971, -0.0116162412, -9.789747   , -0.0012919564, -0.001725787, -0.00135277375, 0.07583929  , -0.347310245, 0.6446677   , 0.00174461142, -0.0161028355, 1.38492274  , 3.3         , 3           , 11          , 0.006927529 , 0.00692752237
-0.161627918, -0.016521344, -9.798839   , 0.00483213831, 0.00336578884, 0.0008179914, 0.07583929  , -0.347310245, 0.6446677   , 0.00179280038, -0.0160691887, 1.38493085  , 3.31        , 3           , 12          , 0.0555692948, 0
-0.160226181, -0.007200308, -9.781087   , 0.00109617773, 0.00201639743, -0.000261701061, 0.0759741142, -0.347175419, 0.6446677   , 0.00180380384, -0.0160490219, 1.384928    , 3.32        , 3           , 50          , 0           , 0
-0.185986087, -0.0155144772, -9.800701   , 0.00110737362, -0.000380299083, -0.00107501389, 0.07631118  , -0.347310245, 0.644869864 , 0.00181504979, -0.0160528049, 1.3849175   , 3.33        , 3           , 11          , 0.006927529 , 0.00692752237
-0.171137571, -0.0292153452, -9.785856   , 0.0008455893, -0.00145653239, 0.0007850276, 0.07651342  , -0.347377658, 0.6449373   , 0.00182338047, -0.0160673857, 1.38492513  , 3.34        , 3           , 12          , 0.0555692948, 0
-0.144969374, -0.02841461 , -9.785331   , 0.00056078  , 0.00227210578, 0.00160538824, 0.07651342  , -0.347377658, 0.6449373   , 0.00182872952, -0.0160446949, 1.38494134  , 3.35        , 3           , 50          , 0           , 0
-0.161689073, -0.0341408662, -9.794483   , 0.002967004 , 0.002030127 , -0.00105873612, 0.0762437657, -0.347108   , 0.644869864 , 0.00185856852, -0.0160243735, 1.38493085  , 3.36        , 3           , 11          , 0.006927529 , 0.00692752237
-0.171582326, -0.0260031763, -9.792618   , -0.0007618707, -0.0006664501, 0.001053683 , 0.0759741142, -0.347377658, 0.6450047   , 0.001850782 , -0.0160310585, 1.38494134  , 3.37        , 3           , 12          , 0.0555692948, 0
-0.15168801 , -0.0115698315, -9.802386   , 0.00297358283, 0.000692124246, 3.30430339E-07, 0.07610894  , -0.347512484, 0.644802451 , 0.00188051711, -0.0160241369, 1.38494134  , 3.38        , 3           , 50          , 0           , 0
-0.165264755, -0.0237069875, -9.800729   , -0.0010383944, 0.00120574341, -0.000536070438, 0.07610894  , -0.347512484, 0.644802451 , 0.00187022053, -0.016012067, 1.38493562  , 3.39        , 3           , 11          , 0.006927529 , 0.00692752237
-0.158016652, -0.0235811  , -9.763584   , -0.00130486861, 0.00196380471, 0.00133440667, 0.0759741142, -0.347512484, 0.644869864 , 0.00186635635, -0.016065618, 1.384949    , 3.4         , 3           , 12          , 0.0565912724, 0
-0.161165148, -0.0119636245, -9.805131   , -0.0002360332, 0.00197542179, 2.8860668E-06, 0.0762437657, -0.347242832, 0.6450047   , 0.001863995 , -0.0160458647, 1.384949    , 3.41        , 3           , 50          , 0           , 0
-0.1625498  , -0.0177178457, -9.817868   , 0.000303919776, 0.0009058923, 0.00133089069, 0.07604153  , -0.347445071, 0.644802451 , 0.0018668198, -0.01603683 , 1.38496232  , 3.42        , 3           , 11          , 0.006839343 , 0.00683936244
-0.1679182  , -0.0102077592, -9.796076   , -0.00182628853, -0.000958864344, -0.00188238046, 0.07604153  , -0.347445071, 0.644802451 , 0.00184886076, -0.0160463862, 1.38494372  , 3.43        , 3           , 12          , 0.0565912724, 0
-0.169299841, -0.0155256744, -9.806997   , -0.00370337674, 0.000359669677, -0.000811258855, 0.07604153  , -0.347377658, 0.644869864 , 0.00181195571, -0.0160427727, 1.38493562  , 3.44        , 3           , 50          , 0           , 0
-0.155670464, 0.00589392334, -9.785475   , -0.00128469046, -0.002301963, 0.00104391668, 0.07583929  , -0.347310245, 0.6452069   , 0.0017989414, -0.0160658117, 1.38494611  , 3.45        , 3           , 11          , 0.006839343 , 0.00683936244
-0.162955523, -0.0125713591, -9.784769   , 0.0008405194, 0.00038464964, -0.00080432056, 0.0759741142, -0.347445071, 0.644869864 , 0.00180747465, -0.0160619486, 1.384938    , 3.46        , 3           , 12          , 0.0565912724, 0
-0.159307718, -0.002691524, -9.781493   , 0.000307271781, 0.00011388072, -0.0005399975, 0.0759741142, -0.347445071, 0.644869864 , 0.001810634 , -0.0160608  , 1.38493228  , 3.47        , 3           , 50          , 0           , 0
-0.155278847, -0.009403946, -9.789699   , -0.00289727421, -0.0004440039, 0.00105190638, 0.07610894  , -0.347445071, 0.6450047   , 0.00178149343, -0.0160652623, 1.38494277  , 3.48        , 3           , 11          , 0.006839343 , 0.00683936244
-0.148137465, -0.0254869033, -9.81157    , 0.00164269994, 0.000383318635, 0.000530056946, 0.07604153  , -0.347310245, 0.644869864 , 0.001797835 , -0.0160614345, 1.384948    , 3.49        , 3           , 12          , 0.0565912724, 0
-0.1548813  , -0.021018669, -9.803392   , 0.000432299159, -0.0021629103, -1.889886E-05, 0.07610894  , -0.347445071, 0.6450721   , 0.00175690418, -0.0161026418, 1.384948    , 3.5         , 3           , 50          , 0           , 0
-0.167486042, -0.0151615143, -9.7970295  , 0.00070094713, -0.002429845, 0.000379963953, 0.07610894  , -0.347445071, 0.6450721   , 0.00176385464, -0.0161269438, 1.38495183  , 3.51        , 3           , 11          , 0.00675322  , 0.006753248
-0.173896238, -0.04177091 , -9.79323    , 0.00269988272, -0.00121818064, 0.000256420084, 0.07617635  , -0.347512484, 0.644802451 , 0.00179081247, -0.0161391348, 1.38495469  , 3.52        , 3           , 12          , 0.0576215424, 0
-0.167571023, -0.0320647955, -9.825717   , 0.00335681182, 0.00118391134, 0.0006708073, 0.07631118  , -0.347310245, 0.6451395   , 0.00182427221, -0.0161273032, 1.38496137  , 3.53        , 3           , 50          , 0           , 0
-0.164751947, -0.008903308, -9.791527   , 0.00335406  , 0.0017212932, -0.000259417546, 0.0757718757, -0.347310245, 0.6449373   , 0.00185785408, -0.0161100868, 1.38495851  , 3.54        , 3           , 11          , 0.00675322  , 0.006753248
-0.166577443, -0.0138268676, -9.795202   , 0.0005562968, -0.000159189571, -0.0006740874, 0.07617635  , -0.347512484, 0.644869864 , 0.001863525 , -0.0161116663, 1.38495183  , 3.55        , 3           , 12          , 0.0576215424, 0
-0.173730507, 0.00144164078, -9.784205   , 0.0005599655, -0.0009569405, -0.00121182227, 0.07617635  , -0.347512484, 0.644869864 , 0.00186932087, -0.01612121 , 1.38493943  , 3.56        , 3           , 50          , 0           , 0
-0.158372357, 0.008194597 , -9.789987   , 0.00295951683, 0.00038453  , -8.551069E-07, 0.07610894  , -0.347242832, 0.6450047   , 0.001898916 , -0.016117366, 1.38493991  , 3.57        , 3           , 11          , 0.00675322  , 0.006753248
-0.166130185, -0.0119160749, -9.808764   , 0.00295300223, 0.00184324745, 0.00187376107, 0.07617635  , -0.347377658, 0.6450721   , 0.00192814285, -0.0160989668, 1.38495851  , 3.58        , 3           , 12          , 0.0576215424, 0
-0.16527    , -0.0199074987, -9.824687   , 0.00122005807, 0.0009003085, 0.00186588883, 0.07610894  , -0.347310245, 0.644869864 , 0.00194004353, -0.0160900038, 1.3849771   , 3.59        , 3           , 50          , 0           , 0
-0.181517586, -0.0207051523, -9.830169   , -7.60146577E-06, 0.000331837829, 0.00132829417, 0.07610894  , -0.347310245, 0.644869864 , 0.00187459053, -0.0161602944, 1.38499093  , 3.6         , 3           , 11          , 0.006669309 , 0.006669323
-0.1589005  , -0.010194065, -9.801938   , 0.00052653125, 0.00034281172, -0.000537304, 0.07583929  , -0.347445071, 0.6446677   , 0.00187994214, -0.01615685 , 1.38498569  , 3.61        , 3           , 12          , 0.0586594269, 0
-0.1553734  , -0.03650587 , -9.783625   , 0.00279579125, 0.0008915358, -0.001197429, 0.0762437657, -0.347310245, 0.6450721   , 0.00190809311, -0.0161479134, 1.38497376  , 3.62        , 3           , 50          , 0           , 0
-0.169304192, -0.0164164677, -9.808364   , 0.00105810293, 0.00100958638, 0.000133816953, 0.07610894  , -0.3475799  , 0.644802451 , 0.00191865186, -0.01613782 , 1.38497519  , 3.63        , 3           , 11          , 0.006669309 , 0.006669323
-0.13683261 , -0.0211294219, -9.797915   , -0.00027390942, 6.885161E-05, 0.000126557 , 0.07610894  , -0.3475799  , 0.644802451 , 0.00191589294, -0.0161371361, 1.38497663  , 3.64        , 3           , 12          , 0.0586594269, 0
-0.1457691  , -0.0009239316, -9.783252   , 0.00118722417, 0.00194543065, -0.000260705856, 0.07610894  , -0.347445071, 0.6450047   , 0.001927807 , -0.0161176752, 1.38497376  , 3.65        , 3           , 50          , 0           , 0
-0.1448878  , -0.0100715347, -9.767493   , 0.000387953565, 0.00140651013, 1.71794454E-06, 0.0759741142, -0.347445071, 0.6450047   , 0.00193168561, -0.01610361 , 1.38497376  , 3.66        , 3           , 11          , 0.006669309 , 0.006669323
-0.135411024, -0.007801631, -9.773787   , -0.000137609211, -0.0005879365, -0.002010012, 0.0762437657, -0.347445071, 0.6451395   , 0.00193063356, -0.0161094479, 1.38495374  , 3.67        , 3           , 12          , 0.0586594269, 0
-0.15484336 , -0.0115835276, -9.799226   , 0.000524412 , 0.000746852544, -0.00146827428, 0.0762437657, -0.347445071, 0.6451395   , 0.00193611393, -0.0161019526, 1.38493943  , 3.68        , 3           , 50          , 0           , 0
-0.1638807  , -0.0127970865, -9.812389   , -0.000148583378, 0.00180474261, -0.000263492024, 0.07617635  , -0.347445071, 0.6446003   , 0.001934669 , -0.016083898, 1.38493657  , 3.69        , 3           , 11          , 0.006669309 , 0.006669323
-0.179225355, -0.019222796, -9.791213   , -0.000970735739, 0.0007448939, -0.000270352029, 0.07610894  , -0.347310245, 0.6450721   , 0.00186266738, -0.0160487071, 1.38493466  , 3.7         , 3           , 12          , 0.0597042739, 0
-0.165120989, 0.0103722326, -9.777307   , -3.13373675E-05, -5.173167E-05, 0.000126548708, 0.07617635  , -0.3475799  , 0.644802451 , 0.001862334 , -0.016049223, 1.38493562  , 3.71        , 3           , 50          , 0           , 0
-0.16343151 , -0.0155874863, -9.802004   , -0.0005613589, -0.0009903539, 0.0006537745, 0.07617635  , -0.3475799  , 0.644802451 , 0.001856617 , -0.0160591416, 1.38494229  , 3.72        , 3           , 11          , 0.00658777449, 0.00658781966
-0.1625511  , -0.0219172873, -9.800252   , -0.00163234526, -0.000597356062, 0.0009210094, 0.0759067   , -0.347242832, 0.6447351   , 0.00184014672, -0.0160651281, 1.38495135  , 3.73        , 3           , 12          , 0.0597042739, 0
-0.1611399  , -0.008949462, -9.787444   , -0.0009706724, 0.000743746059, -3.721425E-06, 0.07617635  , -0.347108   , 0.644869864 , 0.00183043862, -0.0160576887, 1.38495135  , 3.74        , 3           , 50          , 0           , 0
-0.172447741, -0.0160847474, -9.792069   , 0.000771443243, -0.000307692535, -0.00134018646, 0.07610894  , -0.3475799  , 0.6450047   , 0.0018383686, -0.0160607453, 1.384938    , 3.75        , 3           , 11          , 0.00658777449, 0.00658781966
-0.186901659, -0.022393845, -9.7858305  , 0.00197193073, 0.000228266668, -0.00040216028, 0.07610894  , -0.3475799  , 0.6450047   , 0.00185815233, -0.0160584543, 1.38493371  , 3.76        , 3           , 12          , 0.0597042739, 0
-0.166624665, -0.0184844658, -9.832827   , 9.670867E-05, 0.00114735123, 0.000533409242, 0.07583929  , -0.347512484, 0.644802451 , 0.0018590343, -0.01604699 , 1.38493943  , 3.77        , 3           , 50          , 0           , 0
-0.161641032, -0.0173212476, -9.811523   , -0.000163906327, -0.000315705, -0.0006750385, 0.07604153  , -0.347377658, 0.6450047   , 0.001857502 , -0.0160501339, 1.38493276  , 3.78        , 3           , 11          , 0.00658777449, 0.00658781966
-0.165255   , -0.0181913432, -9.813805   , 0.001709039 , -0.0007060164, -0.0005411031, 0.07604153  , -0.347310245, 0.6449373   , 0.001874678 , -0.016057184, 1.384927    , 3.79        , 3           , 12          , 0.0597042739, 0
-0.171509   , -0.00102100335, -9.815463   , 0.0008898627, 0.000721150835, -6.192977E-07, 0.07604153  , -0.347310245, 0.6449373   , 0.00185709086, -0.0161330942, 1.38492751  , 3.8         , 3           , 50          , 0           , 0
-0.177436516, -0.02327989 , -9.792153   , 0.00142807572, -7.308736E-05, -0.000670853246, 0.0759067   , -0.347310245, 0.644869864 , 0.00187147944, -0.0161338132, 1.38492084  , 3.81        , 3           , 11          , 0.00650825538, 0.006508295
-0.153964669, -0.0197676327, -9.791155   , 0.00290458021, -0.00140013837, -0.0002761186, 0.07617635  , -0.347310245, 0.6451395   , 0.0019005707, -0.01614781 , 1.384918    , 3.82        , 3           , 12          , 0.060755495 , 0
-0.174735576, -0.0241662171, -9.795324   , 0.00209711841, -0.0002061985, 0.0001293134, 0.0764460042, -0.347310245, 0.6450721   , 0.0019215215, -0.0161498729, 1.3849194   , 3.83        , 3           , 50          , 0           , 0
-0.164385289, -0.02862243 , -9.80666    , -0.00124341238, -0.0003567594, -0.000143164478, 0.0764460042, -0.347310245, 0.6450721   , 0.00190911163, -0.016153438, 1.384918    , 3.84        , 3           , 11          , 0.00650825538, 0.006508295
-0.159810722, -0.0175969936, -9.778018   , -0.00217692787, -0.0007636475, 0.000253116159, 0.0762437657, -0.347377658, 0.644802451 , 0.00188730215, -0.0161610823, 1.38492036  , 3.85        , 3           , 12          , 0.060755495 , 0
-0.150309816, -0.00668458827, -9.793734   , -0.000176126472, 4.856761E-05, -5.97983671E-06, 0.07617635  , -0.347175419, 0.644869864 , 0.00188554078, -0.0161605943, 1.38492036  , 3.86        , 3           , 50          , 0           , 0
-0.158973336, -0.0286280327, -9.808457   , -0.0009794773, 0.0003148591, -0.00093892013, 0.07610894  , -0.347310245, 0.6450047   , 0.00187589752, -0.0161574278, 1.38491082  , 3.87        , 3           , 11          , 0.00650825538, 0.006508295
-0.1570836  , -0.0042451974, -9.813647   , -0.00151212409, -8.867703E-05, -0.000808657962, 0.07583929  , -0.347445071, 0.6446677   , 0.00186090788, -0.0161583  , 1.38490319  , 3.88        , 3           , 12          , 0.060755495 , 0
-0.166082546, -0.0002412349, -9.802766   , -0.000308727, -0.000214831816, -0.000940882368, 0.07583929  , -0.347445071, 0.6446677   , 0.00185797364, -0.0161604322, 1.38489366  , 3.89        , 3           , 50          , 0           , 0
-0.152551576, -0.007756036, -9.771566   , 0.00247399346, 0.00125537941, -0.00172797218, 0.0757718757, -0.347445071, 0.6450047   , 0.00183973054, -0.0161878858, 1.384877    , 3.9         , 3           , 11          , 0.006430922 , 0.006430962
-0.151256964, -0.01791613 , -9.798373   , 0.00394562772, 0.0009916136, -0.0005273808, 0.0759741142, -0.347310245, 0.6451395   , 0.001879272 , -0.0161779635, 1.38487172  , 3.91        , 3           , 12          , 0.0618125275, 0
-0.165317088, -0.0381414667, -9.799964   , 0.00194798887, -0.000487307174, -0.000272012723, 0.07610894  , -0.347512484, 0.6447351   , 0.00189879641, -0.0161828287, 1.38486886  , 3.92        , 3           , 50          , 0           , 0
-0.151646376, -0.00498157926, -9.780591   , 0.00140819408, 0.000579352665, -0.0009334407, 0.07610894  , -0.347512484, 0.6447351   , 0.00191302947, -0.0161770172, 1.3848598   , 3.93        , 3           , 11          , 0.006430922 , 0.006430962
-0.174761325, -0.0299836453, -9.800814   , 0.00140911166, 0.0004408461, 0.0002656514, 0.07631118  , -0.347377658, 0.6450047   , 0.00192707661, -0.0161726121, 1.38486218  , 3.94        , 3           , 12          , 0.0618125275, 0
-0.154851466, -0.0147758331, -9.794729   , 0.001407024 , 0.000844313065, -0.0005320037, 0.07583929  , -0.347310245, 0.6451395   , 0.00194123236, -0.0161641631, 1.38485694  , 3.95        , 3           , 50          , 0           , 0
-0.161233008, -0.0271725561, -9.82022    , 0.0019328394, 0.00271230587, -0.000120803, 0.07610894  , -0.347512484, 0.644802451 , 0.00196057977, -0.0161370374, 1.384856    , 3.96        , 3           , 11          , 0.006430922 , 0.006430962
-0.158946991, -0.0223488454, -9.804321   , 0.0004692075, 0.00136851729, 0.000402757549, 0.07610894  , -0.347512484, 0.644802451 , 0.00196520635, -0.01612336 , 1.38486028  , 3.97        , 3           , 12          , 0.0618125275, 0
-0.176898509, 0.00015537627, -9.791018   , -0.000191643674, -0.0002312323, -0.0005404172, 0.07617635  , -0.347310245, 0.6450721   , 0.001963377 , -0.0161256623, 1.38485456  , 3.98        , 3           , 50          , 0           , 0
-0.16523701 , -0.0155698638, -9.803366   , -0.0001926555, 3.08584058E-05, 0.0005275965, 0.0759741142, -0.347377658, 0.6449373   , 0.001961364 , -0.0161253642, 1.3848598   , 3.99        , 3           , 11          , 0.006430922 , 0.006430962
-0.171054021, -0.00293514319, -9.801898   , -0.000339678139, 0.000544507231, 0.0005306035, 0.07604153  , -0.347445071, 0.6449373   , 0.00192895182, -0.0161705613, 1.38486552  , 4           , 3           , 12          , 0.06287485  , 0
-0.173371151, -0.0275635142, -9.765925   , -0.000334048556, -0.000654414936, 0.000257262436, 0.07604153  , -0.347445071, 0.6449373   , 0.00192557042, -0.0161771085, 1.38486791  , 4.01        , 3           , 50          , 0           , 0
-0.181924164, -0.0183582921, -9.785325   , -0.0008647026, -0.00145969633, 0.0007852338, 0.07604153  , -0.347310245, 0.6449373   , 0.00191679574, -0.016191721, 1.384876    , 4.02        , 3           , 11          , 0.006355542 , 0.006355585
-0.16693905 , 0.0123932017, -9.80355    , 0.001135403 , -0.000512992148, 0.000260252738, 0.07617635  , -0.347175419, 0.6450721   , 0.0019281077, -0.0161968544, 1.38487887  , 4.03        , 3           , 12          , 0.06287485  , 0
-0.154038236, -0.0344493762, -9.815746   , 0.00179979624, 0.0002913021, 0.000132431393, 0.0762437657, -0.347445071, 0.6450047   , 0.00194608315, -0.016193945, 1.3848803   , 4.04        , 3           , 50          , 0           , 0
-0.174771458, -0.0317506939, -9.805359   , -0.000202839714, -0.000122037614, 0.000660394842, 0.0762437657, -0.347445071, 0.6450047   , 0.001943949 , -0.016195178, 1.3848865   , 4.05        , 3           , 11          , 0.006355542 , 0.006355585
-0.172881573, -0.0153267886, -9.773954   , 0.0014002875, 1.95460416E-05, 0.000796904555, 0.07637859  , -0.347512484, 0.644869864 , 0.00195782329, -0.0161950011, 1.38489461  , 4.06        , 3           , 12          , 0.06287485  , 0
-0.152211338, -0.0332853124, -9.793093   , 0.00260165986, 0.000295710284, 0.000133655791, 0.0759067   , -0.347175419, 0.6450047   , 0.00198381837, -0.0161920451, 1.384896    , 4.07        , 3           , 50          , 0           , 0
-0.1512628  , -0.01832335 , -9.80381    , 0.0008627696, 0.000557432766, -0.0009340284, 0.07610894  , -0.347242832, 0.644869864 , 0.00199259771, -0.01618645 , 1.3848865   , 4.08        , 3           , 11          , 0.006355542 , 0.006355585
-0.14623183 , -0.000333251432, -9.800452   , 0.00153117965, 0.0005576627, -0.000133116177, 0.07610894  , -0.347242832, 0.644869864 , 0.002007932 , -0.0161808748, 1.38488507  , 4.09        , 3           , 12          , 0.06287485  , 0
-0.159802884, -0.0111251306, -9.797875   , 0.0016617314, -0.000915242, -0.000274264457, 0.07604153  , -0.347310245, 0.644802451 , 0.00199716981, -0.016210448, 1.38488269  , 4.1         , 3           , 50          , 0           , 0
-0.16157648 , -0.00114153884, -9.805026   , 5.401796E-05, -0.000120568235, -0.00107213145, 0.0759741142, -0.347445071, 0.6449373   , 0.00199788227, -0.0162116289, 1.3848722   , 4.11        , 3           , 11          , 0.006282225 , 0.006282277
-0.1594938  , -0.04709667 , -9.81045    , 0.00151976931, 0.0008191795, -0.0006647216, 0.0759067   , -0.347242832, 0.644869864 , 0.002013189 , -0.01620343 , 1.38486552  , 4.12        , 3           , 12          , 0.06394198  , 0
-0.179688856, -0.0200282969, -9.802992   , 0.001524197 , -0.000114208276, -0.0006699408, 0.0759067   , -0.347242832, 0.644869864 , 0.00202854  , -0.0162045527, 1.38485837  , 4.13        , 3           , 50          , 0           , 0
-0.1462708  , -0.015374911, -9.780226   , -8.27570839E-05, 0.000544828654, -0.0009352923, 0.07617635  , -0.347310245, 0.644869864 , 0.00202786247, -0.0161990859, 1.38484931  , 4.14        , 3           , 11          , 0.006282225 , 0.006282277
-0.1647878  , -0.01836026 , -9.792978   , -0.000358742458, 0.00240726513, -0.000258685381, 0.07604153  , -0.347512484, 0.6450721   , 0.00202431856, -0.016175013, 1.38484693  , 4.15        , 3           , 12          , 0.06394198  , 0
-0.180041388, 0.00235229358, -9.782402   , 0.000444766658, 0.00213810429, 0.00134083175, 0.07610894  , -0.347377658, 0.6449373   , 0.00202854932, -0.0161536541, 1.38486028  , 4.16        , 3           , 50          , 0           , 0
-0.167418838, 5.46909869E-05, -9.782845   , 0.00111934391, 0.0008077925, 0.00146771129, 0.07617635  , -0.347445071, 0.6450047   , 0.00203950587, -0.0161456112, 1.384875    , 4.17        , 3           , 11          , 0.006282225 , 0.006282277
-0.185057282, -0.008773256, -9.798368   , 0.0021902984, 0.000415368559, 0.00106716109, 0.07617635  , -0.347445071, 0.6450047   , 0.00206123642, -0.0161414742, 1.38488555  , 4.18        , 3           , 12          , 0.06394198  , 0
-0.1972717  , -0.01679599 , -9.804363   , 0.0019272482, -0.000516044965, 0.0002616419, 0.0759067   , -0.347377658, 0.6450047   , 0.00208046637, -0.0161466431, 1.38488841  , 4.19        , 3           , 50          , 0           , 0
-0.163455218, -0.0265751239, -9.781284   , 0.000165538731, -0.0007020025, -0.0008077081, 0.07610894  , -0.347310245, 0.6450721   , 0.002012868 , -0.0162874386, 1.38488173  , 4.2         , 3           , 11          , 0.0062110587, 0.00621112
-0.162882656, 0.000245181844, -9.752498   , -0.0008991222, -0.00164241577, -0.000547929259, 0.07617635  , -0.347377658, 0.644802451 , 0.00200396613, -0.01630385 , 1.384876    , 4.21        , 3           , 12          , 0.06501344  , 0
-0.169729173, -0.0180908982, -9.768087   , -0.00196235976, -0.002852381, 0.000376935 , 0.07617635  , -0.347377658, 0.644802451 , 0.00198428216, -0.0163323823, 1.38487983  , 4.22        , 3           , 50          , 0           , 0
-0.137673169, -0.00444824249, -9.797302   , 0.0004337443, -0.0008390396, 0.000391792215, 0.07631118  , -0.347175419, 0.6449373   , 0.00198855624, -0.01634078 , 1.38488364  , 4.23        , 3           , 11          , 0.0062110587, 0.00621112
-0.157643825, -0.0335342437, -9.815747   , 2.455754E-05, 0.0008927648, 0.000267557625, 0.0762437657, -0.347310245, 0.6451395   , 0.0019887567, -0.0163318571, 1.3848865   , 4.24        , 3           , 12          , 0.06501344  , 0
-0.171573371, -0.0218837224, -9.800274   , -0.00397777325, -0.000596602564, 0.000386549364, 0.07604153  , -0.347445071, 0.6447351   , 0.00194891635, -0.01633783 , 1.38489032  , 4.25        , 3           , 50          , 0           , 0
-0.1534552  , -0.00399318524, -9.790545   , -0.00343940174, -0.00139371061, 0.000382891943, 0.07604153  , -0.347445071, 0.6447351   , 0.00191446079, -0.0163517743, 1.38489413  , 4.26        , 3           , 11          , 0.0062110587, 0.00621112
-0.158530861, -0.0327528045, -9.800347   , 0.0003007328, -0.000973115442, 0.0003908426, 0.07617635  , -0.347242832, 0.644802451 , 0.00191740389, -0.016361516, 1.384898    , 4.27        , 3           , 12          , 0.06501344  , 0
-0.157603055, -0.0297456235, -9.782206   , 0.000837048166, -0.0013673302, -0.0002771545, 0.07631118  , -0.347242832, 0.6449373   , 0.00192582025, -0.01637518 , 1.38489509  , 4.28        , 3           , 50          , 0           , 0
-0.159777582, -0.00670751324, -9.786513   , -0.00037058664, -0.000311231241, 0.000660180929, 0.07617635  , -0.347445071, 0.6450047   , 0.00192200718, -0.016378304, 1.38490176  , 4.29        , 3           , 11          , 0.0062110587, 0.00621112
-0.161150843, -0.00649525272, -9.812321   , 0.000151911852, 0.00128591445, 0.0013366   , 0.07617635  , -0.347445071, 0.6450047   , 0.001909937 , -0.016374154, 1.38491559  , 4.3         , 3           , 12          , 0.06608881  , 0
-0.157113135, -0.0175125413, -9.789783   , -0.000515897351, 0.00115291728, 0.000401626952, 0.07604153  , -0.347445071, 0.6450721   , 0.00190471229, -0.0163626336, 1.3849194   , 4.31        , 3           , 50          , 0           , 0
-0.166591734, -0.019295238, -9.788012   , -0.000778125, 8.471881E-05, 0.000395254 , 0.07610894  , -0.347175419, 0.644869864 , 0.00189686718, -0.0163617972, 1.38492322  , 4.32        , 3           , 11          , 0.00614195876, 0.00614202255
-0.172491282, -0.0254617222, -9.80348    , 0.000297099265, -0.00123822317, -0.0006770921, 0.07631118  , -0.347175419, 0.6449373   , 0.00189994916, -0.0163741633, 1.38491654  , 4.33        , 3           , 12          , 0.06608881  , 0
-0.167096183, -0.0285687372, -9.812099   , 0.00216729287, -0.00109115266, -0.00147338153, 0.07631118  , -0.347175419, 0.6449373   , 0.00192186516, -0.0163850449, 1.38490176  , 4.34        , 3           , 50          , 0           , 0
-0.141703174, 0.00461658649, -9.801298   , 0.0028275114, 0.00064193795, -0.000529461, 0.07610894  , -0.347310245, 0.6447351   , 0.00195022835, -0.01637862 , 1.38489652  , 4.35        , 3           , 11          , 0.00614195876, 0.00614202255
-0.148577154, -0.0251361635, -9.79889    , 0.00149565737, -0.0003016666, 0.00012985566, 0.07610894  , -0.347175419, 0.6450047   , 0.001965164 , -0.0163816344, 1.38489747  , 4.36        , 3           , 12          , 0.06608881  , 0
-0.181546763, -0.03584861 , -9.797267   , -0.000234060746, -0.00191245892, 0.000384886167, 0.07610894  , -0.347377658, 0.6450721   , 0.00196276279, -0.0164007712, 1.38490129  , 4.37        , 3           , 50          , 0           , 0
-0.162106082, -0.0284090117, -9.77813    , -0.000372733455, -0.000847038638, 0.0005239622, 0.07610894  , -0.347377658, 0.6450721   , 0.00195894949, -0.01640925 , 1.38490653  , 4.38        , 3           , 11          , 0.00614195876, 0.00614202255
-0.1458045  , -0.0108535457, -9.781992   , 0.00161984481, 0.001698611 , 0.000274559075, 0.07617635  , -0.347377658, 0.6447351   , 0.001975102 , -0.0163922664, 1.38490939  , 4.39        , 3           , 12          , 0.06608881  , 0
-0.1538812  , 0.003236642 , -9.792287   , 0.00108852622, 0.00129854528, 0.0002714677, 0.07637859  , -0.347310245, 0.6450047   , 0.00198995136, -0.01637075 , 1.38491225  , 4.4         , 3           , 50          , 0           , 0
-0.142719582, -0.0255543068, -9.80567    , 0.000430332031, -0.000836864463, -0.000141428245, 0.07617635  , -0.347310245, 0.6449373   , 0.00199427828, -0.0163791161, 1.38491082  , 4.41        , 3           , 11          , 0.006074595 , 0.006074655
-0.158876166, -0.004362095, -9.79826    , 0.0009667741, -0.001233375, -0.000276164064, 0.07617635  , -0.347310245, 0.6449373   , 0.00200399174, -0.0163914431, 1.384908    , 4.42        , 3           , 12          , 0.06716769  , 0
-0.151254967, -0.0137239685, -9.815084   , -0.0007724957, -0.0008429027, -0.000276580133, 0.0757718757, -0.347377658, 0.644869864 , 0.001996314 , -0.0163998678, 1.3849051   , 4.43        , 3           , 50          , 0           , 0
-0.167522252, -0.0208698772, -9.8161     , -0.00117611629, -0.000308872783, -0.000940786442, 0.0759067   , -0.347175419, 0.644869864 , 0.00198470568, -0.0164029356, 1.38489556  , 4.44        , 3           , 11          , 0.006074595 , 0.006074655
-0.148565218, -0.02011138 , -9.80699    , 0.0013632467, -0.000297209132, -0.000403647951, 0.07610894  , -0.347445071, 0.6449373   , 0.001998406 , -0.0164058972, 1.38489175  , 4.45        , 3           , 12          , 0.06716769  , 0
-0.161646754, -0.0238149334, -9.788949   , 0.002300178 , -0.0005616181, 0.000262865884, 0.0762437657, -0.347445071, 0.644869864 , 0.00202136417, -0.01641152 , 1.38489413  , 4.46        , 3           , 50          , 0           , 0
-0.170200422, -0.01319899 , -9.815579   , 0.00283361552, -0.000294292753, 0.0007984346, 0.0762437657, -0.347445071, 0.644869864 , 0.00204956857, -0.01641448 , 1.38490224  , 4.47        , 3           , 11          , 0.006074595 , 0.006074655
-0.159801513, -0.009267196, -9.804648   , 0.002425789 , 0.00116910762, 0.00107265462, 0.07610894  , -0.347310245, 0.6449373   , 0.00207365141, -0.0164028089, 1.38491273  , 4.48        , 3           , 12          , 0.06716769  , 0
-0.169775516, -0.027438784, -9.783119   , 0.0006843366, 0.00196476839, -0.000125362436, 0.0759741142, -0.347310245, 0.6449373   , 0.002080515 , -0.016383158, 1.3849113   , 4.49        , 3           , 50          , 0           , 0
-0.167488113, -0.0207571387, -9.77399349 , -0.0003950797, 0.00249303738, -0.000523817434, 0.07604153  , -0.347242832, 0.6447351   , 0.00205358258, -0.0163610615, 1.384907    , 4.5         , 3           , 11          , 0.00600932352, 0.00600938965
-0.161665261, -0.0273672026, -9.795775   , 1.17986019E-05, 0.00129058014, 0.0005366068, 0.07604153  , -0.347242832, 0.6447351   , 0.00205361331, -0.0163481627, 1.38491178  , 4.51        , 3           , 12          , 0.068249695 , 0
-0.15353547 , -0.0237542558, -9.800247   , 0.000555483566, -0.0005778483, 0.00159350713, 0.0759067   , -0.347310245, 0.6449373   , 0.002058909 , -0.0163539723, 1.384928    , 4.52        , 3           , 50          , 0           , 0
-0.172501117, -0.0323808044, -9.78408    , -0.00158250448, -0.000717205345, 0.000256343366, 0.07604153  , -0.347108   , 0.6449373   , 0.0020430414, -0.01636115 , 1.38493037  , 4.53        , 3           , 11          , 0.00600932352, 0.00600938965
-0.161188453, -0.0159340184, -9.816036   , -0.0013135405, -0.00111174164, -0.0006786926, 0.0762437657, -0.347377658, 0.644802451 , 0.00203001662, -0.0163722541, 1.3849237   , 4.54        , 3           , 12          , 0.068249695 , 0
-0.158041716, -0.0237883665, -9.79392    , 0.00175581209, -0.000160881609, -0.0008020952, 0.0762437657, -0.347377658, 0.644802451 , 0.00204770826, -0.01637385 , 1.38491559  , 4.55        , 3           , 50          , 0           , 0
-0.1882208  , -0.0171276648, -9.767219   , 0.00135421578, -2.91708147E-05, -0.000935277145, 0.0762437657, -0.347310245, 0.6446003   , 0.00206140336, -0.01637412 , 1.384906    , 4.56        , 3           , 11          , 0.00600932352, 0.00600938965
-0.157092869, -0.015850924, -9.772108   , -0.0007788696, -0.00111052475, -0.000277930347, 0.07617635  , -0.347242832, 0.6449373   , 0.00205366174, -0.0163852237, 1.38490319  , 4.57        , 3           , 12          , 0.068249695 , 0
-0.148538053, -0.018053446, -9.782521   , -0.0009143796, -0.00071181 , -0.000142582285, 0.07610894  , -0.347310245, 0.6446677   , 0.002044541 , -0.0163923353, 1.38490176  , 4.58        , 3           , 50          , 0           , 0
-0.186030835, -0.0333048664, -9.775068   , 0.00135658833, -0.0004378032, 0.00106221577, 0.07610894  , -0.347310245, 0.6446677   , 0.00205793255, -0.016396733, 1.38491273  , 4.59        , 3           , 11          , 0.00600932352, 0.00600938965
-0.185108125, -0.0236913115, -9.793535   , 0.00255971821, 0.0004901068, 0.000536009436, 0.07617635  , -0.347108   , 0.6446003   , 0.00209855218, -0.0164362881, 1.384918    , 4.6         , 3           , 12          , 0.06933446  , 0
-0.168396741, -0.0127294092, -9.818739   , -0.0005123543, 7.605495E-05, -0.000137497511, 0.07617635  , -0.347377658, 0.644869864 , 0.00209345063, -0.0164355244, 1.38491654  , 4.61        , 3           , 50          , 0           , 0
-0.174719736, -0.0140330149, -9.821937   , -0.00331106619, -0.00154348463, 0.000782477029, 0.07617635  , -0.347512484, 0.6450047   , 0.00206021313, -0.0164509788, 1.38492417  , 4.62        , 3           , 11          , 0.005945752 , 0.005945829
-0.171156973, -0.0280773267, -9.815275   , -0.003173532, -0.00234451867, 0.00117815344, 0.07617635  , -0.347512484, 0.6450047   , 0.00202828553, -0.0164744463, 1.38493562  , 4.63        , 3           , 12          , 0.06933446  , 0
-0.144019768, -0.0134635651, -9.794688   , -0.0017072747, -0.00153581612, 0.00105155655, 0.07631118  , -0.347377658, 0.644802451 , 0.00201104023, -0.0164898243, 1.38494611  , 4.64        , 3           , 50          , 0           , 0
-0.1756841  , -0.0391281731, -9.784607   , -0.00157954544, -0.000330993877, 0.000125263759, 0.07610894  , -0.347242832, 0.6447351   , 0.001995225 , -0.0164931361, 1.38494754  , 4.65        , 3           , 11          , 0.005945752 , 0.005945829
-0.171584487, -0.0273848157, -9.78901    , -0.002380872, -0.000467021455, -0.000276652165, 0.07604153  , -0.347310245, 0.6449373   , 0.00197146181, -0.016497802, 1.38494468  , 4.66        , 3           , 12          , 0.06933446  , 0
-0.162491709, -0.00427959673, -9.80686951 , -0.000914488046, 0.000339385268, 0.000130012137, 0.07604153  , -0.347310245, 0.6449373   , 0.00196229527, -0.01649441 , 1.38494611  , 4.67        , 3           , 50          , 0           , 0
-0.168865383, -0.0195668321, -9.809299   , -0.00131855125, 0.00100331288, 0.0002664433, 0.0762437657, -0.347377658, 0.644869864 , 0.0019490656, -0.0164843835, 1.384949    , 4.68        , 3           , 11          , 0.005945752 , 0.005945829
-0.167925283, -0.009666024, -9.807389   , -0.00238850969, 0.001194864 , 0.0008658481, 0.07617635  , -0.347175419, 0.6450047   , 0.00192503852, -0.0164724514, 1.38495755  , 4.69        , 3           , 12          , 0.06933446  , 0
-0.173723444, 0.002772376 , -9.781475   , -0.00311402185, -0.0009568038, 0.00045293587, 0.07604153  , -0.347108   , 0.6449373   , 0.0018922576, -0.0165322516, 1.38496232  , 4.7         , 3           , 50          , 0           , 0
-0.147580862, -0.004585821, -9.775597   , -0.0009012427, -0.002667785, -0.00195306551, 0.07604153  , -0.347108   , 0.6449373   , 0.00188356964, -0.016558893, 1.38494229  , 4.71        , 3           , 11          , 0.00588394841, 0.00588402
-0.153062358, -0.0202400181, -9.788893   , 0.000296936341, -0.00160247879, -7.884978E-05, 0.07610894  , -0.347310245, 0.644869864 , 0.0018865529, -0.01657492 , 1.38494182  , 4.72        , 3           , 12          , 0.07042165  , 0
-0.168431684, -0.0306215864, -9.780431   , -0.001578033, -0.000748917, 0.000589716365, 0.07617635  , -0.347377658, 0.644869864 , 0.00187067571, -0.0165824164, 1.38494754  , 4.73        , 3           , 50          , 0           , 0
-0.151688188, -0.0143767232, -9.789738   , 0.0003571165, -0.000202029609, -7.09188E-05, 0.07617635  , -0.347242832, 0.644802451 , 0.00187425874, -0.0165844355, 1.38494658  , 4.74        , 3           , 11          , 0.00588394841, 0.00588402
-0.149463579, -0.022020489, -9.793428   , 0.000427907624, -0.00106579671, -0.000675582036, 0.07617635  , -0.347242832, 0.644802451 , 0.00187864993, -0.01659508 , 1.38493991  , 4.75        , 3           , 12          , 0.07042165  , 0
-0.148131177, -0.0255523436, -9.80342    , 0.0005583572, -0.000397782569, -0.0008049653, 0.07617635  , -0.347310245, 0.6447351   , 0.00188436743, -0.0165990423, 1.3849318   , 4.76        , 3           , 50          , 0           , 0
-0.159761816, 0.002022244 , -9.806802   , 0.00370224961, -0.00104894431, -0.0004039519, 0.07617635  , -0.347242832, 0.6450047   , 0.00192145759, -0.0166095234, 1.384928    , 4.77        , 3           , 11          , 0.00588394841, 0.00588402
-0.158928141, -0.0188002083, -9.797043   , 0.000889652758, 0.000203515316, -0.000667784654, 0.0762437657, -0.347175419, 0.6450721   , 0.00193046569, -0.0166074764, 1.38492131  , 4.78        , 3           , 12          , 0.07042165  , 0
-0.1710706  , -0.007443652, -9.801942   , -0.0017783416, -0.000874751131, -0.00141106511, 0.07617635  , -0.347242832, 0.6447351   , 0.001912917 , -0.0166161917, 1.384907    , 4.79        , 3           , 50          , 0           , 0
-0.154374883, -0.00755300932, -9.796016   , 0.00194682891, 0.0006131287, -0.000197164816, 0.07617635  , -0.347242832, 0.6447351   , 0.00189947872, -0.016591575, 1.3849051   , 4.8         , 3           , 11          , 0.00582391024, 0.00582395634
-0.13858673 , -0.005262969, -9.807725   , 0.00153544429, 0.002872271 , 0.00108139392, 0.07617635  , -0.347377658, 0.644869864 , 0.00191465276, -0.0165628735, 1.38491607  , 4.81        , 3           , 12          , 0.0715109557, 0
-0.169788018, -0.0259044617, -9.805742   , -0.0004574029, 0.000392431015, 0.00153114274, 0.07617635  , -0.347310245, 0.6450721   , 0.001909826 , -0.016558975, 1.3849318   , 4.82        , 3           , 50          , 0           , 0
-0.163426727, -0.0114244  , -9.815092   , -0.0007161832, -0.0014085694, 0.00138735375, 0.0762437657, -0.347175419, 0.644802451 , 0.00190243393, -0.0165730882, 1.38494563  , 4.83        , 3           , 11          , 0.00582391024, 0.00582395634
-0.167489022, -0.01419438 , -9.805169   , 0.000145781654, -6.320861E-05, -0.000270305347, 0.0762437657, -0.347175419, 0.644802451 , 0.00190393545, -0.0165737141, 1.38494277  , 4.84        , 3           , 12          , 0.0715109557, 0
-0.167482719, -0.0161322933, -9.788436   , -0.00238918443, -0.0009467547, 0.000387547538, 0.07617635  , -0.347108   , 0.6449373   , 0.00187998021, -0.01658319 , 1.38494658  , 4.85        , 3           , 50          , 0           , 0
-0.154903561, -0.0268724542, -9.804355   , -0.00111739989, -0.00140560814, 0.000186903577, 0.07617635  , -0.3470406  , 0.6449373   , 0.00186877523, -0.01659725 , 1.38494849  , 4.86        , 3           , 11          , 0.00582391024, 0.00582395634
-0.166175351, -0.0273613259, -9.794429   , -0.00178509892, -0.001601545, -0.00161499192, 0.0762437657, -0.347242832, 0.644802451 , 0.00185119337, -0.01661324 , 1.38493228  , 4.87        , 3           , 12          , 0.0715109557, 0
-0.154342934, -0.00320446678, -9.776052   , -5.46526753E-05, -6.488456E-05, -0.000137296185, 0.0762437657, -0.347242832, 0.644802451 , 0.00185067032, -0.016613882, 1.38493085  , 4.88        , 3           , 50          , 0           , 0
-0.1597493  , -0.00325703039, -9.767012   , 0.00168774789, -0.00112148828, -0.000273923477, 0.07617635  , -0.347108   , 0.6447351   , 0.001867593 , -0.0166250933, 1.38492846  , 4.89        , 3           , 11          , 0.00582391024, 0.00582395634
-0.147160187, -0.0131645668, -9.774321   , 0.0006046278, -0.000457591668, 0.000461566029, 0.0759067   , -0.347242832, 0.6449373   , 0.00183728861, -0.0166091211, 1.38493323  , 4.9         , 3           , 12          , 0.07260208  , 0
-0.140479818, -0.0268025454, -9.819712   , -0.0006565142, -0.00226352853, 0.000182931137, 0.07631118  , -0.347108   , 0.644802451 , 0.00183069345, -0.01663176 , 1.38493514  , 4.91        , 3           , 50          , 0           , 0
-0.165698245, -0.0192077067, -9.799328   , -0.000123345715, -0.00199132483, -0.0004146803, 0.07631118  , -0.347108   , 0.644802451 , 0.00182953011, -0.0166516639, 1.38493085  , 4.92        , 3           , 11          , 0.005765365 , 0.00576542132
-0.164728835, -0.00399484858, -9.785142   , 0.0005480529, -0.002654644, -0.000350730348, 0.07604153  , -0.347175419, 0.6447351   , 0.0018350716, -0.0166782048, 1.384927    , 4.93        , 3           , 12          , 0.07260208  , 0
-0.15038231 , -0.0251221918, -9.799799   , 0.00207426888, -0.000380543817, -6.907767E-05, 0.0759741142, -0.347175419, 0.6449373   , 0.00185582647, -0.0166820083, 1.38492656  , 4.94        , 3           , 50          , 0           , 0
-0.161235273, -0.0299576446, -9.810287   , 0.0003375927, -0.0005245839, 0.000194154549, 0.07610894  , -0.347175419, 0.6447351   , 0.00185917108, -0.01668726 , 1.38492846  , 4.95        , 3           , 11          , 0.005765365 , 0.00576542132
-0.171921968, 0.00373281143, -9.789612   , -0.0003928156, -0.00146574317, 0.00105436251, 0.07610894  , -0.347175419, 0.6447351   , 0.00185506826, -0.0167019367, 1.384939    , 4.96        , 3           , 12          , 0.07260208  , 0
-0.14623487 , -0.00638698647, -9.776516   , -5.971515E-07, 0.000339722843, 0.0003318061, 0.0759741142, -0.347310245, 0.644802451 , 0.00185500539, -0.0166985467, 1.38494229  , 4.97        , 3           , 50          , 0           , 0
-0.160781   , -0.0356094725, -9.78046    , 0.0001361617, -0.000386318425, -0.00120521686, 0.07617635  , -0.3470406  , 0.644869864 , 0.00185656908, -0.0167023838, 1.3849299   , 4.98        , 3           , 11          , 0.005765365 , 0.00576542132
-0.158038214, -0.0238247178, -9.789392   , -0.000665006053, -0.000464284472, 0.000392969785, 0.07658083  , -0.347310245, 0.644802451 , 0.00184985262, -0.0167070329, 1.38493419  , 4.99        , 3           , 12          , 0.07260208  , 0
-0.152102739, -0.00679784641, -9.778799   , -0.00173434126, -0.0005186042, -0.000942287443, 0.07658083  , -0.347310245, 0.644802451 , 0.00183205085, -0.01667006 , 1.38492417  , 5           , 3           , 50          , 0           , 0
-0.172362179, 0.0125151407, -9.816238   , -0.000395940559, -0.0009733596, -0.002009379, 0.07583929  , -0.347242832, 0.6447351   , 0.00182842661, -0.0166797582, 1.38490415  , 5.01        , 3           , 11          , 0.00570833543, 0.005708391
-0.152148545, -0.01521495 , -9.797443   , 0.0009397728, -0.0007090871, 0.000260513247, 0.0759067   , -0.347175419, 0.644869864 , 0.001837781 , -0.016686853, 1.38490653  , 5.02        , 3           , 12          , 0.07369475  , 0
-0.160757527, -0.0269596986, -9.790789   , -0.000397252385, -0.000583954, 0.0004591912, 0.0759741142, -0.347310245, 0.6450047   , 0.00183373329, -0.0166927036, 1.3849113   , 5.03        , 3           , 50          , 0           , 0
-0.161659241, -0.0241530836, -9.802987   , 0.00246836036, 0.00103451835, -0.000127393083, 0.0759741142, -0.347310245, 0.6450047   , 0.00185843627, -0.016682351, 1.38490987  , 5.04        , 3           , 11          , 0.00570833543, 0.005708391
-0.168355614, -0.0108168982, -9.776161   , 0.003001324 , 0.00137138378, -0.000258028129, 0.0759741142, -0.347242832, 0.6447351   , 0.00188849249, -0.0166686326, 1.38490748  , 5.05        , 3           , 12          , 0.07369475  , 0
-0.166075364, -0.00125199743, -9.789192   , 0.00260635349, 0.000103300023, -0.000465696532, 0.0762437657, -0.347377658, 0.6450047   , 0.001914634 , -0.0166675877, 1.38490272  , 5.06        , 3           , 50          , 0           , 0
