Acc X       , Acc Y       , Acc Z       , Gyro X      , Gyro Y      , Gyro Z      , Magn X      , Magn Y      , Magn Z      , Euler X     , Euler Y     , Euler Z     , Time        , Status      , LowRate X   , LowRate Y   , LowRate Z    
-0.2541703  , -9.794383   , 0.0503475629, 0.000929347239, 0.00209312979, -3.511252E-05, -0.4336659  , 0.3764325   , 0.0231225565, 1.57514977  , -0.0244857147, 3.08575368  , 0           , 3           , 11          , 0.0346410163, 0.0346410163
-0.2557394  , -9.789204   , 0.0282451436, 0.001727336 , 0.00103275781, -0.00110307126, -0.43339625 , 0.376567334 , 0.0229203179, 1.57516682  , -0.0244747214, 3.08576369  , 0.01        , 3           , 12          , 0.0346410163, 0
-0.250886649, -9.799663   , 0.0322654471, -0.002780593, 0.00345045282, -0.00137127982, -0.433194   , 0.377780765 , 0.0229203179, 1.57513809  , -0.02446117 , 3.0857985   , 0.02        , 3           , 50          , 0           , 0
-0.238185287, -9.805065   , 0.0206216015, 0.000945016742, 0.00343468762, -0.00161689462, -0.4337333  , 0.378185242 , 0.0230551437, 1.57514679  , -0.0244451519, 3.08583283  , 0.03        , 3           , 11          , 0.0346410163, 0.0346410163
-0.237020746, -9.778351   , 0.01277196  , -0.00066815305, 0.00209880457, 0.000221948038, -0.433463663, 0.376499921 , 0.02298773  , 1.5751394   , -0.0244474616, 3.08585382  , 0.04        , 3           , 12          , 0.0346410163, 0
-0.231905729, -9.780481   , 0.0444347262, 0.000126933184, -0.0002860883, -0.00165503449, -0.433463663, 0.376499921 , 0.02298773  , 1.57514083  , -0.0244308989, 3.085851    , 0.05        , 3           , 50          , 0           , 0
-0.2330683  , -9.785668   , 0.0692140758, 0.000134130387, 0.00183655275, -0.0008387578, -0.433194   , 0.377848178 , 0.02298773  , 1.57514179  , -0.0244225841, 3.085869    , 0.06        , 3           , 11          , 0.0346410163, 0.0346410163
-0.247026846, -9.797648   , 0.0562748238, 0.004393212 , 0.00234845164, -0.0008110304, -0.4337333  , 0.377983    , 0.0231225565, 1.57518506  , -0.02441458 , 3.085893    , 0.07        , 3           , 12          , 0.0346410163, 0
-0.235467345, -9.792068   , 0.02981964  , 0.00171451666, -4.086696E-05, 0.000215483218, -0.433531076, 0.376837    , 0.0230551437, 1.57520223  , -0.024416741, 3.08589244  , 0.08        , 3           , 50          , 0           , 0
-0.2231094  , -9.785706   , 0.0657216161, -0.000425006117, -0.00136665523, 0.000988884 , -0.433531076, 0.376837    , 0.0230551437, 1.57519829  , -0.02442657 , 3.08587861  , 0.09        , 3           , 11          , 0.0346410163, 0.0346410163
-0.226458743, -9.766138   , 0.05232442  , -0.000673918636, 0.000242203678, -0.0005919109, -0.43339625 , 0.377780765 , 0.02318997  , 1.5751915   , -0.0244206581, 3.08588147  , 0.1         , 3           , 12          , 0.0346410163, 0
-0.245270923, -9.767213   , 0.0358210765, -0.000419397082, -0.00267981854, -0.00141401007, -0.4337333  , 0.378050417 , 0.02298773  , 1.57518792  , -0.0244064014, 3.08585477  , 0.11        , 3           , 50          , 0           , 0
-0.247077748, -9.774377   , 0.03030644  , -0.000671107555, -0.000282304361, -0.00165932672, -0.4336659  , 0.376634747 , 0.0231225565, 1.57518125  , -0.0243897978, 3.085852    , 0.12        , 3           , 11          , 0.0346410163, 0.0346410163
-0.239045337, -9.770935   , 0.043087732 , 0.00143999164, -5.0963572E-05, 0.00180792285, -0.4336659  , 0.376634747 , 0.0231225565, 1.57519579  , -0.0244078767, 3.085851    , 0.13        , 3           , 12          , 0.0346410163, 0
-0.246332958, -9.785751   , 0.03878468  , 0.000371603062, -0.00163647917, 0.0009907585, -0.433261424, 0.377983    , 0.02298773  , 1.57519984  , -0.02441771 , 3.08583474  , 0.14        , 3           , 50          , 0           , 0
-0.244142652, -9.775518   , 0.0542729162, -0.00146197737, 0.00131582632, -0.00138346769, -0.43386814 , 0.3779156   , 0.0230551437, 1.57518482  , -0.02440393 , 3.085848    , 0.15        , 3           , 11          , 0.0346410163, 0.0346410163
-0.237221256, -9.778551   , 0.0349025726, -0.00385462935, 0.00238565938, -0.000589738367, -0.433261424, 0.376567334 , 0.0231225565, 1.57514584  , -0.024398135, 3.085872    , 0.16        , 3           , 12          , 0.0346410163, 0
-0.244851679, -9.786082   , 0.02434394  , -0.00202395115, -0.00189116725, 0.0009754642, -0.433261424, 0.376567334 , 0.0231225565, 1.57512593  , -0.02440781 , 3.08585286  , 0.17        , 3           , 50          , 0           , 0
-0.234238178, -9.801619   , 0.036063388 , -0.00440239161, -0.000274111051, -0.0003511316, -0.43339625 , 0.377983    , 0.0230551437, 1.575082    , -0.0244042836, 3.08585     , 0.18        , 3           , 11          , 0.0346410163, 0.0346410163
-0.24445267 , -9.78255    , 0.0329671577, -0.0012016641, 0.0007786992, -0.0008555821, -0.4337333  , 0.378050417 , 0.0231225565, 1.57506979  , -0.0243957583, 3.08585763  , 0.19        , 3           , 12          , 0.0346410163, 0
-0.235972583, -9.773285   , 0.05078132  , 0.00225228141, 0.00128491735, 0.000496079156, -0.433463663, 0.3769044   , 0.0230551437, 1.575092    , -0.0244008042, 3.085871    , 0.2         , 3           , 50          , 0           , 0
-0.222553462, -9.795021   , 0.0466622747, 0.000129846652, 0.00130257965, -0.000577947067, -0.433463663, 0.3769044   , 0.0230551437, 1.575093    , -0.02439508 , 3.08588386  , 0.21        , 3           , 11          , 0.0346699134, 0.03466991
-0.257660985, -9.790203   , 0.0404085   , 0.003076013 , 0.004484971 , -0.00106448657, -0.43339625 , 0.377848178 , 0.0231225565, 1.57512271  , -0.02438463 , 3.08592868  , 0.22        , 3           , 12          , 0.0346697234, 0
-0.259842575, -9.780248   , 0.0400297269, 0.000664737134, 0.00183213688, -0.0005702502, -0.434070379, 0.377983    , 0.0232573822, 1.57512879  , -0.0243790075, 3.08594728  , 0.23        , 3           , 50          , 0           , 0
-0.2323704  , -9.792152   , 0.0366327241, -0.000392146118, 0.00343152857, -0.000295821927, -0.4336659  , 0.377039224 , 0.02298773  , 1.57512414  , -0.0243761949, 3.08598161  , 0.24        , 3           , 11          , 0.0346699134, 0.03466991
-0.232593551, -9.789236   , 0.06376334  , -0.0004021935, 0.00104095519, -0.000848871365, -0.43339625 , 0.37811783  , 0.0230551437, 1.57511985  , -0.024367759, 3.085992    , 0.25        , 3           , 12          , 0.0346697234, 0
-0.245823875, -9.779867   , 0.0370428674, -0.00012619789, 0.002109533 , -0.00163470511, -0.43339625 , 0.37811783  , 0.0230551437, 1.57511806  , -0.0243514962, 3.086013    , 0.26        , 3           , 50          , 0           , 0
-0.238747925, -9.790375   , 0.04470374  , -0.00358578051, 0.00238818373, -0.00111959665, -0.4337333  , 0.378050417 , 0.0233247951, 1.57508171  , -0.0243403986, 3.086037    , 0.27        , 3           , 11          , 0.0346699134, 0.03466991
-0.261159539, -9.788275   , 0.02954336  , -0.0011873499, 0.003439099 , -0.000831404352, -0.433463663, 0.3769044   , 0.0231225565, 1.575069    , -0.0243322346, 3.08607125  , 0.28        , 3           , 12          , 0.0346697234, 0
-0.257706255, -9.798321   , 0.0389715   , 0.000637575635, -0.00243018148, 0.000188001926, -0.433194   , 0.377983    , 0.0231225565, 1.57507586  , -0.02433401 , 3.08604741  , 0.29        , 3           , 50          , 0           , 0
-0.227886051, -9.784588   , 0.0457979925, 0.0001181576, 0.00102920528, 0.0005113808, -0.433194   , 0.377983    , 0.0231225565, 1.57498217  , -0.0249398816, 3.08605981  , 0.3         , 3           , 11          , 0.0347534828, 0.0347534828
-0.231961578, -9.779193   , 0.0516747236, -0.00173822453, 0.00183804741, 0.000242973518, -0.43386814 , 0.377780765 , 0.0230551437, 1.57496428  , -0.02494239 , 3.086078    , 0.31        , 3           , 12          , 0.0347557031, 0
-0.266463757, -9.793961   , 0.06285002  , -0.003061213, 0.00158967194, -0.00136046833, -0.433463663, 0.376769572 , 0.02318997  , 1.57493341  , -0.0249288455, 3.08609414  , 0.32        , 3           , 50          , 0           , 0
-0.237293333, -9.810018   , 0.0680151954, -0.002809424, 0.0007770396, 0.0004932249, -0.433261424, 0.378185242 , 0.02298773  , 1.57490516  , -0.0249338076, 3.08610177  , 0.33        , 3           , 11          , 0.0347534828, 0.0347534828
-0.23200734 , -9.78910351 , 0.048864536 , -0.00120481767, 0.00104497676, -0.0008239983, -0.433261424, 0.378185242 , 0.02298773  , 1.57489288  , -0.0249256119, 3.08611226  , 0.34        , 3           , 12          , 0.0347557031, 0
-0.239662692, -9.794416   , 0.0428451635, 0.00305142673, 0.00155308994, -0.0002649809, -0.433800727, 0.377713352 , 0.02298773  , 1.57492316  , -0.024923021, 3.086128    , 0.35        , 3           , 50          , 0           , 0
-0.240598023, -9.802514   , 0.0400422625, 0.004633192 , -0.00111487776, -0.000280573324, -0.433531076, 0.376769572 , 0.02318997  , 1.57496965  , -0.0249201711, 3.086117    , 0.36        , 3           , 11          , 0.0347534828, 0.0347534828
-0.243132725, -9.782143   , 0.03705299  , -0.000433912122, -0.00269283215, 0.000474671629, -0.4331266  , 0.378185242 , 0.0229203179, 1.574966    , -0.0249248035, 3.08608985  , 0.37        , 3           , 12          , 0.0347557031, 0
-0.25589    , -9.793837   , 0.0412972644, -0.0025434494, -1.66625832E-05, -0.000309532625, -0.4331266  , 0.378185242 , 0.0229203179, 1.57494044  , -0.0249217171, 3.08608937  , 0.38        , 3           , 50          , 0           , 0
-0.257031858, -9.805281   , 0.058786463 , 0.000650145754, 0.000234241714, -0.000289946, -0.433935553, 0.377848178 , 0.0231225565, 1.57494688  , -0.0249188244, 3.08609223  , 0.39        , 3           , 11          , 0.0347534828, 0.0347534828
-0.2330126  , -9.79503    , 0.0555689856, -0.001969135, 0.00210841419, -0.000277598039, -0.433261424, 0.3769718   , 0.0232573822, 1.57521069  , -0.0250057  , 3.086106    , 0.4         , 3           , 12          , 0.0348981135, 0
-0.238219261, -9.784022   , 0.0411599129, -0.000929404749, -0.00215516356, -4.49130748E-05, -0.433194   , 0.378050417 , 0.0230551437, 1.57520187  , -0.0250051543, 3.0860846   , 0.41        , 3           , 50          , 0           , 0
-0.228656456, -9.780862   , 0.0340807363, 0.0006724034, -0.00109857146, -2.66578645E-05, -0.433194   , 0.378050417 , 0.0230551437, 1.5752089   , -0.0250048377, 3.08607316  , 0.42        , 3           , 11          , 0.01771411  , 0.01771395
-0.239413008, -9.775781   , 0.029934397 , -0.0003887748, -0.000297299324, 0.000240517271, -0.433800727, 0.377780765 , 0.0230551437, 1.575205    , -0.0250072274, 3.0860703   , 0.43        , 3           , 12          , 0.0348981135, 0
-0.219335988, -9.777495   , 0.0541048124, 0.003601495 , 0.001004516 , 0.00160229218, -0.433328837, 0.376837    , 0.0232573822, 1.57524085  , -0.0250233  , 3.08608079  , 0.44        , 3           , 50          , 0           , 0
-0.219155833, -9.77328    , 0.0374349877, -0.000913696247, -2.11647421E-05, -0.000822506845, -0.433328837, 0.378387481 , 0.0230551437, 1.57523167  , -0.0250150766, 3.08608031  , 0.45        , 3           , 11          , 0.01771411  , 0.01771395
-0.2432063  , -9.796567   , 0.03374558  , 0.00280630426, 0.001276233 , 0.00133477268, -0.433328837, 0.378387481 , 0.0230551437, 1.57525933  , -0.0250284821, 3.08609319  , 0.46        , 3           , 12          , 0.0348981135, 0
-0.234930053, -9.769564   , 0.0381827019, 0.00174791075, 0.001024703 , -1.59337651E-06, -0.433800727, 0.3779156   , 0.0230551437, 1.57527649  , -0.0250285156, 3.0861032   , 0.47        , 3           , 50          , 0           , 0
-0.232863009, -9.793983   , 0.03977051  , -0.00144712906, 0.000243611838, -0.00029166037, -0.433531076, 0.3769718   , 0.0231225565, 1.57526207  , -0.0250256062, 3.08610559  , 0.48        , 3           , 11          , 0.01771411  , 0.01771395
-0.241010532, -9.784984   , 0.0496991277, 0.00123298471, 0.00263482356, -0.00158381916, -0.433194   , 0.378387481 , 0.02298773  , 1.57527363  , -0.0250098929, 3.08613229  , 0.49        , 3           , 12          , 0.0348981135, 0
-0.224567026, -9.799253   , 0.06647169  , 0.000407378247, 0.000236652864, -0.0006039605, -0.433194   , 0.378387481 , 0.02298773  , 1.57523441  , -0.02473116 , 3.08613563  , 0.5         , 3           , 50          , 0           , 0
-0.218065873, -9.787005   , 0.05583211  , 0.0004044498, -0.0016161619, -0.00194910972, -0.433800727, 0.378050417 , 0.0230551437, 1.5752387   , -0.0247116033, 3.08611941  , 0.51        , 3           , 11          , 0.0134415664, 0.0134414881
-0.219488189, -9.773163   , 0.07447445  , -0.00120298052, -0.001623738, 0.000167466424, -0.43339625 , 0.3769044   , 0.0233247951, 1.57522714  , -0.0247132033, 3.0861032   , 0.52        , 3           , 12          , 0.035095837 , 0
-0.238333434, -9.786379   , 0.0519766062, -0.000914113247, 0.00157505239, -0.000864670845, -0.433328837, 0.378252655 , 0.0231225565, 1.5752176   , -0.0247046258, 3.086119    , 0.53        , 3           , 50          , 0           , 0
-0.244094014, -9.791613   , 0.0360429734, 0.000411633955, 0.000242331822, -0.00140089565, -0.433328837, 0.378252655 , 0.0231225565, 1.57522166  , -0.0246906262, 3.0861218   , 0.54        , 3           , 11          , 0.0134415664, 0.0134414881
-0.224775761, -9.79542    , 0.04256548  , -0.000134644331, -0.00109481032, -8.76202539E-05, -0.433935553, 0.37764594  , 0.0230551437, 1.57522058  , -0.0246897023, 3.08611035  , 0.55        , 3           , 12          , 0.035095837 , 0
-0.242420241, -9.810142   , 0.0358779952, -0.000936979952, -0.00188914628, -9.91655543E-05, -0.43339625 , 0.3769044   , 0.0232573822, 1.57521176  , -0.0246886238, 3.08609176  , 0.56        , 3           , 50          , 0           , 0
-0.240492031, -9.800166   , 0.0301288646, 0.0009322605, -0.0008319226, -0.00034512463, -0.433194   , 0.378320068 , 0.0232573822, 1.5752213   , -0.0246851332, 3.08608365  , 0.57        , 3           , 11          , 0.0134415664, 0.0134414881
-0.234123155, -9.78536    , 0.0362275243, -0.00143475283, 0.00238515949, -0.00218850467, -0.433194   , 0.378320068 , 0.0232573822, 1.57520628  , -0.0246633515, 3.08610749  , 0.58        , 3           , 12          , 0.035095837 , 0
-0.249072745, -9.781728   , 0.0455674678, -0.00172783679, -2.686854E-05, 0.0004447562, -0.433800727, 0.377780765 , 0.0229203179, 1.57518911  , -0.0246677976, 3.086107    , 0.59        , 3           , 50          , 0           , 0
-0.23873283 , -9.787669   , 0.0451827571, -0.00278262445, 0.00104593229, -0.000122129131, -0.433194   , 0.377039224 , 0.0232573822, 1.575163    , -0.024548417, 3.08611751  , 0.6         , 3           , 11          , 0.0113572842, 0.0113572627
-0.2671513  , -9.768178   , 0.0594857633, -0.00119656371, -0.0008239153, -0.000130468514, -0.433194   , 0.3784549   , 0.0233247951, 1.57515132  , -0.0245470721, 3.0861094   , 0.61        , 3           , 12          , 0.03534753  , 0
-0.243547022, -9.796453   , 0.0215456728, -0.0004027393, -4.09371569E-05, 0.00147494709, -0.433194   , 0.3784549   , 0.0233247951, 1.57514727  , -0.0245618261, 3.08610845  , 0.62        , 3           , 50          , 0           , 0
-0.242094517, -9.786499   , 0.0185009148, 0.00148647849, 0.00342011079, -7.747805E-05, -0.4337333  , 0.377848178 , 0.0230551437, 1.57516122  , -0.0245611966, 3.08614278  , 0.63        , 3           , 11          , 0.0113572842, 0.0113572627
-0.2486511  , -9.781311   , 0.04919069  , -0.000384193525, 0.0020968474, 0.000166063342, -0.433261424, 0.3769044   , 0.0233922079, 1.57515693  , -0.0245629549, 3.08616376  , 0.64        , 3           , 12          , 0.03534753  , 0
-0.228428632, -9.786022   , 0.0548117459, -0.00146684621, -0.00109248 , 0.000396973221, -0.433194   , 0.378185242 , 0.02318997  , 1.5751425   , -0.02456688 , 3.08615327  , 0.65        , 3           , 50          , 0           , 0
-0.2464883  , -9.79622    , 0.04771272  , -0.00252806372, -0.00108364876, -0.00014003992, -0.433194   , 0.378185242 , 0.02318997  , 1.57511747  , -0.02456543 , 3.08614182  , 0.66        , 3           , 11          , 0.0113572842, 0.0113572627
-0.262612671, -9.771323   , 0.0540889762, 0.002277309 , 0.00102953939, -0.00115752523, -0.4337333  , 0.3779156   , 0.0229203179, 1.57514     , -0.0245539  , 3.08615232  , 0.67        , 3           , 12          , 0.03534753  , 0
-0.24505493 , -9.770588   , 0.0592801981, 0.000688385335, 0.0023673072, -0.00115402113, -0.433531076, 0.377308875 , 0.0230551437, 1.57514632  , -0.0245424639, 3.08617616  , 0.68        , 3           , 50          , 0           , 0
-0.230013415, -9.77099    , 0.0422941856, -0.000122514073, 0.0005050254, -0.0006439472, -0.43339625 , 0.3785223   , 0.0232573822, 1.57514489  , -0.0245360434, 3.0861814   , 0.69        , 3           , 11          , 0.0113572842, 0.0113572627
-0.238403037, -9.786448   , 0.0596545637, -0.0003473509, 0.00129975472, -8.02009163E-05, -0.43339625 , 0.3785223   , 0.0232573822, 1.57522535  , -0.0245916843, 3.08619237  , 0.7         , 3           , 12          , 0.03565164  , 0
-0.22059302 , -9.772457   , 0.04736384  , -0.0014157265, -2.16138724E-05, -0.000629302463, -0.4336659  , 0.377983    , 0.0230551437, 1.57521117  , -0.0245854  , 3.08619237  , 0.71        , 3           , 50          , 0           , 0
-0.221710265, -9.798227   , 0.05070615  , 0.000729561958, 0.00316077541, -0.000588844239, -0.433261424, 0.377106637 , 0.02318997  , 1.57521749  , -0.0245796479, 3.08622384  , 0.72        , 3           , 11          , 0.0101358788, 0.0101358732
-0.216404557, -9.795233   , 0.06525654  , -0.0008807837, 0.00156453159, 0.000450645457, -0.433194   , 0.37858972  , 0.02298773  , 1.57520843  , -0.02458422 , 3.086239    , 0.73        , 3           , 12          , 0.03565164  , 0
-0.220760971, -9.795047   , 0.04803916  , 0.00126298179, 0.002631852 , -0.00138775341, -0.433194   , 0.37858972  , 0.02298773  , 1.57522035  , -0.0245704632, 3.0862658   , 0.74        , 3           , 50          , 0           , 0
-0.240476   , -9.779522   , 0.04479123  , 0.000163267221, -0.00137263234, 0.001226709 , -0.433800727, 0.377780765 , 0.0229203179, 1.57522249  , -0.0245826673, 3.086252    , 0.75        , 3           , 11          , 0.0101358788, 0.0101358732
-0.2527436  , -9.781764   , 0.05229825  , 0.0004363868, -0.001100282, 0.000167977123, -0.433463663, 0.377106637 , 0.0233247951, 1.57522714  , -0.024584299, 3.086241    , 0.76        , 3           , 12          , 0.03565164  , 0
-0.221613839, -9.797233   , 0.04077906  , -0.000353077368, 0.000235594925, -8.987168E-05, -0.433463663, 0.378657132 , 0.0231225565, 1.57522357  , -0.0245834123, 3.086243    , 0.77        , 3           , 50          , 0           , 0
-0.236558408, -9.80839348 , 0.0377741419, 0.000427888444, -0.0008474927, 0.00202991022, -0.433463663, 0.378657132 , 0.0231225565, 1.575228    , -0.0246036723, 3.08623433  , 0.78        , 3           , 11          , 0.0101358788, 0.0101358732
-0.243315741, -9.807438   , 0.0372493155, 0.002035371 , 0.000216671251, 0.0009855853, -0.4337333  , 0.3774437   , 0.02298773  , 1.57524824  , -0.0246135388, 3.08623672  , 0.79        , 3           , 12          , 0.03565164  , 0
-0.21940437 , -9.784291   , 0.0562946573, -0.000325376779, 0.00103477237, -0.000414871844, -0.433463663, 0.377308875 , 0.02318997  , 1.57528126  , -0.0244990941, 3.08624625  , 0.8         , 3           , 50          , 0           , 0
-0.231711566, -9.781185   , 0.0222949982, 0.00207305374, 0.00208568759, -0.000126679355, -0.433463663, 0.378657132 , 0.0230551437, 1.57530141  , -0.0244979188, 3.08626723  , 0.81        , 3           , 11          , 0.009380812 , 0.009380812
-0.265305161, -9.784742   , 0.04172486  , -0.0008531222, 0.001571268 , -0.000678543, -0.433463663, 0.378657132 , 0.0230551437, 1.57529259  , -0.0244912058, 3.086283    , 0.82        , 3           , 12          , 0.0360064246, 0
-0.244964823, -9.784849   , 0.03790697  , -5.79578082E-05, 0.0007712571, -0.000947149, -0.4335985  , 0.3775111   , 0.0231225565, 1.57529187  , -0.0244817659, 3.0862906   , 0.83        , 3           , 50          , 0           , 0
-0.232734263, -9.790717   , 0.0280596577, -0.0013837571, 0.00104738958, -0.00148317521, -0.4331266  , 0.377241462 , 0.0233247951, 1.57527769  , -0.0244669858, 3.086301    , 0.84        , 3           , 11          , 0.009380812 , 0.009380812
-0.250680685, -9.783762   , 0.022037182 , 0.000458426075, -4.452924E-05, 0.00117362  , -0.433463663, 0.378387481 , 0.0231225565, 1.57528234  , -0.0244787168, 3.08630061  , 0.85        , 3           , 12          , 0.0360064246, 0
-0.278796315, -9.786397   , 0.03521899  , -0.000843114, 0.003169401 , -0.000929681933, -0.433463663, 0.378387481 , 0.0231225565, 1.57527316  , -0.0244695637, 3.08633256  , 0.86        , 3           , 50          , 0           , 0
-0.2364149  , -9.781793   , 0.0430112481, -0.0005956722, 0.000502060866, -0.000155492919, -0.4337333  , 0.377578527 , 0.02298773  , 1.57526708  , -0.02446803 , 3.08633733  , 0.87        , 3           , 11          , 0.009380812 , 0.009380812
-0.225753486, -9.790557   , 0.0547990724, 0.0009975332, -0.000301734, -0.000419806573, -0.433194   , 0.377308875 , 0.02318997  , 1.57527709  , -0.0244638175, 3.08633447  , 0.88        , 3           , 12          , 0.0360064246, 0
-0.236540526, -9.770259   , 0.066163674 , -0.00111346168, 0.00158010132, -0.001742554, -0.43339625 , 0.37858972  , 0.02298773  , 1.57526565  , -0.02444646 , 3.08635068  , 0.89        , 3           , 50          , 0           , 0
-0.222669318, -9.792446   , 0.0615939237, 0.0004719756, 0.0010156713, 0.0017349018, -0.43339625 , 0.37858972  , 0.02298773  , 1.575285    , -0.0244923066, 3.08636022  , 0.9         , 3           , 11          , 0.008914581 , 0.008914588
-0.214581147, -9.794332   , 0.06393268  , -0.00190364046, 0.00237236684, -0.00039104704, -0.4337333  , 0.37764594  , 0.0228529051, 1.57526541  , -0.0244885013, 3.086384    , 0.91        , 3           , 12          , 0.0364100151, 0
-0.239046767, -9.794709   , 0.0744712949, -0.00112125592, 0.00129117211, 0.00146308984, -0.433194   , 0.3774437   , 0.0232573822, 1.57525384  , -0.0245031919, 3.08639646  , 0.92        , 3           , 50          , 0           , 0
-0.236580834, -9.797206   , 0.0491792448, -0.000595007266, -0.000832098362, 0.000384029554, -0.43339625 , 0.37858972  , 0.0230551437, 1.57524812  , -0.0245069955, 3.08638835  , 0.93        , 3           , 11          , 0.008914581 , 0.008914588
-0.241798729, -9.782621   , 0.0388714671, 0.00101110886, 0.00128676067, 0.0006776005, -0.43339625 , 0.37858972  , 0.0230551437, 1.5752579   , -0.0245138258, 3.08640122  , 0.94        , 3           , 12          , 0.0364100151, 0
-0.245049223, -9.77955151 , 0.0515110381, -0.0013830791, -2.26226111E-05, -0.000675589836, -0.4337333  , 0.3774437   , 0.0228529051, 1.57524419  , -0.0245070755, 3.08640122  , 0.95        , 3           , 50          , 0           , 0
-0.232169062, -9.778049   , 0.0254829358, 0.000208759942, 0.000228277611, 0.000397992582, -0.433531076, 0.3774437   , 0.0232573822, 1.57524621  , -0.0245110691, 3.08640313  , 0.96        , 3           , 11          , 0.008914581 , 0.008914588
-0.237131014, -9.77039    , 0.0313714743, 0.0007464877, 0.0007616209, -0.0001256007, -0.43339625 , 0.378657132 , 0.02318997  , 1.57525349  , -0.0245098416, 3.08641076  , 0.97        , 3           , 12          , 0.0364100151, 0
-0.269019961, -9.777198   , 0.0593726374, -0.0008524833, -0.000291185162, -0.000675146061, -0.43339625 , 0.378657132 , 0.02318997  , 1.57524514  , -0.0245030783, 3.086408    , 0.98        , 3           , 50          , 0           , 0
-0.247287542, -9.782209   , 0.04739144  , 0.00179908937, -0.00137174409, -0.00013921925, -0.4336659  , 0.3775111   , 0.0228529051, 1.57526338  , -0.02450163 , 3.08639455  , 0.99        , 3           , 11          , 0.008914581 , 0.008914588
-0.240840346, -9.77988148 , 0.0348449871, 0.00265337317, 0.00101602729, 0.000195202141, -0.433194   , 0.3774437   , 0.0232573822, 1.57534575  , -0.02455724 , 3.08640313  , 1           , 3           , 12          , 0.0368604064, 0
-0.261553943, -9.757272   , 0.04791826  , 0.00211991416, 0.00075251  , 0.000189922983, -0.433463663, 0.3785223   , 0.0231225565, 1.57536674  , -0.02455918 , 3.08641076  , 1.01        , 3           , 50          , 0           , 0
-0.223763973, -9.784555   , 0.0390727073, 0.00106012844, 0.001027381 , -0.000344672357, -0.433463663, 0.3785223   , 0.0231225565, 1.57537711  , -0.0245557837, 3.08642077  , 1.02        , 3           , 11          , 0.008637517 , 0.008637523
-0.244539931, -9.798331   , 0.0300977174, 0.0002620483, 0.000238724082, -0.00115315279, -0.433800727, 0.3773763   , 0.02298773  , 1.57537973  , -0.02454426 , 3.08642316  , 1.03        , 3           , 12          , 0.0368604064, 0
-0.242189527, -9.786146   , 0.02934496  , -0.0016043029, 0.000241874252, -0.000366232853, -0.433261424, 0.3773763   , 0.02318997  , 1.57536364  , -0.02454061 , 3.086426    , 1.04        , 3           , 50          , 0           , 0
-0.240487918, -9.800162   , 0.02967722  , -0.0005245396, 0.0023708276, -0.00113810343, -0.43339625 , 0.378724545 , 0.0231225565, 1.57535779  , -0.0245293472, 3.08644938  , 1.05        , 3           , 11          , 0.008637517 , 0.008637523
-0.256836623, -9.798359   , 0.0425956361, -0.000801993068, 0.0005079163, -0.000890813069, -0.43339625 , 0.378724545 , 0.0231225565, 1.57534969  , -0.0245204549, 3.08645463  , 1.06        , 3           , 12          , 0.0368604064, 0
-0.240644008, -9.787762   , 0.0569035821, -0.00136118184, -0.00375187956, -0.000135422422, -0.433800727, 0.377241462 , 0.0229203179, 1.57533693  , -0.0245189387, 3.086417    , 1.07        , 3           , 50          , 0           , 0
-0.230186388, -9.778787   , 0.0553143881, -0.0005374502, -0.000551826, -0.00169598823, -0.433531076, 0.37764594  , 0.02318997  , 1.57533181  , -0.0245019533, 3.08641171  , 1.08        , 3           , 11          , 0.008637517 , 0.008637523
-0.263208359, -9.801509   , 0.0461000577, 0.00131471525, -0.000573906, 0.000173542328, -0.433531076, 0.378657132 , 0.0230551437, 1.575345    , -0.0245036557, 3.086406    , 1.09        , 3           , 12          , 0.0368604064, 0
-0.237072423, -9.795448   , 0.05506339  , 0.00159148558, 0.0010271403, -0.0005314954, -0.433531076, 0.378657132 , 0.0230551437, 1.57535815  , -0.0245876983, 3.08641648  , 1.1         , 3           , 50          , 0           , 0
-0.25272584 , -9.780401   , 0.05140864  , 0.002133547 , 0.00315104448, -0.000243647242, -0.4336659  , 0.377241462 , 0.02298773  , 1.57537878  , -0.02458541 , 3.086448    , 1.11        , 3           , 11          , 0.008482844 , 0.008482856
-0.241626322, -9.76227    , 0.035915114 , 0.0002642413, 0.0007730858, -0.001338002, -0.433463663, 0.3774437   , 0.0231225565, 1.57538128  , -0.0245720651, 3.08645558  , 1.12        , 3           , 12          , 0.0373555273, 0
-0.238111138, -9.77046    , 0.0399417542, 0.00238952646, 0.00102335634, -0.000527203141, -0.43339625 , 0.37858972  , 0.0229203179, 1.57540488  , -0.0245668422, 3.086466    , 1.13        , 3           , 50          , 0           , 0
-0.236887068, -9.783604   , 0.0438908   , -0.00105574017, 0.003962407 , 1.2081945E-05, -0.4335985  , 0.3774437   , 0.02298773  , 1.57539332  , -0.0245671477, 3.08650517  , 1.14        , 3           , 11          , 0.008482844 , 0.008482856
-0.245179757, -9.796274   , 0.05269728  , 0.0005431395, 0.00316618429, -0.001314812, -0.4335985  , 0.3774437   , 0.02298773  , 1.575398    , -0.0245541465, 3.08653712  , 1.15        , 3           , 12          , 0.0373555273, 0
-0.254747331, -9.768492   , 0.0347888768, -0.000555195438, -0.00162884779, 0.000229816942, -0.4331266  , 0.3775111   , 0.0232573822, 1.575393    , -0.0245563667, 3.086521    , 1.16        , 3           , 50          , 0           , 0
-0.239394635, -9.768588   , 0.0336205   , -0.00160066527, 0.001306423 , -0.0002806015, -0.433531076, 0.3785223   , 0.0232573822, 1.57537651  , -0.0245536212, 3.08653378  , 1.17        , 3           , 11          , 0.008482844 , 0.008482856
-0.243050277, -9.776232   , 0.0325958058, -0.001858102, 0.00263977726, -0.0005355889, -0.434070379, 0.377308875 , 0.0229203179, 1.57535732  , -0.0245483872, 3.08656049  , 1.18        , 3           , 12          , 0.0373555273, 0
-0.24230814 , -9.800613   , 0.0310056377, 0.000517396547, -0.00109424116, -0.000822205, -0.434070379, 0.377308875 , 0.0229203179, 1.5753628   , -0.0245401151, 3.08654952  , 1.19        , 3           , 50          , 0           , 0
-0.2622936  , -9.797467   , 0.04795864  , 0.00202711835, -0.000312797376, 0.000839679269, -0.433328837, 0.37764594  , 0.0232573822, 1.57528961  , -0.0246078465, 3.08654857  , 1.2         , 3           , 11          , 0.008402991 , 0.008402993
-0.24508445 , -9.802906   , 0.0368213132, 0.00151220511, 0.00156147  , -0.000474483619, -0.4335985  , 0.37858972  , 0.0231225565, 1.57530439  , -0.0246031713, 3.0865643   , 1.21        , 3           , 12          , 0.0378932431, 0
-0.237806454, -9.80783    , 0.0264711212, -0.00114224385, 0.001845802 , -0.00128330849, -0.4336659  , 0.377308875 , 0.02298773  , 1.57529247  , -0.0245904177, 3.08658242  , 1.22        , 3           , 50          , 0           , 0
-0.2396039  , -9.788977   , 0.040641658 , -0.000351347961, 0.000775965047, -0.0010230419, -0.4336659  , 0.377308875 , 0.02298773  , 1.57528877  , -0.0245802272, 3.08659053  , 1.23        , 3           , 11          , 0.008402991 , 0.008402993
-0.224646121, -9.759864   , 0.0564750135, 0.00123619637, 0.000228745426, 4.32873276E-05, -0.433328837, 0.377713352 , 0.0231225565, 1.575301    , -0.0245806687, 3.086593    , 1.24        , 3           , 12          , 0.0378932431, 0
-0.223338217, -9.784136   , 0.04224427  , -0.00141820067, 0.0015696655, 0.0003067134, -0.4336659  , 0.378657132 , 0.0231225565, 1.57528663  , -0.0245838054, 3.08660865  , 1.25        , 3           , 50          , 0           , 0
-0.246614486, -9.804866   , 0.0548524149, 0.00203997665, 0.0015532684, 0.000325313042, -0.4336659  , 0.377241462 , 0.02298773  , 1.57530665  , -0.024587132, 3.08662438  , 1.26        , 3           , 11          , 0.008402991 , 0.008402993
-0.243638188, -9.771432   , 0.051609572 , 0.0009844988, 0.00289040664, 6.60335E-05 , -0.4336659  , 0.377241462 , 0.02298773  , 1.57531571  , -0.0245879255, 3.086653    , 1.27        , 3           , 12          , 0.0378932431, 0
-0.248487934, -9.782944   , 0.0297517   , -0.000601626933, 0.003439519 , -0.00126594084, -0.433261424, 0.37764594  , 0.0231225565, 1.5753088   , -0.0245754234, 3.08668733  , 1.28        , 3           , 50          , 0           , 0
-0.24022986 , -9.795874   , 0.0545687824, -0.006481127, -0.0015874916, -0.0013433533, -0.4336659  , 0.378657132 , 0.0231225565, 1.57524431  , -0.024561923, 3.08667159  , 1.29        , 3           , 11          , 0.008402991 , 0.008402993
-0.2364976  , -9.795777   , 0.0410633236, 0.000983246 , -0.00108906627, -0.001550966, -0.4337333  , 0.3773763   , 0.02298773  , 1.57526755  , -0.02456117 , 3.08666062  , 1.3         , 3           , 12          , 0.03847141  , 0
-0.235843435, -9.772259   , 0.0372410864, 0.000439909229, -0.0003092467, 0.00137552142, -0.4337333  , 0.3773763   , 0.02298773  , 1.57527208  , -0.0245749243, 3.08665729  , 1.31        , 3           , 50          , 0           , 0
-0.225200042, -9.776108   , 0.05495046  , -0.0005999773, 0.000784567266, -0.00207391684, -0.433261424, 0.377578527 , 0.0231225565, 1.57526577  , -0.024554221, 3.08666539  , 1.32        , 3           , 11          , 0.00836533  , 0.008365324
-0.2419782  , -9.795357   , 0.0486800075, -0.00193573313, 0.0005191548, -0.00128655287, -0.4337333  , 0.3785223   , 0.0231225565, 1.57524633  , -0.02454138 , 3.08667016  , 1.33        , 3           , 12          , 0.03847141  , 0
-0.232802317, -9.785403   , 0.03985714  , -0.0006241844, -0.00109664234, 0.0005656102, -0.4335985  , 0.37717405  , 0.0231225565, 1.57524025  , -0.0245469846, 3.08665967  , 1.34        , 3           , 50          , 0           , 0
-0.2434542  , -9.760935   , 0.0395200141, -0.003012646, -0.00134186563, -0.0007779096, -0.4335985  , 0.37717405  , 0.0231225565, 1.57521057  , -0.0245391466, 3.08664632  , 1.35        , 3           , 11          , 0.00836533  , 0.008365324
-0.213756859, -9.784096   , 0.030616723 , -0.00223315088, -0.00348343421, 0.000535266532, -0.43339625 , 0.377308875 , 0.0229203179, 1.57518911  , -0.0245443452, 3.086611    , 1.36        , 3           , 12          , 0.03847141  , 0
-0.240449473, -9.790708   , 0.0329344757, -0.000335356162, 0.00130970683, -0.00127071538, -0.4336659  , 0.378724545 , 0.0230551437, 1.57518542  , -0.0245316941, 3.08662438  , 1.37        , 3           , 50          , 0           , 0
-0.229030415, -9.782576   , 0.0241208132, 0.000723011 , 0.00103294267, -0.000470474857, -0.43386814 , 0.3769718   , 0.0229203179, 1.57519245  , -0.02452704 , 3.08663487  , 1.38        , 3           , 11          , 0.00836533  , 0.008365324
-0.218756124, -9.778268   , 0.0391969   , 0.00125358067, 0.000236086213, -0.00100615644, -0.43386814 , 0.3769718   , 0.0229203179, 1.57520485  , -0.0245169867, 3.08663678  , 1.39        , 3           , 12          , 0.03847141  , 0
-0.225762263, -9.796395   , 0.0511266366, 0.0006424771, 0.00129467528, 0.000209598249, -0.43339625 , 0.3779156   , 0.02318997  , 1.57512271  , -0.0243837  , 3.086652    , 1.4         , 3           , 50          , 0           , 0
-0.2387216  , -9.791245   , 0.041081477 , -0.00255545229, -0.0005467898, -0.000621429645, -0.434002966, 0.378320068 , 0.02318997  , 1.57509744  , -0.0243774615, 3.0866468   , 1.41        , 3           , 11          , 0.008351521 , 0.008351516
-0.2296667  , -9.767959   , 0.056332577 , 0.0006380779, -0.00161662046, -0.00194215681, -0.4336659  , 0.377308875 , 0.0229203179, 1.57510412  , -0.0243579727, 3.08663058  , 1.42        , 3           , 12          , 0.03908785  , 0
-0.246581346, -9.8070755  , 0.04940988  , 0.00119013491, 0.00184126967, -0.00217351061, -0.4336659  , 0.377308875 , 0.0229203179, 1.57511556  , -0.02433632 , 3.08664918  , 1.43        , 3           , 50          , 0           , 0
-0.249030113, -9.786619   , 0.036936067 , -0.000430219166, -0.00135310716, -0.0008828819, -0.433261424, 0.3775111   , 0.0231225565, 1.57511163  , -0.02432743 , 3.08663583  , 1.44        , 3           , 11          , 0.008351521 , 0.008351516
-0.2359833  , -9.782264   , 0.0448187366, 0.00251022074, 0.0007651243, -0.00137909234, -0.4336659  , 0.378791958 , 0.0230551437, 1.57513654  , -0.0243136771, 3.08664346  , 1.45        , 3           , 12          , 0.03908785  , 0
-0.2318881  , -9.80154    , 0.02570299  , -0.00094932277, 0.001836216 , -5.97958569E-05, -0.433800727, 0.377039224 , 0.0231225565, 1.57512665  , -0.0243131556, 3.08666158  , 1.46        , 3           , 50          , 0           , 0
-0.238508314, -9.774888   , 0.0304061286, 0.003022336 , -0.000320488121, 0.00127054914, -0.433800727, 0.377039224 , 0.0231225565, 1.575157    , -0.0243258476, 3.08665872  , 1.47        , 3           , 11          , 0.008351521 , 0.008351516
-0.234655023, -9.792165   , 0.0397668034, -0.00442324765, -0.00107382657, -0.000104990089, -0.433194   , 0.377713352 , 0.02298773  , 1.57511294  , -0.02432475 , 3.08664775  , 1.48        , 3           , 12          , 0.03908785  , 0
-0.231348515, -9.800564   , 0.06682734  , -0.001492803, -0.000289581018, -8.199886E-05, -0.434002966, 0.378791958 , 0.0230551437, 1.57509816  , -0.0243239142, 3.086645    , 1.49        , 3           , 50          , 0           , 0
-0.245187387, -9.776103   , 0.0696133152, -0.00174276053, -0.00108327786, -0.000665602158, -0.4336659  , 0.377106637 , 0.0229203179, 1.57510138  , -0.0242667422, 3.08663344  , 1.5         , 3           , 11          , 0.008334764 , 0.008334766
-0.21777536 , -9.786716   , 0.0237653088, -0.00279114582, 0.000263325142, -0.002253107, -0.4336659  , 0.377106637 , 0.0229203179, 1.57507348  , -0.0242442172, 3.0866363   , 1.51        , 3           , 12          , 0.0397404432, 0
-0.217544854, -9.793218   , 0.0431277081, -0.00359199732, 0.0007916171, -0.00118998357, -0.433328837, 0.377713352 , 0.0231225565, 1.57503736  , -0.02423235 , 3.08664441  , 1.52        , 3           , 50          , 0           , 0
-0.236160085, -9.796342   , 0.0532586649, -0.0020244827, -0.00321601517, 0.000110560715, -0.43386814 , 0.3784549   , 0.0229203179, 1.57501793  , -0.0242333245, 3.086612    , 1.53        , 3           , 11          , 0.008334764 , 0.008334766
-0.258488119, -9.7807045  , 0.03958998  , -0.00120926253, -2.73195055E-05, 0.00014386524, -0.4335985  , 0.377039224 , 0.02318997  , 1.57500577  , -0.0242347624, 3.086612    , 1.54        , 3           , 12          , 0.0397404432, 0
-0.2378518  , -9.787249   , 0.0479081571, 0.000396827556, 0.00156324566, -9.868921E-05, -0.4335985  , 0.377039224 , 0.02318997  , 1.57500935  , -0.0242338348, 3.08662724  , 1.55        , 3           , 50          , 0           , 0
-0.233225733, -9.784924   , 0.037146356 , -0.00306427828, -0.000273172482, -0.001462438, -0.43339625 , 0.377983    , 0.02298773  , 1.57497883  , -0.0242191982, 3.08662486  , 1.56        , 3           , 11          , 0.008334764 , 0.008334766
-0.256217957, -9.777567   , 0.0405526161, -0.0012135834, -0.00135373324, -0.0003995133, -0.4337333  , 0.378387481 , 0.0230551437, 1.574967    , -0.0242151469, 3.086611    , 1.57        , 3           , 12          , 0.0397404432, 0
-0.243157685, -9.779926   , 0.04159224  , -0.0003970097, 0.0005161204, -0.00197216775, -0.433463663, 0.377106637 , 0.02298773  , 1.57496285  , -0.0241954457, 3.08661675  , 1.58        , 3           , 50          , 0           , 0
-0.233335733, -9.783239   , 0.0507139266, 0.000137945855, 0.002366413 , -0.000624157, -0.433463663, 0.377106637 , 0.02298773  , 1.57496369  , -0.0241893027, 3.08664012  , 1.59        , 3           , 11          , 0.008334764 , 0.008334766
-0.242078781, -9.814739   , 0.0444191545, -0.00168540864, 0.00104211771, -0.00035214232, -0.433328837, 0.377848178 , 0.0231225565, 1.57500279  , -0.0242196545, 3.08664918  , 1.6         , 3           , 12          , 0.04042708  , 0
-0.242993772, -9.771691   , 0.02993153  , -0.0006256619, -2.5194342E-05, -0.000621735235, -0.433935553, 0.37858972  , 0.02298773  , 1.57499647  , -0.02421344 , 3.08664918  , 1.61        , 3           , 50          , 0           , 0
-0.227520019, -9.789161   , 0.0516293   , -0.002205996, 0.0029088133, -0.0006037251, -0.433531076, 0.37717405  , 0.02298773  , 1.5749737   , -0.0242075231, 3.08667827  , 1.62        , 3           , 11          , 0.008312035 , 0.008312036
-0.22251232 , -9.786909   , 0.04855091  , 0.00125069753, 0.00156978844, -0.00165979424, -0.433531076, 0.37717405  , 0.02298773  , 1.57498574  , -0.0241909977, 3.086694    , 1.63        , 3           , 12          , 0.04042708  , 0
-0.22755149 , -9.787842   , 0.006016759 , -0.00276523712, -0.0024075706, -0.0009205855, -0.43339625 , 0.377780765 , 0.0229203179, 1.57495868  , -0.0241816957, 3.08667016  , 1.64        , 3           , 50          , 0           , 0
-0.237776279, -9.784032   , 0.0420686975, -0.000641344464, -0.001630899, 0.0006919839, -0.434002966, 0.378320068 , 0.0231225565, 1.57495272  , -0.0241885446, 3.08665347  , 1.65        , 3           , 11          , 0.008312035 , 0.008312036
-0.2571668  , -9.778953   , 0.044592768 , -0.000372441456, -0.000571786542, 0.00123437564, -0.4336659  , 0.377106637 , 0.0230551437, 1.574949    , -0.0242008641, 3.08664775  , 1.66        , 3           , 12          , 0.04042708  , 0
-0.242326319, -9.799735   , 0.03372464  , -0.0003553012, 0.00182825234, 0.0004591996, -0.4336659  , 0.377106637 , 0.0230551437, 1.57494509  , -0.02420553 , 3.08666635  , 1.67        , 3           , 50          , 0           , 0
-0.226037726, -9.771552   , 0.05137191  , -0.000353947864, 0.0005094103, -0.00114675914, -0.433328837, 0.37811783  , 0.02298773  , 1.5749414   , -0.024194086, 3.086671    , 1.68        , 3           , 11          , 0.008312035 , 0.008312036
-0.236946926, -9.778283   , 0.0547849946, 0.00230912981, 0.002613759 , 0.000480760151, -0.43386814 , 0.37858972  , 0.0229203179, 1.57496393  , -0.0241990052, 3.08669734  , 1.69        , 3           , 12          , 0.04042708  , 0
-0.2463989  , -9.769224   , 0.0592774078, 0.00314126816, 0.00182249176, -0.00111462141, -0.4336659  , 0.377106637 , 0.02318997  , 1.57503152  , -0.0241897162, 3.086715    , 1.7         , 3           , 50          , 0           , 0
-0.2313212  , -9.76107    , 0.04508789  , 0.00285243988, -0.0005838574, 0.000721703866, -0.4336659  , 0.377106637 , 0.02318997  , 1.57506025  , -0.0241969153, 3.08670878  , 1.71        , 3           , 11          , 0.008279774 , 0.00827978551
-0.224794492, -9.781986   , 0.05534831  , -0.00272667524, 0.0010369767, 0.0009718095, -0.433194   , 0.377848178 , 0.0231225565, 1.57503283  , -0.02420667 , 3.08671927  , 1.72        , 3           , 12          , 0.04114573  , 0
-0.238716543, -9.773303   , 0.0548132025, 0.0004597098, -0.00109890674, -9.294331E-05, -0.434070379, 0.37858972  , 0.02298773  , 1.5750376   , -0.02420569 , 3.08670831  , 1.73        , 3           , 50          , 0           , 0
-0.245069161, -9.792128   , 0.04370541  , -0.000602913031, -0.000827821554, -9.624857E-05, -0.433935553, 0.377106637 , 0.0230551437, 1.57503176  , -0.0242047012, 3.08669972  , 1.74        , 3           , 11          , 0.008279774 , 0.00827978551
-0.243272528, -9.806499   , 0.0331936255, 0.0002165628, 0.00236655329, -0.0008598793, -0.433935553, 0.377106637 , 0.0230551437, 1.57503331  , -0.0241962019, 3.08672357  , 1.75        , 3           , 12          , 0.04114573  , 0
-0.217525184, -9.788713   , 0.04452823  , -0.00138521928, 0.00183825509, -0.000342008949, -0.433261424, 0.37811783  , 0.02318997  , 1.575019    , -0.0241928659, 3.08674169  , 1.76        , 3           , 50          , 0           , 0
-0.2300344  , -9.79119    , 0.0285396688, -0.00325010018, 0.00289988634, 0.001251517 , -0.43386814 , 0.3785223   , 0.0232573822, 1.57498586  , -0.0242055021, 3.08677125  , 1.77        , 3           , 11          , 0.008279774 , 0.00827978551
-0.2290804  , -9.782178   , 0.0299967621, -0.00032547256, 0.000770943 , -0.000611601863, -0.4336659  , 0.377308875 , 0.0232573822, 1.5749824   , -0.0241994187, 3.08677888  , 1.78        , 3           , 12          , 0.04114573  , 0
-0.223420545, -9.800362   , 0.0384669751, 0.002878144 , 0.0028841272, -0.0005750914, -0.4336659  , 0.377308875 , 0.0232573822, 1.57501042  , -0.0241937879, 3.08680749  , 1.79        , 3           , 50          , 0           , 0
-0.2415268  , -9.787289   , 0.0550905764, 0.00257179  , -0.00216933223, -0.0006871921, -0.43339625 , 0.378252655 , 0.0230551437, 1.57502     , -0.0241045821, 3.08678651  , 1.8         , 3           , 11          , 0.008236411 , 0.008236425
-0.232852414, -9.789041   , 0.0425305255, -0.0019689356, -0.00322908675, 0.00166962016, -0.433935553, 0.37858972  , 0.0231225565, 1.575001    , -0.0241211466, 3.086754    , 1.81        , 3           , 12          , 0.04189441  , 0
-0.233197212, -9.788931   , 0.0307822842, 0.001004275 , 0.00183830014, -0.00198773644, -0.4335985  , 0.37717405  , 0.0231225565, 1.57501054  , -0.0241013523, 3.0867722   , 1.82        , 3           , 50          , 0           , 0
-0.240089417, -9.798425   , 0.03692726  , -7.25988939E-05, 0.0007697206, -0.0006749049, -0.4335985  , 0.37717405  , 0.0231225565, 1.57500958  , -0.0240946338, 3.08677983  , 1.83        , 3           , 11          , 0.008236411 , 0.008236425
-0.2489497  , -9.787884   , 0.0269861948, 0.00257903943, 0.00100989651, 0.00120133569, -0.433328837, 0.378320068 , 0.02318997  , 1.57503521  , -0.0241066851, 3.08679032  , 1.84        , 3           , 12          , 0.04189441  , 0
-0.239008978, -9.787043   , 0.0262127351, 0.00390338153, -6.056981E-05, 0.00119881867, -0.434070379, 0.378657132 , 0.0232573822, 1.5750742   , -0.0241186712, 3.08678937  , 1.85        , 3           , 50          , 0           , 0
-0.232043937, -9.813805   , 0.033257857 , 0.0007240626, 0.00155648473, 0.0003992207, -0.4337333  , 0.377241462 , 0.0231225565, 1.57508111  , -0.0241227373, 3.086805    , 1.86        , 3           , 11          , 0.008236411 , 0.008236425
-0.248555124, -9.796464   , 0.02645341  , -0.00113087462, 0.00289551355, 0.000401293946, -0.4337333  , 0.377241462 , 0.0231225565, 1.57506907  , -0.0241268743, 3.08683419  , 1.87        , 3           , 12          , 0.04189441  , 0
-0.24990195 , -9.7834425  , 0.0360537171, -0.000338612357, 0.000770981831, -0.00067633565, -0.43339625 , 0.3785223   , 0.0231225565, 1.57506561  , -0.02412014 , 3.08684182  , 1.88        , 3           , 50          , 0           , 0
-0.231532156, -9.776526   , 0.0562240146, -0.00192900689, 0.00105026853, -0.00147943769, -0.433935553, 0.3784549   , 0.0230551437, 1.575046    , -0.0241053887, 3.08685231  , 1.89        , 3           , 11          , 0.008236411 , 0.008236425
-0.224810466, -9.784244   , 0.0553255156, 0.0009712892, 0.00396782672, -0.00193590694, -0.4337333  , 0.377308875 , 0.0231225565, 1.574996    , -0.0241290387, 3.08689332  , 1.9         , 3           , 12          , 0.0426712222, 0
-0.23690553 , -9.794833   , 0.03700215  , -0.00491950754, -1.773989E-05, 0.00118409214, -0.4337333  , 0.377308875 , 0.0231225565, 1.57494676  , -0.0241408814, 3.08689332  , 1.91        , 3           , 50          , 0           , 0
-0.227957219, -9.794076   , 0.046153903 , -0.0033191836, -0.0002837758, 0.000127678621, -0.43339625 , 0.378320068 , 0.0230551437, 1.57491362  , -0.0241421442, 3.08689046  , 1.92        , 3           , 11          , 0.008181547 , 0.008181561
-0.210406572, -9.785726   , 0.05819729  , 0.00119874056, -0.0013674848, -0.000123314559, -0.4341378  , 0.378657132 , 0.0230551437, 1.574926    , -0.0241408553, 3.08687663  , 1.93        , 3           , 12          , 0.0426712222, 0
-0.213824078, -9.764881   , 0.05339503  , -0.00170738 , 0.002106802 , -0.0003732678, -0.433463663, 0.37717405  , 0.02318997  , 1.57490849  , -0.0241372064, 3.086898    , 1.94        , 3           , 50          , 0           , 0
-0.236599147, -9.786013   , 0.0601327159, 0.00278629782, -0.00165055762, 0.00121107756, -0.433463663, 0.37717405  , 0.02318997  , 1.57493675  , -0.02414925 , 3.086881    , 1.95        , 3           , 11          , 0.008181547 , 0.008181561
-0.239280224, -9.780586   , 0.0615094453, -0.000395961863, -0.00215046527, -0.00120173232, -0.43339625 , 0.3785223   , 0.0229203179, 1.57493341  , -0.024137143, 3.08686     , 1.96        , 3           , 12          , 0.0426712222, 0
-0.247458532, -9.801213   , 0.05126477  , -0.000920792, -2.530156E-05, -0.0003883171, -0.4341378  , 0.378387481 , 0.02318997  , 1.57492423  , -0.02413326 , 3.08685946  , 1.97        , 3           , 50          , 0           , 0
-0.230193719, -9.797629   , 0.0411218926, -0.00278005027, -1.2686447E-05, -0.0009296225, -0.4335985  , 0.3773763   , 0.0232573822, 1.57489645  , -0.024123963, 3.08685946  , 1.98        , 3           , 11          , 0.008181547 , 0.008181561
-0.227475271, -9.782837   , 0.0516931079, -0.000377324759, 0.00183634856, -0.0006341769, -0.4335985  , 0.3773763   , 0.0232573822, 1.57489216  , -0.0241176952, 3.086878    , 1.99        , 3           , 12          , 0.0426712222, 0
-0.217526972, -9.787818   , 0.045440644 , -0.00401599659, -0.00160720211, -0.000728967832, -0.433531076, 0.37858972  , 0.0229203179, 1.57499528  , -0.0240509789, 3.08685851  , 2           , 3           , 50          , 0           , 0
-0.239184126, -9.791701   , 0.0419747122, -0.00107835454, 0.00129968417, 0.000110300112, -0.433935553, 0.3785223   , 0.0230551437, 1.57498419  , -0.0240521375, 3.08687139  , 2.01        , 3           , 11          , 0.008114708 , 0.008114713
-0.241118342, -9.786436   , 0.060524933 , 0.00130576  , -0.000309800438, 0.0003743157, -0.4337333  , 0.377308875 , 0.0232573822, 1.57499731  , -0.0240558758, 3.08686852  , 2.02        , 3           , 12          , 0.04347433  , 0
-0.235556632, -9.782291   , 0.0475341   , 0.000234573236, -0.001106661, 0.000892629847, -0.433261424, 0.3784549   , 0.0230551437, 1.57499993  , -0.0240647513, 3.086857    , 2.03        , 3           , 50          , 0           , 0
-0.229677871, -9.793083   , 0.0375598148, -1.01357728E-05, -0.0005487111, -0.00255735149, -0.433261424, 0.3784549   , 0.0230551437, 1.57499993  , -0.0240391549, 3.08685184  , 2.04        , 3           , 11          , 0.008114708 , 0.008114713
-0.222624823, -9.794196   , 0.0552526563, 0.000779393769, -0.0005638529, -0.0009591888, -0.4342052  , 0.378387481 , 0.0232573822, 1.5750078   , -0.0240295436, 3.086846    , 2.05        , 3           , 12          , 0.04347433  , 0
-0.249091953, -9.802824   , 0.0309005436, -0.0002789733, -0.0002870888, -0.00175942935, -0.4335985  , 0.3773763   , 0.0232573822, 1.575005    , -0.0240119379, 3.08684373  , 2.06        , 3           , 50          , 0           , 0
-0.240460575, -9.797444   , 0.0288012829, -0.00320078945, 0.00131734647, -0.0009637261, -0.433261424, 0.378724545 , 0.0231225565, 1.57497287  , -0.0240023565, 3.0868566   , 2.07        , 3           , 11          , 0.008114708 , 0.008114713
-0.234735012, -9.793141   , 0.0478872955, -1.99875212E-05, 0.0010229199, 0.0009105406, -0.433261424, 0.378724545 , 0.0231225565, 1.57497239  , -0.024011502, 3.08686662  , 2.08        , 3           , 12          , 0.04347433  , 0
-0.24194473 , -9.785459   , 0.0528451055, 0.0007694637, -0.0005771038, 0.000900326646, -0.433935553, 0.3784549   , 0.0232573822, 1.57498026  , -0.0240204781, 3.086861    , 2.09        , 3           , 50          , 0           , 0
-0.2274031  , -9.788147   , 0.0394439772, 0.00189357542, 0.0020752612, 0.00120511744, -0.4337333  , 0.37764594  , 0.0233247951, 1.575066    , -0.024045812, 3.08688     , 2.1         , 3           , 11          , 0.008038691 , 0.008038708
-0.237006351, -9.789553   , 0.0524127856, 0.00323073659, 0.00207841955, -0.000115954179, -0.4335985  , 0.378657132 , 0.0230551437, 1.57509768  , -0.0240447447, 3.086901    , 2.11        , 3           , 12          , 0.04430201  , 0
-0.2377319  , -9.775469   , 0.04396189  , -0.00394453853, 0.00212193979, -0.00148280954, -0.4335985  , 0.378657132 , 0.0230551437, 1.57505774  , -0.0240300074, 3.086922    , 2.12        , 3           , 50          , 0           , 0
-0.223827019, -9.779685   , 0.04996235  , -0.00102982868, 0.000243892559, -0.00121835 , -0.434070379, 0.3784549   , 0.0232573822, 1.57504725  , -0.02401783 , 3.08692479  , 2.13        , 3           , 11          , 0.008038691 , 0.008038708
-0.245082   , -9.779585   , 0.0551242121, -0.00102982868, 0.000243892559, -0.00121835 , -0.4336659  , 0.3774437   , 0.0233247951, 1.57503688  , -0.0240056552, 3.08692718  , 2.14        , 3           , 12          , 0.04430201  , 0
-0.25637567 , -9.774585   , 0.0604569241, -0.00163475273, 4.01018551E-05, -0.000227213561, -0.433463663, 0.378791958 , 0.0231225565, 1.57502055  , -0.0240033846, 3.08692765  , 2.15        , 3           , 50          , 0           , 0
-0.236934751, -9.782307   , 0.0502275079, -0.000435567, -2.87712828E-05, -0.000686258543, -0.433463663, 0.378791958 , 0.0231225565, 1.57501626  , -0.0239965189, 3.08692765  , 2.16        , 3           , 11          , 0.008038691 , 0.008038708
-0.262596756, -9.787451   , 0.0394722037, -0.00118389 , -0.00242486852, 1.85716435E-05, -0.434002966, 0.378185242 , 0.02318997  , 1.57500494  , -0.023996599, 3.08690286  , 2.17        , 3           , 12          , 0.04430201  , 0
-0.250878155, -9.773196   , 0.0524068251, -0.00356693054, -0.0006158538, -0.000243630668, -0.433800727, 0.37764594  , 0.0231225565, 1.57496953  , -0.02399414 , 3.08689713  , 2.18        , 3           , 50          , 0           , 0
-0.257836   , -9.805177   , 0.04793601  , -0.00164547039, -0.00155897764, 0.000156747861, -0.43339625 , 0.378859371 , 0.0230551437, 1.57495344  , -0.0239956379, 3.0868814   , 2.19        , 3           , 11          , 0.008038691 , 0.008038708
-0.23934716 , -9.777959   , 0.0208786931, 0.000695653551, -0.00137448881, 0.000681624166, -0.43339625 , 0.378859371 , 0.0230551437, 1.57508087  , -0.0241690148, 3.08686471  , 2.2         , 3           , 12          , 0.0451525934, 0
-0.235125244, -9.790834   , 0.0429365039, 0.000170022919, -0.0010993008, -0.000248577358, -0.43386814 , 0.3784549   , 0.0230551437, 1.5750829   , -0.0241664778, 3.08685374  , 2.21        , 3           , 50          , 0           , 0
-0.23793155 , -9.776116   , 0.06563631  , -0.00215580384, -0.000689677545, -0.000191058512, -0.43339625 , 0.3775111   , 0.02318997  , 1.57506144  , -0.0241645426, 3.08684659  , 2.22        , 3           , 11          , 0.007955309 , 0.007955328
-0.24061586 , -9.789528   , 0.0523688942, -0.0026160113, -0.000746408245, -0.001256747, -0.433531076, 0.378657132 , 0.02318997  , 1.57503533  , -0.0241519455, 3.08683944  , 2.23        , 3           , 12          , 0.0451525934, 0
-0.2395003  , -9.791563   , 0.0270649455, 0.00124303484, 0.000756514142, -2.66967163E-05, -0.433531076, 0.378657132 , 0.02318997  , 1.57504773  , -0.0241517071, 3.086847    , 2.24        , 3           , 50          , 0           , 0
-0.233196884, -9.776822   , 0.04038994  , 0.00189414644, -0.00111412467, 0.00069048017, -0.434070379, 0.378387481 , 0.0230551437, 1.5750668   , -0.0241585653, 3.086836    , 2.25        , 3           , 11          , 0.007955309 , 0.007955328
-0.2244212  , -9.804488   , 0.04609295  , -0.000281552522, 0.00129868614, -0.000428555737, -0.4335985  , 0.3773763   , 0.02318997  , 1.57506371  , -0.024154339, 3.0868485   , 2.26        , 3           , 12          , 0.0451525934, 0
-0.225326419, -9.792827   , 0.0556850545, 0.000245444477, -3.1196807E-05, -0.0008362503, -0.433463663, 0.378926784 , 0.0230551437, 1.57506621  , -0.0241459757, 3.0868485   , 2.27        , 3           , 50          , 0           , 0
-0.226524174, -9.780553   , 0.0481137224, 0.00062839844, -0.002233598, -5.7114943E-05, -0.433463663, 0.378926784 , 0.0230551437, 1.575073    , -0.0241453052, 3.086826    , 2.28        , 3           , 11          , 0.007955309 , 0.007955328
-0.240787148, -9.779828   , 0.0289736055, -0.00355458143, -0.00227077724, -0.001408479, -0.434070379, 0.378185242 , 0.02298773  , 1.575038    , -0.0241311211, 3.08680367  , 2.29        , 3           , 12          , 0.0451525934, 0
-0.242762432, -9.797026   , 0.0341981463, -0.0009271642, 0.0006380865, -0.000711278641, -0.4337333  , 0.3774437   , 0.02318997  , 1.5750618   , -0.0241125543, 3.0868094   , 2.3         , 3           , 50          , 0           , 0
-0.256972939, -9.795805   , 0.0597854964, 0.000604213565, 0.00116149418, -0.0004989828, -0.433463663, 0.379196435 , 0.0231225565, 1.57506752  , -0.0241076145, 3.08682084  , 2.31        , 3           , 11          , 0.007867143 , 0.007867162
-0.251269817, -9.790623   , 0.0318994969, 0.00265155872, -0.000386055966, 0.00062719523, -0.433463663, 0.379196435 , 0.0231225565, 1.5750941   , -0.02411387 , 3.086817    , 2.32        , 3           , 12          , 0.0460245237, 0
-0.229451716, -9.826046   , 0.0363291875, 0.00254066358, 0.00215331232, -0.0009444224, -0.433935553, 0.378050417 , 0.02318997  , 1.575119    , -0.0241045225, 3.08683848  , 2.33        , 3           , 50          , 0           , 0
-0.221769124, -9.789316   , 0.06434668  , 7.18513547E-05, 0.00155976415, -3.333885E-05, -0.43339625 , 0.37764594  , 0.02318997  , 1.57511938  , -0.024104258, 3.08685422  , 2.34        , 3           , 11          , 0.007867143 , 0.007867162
-0.237909451, -9.799414   , 0.0446235463, -0.00186147215, -0.0007485298, -0.00152591441, -0.433328837, 0.378791958 , 0.02318997  , 1.575101    , -0.0240889657, 3.08684659  , 2.35        , 3           , 12          , 0.0460245237, 0
-0.250025272, -9.803745   , 0.0335903279, -0.000655436947, 0.00143683818, -0.000968239969, -0.433328837, 0.378791958 , 0.02318997  , 1.5750941   , -0.024079347, 3.086861    , 2.36        , 3           , 50          , 0           , 0
-0.242612258, -9.775801   , 0.03441244  , -0.00252428371, 0.0011725286, 1.54961363E-05, -0.433800727, 0.378320068 , 0.0231225565, 1.57506859  , -0.0240795482, 3.08687282  , 2.37        , 3           , 11          , 0.007867143 , 0.007867162
-0.242108375, -9.777543   , 0.0271733645, -0.00214351644, -0.00222137314, -1.31832912E-05, -0.433531076, 0.37764594  , 0.0232573822, 1.57504773  , -0.0240793228, 3.0868504   , 2.38        , 3           , 12          , 0.0460245237, 0
-0.2192291  , -9.775596   , 0.04373522  , -0.0003378868, -3.742339E-05, 0.0003484765, -0.43339625 , 0.378724545 , 0.02318997  , 1.57504439  , -0.024082806, 3.0868504   , 2.39        , 3           , 50          , 0           , 0
-0.240460411, -9.77502251 , 0.0466434062, -0.00307189161, 0.000839485554, 0.000483191252, -0.43339625 , 0.378724545 , 0.02318997  , 1.57499528  , -0.0241015945, 3.086859    , 2.4         , 3           , 11          , 0.00777657377, 0.00777659332
-0.240570724, -9.785447   , 0.05060335  , -0.00293925265, 0.000574234757, 0.000282255147, -0.43386814 , 0.37811783  , 0.0231225565, 1.57496583  , -0.02410444 , 3.08686471  , 2.41        , 3           , 12          , 0.0469163246, 0
-0.239815459, -9.777528   , 0.0732786357, -0.00114689476, -0.000297016, 1.84101045E-05, -0.43339625 , 0.3774437   , 0.0233922079, 1.57495439  , -0.02410461 , 3.08686185  , 2.42        , 3           , 50          , 0           , 0
-0.233414814, -9.799013   , 0.0469412059, 0.000325820758, 0.00102955953, -0.0004265112, -0.433531076, 0.378657132 , 0.0233247951, 1.57495737  , -0.0241003912, 3.08687234  , 2.43        , 3           , 11          , 0.00777657377, 0.00777659332
-0.242219016, -9.800076   , 0.0215256624, -0.0005480258, -0.00062956434, -0.000379860372, -0.433531076, 0.378657132 , 0.0233247951, 1.57495213  , -0.0240965653, 3.08686566  , 2.44        , 3           , 12          , 0.0469163246, 0
-0.245182291, -9.805244   , 0.04583141  , 0.00164550624, -0.000971573754, -0.0005039015, -0.434070379, 0.378050417 , 0.0232573822, 1.5749687   , -0.0240914878, 3.08685613  , 2.45        , 3           , 50          , 0           , 0
-0.228346586, -9.777867   , 0.0521839373, -0.000683140941, -0.000235552783, 0.000419985881, -0.433531076, 0.3775111   , 0.02318997  , 1.574962    , -0.024095675, 3.08685374  , 2.46        , 3           , 11          , 0.00777657377, 0.00777659332
-0.218366235, -9.774296   , 0.0491796173, -0.000553039659, -0.00162674114, -0.00045533813, -0.4335985  , 0.378926784 , 0.0231225565, 1.57495677  , -0.0240910538, 3.08683753  , 2.47        , 3           , 12          , 0.0469163246, 0
-0.2275677  , -9.787863   , 0.0579659827, 0.00025818494, -0.000358316756, -0.00163496484, -0.4335985  , 0.378926784 , 0.0231225565, 1.57495952  , -0.0240746886, 3.08683419  , 2.48        , 3           , 50          , 0           , 0
-0.254654944, -9.804279   , 0.0461769551, -2.34524814E-05, -0.0007740988, 0.0008836063, -0.434070379, 0.377713352 , 0.02298773  , 1.57495964  , -0.0240834877, 3.086826    , 2.49        , 3           , 11          , 0.00777657377, 0.00777659332
-0.2607167  , -9.777971   , 0.0386866033, -0.0004928681, -0.00149124325, -0.0009773651, -0.433463663, 0.377578527 , 0.02318997  , 1.575049    , -0.0240870379, 3.0868094   , 2.5         , 3           , 12          , 0.0478266068, 0
-0.258925825, -9.7874155  , 0.0327414237, -0.000416717667, -2.59723729E-05, -0.00129576644, -0.4335985  , 0.378926784 , 0.02318997  , 1.57504487  , -0.0240740776, 3.086809    , 2.51        , 3           , 50          , 0           , 0
-0.2472499  , -9.801005   , 0.02823086  , 0.00304113119, 0.0004854514, -0.00067463 , -0.4335985  , 0.378926784 , 0.02318997  , 1.57507515  , -0.0240673516, 3.08681369  , 2.52        , 3           , 11          , 0.007681139 , 0.007681156
-0.240972131, -9.793915   , 0.0383168161, 0.0009788652, 0.00148483121, 0.000452339562, -0.4337333  , 0.3779156   , 0.02318997  , 1.57508457  , -0.0240719467, 3.08682847  , 2.53        , 3           , 12          , 0.0478266068, 0
-0.240155146, -9.792212   , 0.04918551  , -0.00107952289, 0.00202715956, 0.000379675417, -0.43339625 , 0.3775111   , 0.02318997  , 1.57507324  , -0.0240758322, 3.0868485   , 2.54        , 3           , 50          , 0           , 0
-0.237203434, -9.791539   , 0.0225759279, 0.000375990436, -0.000301002059, -0.000563367968, -0.433328837, 0.378724545 , 0.0232573822, 1.575077    , -0.0240701847, 3.08684564  , 2.55        , 3           , 11          , 0.007681139 , 0.007681156
-0.24206835 , -9.777056   , 0.0231131166, -0.00262491754, -0.00227879966, -0.00106247538, -0.433328837, 0.378724545 , 0.0232573822, 1.57505143  , -0.0240594614, 3.08682323  , 2.56        , 3           , 12          , 0.0478266068, 0
-0.245923713, -9.789383   , 0.0405602679, -0.0008096342, 0.00150281016, -0.0008855433, -0.434002966, 0.37811783  , 0.02298773  , 1.57504284  , -0.0240506753, 3.086838    , 2.57        , 3           , 50          , 0           , 0
-0.236413   , -9.778652   , 0.0453013778, -0.00182035624, 0.0004994786, 0.000561072957, -0.43339625 , 0.377578527 , 0.02318997  , 1.57502449  , -0.02405631 , 3.08684325  , 2.58        , 3           , 11          , 0.007681139 , 0.007681156
-0.246344179, -9.796524   , 0.0314489454, 0.00189597381, -0.0007172527, 0.000835868763, -0.4337333  , 0.379129022 , 0.0231225565, 1.57504356  , -0.0240646414, 3.086836    , 2.59        , 3           , 12          , 0.0478266068, 0
-0.223757312, -9.757194   , 0.0601265021, -6.724717E-05, -0.00143541535, 0.0004082905, -0.4337333  , 0.379129022 , 0.0231225565, 1.5749861   , -0.02416235 , 3.08682275  , 2.6         , 3           , 50          , 0           , 0
-0.2528026  , -9.77689    , 0.06273624  , 0.00060172705, -0.0006409219, 0.000485531666, -0.43386814 , 0.37811783  , 0.0230551437, 1.5749923   , -0.0241671782, 3.086816    , 2.61        , 3           , 11          , 0.00758442562, 0.007584448
-0.274970323, -9.806391   , 0.0454555973, 0.000797342742, -0.0005150001, 0.00135115988, -0.43339625 , 0.37764594  , 0.02318997  , 1.57500029  , -0.02418067 , 3.0868113   , 2.62        , 3           , 12          , 0.0487540774, 0
-0.246427566, -9.801989   , 0.0363623351, 7.363349E-05, 2.71738954E-05, 0.000422303128, -0.433531076, 0.379129022 , 0.0230551437, 1.575001    , -0.0241848938, 3.0868113   , 2.63        , 3           , 50          , 0           , 0
-0.234270573, -9.789544   , 0.0492841937, 0.0008759692, 0.000821509864, 0.000433848443, -0.433531076, 0.379129022 , 0.0230551437, 1.5750097   , -0.0241892673, 3.08682     , 2.64        , 3           , 11          , 0.00758442562, 0.007584448
-0.225656345, -9.779697   , 0.05265027  , 8.529059E-06, -0.000366838271, -0.000245793723, -0.433800727, 0.378050417 , 0.02298773  , 1.57500982  , -0.0241867937, 3.086816    , 2.65        , 3           , 12          , 0.0487540774, 0
-0.243106112, -9.789292   , 0.028398782 , -0.00119069288, -0.00102436938, -0.000523921335, -0.433194   , 0.37764594  , 0.02318997  , 1.57499826  , -0.0241815113, 3.08680558  , 2.66        , 3           , 50          , 0           , 0
-0.232377842, -9.759867   , 0.0130137531, -0.00106331462, -0.00010805748, 0.00147759379, -0.433463663, 0.378724545 , 0.02318997  , 1.57498765  , -0.0241962876, 3.08680463  , 2.67        , 3           , 11          , 0.00758442562, 0.007584448
-0.225157827, -9.778756   , 0.048148416 , -0.0009246954, -0.0013558144, -0.0008575692, -0.433463663, 0.378724545 , 0.02318997  , 1.57497871  , -0.0241876524, 3.08679128  , 2.68        , 3           , 12          , 0.0487540774, 0
-0.236040935, -9.780079   , 0.0529711656, 0.000276999024, -0.0008930808, -0.00124536722, -0.43386814 , 0.377578527 , 0.0229203179, 1.57498169  , -0.02417516 , 3.08678222  , 2.69        , 3           , 50          , 0           , 0
-0.2523012  , -9.801956   , 0.0371942781, 0.000291766948, 0.00103274931, -0.00082037953, -0.433463663, 0.377578527 , 0.0232573822, 1.574996    , -0.0241830777, 3.08679223  , 2.7         , 3           , 11          , 0.00748755969, 0.00748757739
-0.23803407 , -9.817025   , 0.04444574  , -0.00103688578, 0.000974911964, -0.00116019393, -0.4335985  , 0.378791958 , 0.02318997  , 1.5749855   , -0.0241715163, 3.08680177  , 2.71        , 3           , 12          , 0.0496974736, 0
-0.256405175, -9.788517   , 0.0526376031, 0.0005578263, 0.00195600232, 0.0001192709, -0.4335985  , 0.378791958 , 0.02318997  , 1.57499051  , -0.0241727941, 3.08682179  , 2.72        , 3           , 50          , 0           , 0
-0.24763979 , -9.772241   , 0.0443247445, 0.0008041977, -0.0008448311, 0.0009586623, -0.4337333  , 0.377713352 , 0.0229203179, 1.57499874  , -0.0241823457, 3.08681321  , 2.73        , 3           , 11          , 0.00748755969, 0.00748757739
-0.233599916, -9.761973   , 0.04685792  , -0.00113193016, -0.00249654357, 0.0006675337, -0.4330592  , 0.377578527 , 0.0230551437, 1.574988    , -0.0241889134, 3.08678842  , 2.74        , 3           , 12          , 0.0496974736, 0
-0.240011409, -9.771889   , 0.04939068  , -0.00031818726, -0.0004984021, -0.000239799017, -0.4335985  , 0.378859371 , 0.02318997  , 1.57498491  , -0.0241864957, 3.08678317  , 2.75        , 3           , 50          , 0           , 0
-0.223745614, -9.795748   , 0.02811925  , 0.00134977314, 0.000623438333, -8.775914E-05, -0.4335985  , 0.378859371 , 0.02318997  , 1.57499826  , -0.0241856389, 3.08678937  , 2.76        , 3           , 11          , 0.00748755969, 0.00748757739
-0.2322149  , -9.791997   , 0.019470213 , 0.00155679614, 0.00195316551, -0.000141008873, -0.433800727, 0.37764594  , 0.02298773  , 1.5750134   , -0.02418432 , 3.086809    , 2.77        , 3           , 12          , 0.0496974736, 0
-0.258398473, -9.778373   , 0.0314831622, 0.00047810332, -4.22948942E-05, 0.0005656593, -0.43339625 , 0.377578527 , 0.02298773  , 1.57501817  , -0.0241899733, 3.08680844  , 2.78        , 3           , 50          , 0           , 0
-0.258064032, -9.775353   , 0.0468765   , 0.0017520017, 0.000955989351, -0.000348236033, -0.433531076, 0.37858972  , 0.0231225565, 1.57503557  , -0.02418653 , 3.086818    , 2.79        , 3           , 11          , 0.00748755969, 0.00748757739
-0.243120342, -9.778095   , 0.0389006   , -0.00152085908, 0.00176873477, -0.000110464811, -0.433531076, 0.37858972  , 0.0231225565, 1.57498765  , -0.0242759287, 3.086836    , 2.8         , 3           , 12          , 0.0506556779, 0
-0.231888667, -9.788986   , 0.03576684  , 0.000395174226, -0.00136070047, -0.000925435044, -0.4335985  , 0.377848178 , 0.0231225565, 1.57499182  , -0.02426662 , 3.08682275  , 2.81        , 3           , 50          , 0           , 0
-0.251855642, -9.792995   , 0.044968918 , 0.00105846126, -0.000837926054, -5.36763328E-05, -0.433194   , 0.377780765 , 0.0231225565, 1.57500267  , -0.0242660474, 3.08681417  , 2.82        , 3           , 11          , 0.00739084  , 0.007390859
-0.249699324, -9.79445648 , 0.05491888  , 0.001120351 , -0.000910430332, 0.00074301206, -0.433531076, 0.3789942   , 0.02318997  , 1.575014    , -0.02427344 , 3.08680558  , 2.83        , 3           , 12          , 0.0506556779, 0
-0.235910863, -9.793852   , 0.0275376923, 0.00178893155, -0.000908851, 8.247635E-05, -0.433531076, 0.3789942   , 0.02318997  , 1.57503211  , -0.02427423 , 3.086796    , 2.84        , 3           , 50          , 0           , 0
-0.249718547, -9.815552   , 0.0402519479, 0.000198911177, -0.000232870574, -0.000384942745, -0.4335985  , 0.3775111   , 0.0229203179, 1.57503426  , -0.0242703687, 3.08679414  , 2.85        , 3           , 11          , 0.00739084  , 0.007390859
-0.258407623, -9.818747   , 0.0505036153, -0.002191587, 0.00136809563, 0.0005464444, -0.433261424, 0.377713352 , 0.0229203179, 1.575012    , -0.0242758878, 3.08680749  , 2.86        , 3           , 12          , 0.0506556779, 0
-0.240149185, -9.789066   , 0.05102401  , -0.00278513 , 0.00183981634, 8.257738E-05, -0.433328837, 0.37858972  , 0.0232573822, 1.5749836   , -0.0242767986, 3.086826    , 2.87        , 3           , 50          , 0           , 0
-0.248094678, -9.774484   , 0.04294152  , 0.00121288688, 0.00202941825, -0.00115596235, -0.433328837, 0.37858972  , 0.0232573822, 1.57499528  , -0.02426532 , 3.08684659  , 2.88        , 3           , 11          , 0.00739084  , 0.007390859
-0.240175635, -9.79223251 , 0.05144374  , 0.000735574868, 0.000299052947, -0.000709302258, -0.433800727, 0.37764594  , 0.02298773  , 1.57500267  , -0.0242582411, 3.08684945  , 2.89        , 3           , 12          , 0.0506556779, 0
-0.222891673, -9.771586   , 0.0527652577, 0.0019453906, -0.000311665615, 0.000203382413, -0.433194   , 0.377848178 , 0.0231225565, 1.57506156  , -0.0243529733, 3.08684516  , 2.9         , 3           , 50          , 0           , 0
-0.23854205 , -9.760124   , 0.04591251  , 0.00175017549, 0.000487400277, 0.000209562451, -0.433463663, 0.378657132 , 0.0233247951, 1.57507908  , -0.02435509 , 3.0868504   , 2.91        , 3           , 11          , 0.00729495939, 0.00729496963
-0.228289932, -9.783641   , 0.041285187 , -0.000312796765, 0.00155187049, 0.00153637049, -0.4335985  , 0.3775111   , 0.02298773  , 1.57507551  , -0.02437052 , 3.08686566  , 2.92        , 3           , 12          , 0.0516275838, 0
-0.248188689, -9.803278   , 0.0304553136, -0.001090522, 0.00362976873, -0.000175877634, -0.4335985  , 0.3775111   , 0.02298773  , 1.57506371  , -0.0243689176, 3.086902    , 2.93        , 3           , 50          , 0           , 0
-0.254580557, -9.794339   , 0.04582561  , -0.00136549969, 0.00163809641, -0.0005274975, -0.433261424, 0.37764594  , 0.0231225565, 1.57504964  , -0.02436371 , 3.086918    , 2.94        , 3           , 11          , 0.00729495939, 0.00729496963
-0.263637573, -9.79610348 , 0.04795585  , -0.000830215344, 0.00296056783, 0.000217976354, -0.4335985  , 0.378657132 , 0.02318997  , 1.5750407   , -0.0243660137, 3.08694768  , 2.95        , 3           , 12          , 0.0516275838, 0
-0.2365176  , -9.812388   , 0.0300551429, 0.0001605258, 0.00149403769, 1.08105669E-05, -0.433531076, 0.37717405  , 0.0228529051, 1.57504189  , -0.0243661851, 3.086963    , 2.96        , 3           , 50          , 0           , 0
-0.219283611, -9.791346   , 0.0372526124, 0.00241091778, -0.000247836171, 0.0002729019, -0.433531076, 0.37717405  , 0.0228529051, 1.57506621  , -0.0243689027, 3.08696     , 2.97        , 3           , 11          , 0.00729495939, 0.00729496963
-0.230181217, -9.789543   , 0.0461720675, -0.000114415845, 0.000228769728, 0.00039636335, -0.433261424, 0.377848178 , 0.0231225565, 1.5750649   , -0.0243728776, 3.086963    , 2.98        , 3           , 12          , 0.0516275838, 0
-0.2343042  , -9.789128   , 0.0533535667, -0.002368849, -0.0008741421, -0.00201687869, -0.43339625 , 0.378724545 , 0.0232573822, 1.57504141  , -0.0243526734, 3.08695388  , 2.99        , 3           , 50          , 0           , 0
-0.239794225, -9.781991   , 0.06736167  , 3.37367965E-05, -0.000363676925, -0.0006067722, -0.433531076, 0.3773763   , 0.0230551437, 1.57506776  , -0.0243421569, 3.08694959  , 3           , 3           , 11          , 0.00719973  , 0.007199736
-0.246752828, -9.787062   , 0.0342490673, -0.000434982037, -0.000431765715, -7.859027E-05, -0.433531076, 0.3773763   , 0.0230551437, 1.57506347  , -0.024341356, 3.0869453   , 3.01        , 3           , 12          , 0.05261221  , 0
-0.236653641, -9.793686   , 0.009912562 , -0.00109288073, 0.0004393302, -0.0005391885, -0.4331266  , 0.377578527 , 0.0231225565, 1.5750525   , -0.0243359823, 3.08694959  , 3.02        , 3           , 50          , 0           , 0
-0.240173563, -9.799405   , 0.0454993956, -0.000358883583, -2.30828973E-05, -0.00146924274, -0.433463663, 0.378724545 , 0.02318997  , 1.5750488   , -0.024321286, 3.08694959  , 3.03        , 3           , 11          , 0.00719973  , 0.007199736
-0.2387889  , -9.808801   , 0.034580633 , -0.0004971742, 0.0006968533, 0.0002633835, -0.4337333  , 0.3769044   , 0.0231225565, 1.5750438   , -0.0243239515, 3.08695626  , 3.04        , 3           , 12          , 0.05261221  , 0
-0.238046333, -9.81703949 , 0.04580067  , -0.00121552474, 0.00203856686, -0.000857454143, -0.4337333  , 0.3769044   , 0.0231225565, 1.57503116  , -0.0243154578, 3.08697724  , 3.05        , 3           , 50          , 0           , 0
-0.23768501 , -9.827446   , 0.0475078858, -0.00102494261, 0.0007710916, -0.0004693975, -0.4330592  , 0.377713352 , 0.0231225565, 1.57502067  , -0.0243108049, 3.08698487  , 3.06        , 3           , 11          , 0.00719973  , 0.007199736
-0.243069172, -9.785219   , 0.0275365226, 0.000681354431, -0.00118246023, 0.00184676831, -0.4335985  , 0.378657132 , 0.02318997  , 1.57502782  , -0.0243292172, 3.08697248  , 3.07        , 3           , 12          , 0.05261221  , 0
-0.234759539, -9.774779   , 0.06523673  , 0.000815698237, -0.00283211656, -9.35534044E-05, -0.433531076, 0.377039224 , 0.02298773  , 1.57503664  , -0.024328161, 3.08694482  , 3.08        , 3           , 50          , 0           , 0
-0.231036752, -9.772002   , 0.054920163 , 0.0006948079, -0.00162673427, -0.00114596949, -0.433531076, 0.377039224 , 0.02298773  , 1.575044    , -0.0243166331, 3.08692861  , 3.09        , 3           , 11          , 0.00719973  , 0.007199736
-0.236916989, -9.780943   , 0.0493379   , 0.000907897658, -0.0013093946, 0.000780502567, -0.433261424, 0.3775111   , 0.0230551437, 1.57509863  , -0.0243171062, 3.0869143   , 3.1         , 3           , 12          , 0.0536085851, 0
-0.225640744, -9.807933   , 0.0284258537, -1.8533161E-05, -0.0011667544, 4.61798445E-05, -0.433463663, 0.3785223   , 0.0230551437, 1.57509875  , -0.02431752 , 3.08690238  , 3.11        , 3           , 50          , 0           , 0
-0.233134165, -9.761066   , 0.0459692366, 0.00125004863, -0.0001095322, 0.000195469154, -0.433531076, 0.37717405  , 0.02298773  , 1.57511127  , -0.0243194718, 3.086901    , 3.12        , 3           , 11          , 0.00710676  , 0.007106769
-0.247470453, -9.748305   , 0.0445663854, 0.0011778482, -0.0005790461, 0.000788581849, -0.433531076, 0.37717405  , 0.02298773  , 1.57512331  , -0.024327334, 3.08689523  , 3.13        , 3           , 12          , 0.0536085851, 0
-0.235858887, -9.772722   , 0.03859146  , -1.920655E-05, -0.000441296666, 0.000916174846, -0.433261424, 0.3774437   , 0.0230551437, 1.57512319  , -0.024336474, 3.086891    , 3.14        , 3           , 50          , 0           , 0
-0.221378133, -9.806416   , 0.00726159057, -0.0009463663, -0.000695823459, -8.741935E-05, -0.433935553, 0.378791958 , 0.0232573822, 1.57511377  , -0.0243355688, 3.08688378  , 3.15        , 3           , 11          , 0.00710676  , 0.007106769
-0.244795159, -9.781541   , 0.0216796584, 0.00204841816, -0.0006411369, -0.000402775418, -0.433800727, 0.377241462 , 0.02298773  , 1.57513452  , -0.0243315175, 3.08687758  , 3.16        , 3           , 12          , 0.0536085851, 0
-0.269516826, -9.8014555  , 0.04511995  , 0.00271383976, 1.655061E-05, 0.000204547076, -0.433800727, 0.377241462 , 0.02298773  , 1.5751617   , -0.0243335646, 3.086878    , 3.17        , 3           , 50          , 0           , 0
-0.26619184 , -9.776199   , 0.0467686132, -0.0004150126, 2.71117478E-05, 0.0007854371, -0.4331266  , 0.377983    , 0.0230551437, 1.57515752  , -0.02434142 , 3.086878    , 3.18        , 3           , 11          , 0.00710676  , 0.007106769
-0.236936152, -9.783653   , 0.0493105464, -0.000218785412, -0.00182712253, -0.000492227438, -0.4335985  , 0.378320068 , 0.02318997  , 1.57515585  , -0.02433642 , 3.08686     , 3.19        , 3           , 12          , 0.0536085851, 0
-0.236911148, -9.80022049 , 0.0333342776, 0.000153393034, -0.00342855672, 5.88622243E-05, -0.4336659  , 0.37670216  , 0.0231225565, 1.57512558  , -0.0244049449, 3.086826    , 3.2         , 3           , 50          , 0           , 0
-0.24100773 , -9.78229    , 0.0515330657, -0.000231981292, 2.52299287E-05, 0.00101790379, -0.4336659  , 0.37670216  , 0.0231225565, 1.57512319  , -0.0244151223, 3.08682656  , 3.21        , 3           , 11          , 0.007014978 , 0.007014987
-0.237447336, -9.782365   , 0.0569967031, 0.00143204525, 0.00048149706, 0.00123031065, -0.43339625 , 0.377578527 , 0.0231225565, 1.5751375   , -0.02442744 , 3.08683133  , 3.22        , 3           , 12          , 0.0546158664, 0
-0.2294277  , -9.79508    , 0.05832273  , 0.002616938 , -0.00178551872, 0.00121619867, -0.4336659  , 0.378252655 , 0.02298773  , 1.5751642   , -0.0244395267, 3.08681321  , 3.23        , 3           , 50          , 0           , 0
-0.236715585, -9.781191   , 0.0267510861, 0.00263794651, -4.064168E-05, -0.000959658239, -0.4335985  , 0.3769718   , 0.0231225565, 1.57519066  , -0.0244299285, 3.08681321  , 3.24        , 3           , 11          , 0.007014978 , 0.007014987
-0.252071   , -9.798139   , 0.0146485   , 0.00116706942, -4.41159063E-05, 0.0004935206, -0.4335985  , 0.3769718   , 0.0231225565, 1.57520235  , -0.0244348589, 3.08681226  , 3.25        , 3           , 12          , 0.0546158664, 0
-0.261123836, -9.795862   , 0.0195296537, 0.000503145 , 0.0008849716, 0.0012289295, -0.4330592  , 0.377848178 , 0.0232573822, 1.57520723  , -0.0244471878, 3.08682132  , 3.26        , 3           , 50          , 0           , 0
-0.228275344, -9.782729   , 0.0403910056, 0.00124535116, 0.00149003125, -0.000156332622, -0.433800727, 0.3784549   , 0.0231225565, 1.57521927  , -0.0244456884, 3.086836    , 3.27        , 3           , 11          , 0.007014978 , 0.007014987
-0.235384852, -9.767771   , 0.0400020331, 0.00290545681, 0.00154487207, 0.0003845041, -0.4337333  , 0.37717405  , 0.0231225565, 1.575248    , -0.0244496018, 3.08685136  , 3.28        , 3           , 12          , 0.0546158664, 0
-0.2298497  , -9.770826   , 0.0242283829, 0.003560148 , 0.000339333172, 0.0011077252, -0.4337333  , 0.37717405  , 0.0231225565, 1.57528365  , -0.0244606882, 3.08685517  , 3.29        , 3           , 50          , 0           , 0
-0.248053789, -9.774443   , 0.038425073 , 0.00018760495, -0.0010300735, -0.000385000225, -0.433261424, 0.3779156   , 0.0230551437, 1.5751816   , -0.0244543944, 3.086847    , 3.3         , 3           , 11          , 0.006925196 , 0.0069252
-0.248049155, -9.772644   , 0.0393466055, 0.0006563727, 2.85663427E-05, 9.205317E-05, -0.433531076, 0.3784549   , 0.0231225565, 1.57518816  , -0.0244553182, 3.08684754  , 3.31        , 3           , 12          , 0.05563319  , 0
-0.2503694  , -9.77942    , 0.0410573669, -0.000399463082, 0.00129919441, -0.000167830862, -0.4335985  , 0.376634747 , 0.0230551437, 1.57518387  , -0.024453694, 3.08686042  , 3.32        , 3           , 50          , 0           , 0
-0.244900376, -9.788372   , 0.02793431  , -0.00153610553, 0.000173885026, -0.000184186676, -0.4335985  , 0.376634747 , 0.0230551437, 1.57516849  , -0.02445186 , 3.08686185  , 3.33        , 3           , 11          , 0.006925196 , 0.0069252
-0.232884079, -9.799833   , 0.0374530256, -0.00133841077, -0.000687905, -0.000722261146, -0.433261424, 0.37764594  , 0.0230551437, 1.57515526  , -0.024444608, 3.08685517  , 3.34        , 3           , 12          , 0.05563319  , 0
-0.232619047, -9.784772   , 0.01998932  , -0.00259623956, 0.00058035634, -0.0005183394, -0.4335985  , 0.3784549   , 0.02318997  , 1.57512915  , -0.0244394578, 3.086861    , 3.35        , 3           , 50          , 0           , 0
-0.236361042, -9.790259   , 0.0302785542, -0.00246572169, 0.000444339617, -0.000186776568, -0.4335985  , 0.3769718   , 0.0230551437, 1.57510448  , -0.02443761 , 3.08686566  , 3.36        , 3           , 11          , 0.006925196 , 0.0069252
-0.250765949, -9.814793   , 0.05696096  , 0.00013826444, 0.00183253759, -0.000691424066, -0.4335985  , 0.3769718   , 0.0230551437, 1.57510543  , -0.0244307742, 3.08688378  , 3.37        , 3           , 12          , 0.05563319  , 0
-0.227697715, -9.802791   , 0.0605254173, -0.000676171563, 0.000163633522, 0.0006838098, -0.4331266  , 0.377578527 , 0.0230551437, 1.57509863  , -0.02443762 , 3.08688569  , 3.38        , 3           , 50          , 0           , 0
-0.21036911 , -9.779858   , 0.0587082133, -0.000217490247, -0.00196074159, -0.0001963745, -0.4335985  , 0.378320068 , 0.0230551437, 1.575097    , -0.0244355667, 3.08686566  , 3.39        , 3           , 11          , 0.006925196 , 0.0069252
-0.243897676, -9.799495   , 0.0581015721, 0.000920968538, -0.00143520557, -7.53520944E-05, -0.4335985  , 0.376769572 , 0.0230551437, 1.57511961  , -0.02438358 , 3.08685136  , 3.4         , 3           , 12          , 0.05665982  , 0
-0.2447767  , -9.811124   , 0.0462292768, 0.00339627848, 0.00147814734, 0.000163710662, -0.4335985  , 0.376769572 , 0.0230551437, 1.57515323  , -0.02438528 , 3.08686566  , 3.41        , 3           , 50          , 0           , 0
-0.226908714, -9.78721    , 0.0353937745, 0.00252778735, 0.0005525264, -4.86349236E-05, -0.433328837, 0.377848178 , 0.0230551437, 1.5751785   , -0.0243848152, 3.08687139  , 3.42        , 3           , 11          , 0.00683823  , 0.006838223
-0.2501281  , -9.772905   , 0.0695848837, 0.00258715916, -0.000249694858, 0.0004757598, -0.4336659  , 0.37811783  , 0.0231225565, 1.57520437  , -0.0243895613, 3.086869    , 3.43        , 3           , 12          , 0.05665982  , 0
-0.237567842, -9.799974   , 0.05636726  , 0.001989393 , 0.000876714243, 0.00147898484, -0.43386814 , 0.376837    , 0.0231225565, 1.57522416  , -0.02440439 , 3.08687758  , 3.44        , 3           , 50          , 0           , 0
-0.231087238, -9.806133   , 0.03334634  , 0.0007318962, 0.00168319151, 0.00114738545, -0.43386814 , 0.376837    , 0.0231225565, 1.575231    , -0.0244159419, 3.08689427  , 3.45        , 3           , 11          , 0.00683823  , 0.006838223
-0.2416462  , -9.797272   , 0.06041003  , 0.002203154 , 0.002215433 , 0.000163920966, -0.433328837, 0.377848178 , 0.0230551437, 1.57525253  , -0.02441768 , 3.08691669  , 3.46        , 3           , 12          , 0.05665982  , 0
-0.2331815  , -9.780395   , 0.0358370021, -0.000804495532, 0.000162607146, 0.000859612 , -0.4337333  , 0.378320068 , 0.02318997  , 1.57524443  , -0.0244262926, 3.086918    , 3.47        , 3           , 50          , 0           , 0
-0.242857471, -9.782323   , 0.05647922  , -0.00120498973, -0.000960018544, -1.61557873E-05, -0.4336659  , 0.377106637 , 0.0231225565, 1.57523263  , -0.024426084, 3.08690858  , 3.48        , 3           , 11          , 0.00683823  , 0.006838223
-0.239122659, -9.787604   , 0.0384025872, 0.00206589513, 0.00227642152, 0.00102715648, -0.4336659  , 0.377106637 , 0.0231225565, 1.57525265  , -0.0244364534, 3.08693147  , 3.49        , 3           , 12          , 0.05665982  , 0
-0.249374926, -9.78650951 , 0.0251878053, -0.00130496209, 0.003224193 , 0.0008789036, -0.433261424, 0.3779156   , 0.0229203179, 1.57527387  , -0.024432281, 3.086963    , 3.5         , 3           , 50          , 0           , 0
-0.248936132, -9.790562   , 0.02334568  , -0.000593128731, -0.000833545346, 0.0004475007, -0.4337333  , 0.378185242 , 0.02318997  , 1.575268    , -0.02443672 , 3.08695436  , 3.51        , 3           , 11          , 0.00675235363, 0.00675236154
-0.245542079, -9.789457   , 0.04824373  , -0.00045403096, 0.000428567379, 0.0005925226, -0.4336659  , 0.377241462 , 0.0231225565, 1.57526338  , -0.0244426634, 3.08695865  , 3.52        , 3           , 12          , 0.05769501  , 0
-0.242737055, -9.783098   , 0.04246909  , 0.000153073037, 0.00169178564, 0.000275169528, -0.4336659  , 0.377241462 , 0.0231225565, 1.57526445  , -0.0244454872, 3.08697534  , 3.53        , 3           , 50          , 0           , 0
-0.236440122, -9.773297   , 0.05258241  , 0.00140845811, 0.00121265254, 0.00134031486, -0.432991773, 0.377848178 , 0.0230551437, 1.57527828  , -0.0244589411, 3.08698773  , 3.54        , 3           , 11          , 0.00675235363, 0.00675236154
-0.2409093  , -9.77412    , 0.0470986739, -0.000252028549, 0.000629044371, 0.00032976392, -0.433800727, 0.378185242 , 0.02318997  , 1.57527566  , -0.0244622715, 3.08699346  , 3.55        , 3           , 12          , 0.05769501  , 0
-0.251386821, -9.795671   , 0.0408822447, -0.00291468319, -8.805953E-05, 4.31628E-05 , -0.4335985  , 0.376837    , 0.0230551437, 1.57524657  , -0.0244626924, 3.086993    , 3.56        , 3           , 50          , 0           , 0
-0.23580502 , -9.803616   , 0.05815931  , -0.000177641457, 0.00229005888, 0.000544465962, -0.4335985  , 0.376837    , 0.0230551437, 1.57524419  , -0.024468245, 3.08701587  , 3.57        , 3           , 11          , 0.00675235363, 0.00675236154
-0.262966752, -9.778847   , 0.037295118 , 0.000956811 , 0.00215783087, -0.000314008736, -0.433261424, 0.378050417 , 0.02318997  , 1.57525325  , -0.024465194, 3.08703732  , 3.58        , 3           , 12          , 0.05769501  , 0
-0.2658395  , -9.782131   , 0.053037867 , 0.00155532546, 0.00182480912, -0.000645868, -0.43386814 , 0.378185242 , 0.0231225565, 1.57526839  , -0.02445882 , 3.08705544  , 3.59        , 3           , 50          , 0           , 0
-0.231537864, -9.785951   , 0.0493535846, 0.00116861169, 0.00183090416, -0.00120618008, -0.433531076, 0.377106637 , 0.0231225565, 1.57530129  , -0.02454131 , 3.08707356  , 3.6         , 3           , 11          , 0.00666909339, 0.00666909153
-0.2273396  , -9.776873   , 0.04136455  , 0.0001731787, 0.00164036325, -0.00181106012, -0.433531076, 0.377106637 , 0.0231225565, 1.5753026   , -0.024523275, 3.08708978  , 3.61        , 3           , 12          , 0.05873812  , 0
-0.2509823  , -9.790789   , 0.0499707758, -0.00151258882, -0.00102398451, -0.000183897428, -0.433261424, 0.37811783  , 0.02298773  , 1.57528782  , -0.0245213844, 3.08707976  , 3.62        , 3           , 50          , 0           , 0
-0.248461336, -9.775742   , 0.0325345173, -0.00177468522, -0.00068733393, -0.0005807736, -0.4337333  , 0.378252655 , 0.0231225565, 1.5752703   , -0.0245155487, 3.08707261  , 3.63        , 3           , 11          , 0.00666909339, 0.00666909153
-0.244048387, -9.785738   , 0.0356506   , -0.00110145519, 0.000112838483, -0.00130046764, -0.433463663, 0.3769718   , 0.0232573822, 1.57525921  , -0.02450255 , 3.087074    , 3.64        , 3           , 12          , 0.05873812  , 0
-0.245937809, -9.788501   , 0.04282761  , 0.001691054 , 0.00161749346, 0.000388738466, -0.433463663, 0.3769718   , 0.0232573822, 1.57527578  , -0.0245065112, 3.08709025  , 3.65        , 3           , 50          , 0           , 0
-0.2412466  , -9.765483   , 0.04130844  , -0.00183433259, 0.00169929618, 0.0005696194, -0.4330592  , 0.377848178 , 0.0230551437, 1.575257    , -0.0245122816, 3.087107    , 3.66        , 3           , 11          , 0.00666909339, 0.00666909153
-0.2543496  , -9.776619   , 0.034260653 , 0.0008987036, 0.001959033 , -0.000343055552, -0.433800727, 0.378185242 , 0.0230551437, 1.57526553  , -0.02450894 , 3.087127    , 3.67        , 3           , 12          , 0.05873812  , 0
-0.266494364, -9.79309    , 0.0167812984, 0.00068418734, -0.0003051467, 0.0001666112, -0.433531076, 0.3769044   , 0.0232573822, 1.57527232  , -0.0245105959, 3.08712363  , 3.68        , 3           , 50          , 0           , 0
-0.2526993  , -9.805935   , 0.0281148646, -0.00124373171, -0.0008893865, -0.000579725369, -0.433531076, 0.3769044   , 0.0232573822, 1.57526016  , -0.0245047547, 3.08711457  , 3.69        , 3           , 11          , 0.00666909339, 0.00666909153
-0.229346216, -9.792756   , 0.0511192158, -0.00174948154, -0.00142443355, 0.000317704253, -0.433328837, 0.3779156   , 0.0230551437, 1.57516241  , -0.0246096849, 3.08710265  , 3.7         , 3           , 12          , 0.0597885   , 0
-0.240138873, -9.777844   , 0.0588159561, -0.0005512974, -0.000240028123, 0.00133119116, -0.434002966, 0.377983    , 0.0232573822, 1.57515693  , -0.0246229824, 3.08710027  , 3.71        , 3           , 50          , 0           , 0
-0.234490946, -9.783934   , 0.0782487541, -0.00215348345, -0.001759351, 0.0009102373, -0.4335985  , 0.377039224 , 0.0231225565, 1.57513583  , -0.0246320087, 3.08708215  , 3.72        , 3           , 11          , 0.00658770232, 0.00658771163
-0.246850669, -9.789401   , 0.0432591736, -0.00259690545, 0.000583484 , -0.0008642159, -0.4335985  , 0.377039224 , 0.0231225565, 1.57510972  , -0.024623394, 3.08708835  , 3.73        , 3           , 12          , 0.0597885   , 0
-0.240227044, -9.79318    , 0.0564027131, 0.00144549971, -0.00183200359, -0.0005985112, -0.433463663, 0.377983    , 0.0230551437, 1.57512462  , -0.0246173274, 3.08706975  , 3.74        , 3           , 50          , 0           , 0
-0.231233284, -9.776234   , 0.07339656  , 0.00217063748, -0.00217417441, 0.0002657477, -0.433935553, 0.3779156   , 0.02318997  , 1.57514679  , -0.0246198941, 3.08704829  , 3.75        , 3           , 11          , 0.00658770232, 0.00658771163
-0.24102135 , -9.765263   , 0.06661061  , -0.001613247, -0.0006944008, 0.0004578907, -0.43339625 , 0.376837    , 0.0233922079, 1.57513094  , -0.0246244371, 3.08704114  , 3.76        , 3           , 12          , 0.0597885   , 0
-0.2243887  , -9.779793   , 0.06215128  , -0.00320826471, -0.0006854132, 0.00025007248, -0.43339625 , 0.376837    , 0.0233922079, 1.575099    , -0.0246269051, 3.08703446  , 3.77        , 3           , 50          , 0           , 0
-0.233625144, -9.786215   , 0.0303525049, -0.00413967343, -0.0008135453, 0.000177444759, -0.433194   , 0.37811783  , 0.02318997  , 1.57505786  , -0.0246286448, 3.08702636  , 3.78        , 3           , 11          , 0.00658770232, 0.00658771163
-0.2532303  , -9.798836   , 0.04263497  , 0.000382528873, -0.0014293181, -0.000401373836, -0.433800727, 0.378252655 , 0.0233247951, 1.57506192  , -0.0246245712, 3.087012    , 3.79        , 3           , 12          , 0.0597885   , 0
-0.229357019, -9.805773   , 0.0419540964, 0.00161795726, -0.00123207131, -0.0009931921, -0.4335985  , 0.377039224 , 0.02318997  , 1.57516468  , -0.0246086027, 3.08699727  , 3.8         , 3           , 50          , 0           , 0
-0.2274798  , -9.798986   , 0.03933456  , 0.00188223354, -0.0005092946, 7.746759E-05, -0.433531076, 0.37811783  , 0.0230551437, 1.57518363  , -0.0246093553, 3.0869925   , 3.81        , 3           , 11          , 0.006508241 , 0.006508249
-0.239627928, -9.787206   , 0.0447246954, 0.0002046848, -0.00190805958, 0.00145046914, -0.433531076, 0.37811783  , 0.0230551437, 1.575186    , -0.0246237777, 3.08697343  , 3.82        , 3           , 12          , 0.06084558  , 0
-0.238193363, -9.768301   , 0.05080403  , -0.000377047283, 0.0007584908, 0.001006548 , -0.434070379, 0.378050417 , 0.0231225565, 1.57518208  , -0.0246338733, 3.086981    , 3.83        , 3           , 50          , 0           , 0
-0.259129941, -9.785825   , 0.0566968545, 0.0032212527, 0.00121318526, 0.000166747588, -0.43339625 , 0.376837    , 0.02318997  , 1.575214    , -0.0246355981, 3.086993    , 3.84        , 3           , 11          , 0.006508241 , 0.006508249
-0.252322465, -9.783142   , 0.0545482859, 0.003208417 , -0.000190623119, 0.00115022378, -0.433194   , 0.378252655 , 0.02298773  , 1.57524621  , -0.0246470887, 3.086991    , 3.85        , 3           , 12          , 0.06084558  , 0
-0.236945182, -9.79756451 , 0.03923302  , 0.004205988 , 0.000200867507, 0.00155768311, -0.433194   , 0.378252655 , 0.02298773  , 1.5752883   , -0.0246626735, 3.086993    , 3.86        , 3           , 50          , 0           , 0
-0.2311756  , -9.811153   , 0.0391675755, 0.0004745899, -0.00210222532, 0.0005203289, -0.434002966, 0.37811783  , 0.02318997  , 1.57529354  , -0.024667779, 3.08697152  , 3.87        , 3           , 11          , 0.006508241 , 0.006508249
-0.245576054, -9.801149   , 0.0427054465, -0.000504435156, -0.000355931232, -0.00119601435, -0.4337333  , 0.377106637 , 0.02318997  , 1.57528853  , -0.0246558078, 3.08696866  , 3.88        , 3           , 12          , 0.06084558  , 0
-0.234152108, -9.797497   , 0.0297813863, 0.00142384169, 0.000294818543, -0.0004490733, -0.433194   , 0.378185242 , 0.0231225565, 1.5753026   , -0.02465133 , 3.08697152  , 3.89        , 3           , 50          , 0           , 0
-0.208019942, -9.779333   , 0.0488040149, 0.002211839 , -0.000974058465, -0.0002630432, -0.433194   , 0.378185242 , 0.0231225565, 1.57531953  , -0.0246330425, 3.086962    , 3.9         , 3           , 11          , 0.0064309286, 0.00643096073
-0.21435985 , -9.782002   , 0.04915148  , 0.00446692575, -0.0009928248, 0.0008781096, -0.4336659  , 0.378050417 , 0.0232573822, 1.57536435  , -0.0246417765, 3.08695149  , 3.91        , 3           , 12          , 0.0619087927, 0
-0.233998269, -9.774025   , 0.031373404 , 0.00320190028, -0.00184720452, 0.00026575473, -0.433531076, 0.377241462 , 0.02318997  , 1.57539678  , -0.02464435 , 3.08693337  , 3.92        , 3           , 50          , 0           , 0
-0.260305762, -9.786535   , 0.03634724  , 0.00135054486, 0.000222961331, 0.00034088784, -0.433261424, 0.378185242 , 0.0231225565, 1.57541013  , -0.0246477723, 3.08693528  , 3.93        , 3           , 11          , 0.0064309286, 0.00643096073
-0.2421898  , -9.794218   , 0.0229398627, 0.00016773789, 0.00163433875, -0.000914671633, -0.433261424, 0.378185242 , 0.0231225565, 1.57541156  , -0.0246387012, 3.08695149  , 3.94        , 3           , 12          , 0.0619087927, 0
-0.22814928 , -9.778119   , 0.030048769 , 0.000295808917, 0.00222141366, 0.0006189426, -0.433935553, 0.377780765 , 0.02318997  , 1.57541406  , -0.0246449877, 3.086974    , 3.95        , 3           , 50          , 0           , 0
-0.2375971  , -9.76502    , 0.0372920819, -0.000359249418, 0.003162332 , -0.000305929949, -0.433463663, 0.377039224 , 0.0233247951, 1.57540965  , -0.0246420745, 3.08700585  , 3.96        , 3           , 11          , 0.0064309286, 0.00643096073
-0.249180764, -9.791254   , 0.0499881767, -0.0018308718, 0.00243150722, 0.000542898662, -0.4331266  , 0.3784549   , 0.0230551437, 1.57539082  , -0.0246476121, 3.0870297   , 3.97        , 3           , 12          , 0.0619087927, 0
-0.2346563  , -9.789476   , 0.0420523845, -0.0008409018, -0.000290667522, -0.00080474274, -0.4331266  , 0.3784549   , 0.0230551437, 1.57538235  , -0.0246395469, 3.08702683  , 3.98        , 3           , 50          , 0           , 0
-0.2395756  , -9.801056   , 0.0278724972, -0.002165582, 0.00110950938, -0.00040073588, -0.433800727, 0.37811783  , 0.02318997  , 1.57536054  , -0.0246355869, 3.08703828  , 3.99        , 3           , 11          , 0.0064309286, 0.00643096073
-0.238679022, -9.781786   , 0.0438871   , 0.000204320939, 0.00162699842, 0.0001366593, -0.433328837, 0.3769718   , 0.0233247951, 1.57529736  , -0.024606077, 3.0870564   , 4           , 3           , 12          , 0.06297764  , 0
-0.241414934, -9.785831   , 0.0438131355, -0.00158882106, 0.0009784574, -0.001008034, -0.433328837, 0.378320068 , 0.0231225565, 1.57528126  , -0.0245960411, 3.087066    , 4.01        , 3           , 50          , 0           , 0
-0.249535412, -9.7862215  , 0.04325817  , 0.0008825224, 0.00256586936, -0.001378761, -0.433328837, 0.378320068 , 0.0231225565, 1.57528949  , -0.02458237 , 3.08709168  , 4.02        , 3           , 11          , 0.006355661 , 0.006355672
-0.247459427, -9.782381   , 0.06636053  , -0.0009903002, 0.0007775091, -0.0012058618, -0.43386814 , 0.3779156   , 0.02298773  , 1.57527936  , -0.024570344, 3.08709931  , 4.03        , 3           , 12          , 0.06297764  , 0
-0.246981427, -9.799846   , 0.0494773462, 0.0005990237, 0.000364729174, -0.000337557431, -0.433463663, 0.377308875 , 0.0233247951, 1.5752852   , -0.02456699 , 3.08710313  , 4.04        , 3           , 50          , 0           , 0
-0.235523611, -9.788537   , 0.0388890132, 0.004239952 , -0.00152388529, 0.0009270055, -0.433463663, 0.3785223   , 0.02318997  , 1.575328    , -0.0245761927, 3.08708787  , 4.05        , 3           , 11          , 0.006355661 , 0.006355672
-0.24764052 , -9.782107   , 0.0365464762, 0.0009876748, -0.00136784231, -0.000151892571, -0.433463663, 0.3785223   , 0.02318997  , 1.57533813  , -0.0245746113, 3.08707452  , 4.06        , 3           , 12          , 0.06297764  , 0
-0.237961754, -9.799913   , 0.05003873  , 0.000198936061, 0.0002991646, -0.000207485471, -0.43386814 , 0.377983    , 0.0230551437, 1.57534015  , -0.0245725531, 3.08707738  , 4.07        , 3           , 50          , 0           , 0
-0.231135532, -9.79228    , 0.0497468933, 0.00159947074, 0.00155244675, 0.000342800078, -0.433531076, 0.37717405  , 0.0233247951, 1.57535577  , -0.0245760512, 3.08709264  , 4.08        , 3           , 11          , 0.006355661 , 0.006355672
-0.24014768 , -9.783684   , 0.0551435277, 0.0006036862, 0.00142746919, -0.000128652944, -0.433261424, 0.3785223   , 0.0230551437, 1.57536149  , -0.0245748237, 3.087107    , 4.09        , 3           , 12          , 0.06297764  , 0
-0.254232168, -9.796239   , 0.05574905  , -0.000233605213, 0.00390218641, -0.00150778459, -0.433261424, 0.3785223   , 0.0230551437, 1.57537627  , -0.0245538838, 3.08714557  , 4.1         , 3           , 50          , 0           , 0
-0.246895343, -9.777338   , 0.05783492  , 0.00060994993, 0.00254943059, 0.00107481645, -0.4337333  , 0.377713352 , 0.0230551437, 1.57538176  , -0.024564743, 3.08717084  , 4.11        , 3           , 11          , 0.006282723 , 0.0062827263
-0.242897809, -9.776533   , 0.06557138  , 0.00192958978, -0.0003762171, 5.9206548E-05, -0.43339625 , 0.377308875 , 0.0233922079, 1.57540107  , -0.0245653167, 3.087167    , 4.12        , 3           , 12          , 0.06405166  , 0
-0.238331825, -9.776958   , 0.05929867  , 0.00106751185, -0.0006989888, -0.00074540067, -0.433531076, 0.378791958 , 0.0232573822, 1.57541192  , -0.02455783 , 3.08716035  , 4.13        , 3           , 50          , 0           , 0
-0.236905783, -9.77017    , 0.0566736534, -0.000125248043, 0.000236880485, -0.0006105545, -0.433531076, 0.378791958 , 0.0232573822, 1.57541072  , -0.0245517287, 3.08716273  , 4.14        , 3           , 11          , 0.006282723 , 0.0062827263
-0.21974878 , -9.786423   , 0.0427170172, 0.00173119269, 0.0006167   , 0.0008641351, -0.43386814 , 0.377983    , 0.02298773  , 1.57542789  , -0.0245604031, 3.087169    , 4.15        , 3           , 12          , 0.06405166  , 0
-0.225401714, -9.802318   , 0.0564926043, 0.00105971633, -0.000577326631, 0.000849678647, -0.433328837, 0.3773763   , 0.02318997  , 1.57543886  , -0.0245688688, 3.08716321  , 4.16        , 3           , 50          , 0           , 0
-0.259462774, -9.797811   , 0.03398601  , -0.000667953864, -0.0005672352, 0.0005747338, -0.43339625 , 0.378657132 , 0.02318997  , 1.57543218  , -0.0245745927, 3.08715749  , 4.17        , 3           , 11          , 0.006282723 , 0.0062827263
-0.235120848, -9.79711    , 0.0374529436, -0.0010591005, 0.000897876569, 0.000585884962, -0.43339625 , 0.378657132 , 0.02318997  , 1.57542121  , -0.0245805029, 3.087166    , 4.18        , 3           , 12          , 0.06405166  , 0
-0.220850483, -9.793342   , 0.05934853  , -0.0018542977, 0.00103751989, 0.000184333883, -0.433935553, 0.37764594  , 0.0231225565, 1.57540238  , -0.0245823935, 3.08717656  , 4.19        , 3           , 50          , 0           , 0
-0.214482456, -9.79243851 , 0.05446636  , -0.001443151, 0.000767212652, 0.000434553716, -0.43339625 , 0.377241462 , 0.0233247951, 1.5754298   , -0.0245442465, 3.08718324  , 4.2         , 3           , 11          , 0.00621157  , 0.006211562
-0.224281639, -9.788206   , 0.0435472   , -0.0005106913, 0.0006326176, 3.988491E-05, -0.43339625 , 0.378724545 , 0.0231225565, 1.57542455  , -0.024544673, 3.087189    , 4.21        , 3           , 12          , 0.06513038  , 0
-0.22715266 , -9.796423   , 0.055174984 , -0.000102384889, 0.001963765 , -0.000344348169, -0.43339625 , 0.378724545 , 0.0231225565, 1.57542312  , -0.02454132 , 3.087209    , 4.22        , 3           , 50          , 0           , 0
-0.228395641, -9.792266   , 0.04616665  , 0.000433930836, 0.00262728869, -0.000468265, -0.43386814 , 0.377848178 , 0.0230551437, 1.57542682  , -0.0245367568, 3.08723521  , 4.23        , 3           , 11          , 0.00621157  , 0.006211562
-0.256872654, -9.802879   , 0.04300168  , 0.00227532652, -5.04585842E-05, 0.0007129761, -0.43339625 , 0.377241462 , 0.0232573822, 1.57544959  , -0.024543887, 3.08723474  , 4.24        , 3           , 12          , 0.06513038  , 0
-0.20809181 , -9.780301   , 0.05602122  , 0.00200573378, -0.0007142972, 0.0007055011, -0.433328837, 0.378724545 , 0.02318997  , 1.57546985  , -0.0245509055, 3.08722758  , 4.25        , 3           , 50          , 0           , 0
-0.220217392, -9.775675   , 0.053208787 , 0.000950926042, -0.000168653612, -0.000490789243, -0.433328837, 0.378724545 , 0.02318997  , 1.57547939  , -0.0245459918, 3.08722615  , 4.26        , 3           , 11          , 0.00621157  , 0.006211562
-0.239539683, -9.7862215  , 0.03570091  , 0.0008136439, -0.0005699224, -9.66635562E-05, -0.433800727, 0.37764594  , 0.0230551437, 1.57548773  , -0.0245449971, 3.08722043  , 4.27        , 3           , 12          , 0.06513038  , 0
-0.244521886, -9.8032465  , 0.02417618  , 0.0004089295, -0.000971822767, 0.0005616765, -0.433463663, 0.3773763   , 0.0232573822, 1.575492    , -0.0245505683, 3.08721042  , 4.28        , 3           , 50          , 0           , 0
-0.253009558, -9.77395248 , 0.03791763  , 0.00161171739, 8.66613E-05 , 0.0005777856, -0.433463663, 0.378724545 , 0.0232573822, 1.57550812  , -0.02455635 , 3.08721137  , 4.29        , 3           , 11          , 0.00621157  , 0.006211562
-0.233130112, -9.779448   , 0.03087802  , 0.00200953684, 0.00168019964, 0.0007130816, -0.433463663, 0.378724545 , 0.0232573822, 1.57550168  , -0.02452276 , 3.08722854  , 4.3         , 3           , 12          , 0.06621343  , 0
-0.253125131, -9.777655   , 0.0478173532, 9.449832E-06, 0.00128681352, 0.00123001472, -0.4337333  , 0.377848178 , 0.02318997  , 1.57550144  , -0.0245351214, 3.08724141  , 4.31        , 3           , 50          , 0           , 0
-0.259512633, -9.774991   , 0.05770408  , -0.000524035, 0.000495002139, 0.00068861  , -0.433531076, 0.3775111   , 0.02318997  , 1.57549608  , -0.0245420281, 3.08724618  , 4.32        , 3           , 11          , 0.00614247425, 0.00614247052
-0.244446784, -9.783441   , 0.0316031128, -0.000521946349, -0.000294599333, -0.0005140458, -0.433531076, 0.378657132 , 0.0233247951, 1.57549083  , -0.024536876, 3.08724332  , 4.33        , 3           , 12          , 0.06621343  , 0
-0.245794848, -9.78208    , 0.0320519656, 0.00213819  , -0.0003072124, -0.000499738439, -0.433531076, 0.378657132 , 0.0233247951, 1.57551241  , -0.0245318618, 3.08724046  , 4.34        , 3           , 50          , 0           , 0
-0.229737848, -9.791798   , 0.0452514663, 0.004798346 , 7.639502E-05, -8.333689E-05, -0.4337333  , 0.3779156   , 0.02318997  , 1.57556033  , -0.024531031, 3.08724141  , 4.35        , 3           , 11          , 0.00614247425, 0.00614247052
-0.251288056, -9.77539349 , 0.0460555181, 0.00213960861, -0.000305319438, -0.000765383535, -0.433194   , 0.3773763   , 0.0233247951, 1.57558191  , -0.0245233588, 3.087238    , 4.36        , 3           , 12          , 0.06621343  , 0
-0.248002842, -9.77529    , 0.03209292  , -0.000393943628, -0.00109429646, -0.000387761072, -0.4335985  , 0.378657132 , 0.0231225565, 1.57557821  , -0.0245194342, 3.087227    , 4.37        , 3           , 50          , 0           , 0
-0.2569443  , -9.77335    , 0.0243234579, 0.0006758505, 0.0002289652, -0.000104304512, -0.4335985  , 0.378657132 , 0.0231225565, 1.57558489  , -0.0245184  , 3.08722949  , 4.38        , 3           , 11          , 0.00614247425, 0.00614247052
-0.262005478, -9.769377   , 0.0383051373, 0.00094969885, 0.000898482744, -0.0008937647, -0.43386814 , 0.377578527 , 0.02318997  , 1.57559419  , -0.0245095082, 3.08723855  , 4.39        , 3           , 12          , 0.06621343  , 0
-0.264835179, -9.779794   , 0.04358708  , -1.18376256E-05, 0.000237682252, -0.0007472053, -0.433328837, 0.3773763   , 0.0233247951, 1.5755167   , -0.0245751068, 3.08724332  , 4.4         , 3           , 50          , 0           , 0
-0.250030845, -9.790746   , 0.0445620231, -0.00106945 , 0.00143990736, -0.000742048665, -0.433328837, 0.378791958 , 0.0231225565, 1.57550561  , -0.0245677512, 3.08725762  , 4.41        , 3           , 11          , 0.006075229 , 0.006075225
-0.254003584, -9.783455   , 0.04052078  , -0.00133757852, 0.00170247606, -7.694903E-05, -0.433328837, 0.378791958 , 0.0231225565, 1.57549191  , -0.024567062, 3.08727479  , 4.42        , 3           , 12          , 0.06730036  , 0
-0.225479364, -9.775933   , 0.03597589  , 0.000118351636, 0.00062948605, 0.000186894293, -0.43386814 , 0.3773763   , 0.0230551437, 1.57549286  , -0.0245689582, 3.087281    , 4.43        , 3           , 50          , 0           , 0
-0.25215897 , -9.772665   , 0.044716958 , 0.0005087954, -0.000704498671, 0.000442596967, -0.43339625 , 0.3774437   , 0.02318997  , 1.5754981   , -0.0245733522, 3.08727384  , 4.44        , 3           , 11          , 0.006075229 , 0.006075225
-0.257538319, -9.775732   , 0.0382961668, -0.000292831071, -0.001497888, 0.000298229163, -0.4335985  , 0.378791958 , 0.0231225565, 1.57549548  , -0.0245762616, 3.08725858  , 4.45        , 3           , 12          , 0.06730036  , 0
-0.225386187, -9.761042   , 0.03748126  , 0.000241304588, -0.00189379172, -0.0004994711, -0.4335985  , 0.378791958 , 0.0231225565, 1.57549846  , -0.0245711785, 3.08724     , 4.46        , 3           , 50          , 0           , 0
-0.24120447 , -9.772167   , 0.0313038453, 0.00276988535, -0.00124351366, -8.136722E-05, -0.4336659  , 0.3775111   , 0.02298773  , 1.57552648  , -0.024570303, 3.08722758  , 4.47        , 3           , 11          , 0.006075229 , 0.006075225
-0.234279722, -9.774755   , 0.06208071  , 0.005312054 , 0.00166999677, 9.1641974E-05, -0.43339625 , 0.377578527 , 0.02318997  , 1.57557917  , -0.0245712977, 3.08724427  , 4.48        , 3           , 12          , 0.06730036  , 0
-0.231244981, -9.788801   , 0.0646876544, 0.00544718839, 0.00167220552, -0.000306110247, -0.4337333  , 0.378859371 , 0.0230551437, 1.57563317  , -0.0245683212, 3.087261    , 4.49        , 3           , 50          , 0           , 0
-0.2345258  , -9.772753   , 0.040866144 , 0.000638299738, -0.001495541, -0.000623477, -0.4337333  , 0.378859371 , 0.0230551437, 1.5756253   , -0.0245712046, 3.08724618  , 4.5         , 3           , 11          , 0.006010005 , 0.006009987
-0.243594408, -9.783049   , 0.0374900326, -0.000829044264, -0.00175842969, -0.00010247367, -0.43386814 , 0.37764594  , 0.0228529051, 1.57561743  , -0.0245700926, 3.087229    , 4.51        , 3           , 12          , 0.06839085  , 0
-0.251372516, -9.788482   , 0.04502     , 0.0005167587, 0.0008975565, -0.000336788158, -0.43339625 , 0.37764594  , 0.0233247951, 1.57562244  , -0.0245667659, 3.0872376   , 4.52        , 3           , 50          , 0           , 0
-0.241288856, -9.78122    , 0.03347089  , -0.00106792885, 0.00184478273, -0.00153231365, -0.433261424, 0.378657132 , 0.0231225565, 1.57561135  , -0.0245515332, 3.08725619  , 4.53        , 3           , 11          , 0.006010005 , 0.006009987
-0.239428461, -9.776245   , 0.0312847756, -0.00134679454, 0.000112051748, -0.0008853466, -0.433261424, 0.378657132 , 0.0231225565, 1.57559776  , -0.0245426875, 3.08725762  , 4.54        , 3           , 12          , 0.06839085  , 0
-0.235177144, -9.793577   , 0.04652232  , -3.38338868E-05, -0.00163392606, 0.000567140058, -0.433800727, 0.3774437   , 0.02298773  , 1.57559776  , -0.024548281, 3.08724141  , 4.55        , 3           , 50          , 0           , 0
-0.220859319, -9.79918    , 0.0556760952, -2.88362116E-05, -0.000966933032, 0.000307539216, -0.433261424, 0.3775111   , 0.02318997  , 1.57559764  , -0.0245513115, 3.0872314   , 4.56        , 3           , 11          , 0.006010005 , 0.006009987
-0.2539465  , -9.758735   , 0.05386924  , -0.00068815035, -3.16934456E-05, 0.0001796018, -0.433328837, 0.378724545 , 0.0232573822, 1.57559085  , -0.0245531052, 3.087231    , 4.57        , 3           , 12          , 0.06839085  , 0
-0.256572545, -9.768499   , 0.03702516  , -0.00135177886, -0.0002907942, -0.000357682933, -0.433328837, 0.378724545 , 0.0232573822, 1.57557738  , -0.0245495141, 3.087228    , 4.58        , 3           , 50          , 0           , 0
-0.2427144  , -9.786217   , 0.03746908  , -0.000414328038, 0.000109530134, -0.001145984, -0.433531076, 0.3773763   , 0.0229203179, 1.57557321  , -0.0245380588, 3.087229    , 4.59        , 3           , 11          , 0.006010005 , 0.006009987
-0.241390973, -9.791636   , 0.0365275368, 0.00130239176, 0.00062710495, -0.000194529188, -0.43339625 , 0.3774437   , 0.02318997  , 1.57555425  , -0.0245595071, 3.08723664  , 4.6         , 3           , 12          , 0.06948452  , 0
-0.239310727, -9.798106   , 0.0509438   , 0.00237290165, 0.00208338653, 9.013604E-05, -0.433463663, 0.378791958 , 0.02318997  , 1.57557738  , -0.0245605111, 3.08725762  , 4.61        , 3           , 50          , 0           , 0
-0.224587068, -9.801516   , 0.06690052  , 0.00236646552, 0.00101828028, 0.000213287829, -0.433463663, 0.378791958 , 0.02318997  , 1.57560086  , -0.02456269 , 3.08726764  , 4.62        , 3           , 11          , 0.00594796333, 0.00594793167
-0.234785631, -9.798573   , 0.04918753  , -0.000975864648, -0.0017622126, 0.0005684854, -0.4336659  , 0.3773763   , 0.0230551437, 1.57559144  , -0.0245682914, 3.08725     , 4.63        , 3           , 12          , 0.06948452  , 0
-0.227803856, -9.772399   , 0.0463727452, -0.000576863647, -0.00216032518, 0.000168537372, -0.433194   , 0.37764594  , 0.0232573822, 1.57558632  , -0.02456987 , 3.087228    , 4.64        , 3           , 50          , 0           , 0
-0.219320118, -9.779274   , 0.05092507  , 0.00129384769, -4.46205377E-05, 0.0007291842, -0.433531076, 0.3785223   , 0.0232573822, 1.57559931  , -0.0245771557, 3.087228    , 4.65        , 3           , 11          , 0.00594796333, 0.00594793167
-0.214966163, -9.817131   , 0.03840255  , 0.00144609634, 0.00182933314, -0.0009798695, -0.433531076, 0.3785223   , 0.0232573822, 1.57561326  , -0.0245674457, 3.08724618  , 4.66        , 3           , 12          , 0.06948452  , 0
-0.224077061, -9.788001   , 0.0209649466, 0.00185080408, 0.00209916  , -0.00177224108, -0.4335985  , 0.37717405  , 0.0229203179, 1.57563138  , -0.0245498233, 3.08726716  , 4.67        , 3           , 50          , 0           , 0
-0.2516627  , -9.786973   , 0.0283173267, 0.0013145603, 0.00288844458, -0.0001739789, -0.433194   , 0.3775111   , 0.0230551437, 1.57564378  , -0.0245482251, 3.08729577  , 4.68        , 3           , 11          , 0.00594796333, 0.00594793167
-0.244370952, -9.786505   , 0.0207317062, 0.00170429493, 0.00155351358, 0.000214546351, -0.433531076, 0.378387481 , 0.0230551437, 1.57566047  , -0.0245504472, 3.087312    , 4.69        , 3           , 12          , 0.06948452  , 0
-0.239925608, -9.77584    , 0.03670358  , 0.00179956714, -4.463132E-05, 0.000452649663, -0.4335985  , 0.377241462 , 0.02298773  , 1.57559073  , -0.0245114937, 3.08731341  , 4.7         , 3           , 50          , 0           , 0
-0.225884244, -9.778573   , 0.0287167151, 0.00194397476, 0.00102647  , -0.000599544554, -0.4335985  , 0.377241462 , 0.02298773  , 1.57560992  , -0.02450555 , 3.08732343  , 4.71        , 3           , 11          , 0.00588598661, 0.005885967
-0.212991074, -9.77527    , 0.05284951  , 0.0018095494, 0.00102520769, -0.00033461483, -0.433194   , 0.377241462 , 0.0233247951, 1.5756278   , -0.0245022532, 3.087334    , 4.72        , 3           , 12          , 0.0705811   , 0
-0.221610188, -9.75821    , 0.0212932937, 0.00233091135, 0.00048019347, 0.0011244592, -0.433531076, 0.378791958 , 0.0231225565, 1.575651    , -0.024513524, 3.08733869  , 4.73        , 3           , 50          , 0           , 0
-0.232301891, -9.781321   , 0.03764544  , 0.000739794457, 0.000494386768, 0.000186116973, -0.4336659  , 0.377308875 , 0.0230551437, 1.57565832  , -0.024515409, 3.08734345  , 4.74        , 3           , 11          , 0.00588598661, 0.005885967
-0.251969665, -9.805666   , 0.0475511327, -0.00138547772, 0.000508263241, -0.0003566191, -0.4336659  , 0.377308875 , 0.0230551437, 1.57564437  , -0.0245118681, 3.0873487   , 4.75        , 3           , 12          , 0.0705811   , 0
-0.216009885, -9.77735    , 0.035625793 , -0.000184108329, 0.00156485429, -7.486492E-05, -0.433194   , 0.377713352 , 0.02318997  , 1.57564211  , -0.0245111976, 3.08736444  , 4.76        , 3           , 50          , 0           , 0
-0.247782573, -9.788976   , 0.0468659177, -0.0009857479, 0.0005073177, -0.0004872955, -0.4336659  , 0.37858972  , 0.0231225565, 1.57563221  , -0.0245063454, 3.0873692   , 4.77        , 3           , 11          , 0.00588598661, 0.005885967
-0.261541724, -9.775645   , 0.031923756 , -0.0015292021, -0.00109018548, 2.66270035E-05, -0.4335985  , 0.377039224 , 0.02298773  , 1.57561719  , -0.0245065559, 3.08735871  , 4.78        , 3           , 12          , 0.0705811   , 0
-0.2599064  , -9.785244   , 0.0431410819, 0.0009936654, -0.00123992038, 0.0007031228, -0.4335985  , 0.377039224 , 0.02298773  , 1.57562745  , -0.0245135315, 3.08734632  , 4.79        , 3           , 50          , 0           , 0
-0.24961713 , -9.782267   , 0.0554936081, 0.00110437744, -0.00137297111, 0.000706245832, -0.4331266  , 0.377848178 , 0.02298773  , 1.575569    , -0.0245322045, 3.08733439  , 4.8         , 3           , 11          , 0.00582572864, 0.005825695
-0.246179849, -9.772144   , 0.03259843  , -0.000222131261, -0.00109778519, 0.000303042267, -0.4335985  , 0.37858972  , 0.02318997  , 1.575567    , -0.0245351866, 3.08732343  , 4.81        , 3           , 12          , 0.07168024  , 0
-0.275752068, -9.784739   , 0.0492766351, 0.000190417733, -2.510592E-05, -0.0011461887, -0.433800727, 0.377106637 , 0.0229203179, 1.57556891  , -0.0245237276, 3.08732343  , 4.82        , 3           , 50          , 0           , 0
-0.243652239, -9.77055    , 0.0538769141, 6.24151362E-05, 0.0007745912, -0.00127247348, -0.433800727, 0.377106637 , 0.0229203179, 1.57556939  , -0.02451104 , 3.087331    , 4.83        , 3           , 11          , 0.00582572864, 0.005825695
-0.225783914, -9.78969    , 0.0588729978, 0.000320613559, 0.0004987715, -7.805764E-05, -0.433328837, 0.3775111   , 0.02318997  , 1.57557249  , -0.0245102774, 3.08733582  , 4.84        , 3           , 12          , 0.07168024  , 0
-0.244268522, -9.804792   , 0.0449436642, -0.0003515917, -0.00109242217, -0.000361785758, -0.433531076, 0.3785223   , 0.0232573822, 1.57556927  , -0.024506608, 3.08732533  , 4.85        , 3           , 50          , 0           , 0
-0.235521585, -9.78136    , 0.0443817079, -0.00195410918, -0.00214996072, -0.000247218471, -0.4336659  , 0.377039224 , 0.0230551437, 1.5755502   , -0.024504032, 3.0873034   , 4.86        , 3           , 11          , 0.00582572864, 0.005825695
-0.235181943, -9.785063   , 0.05383526  , -0.00195055618, -0.002013155, -0.000777299749, -0.4336659  , 0.377039224 , 0.0230551437, 1.57553124  , -0.0244961586, 3.08728337  , 4.87        , 3           , 12          , 0.07168024  , 0
-0.236678317, -9.787437   , 0.06779701  , 0.000182557051, -0.00122417894, -0.0008914233, -0.433261424, 0.377780765 , 0.02298773  , 1.57553339  , -0.02448719 , 3.087271    , 4.88        , 3           , 50          , 0           , 0
-0.241503537, -9.784574   , 0.0546662956, 0.00164136989, -0.00136886828, -0.000220650327, -0.433531076, 0.37858972  , 0.0231225565, 1.57555008  , -0.02448492 , 3.08725762  , 4.89        , 3           , 11          , 0.00582572864, 0.005825695
-0.252264917, -9.789363   , 0.0431933254, 0.00111978326, -0.00149869046, -0.000354433781, -0.433531076, 0.377106637 , 0.02298773  , 1.57559621  , -0.0244915821, 3.08724141  , 4.9         , 3           , 12          , 0.0727817044, 0
-0.226976022, -9.77203    , 0.05496954  , 0.0019249561, -0.0007005686, -0.000874178659, -0.433531076, 0.377106637 , 0.02298773  , 1.57561564  , -0.0244828071, 3.08723474  , 4.91        , 3           , 50          , 0           , 0
-0.251087   , -9.795826   , 0.057598602 , 0.000728616957, -0.0004297992, -0.000745376747, -0.4331266  , 0.377780765 , 0.02298773  , 1.57562292  , -0.0244753323, 3.08723     , 4.92        , 3           , 11          , 0.00576705439, 0.005767023
-0.233385861, -9.786878   , 0.05338733  , 0.00151813985, -0.0005770146, 0.0007187546, -0.4335985  , 0.3785223   , 0.02298773  , 1.57563829  , -0.0244824942, 3.08722425  , 4.93        , 3           , 12          , 0.0727817044, 0
-0.2455796  , -9.78097248 , 0.05916984  , 0.00323796226, -0.001522032, 0.00151652773, -0.433531076, 0.3769718   , 0.0229203179, 1.57567108  , -0.0244975816, 3.087209    , 4.94        , 3           , 50          , 0           , 0
-0.237994209, -9.806223   , 0.0486199632, -0.000479864684, -0.00189207576, -0.0001009998, -0.433531076, 0.3769718   , 0.0229203179, 1.57566679  , -0.0244964752, 3.08719     , 4.95        , 3           , 11          , 0.00576705439, 0.005767023
-0.245509192, -9.799737   , 0.0363960937, -0.00140452245, -0.00174706918, -0.00116737885, -0.433328837, 0.37764594  , 0.02298773  , 1.5756532   , -0.0244847182, 3.08717275  , 4.96        , 3           , 12          , 0.0727817044, 0
-0.25299266 , -9.808918   , 0.0583477281, 0.0005891809, -0.00136220141, -0.000488908961, -0.433531076, 0.37858972  , 0.02318997  , 1.57565951  , -0.0244797636, 3.0871594   , 4.97        , 3           , 50          , 0           , 0
-0.253406465, -9.784658   , 0.0233500767, 0.00125780713, -0.0004361078, -0.0002112251, -0.4336659  , 0.37717405  , 0.02298773  , 1.57567227  , -0.02447763 , 3.08715463  , 4.98        , 3           , 11          , 0.00576705439, 0.005767023
-0.236105129, -9.760407   , 0.0256113689, 0.00191855291, -0.00110530772, -8.0869926E-05, -0.4336659  , 0.37717405  , 0.02298773  , 1.5756917   , -0.0244767666, 3.08714414  , 4.99        , 3           , 12          , 0.0727817044, 0
-0.239551231, -9.776367   , 0.0448341258, 0.00217418559, -0.001106211, -7.024305E-05, -0.433328837, 0.377780765 , 0.02298773  , 1.57567859  , -0.0245070364, 3.08713365  , 5           , 3           , 50          , 0           , 0
-0.250620663, -9.789087   , 0.06128564  , 0.001125163 , 0.00169225421, -5.05802636E-05, -0.4335985  , 0.37858972  , 0.02318997  , 1.57568955  , -0.02450661 , 3.08715081  , 5.01        , 3           , 11          , 0.00570995826, 0.00570993172
-0.23522377 , -9.803041   , 0.0441683456, -0.00126611628, 0.00183946546, -0.000460715644, -0.43339625 , 0.3769044   , 0.02318997  , 1.57567644  , -0.0245020967, 3.08716941  , 5.02        , 3           , 12          , 0.07388516  , 0
-0.238094062, -9.778964   , 0.0312738828, -0.0003415434, -2.24966025E-05, -0.00113674451, -0.43339625 , 0.3769044   , 0.02318997  , 1.5756731   , -0.0244907252, 3.087169    , 5.03        , 3           , 50          , 0           , 0
-0.250728071, -9.770355   , 0.03798154  , 0.000188356091, -2.78586649E-05, -0.000735415553, -0.43339625 , 0.377848178 , 0.02298773  , 1.575675    , -0.02448337 , 3.087169    , 5.04        , 3           , 11          , 0.00570995826, 0.00570993172
-0.251155972, -9.767639   , 0.03755176  , -0.000879258034, -0.00029169285, -0.0003450886, -0.4335985  , 0.378387481 , 0.0231225565, 1.57566631  , -0.0244799014, 3.087166    , 5.05        , 3           , 12          , 0.07388516  , 0
-0.242240623, -9.774986   , 0.0439115837, 5.106741E-05, -0.000561200955, -0.000475321256, -0.4335985  , 0.377106637 , 0.02298773  , 1.575667    , -0.02447512 , 3.08716035  , 5.06        , 3           , 50          , 0           , 0
-0.230033   , -9.789844   , 0.0294566359, 0.0008512492, -0.0002979984, -0.000601433741, -0.4335985  , 0.377106637 , 0.02298773  , 1.57567561  , -0.0244690981, 3.08715749  , 5.07        , 3           , 11          , 0.00570995826, 0.00570993172
-0.234409526, -9.777569   , 0.0241051242, 0.000989976 , 0.0006334573, -0.0007250791, -0.433194   , 0.377848178 , 0.0231225565, 1.57568538  , -0.0244618729, 3.08716369  , 5.08        , 3           , 12          , 0.07388516  , 0
-0.237885565, -9.790869   , 0.04877498  , 0.0009871129, 0.000101377373, -0.000729914464, -0.433531076, 0.3785223   , 0.0231225565, 1.57569528  , -0.02445458 , 3.087165    , 5.09        , 3           , 50          , 0           , 0
