Acc X       , Acc Y       , Acc Z       , Gyro X      , Gyro Y      , Gyro Z      , Magn X      , Magn Y      , Magn Z      , Euler X     , Euler Y     , Euler Z     , Time        , Status      , LowRate X   , LowRate Y   , LowRate Z    
0.359355927 , 0.1382344   , -9.78755951 , -0.002100574, -0.00200564018, -0.00123346841, -0.182553589, -0.163678035, 0.421329379 , -0.0119287269, 0.03594497  , 2.38246655  , 0           , 3           , 11          , 0.0346410163, 0.0346410163
0.3731452   , 0.116444588 , -9.796585   , -0.00169132627, 0.0009536594, -0.0008031304, -0.182688415, -0.163408384, 0.421261966 , -0.01194593 , 0.0359543972, 2.382458    , 0.01        , 3           , 12          , 0.0346410163, 0
0.3402425   , 0.0938186049, -9.796929   , -0.0009905905, 0.00208469573, -0.000374296127, -0.182418764, -0.163071319, 0.42159903  , -0.01195598 , 0.0359751955, 2.38245416  , 0.02        , 3           , 50          , 0           , 0
0.365234733 , 0.105649874 , -9.779514   , -0.00183253968, 0.00095270446, -0.0008037888, -0.182621   , -0.163138732, 0.4213968   , -0.0119745983, 0.0359846279, 2.38244557  , 0.03        , 3           , 11          , 0.0346410163, 0.0346410163
0.364965558 , 0.116962709 , -9.788057   , -0.00126432686, 0.0003933971, 0.000186858219, -0.182553589, -0.163340971, 0.4213968   , -0.0119871758, 0.0359885842, 2.38244748  , 0.04        , 3           , 12          , 0.0346410163, 0
0.36687544  , 0.121931307 , -9.796158   , -0.000413887843, -0.000304787245, -0.000375350646, -0.182553589, -0.163340971, 0.4213968   , -0.0119914478, 0.03598549  , 2.38244367  , 0.05        , 3           , 50          , 0           , 0
0.363979757 , 0.109320395 , -9.793067   , -0.00168456358, -0.000313380966, 4.25293838E-05, -0.182621   , -0.163610622, 0.4214642   , -0.0120082768, 0.03598236  , 2.38244462  , 0.06        , 3           , 11          , 0.0346410163, 0.0346410163
0.353839755 , 0.12975049  , -9.794869   , -0.00211050222, 0.000246886484, 0.0008890342, -0.182823241, -0.163340971, 0.421531618 , -0.012029063, 0.0359849334, 2.3824532   , 0.07        , 3           , 12          , 0.0346410163, 0
0.3579185   , 0.1270275   , -9.80434    , -0.00055850466, 0.000398170727, -0.000233655563, -0.182351351, -0.1629365  , 0.4214642   , -0.0120347347, 0.0359888859, 2.3824513   , 0.08        , 3           , 50          , 0           , 0
0.378606379 , 0.118635058 , -9.796081   , -0.00112421846, 0.0005351326, -0.00051861 , -0.182351351, -0.1629365  , 0.4214642   , -0.0120461658, 0.0359941758, 2.38244557  , 0.09        , 3           , 11          , 0.0346410163, 0.0346410163
0.369950354 , 0.112444133 , -9.803405   , -0.00196637516, -0.000456073845, -0.000100271318, -0.182418764, -0.163543209, 0.42159903  , -0.0120658651, 0.0359896049, 2.38244462  , 0.1         , 3           , 12          , 0.0346410163, 0
0.3585348   , 0.108928494 , -9.791756   , -0.00125735719, -0.00101442845, 0.000184690667, -0.182553589, -0.1630039  , 0.4213968   , -0.0120783662, 0.0359794945, 2.382447    , 0.11        , 3           , 50          , 0           , 0
0.369389355 , 0.112361744 , -9.777195   , 4.95488166E-06, 0.0006835557, -0.0002305858, -0.182418764, -0.163138732, 0.421531618 , -0.0120784026, 0.0359862931, 2.38244462  , 0.12        , 3           , 11          , 0.0346410163, 0.0346410163
0.353533328 , 0.1009358   , -9.812617   , 0.000844405266, 0.00223789271, -0.0005067858, -0.182418764, -0.163138732, 0.421531618 , -0.01207015 , 0.0360086076, 2.382439    , 0.13        , 3           , 12          , 0.0346410163, 0
0.342142284 , 0.102796189 , -9.789646   , -0.000144867183, 0.00237199  , -0.0006524469, -0.182486176, -0.163340971, 0.421261966 , -0.0120718442, 0.03603225  , 2.38243222  , 0.14        , 3           , 50          , 0           , 0
0.370871723 , 0.118695177 , -9.7871     , -0.0001406852, 0.00152729487, -0.0006537487, -0.182621   , -0.163071319, 0.421531618 , -0.0120734954, 0.0360474363, 2.38242555  , 0.15        , 3           , 11          , 0.0346410163, 0.0346410163
0.348154    , 0.10863135  , -9.801328   , -0.00239567342, 0.00066732103, -0.000241779708, -0.182486176, -0.163273558, 0.421666443 , -0.0120975422, 0.0360540859, 2.38242269  , 0.16        , 3           , 12          , 0.0346410163, 0
0.3327313   , 0.1087894   , -9.794665   , -0.00422681356, -0.0003305727, -0.000675664633, -0.182486176, -0.163273558, 0.421666443 , -0.0121400533, 0.0360506959, 2.382416    , 0.17        , 3           , 50          , 0           , 0
0.344111681 , 0.120310858 , -9.771931   , -0.001966086, -0.0005968584, -0.0008068319, -0.182621   , -0.163340971, 0.4213968   , -0.0121600023, 0.0360446274, 2.38240838  , 0.18        , 3           , 11          , 0.0346410163, 0.0346410163
0.333845139 , 0.123230718 , -9.799117   , -0.00140426529, -2.99095063E-05, -0.00122713647, -0.182553589, -0.163206145, 0.4214642   , -0.0121744862, 0.03604418  , 2.382396    , 0.19        , 3           , 12          , 0.0346410163, 0
0.353806019 , 0.124366924 , -9.803931   , 7.500512E-06, 0.000120422759, -0.000655256037, -0.182418764, -0.163340971, 0.4214642   , -0.0121745765, 0.03604526  , 2.38238931  , 0.2         , 3           , 50          , 0           , 0
0.359852225 , 0.111557491 , -9.773204   , 0.00198915973, -0.0007109003, 0.000200273062, -0.182553589, -0.163138732, 0.421261966 , -0.012154608, 0.0360381678, 2.38239121  , 0.21        , 3           , 11          , 0.03466991  , 0.03466991
0.366699964 , 0.1115231   , -9.786711   , 0.00170222449, 0.000131883367, -0.000364816922, -0.182553589, -0.163138732, 0.421261966 , -0.0121377185, 0.03603944  , 2.38238788  , 0.22        , 3           , 12          , 0.03466883  , 0
0.3473028   , 0.116720393 , -9.788646   , 0.000422776619, 0.00181267806, -0.0006506769, -0.182553589, -0.163273558, 0.4213968   , -0.0121337343, 0.03605749  , 2.3823812   , 0.23        , 3           , 50          , 0           , 0
0.353160053 , 0.115288749 , -9.785894   , -0.0004243407, 0.001806949 , -0.0003720902, -0.182351351, -0.163206145, 0.42159903  , -0.0121381208, 0.0360755138, 2.382377    , 0.24        , 3           , 11          , 0.03466991  , 0.03466991
0.3446254   , 0.119462207 , -9.789558   , -0.002966056, 0.00164897391, -0.00137304072, -0.182283938, -0.163206145, 0.421531618 , -0.0121682845, 0.036091838 , 2.38236356  , 0.25        , 3           , 12          , 0.03466883  , 0
0.338213325 , 0.119031034 , -9.773338   , -0.00268153846, 0.00122853636, -0.00137237471, -0.182283938, -0.163206145, 0.421531618 , -0.0121956021, 0.0361039527, 2.38234925  , 0.26        , 3           , 50          , 0           , 0
0.357291    , 0.120196015 , -9.783583   , -0.000408843567, -0.00129026582, -9.432612E-05, -0.182621   , -0.1630039  , 0.42159903  , -0.0121997176, 0.03609104  , 2.3823483   , 0.27        , 3           , 11          , 0.03466991  , 0.03466991
0.333409816 , 0.124142878 , -9.800472   , 2.22562E-05 , -0.00269522378, 0.000753092 , -0.182688415, -0.163138732, 0.421666443 , -0.01219921 , 0.03606418  , 2.38235641  , 0.28        , 3           , 12          , 0.03466883  , 0
0.3272471   , 0.105687581 , -9.79245949 , -0.00252593961, -0.00144537142, 0.0006019237, -0.182621   , -0.163071319, 0.421531618 , -0.0122242458, 0.0360497981, 2.3823626   , 0.29        , 3           , 50          , 0           , 0
0.3471957   , 0.113062784 , -9.774198   , -0.00223457417, -0.0007700158, -0.000525715237, -0.182621   , -0.163071319, 0.421531618 , -0.011977056, 0.03541466  , 2.38236737  , 0.3         , 3           , 11          , 0.0347534157, 0.034753412
0.364379644 , 0.108379513 , -9.783125   , 0.000442786375, 0.000233602768, -0.00192437333, -0.182688415, -0.163273558, 0.421329379 , -0.0119733112, 0.0354167633, 2.3823483   , 0.31        , 3           , 12          , 0.03475391  , 0
0.358147    , 0.108540118 , -9.808935   , 0.000437907351, 0.00121908041, -0.00192285434, -0.182486176, -0.163206145, 0.421531618 , -0.0119696185, 0.0354287252, 2.38232827  , 0.32        , 3           , 50          , 0           , 0
0.366031379 , 0.129579768 , -9.786641   , 0.00256032776, 0.000529496057, -0.000642643368, -0.182553589, -0.163408384, 0.421666443 , -0.0119442446, 0.03543394  , 2.382322    , 0.33        , 3           , 11          , 0.0347534157, 0.034753412
0.351727217 , 0.110334478 , -9.783666   , 0.002850585 , -0.001017201, -0.0003611756, -0.182553589, -0.163408384, 0.421666443 , -0.0119158635, 0.03542373  , 2.38231874  , 0.34        , 3           , 12          , 0.03475391  , 0
0.35398     , 0.112976983 , -9.772338   , 0.00143799849, -0.000885967165, 5.62628338E-05, -0.182486176, -0.163138732, 0.421329379 , -0.0119014587, 0.0354148746, 2.38231921  , 0.35        , 3           , 50          , 0           , 0
0.347169936 , 0.113488249 , -9.766512   , 0.0008670349, 0.000377256336, 0.000338119018, -0.182621   , -0.163138732, 0.421666443 , -0.0118926708, 0.0354186855, 2.38232255  , 0.36        , 3           , 11          , 0.0347534157, 0.034753412
0.341824979 , 0.117194489 , -9.776482   , 0.0004460195, -0.000188739432, 5.273838E-05, -0.182621   , -0.163206145, 0.4213968   , -0.01188819 , 0.0354168043, 2.3823235   , 0.37        , 3           , 12          , 0.03475391  , 0
0.3394289   , 0.134893864 , -9.798121   , -0.00166279427, -0.00203323574, 0.000605115842, -0.182621   , -0.163206145, 0.4213968   , -0.0119045945, 0.0353965424, 2.38232923  , 0.38        , 3           , 50          , 0           , 0
0.347170949 , 0.10724014  , -9.786877   , -0.000534154649, -0.00174402888, 0.00117589242, -0.182418764, -0.163138732, 0.4213968   , -0.0119095128, 0.0353792422, 2.38234162  , 0.39        , 3           , 11          , 0.0347534157, 0.034753412
0.3579883   , 0.105733424 , -9.779117   , 0.0015792466, -0.000735176262, 0.000481079682, -0.182621   , -0.163408384, 0.4213968   , -0.0118890582, 0.03545523  , 2.38234639  , 0.4         , 3           , 12          , 0.03489541  , 0
0.339952528 , 0.107346363 , -9.79326    , -0.000390997244, -0.00208597933, 0.000681703037, -0.182486176, -0.163273558, 0.4214642   , -0.0118927192, 0.03543445  , 2.382354    , 0.41        , 3           , 50          , 0           , 0
0.351204872 , 0.10448087  , -9.78550148 , 0.00192955893, -0.000380837184, -0.00121195661, -0.182486176, -0.163273558, 0.4214642   , -0.0118738506, 0.0354305021, 2.38234162  , 0.42        , 3           , 11          , 0.0177056789, 0.0177058466
0.343989    , 0.140669376 , -9.787215   , -0.0009720157, 0.000796233537, -0.00256566377, -0.182418764, -0.163340971, 0.421329379 , -0.0118844816, 0.0354381539, 2.38231587  , 0.43        , 3           , 12          , 0.03489541  , 0
0.330700785 , 0.121949255 , -9.809542   , 8.2628736E-05, 0.00200005434, -1.60438958E-05, -0.182688415, -0.163273558, 0.421531618 , -0.0118836714, 0.03545816  , 2.3823154   , 0.44        , 3           , 50          , 0           , 0
0.358204454 , 0.1157283   , -9.799866   , 0.00339722866, 0.00279679988, -0.000140645236, -0.182553589, -0.163206145, 0.421531618 , -0.0118497582, 0.0354861   , 2.38231349  , 0.45        , 3           , 11          , 0.0177056789, 0.0177058466
0.3479819   , 0.130288884 , -9.800335   , 0.000229725832, 0.0008043577, -8.786404E-05, -0.182621   , -0.163273558, 0.421194553 , -0.011847497, 0.03549413  , 2.38231254  , 0.46        , 3           , 12          , 0.03489541  , 0
0.3383447   , 0.122708268 , -9.79366    , 0.0007921844, 0.00116013084, -0.00121483766, -0.182621   , -0.163273558, 0.421194553 , -0.0118400129, 0.03550559  , 2.38230062  , 0.47        , 3           , 50          , 0           , 0
0.3615471   , 0.138148859 , -9.769916   , -5.032082E-05, 0.0002393156, -0.0007963924, -0.182755828, -0.163206145, 0.4214642   , -0.0118408  , 0.03550789  , 2.382292    , 0.48        , 3           , 11          , 0.0177056789, 0.0177058466
0.3595524   , 0.119274683 , -9.785829   , 0.000716361741, 0.0025674873, 0.00182428071, -0.182621   , -0.163273558, 0.421666443 , -0.0118329981, 0.0355337746, 2.38231015  , 0.49        , 3           , 12          , 0.03489541  , 0
0.335028827 , 0.108790025 , -9.802783   , -0.00038055965, 0.00180032023, 0.00153431506, -0.182553589, -0.163408384, 0.421531618 , -0.0120361252, 0.03562067  , 2.38231874  , 0.5         , 3           , 50          , 0           , 0
0.3499151   , 0.109015882 , -9.787753   , -0.00108059472, 0.000387715321, -9.57373049E-05, -0.182553589, -0.163408384, 0.421531618 , -0.0120469667, 0.03562454  , 2.38231778  , 0.51        , 3           , 11          , 0.0134416036, 0.0134416753
0.352385759 , 0.123886369 , -9.790384   , -0.0005123119, -0.000523556664, -0.00200164155, -0.182351351, -0.163138732, 0.421531618 , -0.0120527986, 0.035619054 , 2.38229775  , 0.52        , 3           , 12          , 0.0350922048, 0
0.366702944 , 0.107954711 , -9.798928   , 0.000324161374, 0.0018050886, -0.0007933266, -0.182755828, -0.163206145, 0.421531618 , -0.01204985 , 0.03563701  , 2.38228917  , 0.53        , 3           , 50          , 0           , 0
0.3549801   , 0.112150252 , -9.798098   , 0.0005327376, 0.00265122065, 0.000833553262, -0.182553589, -0.163273558, 0.421666443 , -0.012044237, 0.03566362  , 2.38229728  , 0.54        , 3           , 11          , 0.0134416036, 0.0134416753
0.357160866 , 0.108039111 , -9.790866   , -9.624576E-05, 0.00137988129, 0.00118180923, -0.182553589, -0.163273558, 0.421666443 , -0.0120447846, 0.0356775634, 2.3823092   , 0.55        , 3           , 12          , 0.0350922048, 0
0.3438533   , 0.09599858  , -9.78695    , -9.43994237E-05, 0.0009575326, 0.0007573523, -0.182553589, -0.163543209, 0.4213968   , -0.0120454626, 0.0356872268, 2.38231635  , 0.56        , 3           , 50          , 0           , 0
0.349975258 , 0.104601122 , -9.816698   , 0.000184075121, 0.00159296  , -0.00065304176, -0.182688415, -0.163408384, 0.421531618 , -0.0120438635, 0.0357030779, 2.38230968  , 0.57        , 3           , 11          , 0.0134416036, 0.0134416753
0.3724448   , 0.131797388 , -9.797429   , 5.343908E-05, -0.0005197323, -0.0004450516, -0.182486176, -0.163206145, 0.421531618 , -0.0120434854, 0.0356978253, 2.38230538  , 0.58        , 3           , 12          , 0.0350922048, 0
0.370966941 , 0.1290384   , -9.777114   , -0.00107299082, -0.0010905  , 0.000396425137, -0.182486176, -0.163206145, 0.421531618 , -0.012054069, 0.0356869735, 2.3823092   , 0.59        , 3           , 50          , 0           , 0
0.3841994   , 0.137893677 , -9.772907   , -0.000159674673, 0.00221712142, -0.0006526178, -0.182755828, -0.163273558, 0.421531618 , -0.0120197851, 0.0358986445, 2.382304    , 0.6         , 3           , 11          , 0.0113564543, 0.01135647
0.35249424  , 0.132008612 , -9.790802   , 0.00132245442, 0.00222714571, -0.0017052195, -0.182486176, -0.163138732, 0.421666443 , -0.0120071834, 0.0359207056, 2.38228631  , 0.61        , 3           , 12          , 0.0353429541, 0
0.3410863   , 0.123589277 , -9.796801   , 0.0006310429, -0.0006636694, -0.00107725023, -0.182418764, -0.163273558, 0.42159903  , -0.0120012583, 0.0359139442, 2.38227582  , 0.62        , 3           , 50          , 0           , 0
0.346555948 , 0.127125621 , -9.794031   , -0.002676176, -0.00300902477, -0.00144947611, -0.182418764, -0.163273558, 0.42159903  , -0.0120285293, 0.0358836837, 2.38226151  , 0.63        , 3           , 11          , 0.0113564543, 0.01135647
0.362710357 , 0.118781805 , -9.784451   , -0.00240742555, -0.000121069526, -0.0003841959, -0.182351351, -0.163340971, 0.4214642   , -0.0120527418, 0.03588243  , 2.3822577   , 0.64        , 3           , 12          , 0.0353429541, 0
0.362958968 , 0.09718622  , -9.803974   , -0.00241626054, 0.00163871155, -0.0005933868, -0.182688415, -0.163340971, 0.4213968   , -0.0120771239, 0.0358987451, 2.382252    , 0.65        , 3           , 50          , 0           , 0
0.360206842 , 0.0971894   , -9.795406   , 0.000830291363, 0.0020830275, 0.0006938274, -0.182486176, -0.163206145, 0.42159903  , -0.0120685818, 0.0359196626, 2.38225865  , 0.66        , 3           , 11          , 0.0113564543, 0.01135647
0.356542    , 0.1328313   , -9.781276   , -0.000363256549, 0.0006670837, 0.000332888856, -0.182486176, -0.163206145, 0.42159903  , -0.0120720966, 0.0359263644, 2.38226151  , 0.67        , 3           , 12          , 0.0353429541, 0
0.3459454   , 0.115398    , -9.79318    , -0.00113187055, -0.00109795353, -0.0008035946, -0.182553589, -0.163408384, 0.421329379 , -0.0120836981, 0.0359152928, 2.382254    , 0.68        , 3           , 50          , 0           , 0
0.3396598   , 0.122210942 , -9.784614   , -0.00177094189, -0.000257553038, 0.000183625292, -0.182890654, -0.163408384, 0.421531618 , -0.01210134 , 0.0359127335, 2.38225579  , 0.69        , 3           , 11          , 0.0113564543, 0.01135647
0.348723084 , 0.117200941 , -9.802193   , -0.0007046613, -0.00107936224, -2.4323157E-05, -0.182351351, -0.163071319, 0.421666443 , -0.0121017769, 0.03593523  , 2.38225579  , 0.7         , 3           , 12          , 0.03564609  , 0
0.345933735 , 0.112264119 , -9.80042648 , 0.0009863295, -0.000223204232, 0.00104439573, -0.182351351, -0.163273558, 0.4214642   , -0.0120915351, 0.03593313  , 2.38226628  , 0.71        , 3           , 50          , 0           , 0
0.358717352 , 0.126484081 , -9.77993    , 0.00267670816, 0.000632950745, 0.001053599 , -0.182351351, -0.163273558, 0.4214642   , -0.0120643917, 0.0359395854, 2.38227677  , 0.72        , 3           , 11          , 0.0101350574, 0.0101350695
0.362199962 , 0.116508678 , -9.777684   , 0.0026754404, 0.0007737305, 6.493497E-05, -0.182621   , -0.163273558, 0.421329379 , -0.0120376172, 0.0359473266, 2.38227773  , 0.73        , 3           , 12          , 0.03564609  , 0
0.355604529 , 0.119871967 , -9.815235   , -0.000646808068, 0.00159598573, 0.000827740761, -0.182621   , -0.163273558, 0.421531618 , -0.0120437955, 0.03596339  , 2.38228583  , 0.74        , 3           , 50          , 0           , 0
0.3547136   , 0.119448058 , -9.820215   , -0.00127324823, -0.0002384849, 0.000751322659, -0.182283938, -0.163408384, 0.4213968   , -0.0120562576, 0.0359610878, 2.382293    , 0.75        , 3           , 11          , 0.0101350574, 0.0101350695
0.3659785   , 0.128644213 , -9.776701   , -0.0004902792, -0.00157066807, 0.0001878081, -0.182283938, -0.163408384, 0.4213968   , -0.0120610865, 0.03594541  , 2.38229537  , 0.76        , 3           , 12          , 0.03564609  , 0
0.342044622 , 0.137011886 , -9.766454   , 0.00183769187, -0.00113256311, 0.000269958051, -0.182553589, -0.163408384, 0.4214642   , -0.0120426072, 0.03593412  , 2.38229823  , 0.77        , 3           , 50          , 0           , 0
0.345895618 , 0.116250396 , -9.778263   , -0.000218770991, 0.000331798859, -0.00242141774, -0.182823241, -0.1630039  , 0.421666443 , -0.0120456675, 0.0359371454, 2.382274    , 0.78        , 3           , 11          , 0.0101350574, 0.0101350695
0.347441733 , 0.130669773 , -9.777739   , 0.00139948132, 0.00160982681, -0.00142301118, -0.182418764, -0.163273558, 0.4213968   , -0.0120321894, 0.03595307  , 2.38225961  , 0.79        , 3           , 12          , 0.03564609  , 0
0.369819045 , 0.101178944 , -9.807521   , 0.0002660947, 0.00378334452, -0.000155475718, -0.182418764, -0.163273558, 0.4213968   , -0.0121361017, 0.035988424 , 2.382254    , 0.8         , 3           , 50          , 0           , 0
0.3613435   , 0.114773661 , -9.795325   , -0.000575958344, 0.00272174575, -0.000161053642, -0.182553589, -0.163138732, 0.4214642   , -0.0121419309, 0.0360156223, 2.382252    , 0.81        , 3           , 11          , 0.009380053 , 0.00938006
0.356666446 , 0.109796122 , -9.775043   , -0.000416315219, -0.00100803643, -0.000236779131, -0.182418764, -0.163543209, 0.421733856 , -0.0121461768, 0.0360055119, 2.38224959  , 0.82        , 3           , 12          , 0.03599987  , 0
0.38422966  , 0.105855107 , -9.772588   , 0.00112995878, 0.0004806861, 0.000196548179, -0.182418764, -0.163206145, 0.421531618 , -0.0121348063, 0.03601034  , 2.3822515   , 0.83        , 3           , 50          , 0           , 0
0.34892422  , 0.10717202  , -9.772852   , -0.000493235653, 0.00025852854, -0.000305790134, -0.182418764, -0.163206145, 0.421531618 , -0.0121398484, 0.03601289  , 2.38224816  , 0.84        , 3           , 11          , 0.009380053 , 0.00938006
0.339717954 , 0.122704439 , -9.797266   , -0.00161400426, -0.00157928478, -0.0005257815, -0.182553589, -0.163273558, 0.4213968   , -0.01215617 , 0.03599703  , 2.38224339  , 0.85        , 3           , 12          , 0.03599987  , 0
0.3506446   , 0.125303417 , -9.803048   , -0.001748841, -0.0029176746, -0.000952307368, -0.182418764, -0.163408384, 0.421531618 , -0.0121739889, 0.03596774  , 2.38223386  , 0.86        , 3           , 50          , 0           , 0
0.33723253  , 0.110500038 , -9.78242    , -0.0023975037, -0.000247104, -0.000880513864, -0.182553589, -0.163206145, 0.4213968   , -0.0121982787, 0.03596516  , 2.38222528  , 0.87        , 3           , 11          , 0.009380053 , 0.00938006
0.3464417   , 0.123908609 , -9.776418   , -0.00281712832, -0.000953879149, 3.467269E-05, -0.182553589, -0.163206145, 0.4213968   , -0.0122264326, 0.0359556265, 2.38222575  , 0.88        , 3           , 12          , 0.03599987  , 0
0.340607375 , 0.131161362 , -9.766036   , -0.00247325585, 0.000808287761, -0.000737947063, -0.182621   , -0.163340971, 0.421329379 , -0.0122514348, 0.03596362  , 2.3822186   , 0.89        , 3           , 50          , 0           , 0
0.346011847 , 0.122147106 , -9.787728   , -0.00252937223, -0.00119582471, 0.0001767067, -0.182688415, -0.163273558, 0.4214642   , -0.0122707663, 0.0359059349, 2.38222051  , 0.9         , 3           , 11          , 0.00891433749, 0.008914335
0.35732913  , 0.116209738 , -9.805745   , -0.00175376271, -0.0010497917, -0.000455164, -0.182755828, -0.163138732, 0.421531618 , -0.0122884624, 0.03589538  , 2.38221622  , 0.91        , 3           , 12          , 0.0364024229, 0
0.340122461 , 0.120428242 , -9.792752   , -0.000408898428, -0.0015334537, 0.00110428815, -0.182755828, -0.163138732, 0.421531618 , -0.0122921467, 0.0358801857, 2.38222718  , 0.92        , 3           , 50          , 0           , 0
0.3468605   , 0.113163352 , -9.802675   , -0.0013350459, 7.933684E-05, 0.0006786969, -0.182351351, -0.163138732, 0.421329379 , -0.0123052541, 0.03588107  , 2.38223433  , 0.93        , 3           , 11          , 0.00891433749, 0.008914335
0.353257954 , 0.121616945 , -9.789484   , 0.000145644823, 0.000511712045, 0.000756896043, -0.182621   , -0.163206145, 0.421733856 , -0.0123035265, 0.03588627  , 2.382242    , 0.94        , 3           , 12          , 0.0364024229, 0
0.3553958   , 0.117471062 , -9.771857   , 0.0005665786, 0.00107770762, 0.000901008141, -0.182553589, -0.163340971, 0.42159903  , -0.0122975446, 0.0358971581, 2.382251    , 0.95        , 3           , 50          , 0           , 0
0.3572943   , 0.117074244 , -9.794443   , 0.00219478155, 3.28160932E-05, -0.0007882714, -0.182351351, -0.163273558, 0.42159903  , -0.01227588 , 0.0358973853, 2.382243    , 0.96        , 3           , 11          , 0.00891433749, 0.008914335
0.3597815   , 0.1341899   , -9.793901   , 0.00191565452, -0.000602614542, -0.0005080273, -0.182351351, -0.163273558, 0.42159903  , -0.0122569036, 0.0358913   , 2.38223767  , 0.97        , 3           , 12          , 0.0364024229, 0
0.3549406   , 0.111671865 , -9.789963   , 0.00058497116, -0.00279381615, -0.000447011349, -0.182553589, -0.163273558, 0.4213968   , -0.0122512011, 0.0358633175, 2.38223386  , 0.98        , 3           , 50          , 0           , 0
0.349401742 , 0.102723226 , -9.793207   , 0.00255408045, -0.000950267655, 0.00161342439, -0.182688415, -0.1634758  , 0.421666443 , -0.0122250775, 0.035854008 , 2.38225     , 0.99        , 3           , 11          , 0.00891433749, 0.008914335
0.366511822 , 0.12915051  , -9.794774   , 0.0006210387, -0.00200231839, -2.03619275E-05, -0.182621   , -0.163206145, 0.42159903  , -0.0121690445, 0.0358555838, 2.382252    , 1           , 3           , 12          , 0.03685173  , 0
0.35052973  , 0.121193171 , -9.78815    , -0.00136390526, -0.000326295645, 0.00067936664, -0.182621   , -0.163206145, 0.42159903  , -0.0121824369, 0.0358524024, 2.38225865  , 1.01        , 3           , 50          , 0           , 0
0.339240819 , 0.127599835 , -9.775555   , 0.0005956425, 0.00299545913, -0.00114280963, -0.182418764, -0.163071319, 0.421531618 , -0.0121769048, 0.0358822122, 2.38224721  , 1.02        , 3           , 11          , 0.008637363 , 0.008637359
0.345493734 , 0.122099511 , -9.771913   , 0.00179058081, 0.00427062251, 0.000418696116, -0.182621   , -0.163273558, 0.421531618 , -0.012158867, 0.03592496  , 2.38225055  , 1.03        , 3           , 12          , 0.03685173  , 0
0.365858138 , 0.119619668 , -9.776287   , 0.00364504824, 0.0006226947, 0.00141049619, -0.182351351, -0.163273558, 0.4214642   , -0.0121219084, 0.0359313563, 2.38226438  , 1.04        , 3           , 50          , 0           , 0
0.3416686   , 0.102338247 , -9.786036   , -0.000240304187, 0.000807602 , -0.000231876591, -0.182351351, -0.163273558, 0.4214642   , -0.0121243987, 0.03593941  , 2.38226247  , 1.05        , 3           , 11          , 0.008637363 , 0.008637359
0.339071274 , 0.110054836 , -9.790544   , 0.0004006321, -0.000384754385, -0.00100773585, -0.182553589, -0.163273558, 0.421531618 , -0.0121207554, 0.0359354429, 2.382252    , 1.06        , 3           , 12          , 0.03685173  , 0
0.3494467   , 0.108115882 , -9.786857   , -0.00102173456, 0.00178782793, -2.20764214E-05, -0.182688415, -0.163273558, 0.421531618 , -0.0121309878, 0.0359533131, 2.382252    , 1.07        , 3           , 50          , 0           , 0
0.336289018 , 0.144774735 , -9.773697   , -0.001294963, 0.0001669244, 0.002022508 , -0.182351351, -0.163206145, 0.4214642   , -0.0121432086, 0.0359552242, 2.382272    , 1.08        , 3           , 11          , 0.008637363 , 0.008637359
0.324978948 , 0.1350957   , -9.807722   , 0.00243848679, 0.00167044147, -0.000359332655, -0.182351351, -0.163206145, 0.4214642   , -0.01211896 , 0.03597188  , 2.38226819  , 1.09        , 3           , 12          , 0.03685173  , 0
0.355176955 , 0.1288247   , -9.792603   , 0.00105124258, -1.15788225E-05, -0.0005126509, -0.182553589, -0.163273558, 0.421329379 , -0.0121713718, 0.0358254947, 2.38226056  , 1.1         , 3           , 50          , 0           , 0
0.356304765 , 0.117016822 , -9.774112   , -6.68645453E-06, -0.0003707002, -0.001507013, -0.182621   , -0.163138732, 0.42159903  , -0.0121719781, 0.0358216055, 2.38224578  , 1.11        , 3           , 11          , 0.008483006 , 0.008483004
0.3650366   , 0.122376531 , -9.78803349 , 0.0003416461, 0.0008283448, 0.000615508354, -0.182351351, -0.163340971, 0.421531618 , -0.0121683422, 0.035829965 , 2.382252    , 1.12        , 3           , 12          , 0.0373457223, 0
0.377582252 , 0.117210589 , -9.77168751 , 0.0004755224, 0.00223712344, -1.73727585E-05, -0.182351351, -0.163340971, 0.421531618 , -0.0121636037, 0.0358523279, 2.3822515   , 1.13        , 3           , 50          , 0           , 0
0.3618976   , 0.0881436   , -9.79498    , 0.00132077513, 0.00259480835, -0.0005073201, -0.182553589, -0.163340971, 0.421531618 , -0.0121505884, 0.0358782075, 2.38224626  , 1.14        , 3           , 11          , 0.008483006 , 0.008483004
0.357990533 , 0.09859361  , -9.8026495  , -0.00305020087, 0.0012981625, 0.0001060239, -0.182621   , -0.163071319, 0.421329379 , -0.0121810576, 0.0358911976, 2.38224721  , 1.15        , 3           , 12          , 0.0373457223, 0
0.367169976 , 0.114656188 , -9.780818   , -0.00396605255, 0.0006584285, -0.00180636044, -0.182486176, -0.163071319, 0.421733856 , -0.01222137 , 0.03589757  , 2.382229    , 1.16        , 3           , 50          , 0           , 0
0.358545959 , 0.116525486 , -9.770028   , -0.0001526156, 0.0006138234, -0.00122361525, -0.182486176, -0.163071319, 0.421733856 , -0.0122233378, 0.03590355  , 2.38221669  , 1.17        , 3           , 11          , 0.008483006 , 0.008483004
0.364480048 , 0.115602463 , -9.78445148 , 0.00295179919, 0.00126835844, 0.000275169063, -0.182216525, -0.1634758  , 0.4213968   , -0.0121937273, 0.0359162726, 2.382219    , 1.18        , 3           , 12          , 0.0373457223, 0
0.335597724 , 0.119591184 , -9.796406   , 0.000200432667, 0.0008273897, 0.0006148499, -0.182283938, -0.163340971, 0.42159903  , -0.0121915061, 0.03592462  , 2.38222528  , 1.19        , 3           , 50          , 0           , 0
0.342913032 , 0.124473333 , -9.797686   , -0.00277548074, 0.00107041292, -0.00151512178, -0.182553589, -0.1630039  , 0.421733856 , -0.0121486746, 0.03599478  , 2.3822124   , 1.2         , 3           , 11          , 0.008403987 , 0.008403982
0.352985    , 0.140514687 , -9.772684   , -0.00277843187, 0.001633542 , -0.00179679156, -0.182688415, -0.163273558, 0.421666443 , -0.0121771125, 0.0360109   , 2.38219428  , 1.21        , 3           , 12          , 0.0378822573, 0
0.36100775  , 0.12692529  , -9.784883   , -0.00276945974, 8.494045E-05, 0.000461121643, -0.182688415, -0.163273558, 0.421666443 , -0.0122046424, 0.0360118039, 2.38219857  , 1.22        , 3           , 50          , 0           , 0
0.371179551 , 0.109199062 , -9.782166   , -0.002408859, -0.00153167336, -0.000316705235, -0.182621   , -0.163071319, 0.4214642   , -0.0122288391, 0.035996452 , 2.38219571  , 1.23        , 3           , 11          , 0.008403987 , 0.008403982
0.355604261 , 0.137279376 , -9.759117   , -0.00100511138, 0.0002376598, 0.0002576664, -0.182486176, -0.163408384, 0.421531618 , -0.0122387968, 0.03599886  , 2.38219857  , 1.24        , 3           , 12          , 0.0378822573, 0
0.3614331   , 0.132700264 , -9.759543   , -0.00184380519, -0.00138706656, 0.00124010164, -0.182621   , -0.1634758  , 0.421531618 , -0.0122567834, 0.0359851457, 2.382211    , 1.25        , 3           , 50          , 0           , 0
0.3638483   , 0.102964967 , -9.781343   , 0.0004906055, -0.00235678954, 0.0004018351, -0.182621   , -0.1634758  , 0.421531618 , -0.0122517217, 0.035961628 , 2.38221574  , 1.26        , 3           , 11          , 0.008403987 , 0.008403982
0.362319767 , 0.127318174 , -9.772215   , 0.000557975553, -0.001793184, -0.000373945746, -0.182688415, -0.163543209, 0.421531618 , -0.01224627 , 0.035943646 , 2.382212    , 1.27        , 3           , 12          , 0.0378822573, 0
0.3368719   , 0.114150852 , -9.793255   , 0.00110460713, 0.00180058868, -0.00114275725, -0.182553589, -0.163138732, 0.421733856 , -0.0122356424, 0.03596152  , 2.38220048  , 1.28        , 3           , 50          , 0           , 0
0.351278067 , 0.107664615 , -9.793172   , 0.0003287527, 0.00165455427, -0.0009346926, -0.182486176, -0.163138732, 0.4214642   , -0.0122327  , 0.0359779447, 2.382191    , 1.29        , 3           , 11          , 0.008403987 , 0.008403982
0.362107545 , 0.140016183 , -9.790243   , -0.00211346382, -0.0004309126, 4.060943E-05, -0.182486176, -0.163138732, 0.4214642   , -0.0122335125, 0.0360221   , 2.382192    , 1.3         , 3           , 12          , 0.03845917  , 0
0.361537337 , 0.1350165   , -9.777613   , 0.000140170916, 0.00071062654, -0.0003002911, -0.182283938, -0.163206145, 0.4213968   , -0.0122322217, 0.03602917  , 2.382189    , 1.31        , 3           , 50          , 0           , 0
0.3534091   , 0.09681797  , -9.795461   , 0.00027976415, 0.00106353837, -8.718721E-05, -0.182553589, -0.1630039  , 0.421733856 , -0.01222946 , 0.0360397957, 2.382188    , 1.32        , 3           , 11          , 0.008365711 , 0.00836571
0.3583806   , 0.0918422   , -9.809002   , -0.0002134967, 0.0007786288, -0.000796269451, -0.182890654, -0.163543209, 0.421531618 , -0.0122318855, 0.0360474773, 2.38218     , 1.33        , 3           , 12          , 0.03845917  , 0
0.366793483 , 0.109367125 , -9.816549   , -0.00282809488, 0.001112916 , -0.00151425228, -0.182890654, -0.163543209, 0.421531618 , -0.0122607164, 0.0360584222, 2.38216424  , 1.34        , 3           , 50          , 0           , 0
0.3490275   , 0.108148396 , -9.794994   , -0.00112884061, 0.000209290156, -0.00122522342, -0.182553589, -0.163138732, 0.421194553 , -0.0122724483, 0.03606037  , 2.38215232  , 1.35        , 3           , 11          , 0.008365711 , 0.00836571
0.35168764  , 0.142365471 , -9.781726   , -0.0006927432, -0.00204035919, 0.00103358016, -0.182553589, -0.163138732, 0.42159903  , -0.0122789945, 0.03604009  , 2.38216329  , 1.36        , 3           , 12          , 0.03845917  , 0
0.3622771   , 0.149973273 , -9.799692   , -0.00126234978, -0.00119948678, 4.33670066E-05, -0.182486176, -0.163138732, 0.421531618 , -0.0122915972, 0.036028102 , 2.38216329  , 1.37        , 3           , 50          , 0           , 0
0.345994771 , 0.114098951 , -9.809457   , 0.000919632846, 0.000152748631, -0.000297537365, -0.182486176, -0.163138732, 0.421531618 , -0.0122825094, 0.0360296   , 2.38216043  , 1.38        , 3           , 11          , 0.008365711 , 0.00836571
0.342924    , 0.126713961 , -9.793157   , 0.00232881238, 0.000866213755, 0.0006283788, -0.182486176, -0.163206145, 0.42159903  , -0.0122589963, 0.03603833  , 2.38216662  , 1.39        , 3           , 12          , 0.03845917  , 0
0.3395954   , 0.1208197   , -9.77332    , -0.00108972925, -0.000280803273, 4.45714359E-05, -0.182486176, -0.163273558, 0.4214642   , -0.0123092867, 0.03603797  , 2.38216615  , 1.4         , 3           , 50          , 0           , 0
0.339824319 , 0.10545709  , -9.767958   , -0.0008050076, -0.00070124 , 0.000398409262, -0.182553589, -0.1630039  , 0.4213968   , -0.012317189, 0.03603101  , 2.38217     , 1.41        , 3           , 11          , 0.008346481 , 0.008346481
0.352891147 , 0.09186063  , -9.7954855  , -0.001166038, 0.0009857648, 0.001035076 , -0.182553589, -0.1630039  , 0.4213968   , -0.0123284794, 0.03604099  , 2.38218045  , 1.42        , 3           , 12          , 0.0390743054, 0
0.375079453 , 0.124111027 , -9.801962   , -0.001232522, 7.01988247E-05, 0.00032699274, -0.182486176, -0.163273558, 0.421531618 , -0.0123406881, 0.0360417329, 2.38218331  , 1.43        , 3           , 50          , 0           , 0
0.3333406   , 0.11873059  , -9.800947   , 0.001372059 , 0.00149568717, -0.001212612, -0.182621   , -0.163071319, 0.421531618 , -0.01232741 , 0.03605654  , 2.38217139  , 1.44        , 3           , 11          , 0.008346481 , 0.008346481
0.340365052 , 0.103291266 , -9.796437   , 0.0024330616, 0.00129167992, 0.000275322673, -0.182553589, -0.163071319, 0.4214642   , -0.0123029873, 0.03606949  , 2.38217378  , 1.45        , 3           , 12          , 0.0390743054, 0
0.360476762 , 0.11436943  , -9.806181   , -0.00236274069, 0.000132949572, 3.92961447E-05, -0.182351351, -0.163340971, 0.421194553 , -0.012326601, 0.0360708237, 2.38217425  , 1.46        , 3           , 50          , 0           , 0
0.362423927 , 0.1269562   , -9.798882   , -0.001873225, 0.000910591742, -0.001511162, -0.182351351, -0.163340971, 0.421194553 , -0.0123458821, 0.036079742 , 2.382159    , 1.47        , 3           , 11          , 0.008346481 , 0.008346481
0.378191322 , 0.1217954   , -9.795168   , -0.0015865122, -2.58610271E-06, -0.00193506165, -0.182553589, -0.163071319, 0.421531618 , -0.0123624457, 0.0360794775, 2.38213944  , 1.48        , 3           , 12          , 0.0390743054, 0
0.3473068   , 0.12207976  , -9.772351   , -0.00257482822, 0.0002019087, 0.0001796855, -0.182823241, -0.163273558, 0.42159903  , -0.0123881325, 0.03608152  , 2.38214135  , 1.49        , 3           , 50          , 0           , 0
0.3428849   , 0.129360422 , -9.775067   , -0.00216921279, -0.00103766576, 0.00131152465, -0.182418764, -0.163543209, 0.421531618 , -0.0123564657, 0.0361003466, 2.38215661  , 1.5         , 3           , 11          , 0.008330703 , 0.0083307
0.358595341 , 0.11522647  , -9.786305   , -0.000906470639, 0.000589927367, 0.00103740825, -0.182418764, -0.163543209, 0.421531618 , -0.01236516 , 0.0361063778, 2.382167    , 1.51        , 3           , 12          , 0.0397255123, 0
0.349256277 , 0.130204916 , -9.779986   , -0.000126412153, -0.000179126539, 0.000262858433, -0.182418764, -0.163408384, 0.421531618 , -0.0123663275, 0.0361046121, 2.38217     , 1.52        , 3           , 50          , 0           , 0
0.366821975 , 0.1227807   , -9.780334   , 0.0008567132, 0.0008130338, -0.0005786258, -0.182621   , -0.163340971, 0.4214642   , -0.0123579726, 0.0361126736, 2.38216376  , 1.53        , 3           , 11          , 0.008330703 , 0.0083307
0.343559772 , 0.104613557 , -9.798216   , 0.000721424236, -0.0003845727, -0.0005811284, -0.182486176, -0.163138732, 0.4214642   , -0.0123509672, 0.03610875  , 2.382158    , 1.54        , 3           , 12          , 0.0397255123, 0
0.347178638 , 0.112602569 , -9.771487   , 0.00248978753, -0.0009357636, 0.0001325781, -0.182486176, -0.163138732, 0.4214642   , -0.012326017, 0.03609942  , 2.38215947  , 1.55        , 3           , 50          , 0           , 0
0.35280022  , 0.12251097  , -9.785415   , -5.37108936E-05, -0.0007417824, -0.0009384643, -0.182553589, -0.163340971, 0.4213968   , -0.0123268887, 0.03609188  , 2.38215041  , 1.56        , 3           , 11          , 0.008330703 , 0.0083307
0.357880443 , 0.09850442  , -9.775985   , 0.0005655961, 0.00250051334, -0.00114241417, -0.182621   , -0.163273558, 0.4214642   , -0.0123216547, 0.03611674  , 2.38213849  , 1.57        , 3           , 12          , 0.0397255123, 0
0.3707691   , 0.1110241   , -9.786681   , 0.0007208088, -0.000243789516, -0.000439642754, -0.182418764, -0.163138732, 0.421531618 , -0.0123146027, 0.0361142419, 2.3821342   , 1.58        , 3           , 50          , 0           , 0
0.353265524 , 0.124301173 , -9.782692   , -0.00132014544, -0.00152467785, 0.000184565972, -0.182418764, -0.163138732, 0.421531618 , -0.0123277316, 0.03609902  , 2.38213658  , 1.59        , 3           , 11          , 0.008330703 , 0.0083307
0.3640051   , 0.113358058 , -9.786271   , 0.000639447535, 0.000632936135, 0.00097640563, -0.182418764, -0.163273558, 0.421531618 , -0.0122457957, 0.0361446925, 2.382149    , 1.6         , 3           , 12          , 0.0404106863, 0
0.354049057 , 0.120620884 , -9.764622   , 0.000425499282, 0.0009130652, -0.000295566715, -0.182621   , -0.1630039  , 0.421531618 , -0.0122416513, 0.0361537933, 2.38214612  , 1.61        , 3           , 50          , 0           , 0
0.358847767 , 0.128821462 , -9.804325   , -0.001608526, -0.00177564879, 0.000255838 , -0.182418764, -0.163138732, 0.421531618 , -0.0122576365, 0.0361360647, 2.382149    , 1.62        , 3           , 11          , 0.008309161 , 0.008309161
0.3763449   , 0.116878189 , -9.802434   , -0.00175199355, -0.00135425688, -2.67069372E-05, -0.182418764, -0.163138732, 0.421531618 , -0.01227516 , 0.03612252  , 2.3821485   , 1.63        , 3           , 12          , 0.0404106863, 0
0.373194456 , 0.1200553   , -9.797021   , -0.00119501434, 0.0003389558, 0.0008261429, -0.182553589, -0.163543209, 0.4214642   , -0.0122868111, 0.0361260064, 2.38215661  , 1.64        , 3           , 50          , 0           , 0
0.35285598  , 0.124787882 , -9.791733   , -0.00105420884, 0.0003399089, 0.000120457735, -0.182621   , -0.163340971, 0.421733856 , -0.0122973109, 0.0361294262, 2.382158    , 1.65        , 3           , 11          , 0.008309161 , 0.008309161
0.349430054 , 0.103192508 , -9.798628   , -0.000211785242, 0.00126072357, -0.0004392561, -0.182553589, -0.163138732, 0.4213968   , -0.0122995935, 0.03614198  , 2.38215375  , 1.66        , 3           , 12          , 0.0404106863, 0
0.359720081 , 0.129230261 , -9.794826   , -0.0004939487, 0.001329208 , 0.0006190508, -0.182553589, -0.163138732, 0.4213968   , -0.0123043144, 0.0361553431, 2.38215947  , 1.67        , 3           , 50          , 0           , 0
0.3561364   , 0.131089479 , -9.798461   , -0.0004848433, -0.0006417508, -0.000514136453, -0.182553589, -0.163408384, 0.421329379 , -0.0123093445, 0.0361488573, 2.3821547   , 1.68        , 3           , 11          , 0.008309161 , 0.008309161
0.351529539 , 0.122597978 , -9.806667   , -0.000199376518, -0.00148454146, -0.002491884, -0.182486176, -0.163543209, 0.4214642   , -0.0123122307, 0.03613371  , 2.38213     , 1.69        , 3           , 12          , 0.0404106863, 0
0.376557469 , 0.09703885  , -9.807486   , -0.000207247285, -0.0005949902, 0.00203035725, -0.182688415, -0.1630039  , 0.42159903  , -0.0123213036, 0.0361829959, 2.38215     , 1.7         , 3           , 50          , 0           , 0
0.339956254 , 0.107349388 , -9.794164   , -0.000482200179, -0.00256786635, -0.001929522, -0.182486176, -0.163340971, 0.421531618 , -0.0123268133, 0.0361570939, 2.38213086  , 1.71        , 3           , 11          , 0.008277087 , 0.008277089
0.349829823 , 0.13208285  , -9.803477   , 0.00177917234, -0.00255257729, 0.00147146336, -0.182486176, -0.163340971, 0.421531618 , -0.0123084784, 0.0361317471, 2.38214612  , 1.72        , 3           , 12          , 0.0411277823, 0
0.363968521 , 0.116899252 , -9.765917   , 0.000343918218, 0.00194291014, 5.913411E-05, -0.182621   , -0.1634758  , 0.4213968   , -0.0123050241, 0.03615118  , 2.38214612  , 1.73        , 3           , 50          , 0           , 0
0.347385824 , 0.123036489 , -9.788618   , 0.000932218158, -0.00255830539, 0.0020325873, -0.182553589, -0.163206145, 0.421733856 , -0.0122949565, 0.0361258537, 2.382167    , 1.74        , 3           , 11          , 0.008277087 , 0.008277089
0.3554489   , 0.116175041 , -9.789037   , -0.0004950725, -3.378233E-05, -0.00249069137, -0.182486176, -0.163408384, 0.421261966 , -0.0123008071, 0.03612521  , 2.38214231  , 1.75        , 3           , 12          , 0.0411277823, 0
0.345704436 , 0.134768024 , -9.782707   , -0.0024716598, 0.000234421575, 0.0006084362, -0.182486176, -0.163408384, 0.421261966 , -0.0123253036, 0.03612762  , 2.382148    , 1.76        , 3           , 50          , 0           , 0
0.3558172   , 0.117886662 , -9.762811   , -0.00133252062, -0.00172889559, 4.559137E-05, -0.182688415, -0.163273558, 0.4213968   , -0.0123386057, 0.0361103378, 2.382149    , 1.77        , 3           , 11          , 0.008277087 , 0.008277089
0.354915261 , 0.115222126 , -9.772322   , 0.001210878 , -0.00199327013, 0.000339547347, -0.182621   , -0.1629365  , 0.42159903  , -0.0123263625, 0.0360904522, 2.3821528   , 1.78        , 3           , 12          , 0.0411277823, 0
0.3514519   , 0.115839779 , -9.809408   , -0.00161158119, -0.00257550459, -0.00136971462, -0.182351351, -0.163071319, 0.421329379 , -0.0123429624, 0.03606453  , 2.38213944  , 1.79        , 3           , 50          , 0           , 0
0.354634643 , 0.121169515 , -9.795351   , -0.00104527967, 0.001662311 , -0.00135959662, -0.182351351, -0.163071319, 0.421329379 , -0.0123254778, 0.03609436  , 2.382127    , 1.8         , 3           , 11          , 0.008233488 , 0.00823349
0.350108653 , 0.121224187 , -9.795837   , -0.000470831175, -0.0003048253, -0.00164253789, -0.182621   , -0.1630039  , 0.4213968   , -0.0123307751, 0.0360911079, 2.38211036  , 1.81        , 3           , 12          , 0.04187481  , 0
0.3781876   , 0.121792376 , -9.794264   , 0.00321161724, -0.00225094566, 0.0003493069, -0.182418764, -0.163138732, 0.4213968   , -0.0122985234, 0.03606865  , 2.38211417  , 1.82        , 3           , 50          , 0           , 0
0.3570152   , 0.130164444 , -9.794843   , -0.000749328, -0.000869860058, 0.0003330395, -0.182351351, -0.163273558, 0.42159903  , -0.0123058911, 0.0360599868, 2.38211751  , 1.83        , 3           , 11          , 0.008233488 , 0.00823349
0.354964763 , 0.116601273 , -9.779998   , 8.893589E-05, 0.000825257332, -0.000790555845, -0.182351351, -0.163273558, 0.42159903  , -0.01230529 , 0.0360681452, 2.38210988  , 1.84        , 3           , 12          , 0.04187481  , 0
0.354753762 , 0.09589821  , -9.795002   , -0.000752116, -0.000306729868, 0.000333907374, -0.182755828, -0.163206145, 0.4213968   , -0.01231269 , 0.0360651165, 2.38211274  , 1.85        , 3           , 50          , 0           , 0
0.373098731 , 0.114175223 , -9.792525   , 0.00206148974, 0.001964893 , 0.00119816081, -0.182621   , -0.163340971, 0.421531618 , -0.01229165 , 0.03608491  , 2.38212466  , 1.86        , 3           , 11          , 0.008233488 , 0.00823349
0.37189424  , 0.128152683 , -9.785246   , -0.0001968572, 0.00166804646, 0.0006221163, -0.182418764, -0.163138732, 0.4213968   , -0.012293403, 0.0361016653, 2.38213086  , 1.87        , 3           , 12          , 0.04187481  , 0
0.357335925 , 0.11532256  , -9.810269   , -0.00356704113, -0.002015215, 0.00201335945, -0.182418764, -0.163138732, 0.4213968   , -0.0123283379, 0.03608176  , 2.382151    , 1.88        , 3           , 50          , 0           , 0
0.335239381 , 0.126368314 , -9.797737   , -0.003553917, -0.00483087 , 0.000596332655, -0.182755828, -0.1630039  , 0.421194553 , -0.01236364 , 0.0360335335, 2.38215756  , 1.89        , 3           , 11          , 0.008233488 , 0.00823349
0.3403112   , 0.101015873 , -9.790572   , -0.00299076317, 2.06520781E-06, -0.00136998831, -0.182486176, -0.1630039  , 0.421531618 , -0.0123634888, 0.03608946  , 2.38214517  , 1.9         , 3           , 12          , 0.04264986  , 0
0.364139169 , 0.123286426 , -9.787133   , 0.000107567706, 0.00171246519, -0.00135289843, -0.182486176, -0.163340971, 0.421531618 , -0.0123629076, 0.03610641  , 2.38213181  , 1.91        , 3           , 50          , 0           , 0
0.360687375 , 0.134625852 , -9.792536   , -0.000753816, 0.00452238554, -0.00163504737, -0.182486176, -0.163340971, 0.421531618 , -0.0123710567, 0.03615143  , 2.38211465  , 1.92        , 3           , 11          , 0.008178372 , 0.008178374
0.3400136   , 0.119447313 , -9.769255   , 0.000965585059, -0.0002527557, 0.000343239575, -0.182688415, -0.163273558, 0.421329379 , -0.0123612769, 0.0361489467, 2.38211846  , 1.93        , 3           , 12          , 0.04264986  , 0
0.350615621 , 0.131528825 , -9.775903   , -0.00129399262, -0.000268036267, 5.016658E-05, -0.182553589, -0.163206145, 0.4214642   , -0.012374199, 0.0361462757, 2.38211846  , 1.94        , 3           , 50          , 0           , 0
0.348928034 , 0.13477467  , -9.795789   , 0.000664220366, 0.003405677 , -0.00106512348, -0.182823241, -0.163071319, 0.4214642   , -0.0123679582, 0.0361802   , 2.382108    , 1.95        , 3           , 11          , 0.008178372 , 0.008178374
0.341600776 , 0.101390585 , -9.772481   , -0.000454008521, 0.00114551757, -0.0005087877, -0.182418764, -0.163071319, 0.421194553 , -0.0123726875, 0.03619159  , 2.38210225  , 1.96        , 3           , 12          , 0.04264986  , 0
0.3363582   , 0.114999495 , -9.775628   , 0.0006782348, 0.0008715979, 0.00147380843, -0.182418764, -0.163071319, 0.421194553 , -0.0123653766, 0.0362004824, 2.382117    , 1.97        , 3           , 50          , 0           , 0
0.3480895   , 0.1045619   , -9.798633   , 0.00293388288, 0.00145000312, -0.000210013037, -0.182823241, -0.163206145, 0.421531618 , -0.0123361209, 0.0362149626, 2.38211465  , 1.98        , 3           , 11          , 0.008178372 , 0.008178374
0.336307764 , 0.104692571 , -9.796462   , -0.00129652873, 1.35235032E-05, -0.00192716171, -0.182621   , -0.163206145, 0.421329379 , -0.0123497834, 0.036214862 , 2.38209558  , 1.99        , 3           , 12          , 0.04264986  , 0
0.366751671 , 0.113350376 , -9.793482   , -0.002926678, 0.000472199667, 0.000327380665, -0.182688415, -0.163340971, 0.421194553 , -0.0122885033, 0.0360922143, 2.38210225  , 2           , 3           , 50          , 0           , 0
0.357149243 , 0.10490524  , -9.79811    , -0.0009484595, 0.000204003649, 5.36277657E-05, -0.182688415, -0.163340971, 0.421194553 , -0.0122979721, 0.0360942632, 2.38210273  , 2.01        , 3           , 11          , 0.00811545  , 0.008115452
0.341980278 , 0.12044476  , -9.804038   , -0.00150265056, -0.00205233926, -0.0008000898, -0.182553589, -0.163206145, 0.4214642   , -0.0123132784, 0.0360736474, 2.382095    , 2.02        , 3           , 12          , 0.0434511043, 0
0.349090517 , 0.112662941 , -9.795879   , 0.0013057054, 0.00134554529, 0.000630974 , -0.182755828, -0.1629365  , 0.421531618 , -0.0122999987, 0.036087174 , 2.3821013   , 2.03        , 3           , 50          , 0           , 0
0.384204775 , 0.09735428  , -9.793867   , -0.000107244472, 0.00133599155, -0.0007882979, -0.182621   , -0.163273558, 0.421194553 , -0.0123013621, 0.036100436 , 2.38209271  , 2.04        , 3           , 11          , 0.00811545  , 0.008115452
0.369802147 , 0.09848715  , -9.812051   , -0.00348209939, -0.00150257722, -0.000243365459, -0.182621   , -0.163273558, 0.421194553 , -0.0123362644, 0.03608538  , 2.38209081  , 2.05        , 3           , 12          , 0.0434511043, 0
0.336880326 , 0.11549674  , -9.790989   , 0.00272308942, 0.000228833233, 7.074792E-05, -0.182486176, -0.163610622, 0.4214642   , -0.0123090083, 0.03608768  , 2.38209176  , 2.06        , 3           , 50          , 0           , 0
0.364073    , 0.116983935 , -9.791228   , -0.00207070727, -0.00121145928, 0.000893802848, -0.182553589, -0.163206145, 0.421531618 , -0.0123293884, 0.03607567  , 2.38210034  , 2.07        , 3           , 11          , 0.00811545  , 0.008115452
0.365785122 , 0.114204355 , -9.775858   , -0.000114703966, 0.00274381437, -0.00163374061, -0.182553589, -0.163138732, 0.4214642   , -0.0123311384, 0.0361029059, 2.38208413  , 2.08        , 3           , 12          , 0.0434511043, 0
0.344664752 , 0.12485031  , -9.781852   , 0.000465068617, -6.80116354E-05, 5.97785147E-05, -0.182553589, -0.163138732, 0.4214642   , -0.012326465, 0.0361022279, 2.38208413  , 2.09        , 3           , 50          , 0           , 0
0.340818    , 0.108642317 , -9.779237   , 0.00109506049, 0.00136137044, -0.00219278526, -0.182486176, -0.163206145, 0.4213968   , -0.0122115733, 0.036140915 , 2.38206649  , 2.1         , 3           , 11          , 0.00803947449, 0.008039482
0.349763632 , 0.133368254 , -9.78313351 , 0.00193061086, 0.00390119036, -0.0007722416, -0.182621   , -0.163071319, 0.4214642   , -0.0121925613, 0.0361798331, 2.38205838  , 2.11        , 3           , 12          , 0.0442767851, 0
0.337392569 , 0.1253593   , -9.773769   , -0.001167231, 0.002190792 , 5.828073E-05, -0.182553589, -0.163206145, 0.421531618 , -0.0122042233, 0.03620175  , 2.38205838  , 2.12        , 3           , 50          , 0           , 0
0.3557523   , 0.10310448  , -9.794512   , -0.00117157609, 0.00303548668, -0.000222954724, -0.182553589, -0.163206145, 0.421531618 , -0.0122160334, 0.0362320729, 2.382056    , 2.13        , 3           , 11          , 0.00803947449, 0.008039482
0.3708441   , 0.111531191 , -9.803402   , 0.0005352045, 0.000512859144, -0.000784033444, -0.182621   , -0.163340971, 0.4213968   , -0.012210968, 0.0362371057, 2.382048    , 2.14        , 3           , 12          , 0.0442767851, 0
0.362514317 , 0.140866309 , -9.776225   , 0.0002546612, 0.000229386511, 6.182784E-05, -0.182688415, -0.163138732, 0.4214642   , -0.0122083994, 0.0362394   , 2.38204885  , 2.15        , 3           , 50          , 0           , 0
0.371467143 , 0.125054359 , -9.801534   , 0.000251710066, 0.000792515755, -0.000219841517, -0.182418764, -0.163340971, 0.42159903  , -0.0122059677, 0.0362473056, 2.38204646  , 2.16        , 3           , 11          , 0.00803947449, 0.008039482
0.383908123 , 0.106859475 , -9.801514   , -0.00115394348, -0.000624862, -0.00107620831, -0.182418764, -0.163340971, 0.42159903  , -0.0122178933, 0.0362409241, 2.38203549  , 2.17        , 3           , 12          , 0.0442767851, 0
0.3853999   , 0.115878664 , -9.80508    , 0.00194225216, 0.00164867169, 7.18991359E-05, -0.182486176, -0.163206145, 0.4213968   , -0.0121984538, 0.036257416 , 2.38203645  , 2.18        , 3           , 50          , 0           , 0
0.369605541 , 0.122356623 , -9.797943   , -0.00030396384, -0.000900690735, 0.00118760823, -0.182755828, -0.163408384, 0.4213968   , -0.0122010605, 0.03624856  , 2.382048    , 2.19        , 3           , 11          , 0.00803947449, 0.008039482
0.344546676 , 0.108685985 , -9.804971   , -0.00199801964, 0.00145428278, -0.000227599958, -0.182621   , -0.163273558, 0.421666443 , -0.01220264 , 0.0364318751, 2.382047    , 2.2         , 3           , 12          , 0.045125246 , 0
0.351708472 , 0.107641168 , -9.78774452 , 0.0008278946, 0.0009102468, -0.002193061, -0.182486176, -0.163340971, 0.42159903  , -0.0121951653, 0.03644071  , 2.38202453  , 2.21        , 3           , 50          , 0           , 0
0.343864739 , 0.101364009 , -9.772464   , 0.0008194418, 0.00288120843, 7.027628E-05, -0.182486176, -0.163340971, 0.42159903  , -0.0121869585, 0.036469534 , 2.382025    , 2.22        , 3           , 11          , 0.00795581751, 0.007955829
0.353709817 , 0.122949988 , -9.784955   , 0.000539803 , 0.00231616851, 6.809148E-05, -0.182755828, -0.163340971, 0.421531618 , -0.0121815484, 0.0364927053, 2.382025    , 2.23        , 3           , 12          , 0.045125246 , 0
0.381769955 , 0.118146688 , -9.796059   , 0.001113347 , 0.0006305995, 0.000633196731, -0.182621   , -0.163408384, 0.42159903  , -0.0121701853, 0.036499083 , 2.38203168  , 2.24        , 3           , 50          , 0           , 0
0.371020317 , 0.0930014551, -9.795342   , -0.00143037783, 0.000894972531, -0.000225833981, -0.182418764, -0.163138732, 0.421329379 , -0.0121845761, 0.0365080126, 2.38202929  , 2.25        , 3           , 11          , 0.00795581751, 0.007955829
0.358164847 , 0.120159686 , -9.775891   , -0.00227675377, 0.0006076752, -0.00107783126, -0.182418764, -0.163138732, 0.421329379 , -0.01220774 , 0.0365139581, 2.38201833  , 2.26        , 3           , 12          , 0.045125246 , 0
0.3398502   , 0.132631272 , -9.797675   , -0.000854372163, -0.00135372812, -0.000226671575, -0.182688415, -0.163206145, 0.4213968   , -0.01221636 , 0.0365003943, 2.38201642  , 2.27        , 3           , 50          , 0           , 0
0.337079853 , 0.128156185 , -9.799071   , -0.0008619948, 5.40940673E-05, -0.00135465187, -0.182418764, -0.163206145, 0.421733856 , -0.0122254752, 0.03650077  , 2.382003    , 2.28        , 3           , 11          , 0.00795581751, 0.007955829
0.350882232 , 0.1442427   , -9.800255   , 0.00139093935, 0.00147720159, -0.000494334265, -0.182486176, -0.163273558, 0.421666443 , -0.0122117512, 0.036515478 , 2.38199735  , 2.29        , 3           , 12          , 0.045125246 , 0
0.351665944 , 0.135652632 , -9.798024   , -0.002580822, 1.1863187E-05, -0.0005161991, -0.182486176, -0.163273558, 0.421666443 , -0.0122759212, 0.0364681035, 2.38199115  , 2.3         , 3           , 50          , 0           , 0
0.344093859 , 0.116279215 , -9.780536   , -0.0005974426, -0.00110102328, 0.0009039709, -0.182418764, -0.1630039  , 0.421531618 , -0.0122815585, 0.0364572033, 2.38200021  , 2.31        , 3           , 11          , 0.007867152 , 0.007867163
0.366818666 , 0.118314557 , -9.793913   , -0.002866037, 0.0005730833, -0.0005166482, -0.182755828, -0.163138732, 0.421531618 , -0.012310409, 0.0364628732, 2.38199544  , 2.32        , 3           , 12          , 0.04599491  , 0
0.3851186   , 0.136108667 , -9.781948   , -0.00144939451, -0.000262060552, 5.370946E-05, -0.182621   , -0.163340971, 0.421531618 , -0.0123248836, 0.0364602543, 2.38199544  , 2.33        , 3           , 50          , 0           , 0
0.36684832  , 0.120570295 , -9.793903   , 0.00138044986, -0.00136922114, 6.51430455E-05, -0.182621   , -0.163340971, 0.421531618 , -0.0123110479, 0.0364465863, 2.38199639  , 2.34        , 3           , 11          , 0.007867152 , 0.007867163
0.3430304   , 0.0942907855, -9.812725   , 0.000235571526, 0.00172035571, 0.000347186084, -0.182621   , -0.163273558, 0.4214642   , -0.0123085752, 0.0364638232, 2.38199973  , 2.35        , 3           , 12          , 0.04599491  , 0
0.3683683   , 0.134968519 , -9.787052   , 0.00165721157, 4.05205064E-05, 0.00232892972, -0.182688415, -0.163273558, 0.421531618 , -0.012291152, 0.0364645123, 2.382023    , 2.36        , 3           , 50          , 0           , 0
0.3639533   , 0.10885261  , -9.788098   , 0.000813223131, -0.00109148049, -0.0016322817, -0.182486176, -0.1634758  , 0.421733856 , -0.0122836111, 0.0364533961, 2.382007    , 2.37        , 3           , 11          , 0.007867152 , 0.007867163
0.343605071 , 0.110452831 , -9.790506   , -0.00115565257, -0.00251267012, 0.0003340924, -0.182486176, -0.1634758  , 0.421733856 , -0.0122950338, 0.03642832  , 2.3820107   , 2.38        , 3           , 12          , 0.04599491  , 0
0.358516783 , 0.109806612 , -9.78452    , 0.00137422117, -0.000242964015, -0.001063271, -0.182486176, -0.163340971, 0.42159903  , -0.0122816786, 0.0364257544, 2.38200021  , 2.39        , 3           , 50          , 0           , 0
0.367092282 , 0.107897982 , -9.783559   , -0.00310463621, -0.00195435178, 0.0008920673, -0.182553589, -0.163273558, 0.421801269 , -0.0122635672, 0.0364200473, 2.38201118  , 2.4         , 3           , 11          , 0.007774863 , 0.007774871
0.355304539 , 0.104899287 , -9.78998852 , 0.000275557744, -0.0005236161, -0.00248040934, -0.182553589, -0.163273558, 0.421666443 , -0.012261712, 0.0364145041, 2.38198686  , 2.41        , 3           , 12          , 0.0468843058, 0
0.3753478   , 0.106548622 , -9.813333   , -0.00113756978, 2.997287E-05, 0.000621785934, -0.182553589, -0.163273558, 0.421666443 , -0.0122728609, 0.036414884 , 2.38199258  , 2.42        , 3           , 50          , 0           , 0
0.384563953 , 0.121748209 , -9.803254   , 0.00141542358, -0.002205358, 0.0006301669, -0.182688415, -0.163206145, 0.421329379 , -0.0122584682, 0.03639291  , 2.38199925  , 2.43        , 3           , 11          , 0.007774863 , 0.007774871
0.36452806  , 0.120104924 , -9.781719   , -0.0017065166, 0.000589276839, -0.00164027978, -0.182553589, -0.163206145, 0.4214642   , -0.0122761335, 0.0363986   , 2.381983    , 2.44        , 3           , 12          , 0.0468843058, 0
0.341786474 , 0.110468052 , -9.788713   , -0.0002909419, 3.569969E-05, -0.000504413, -0.182553589, -0.163273558, 0.42159903  , -0.0122792264, 0.03639889  , 2.38197732  , 2.45        , 3           , 50          , 0           , 0
0.3496827   , 0.122143887 , -9.799451   , -0.000569601834, -0.0005293359, 0.001188627 , -0.182486176, -0.1630039  , 0.4214642   , -0.0122844893, 0.0363937467, 2.38198972  , 2.46        , 3           , 11          , 0.007774863 , 0.007774871
0.369559079 , 0.127675191 , -9.769446   , -0.0002888953, -0.0002458623, 0.00062530284, -0.182486176, -0.1630039  , 0.4214642   , -0.0122871483, 0.0363913663, 2.381996    , 2.47        , 3           , 12          , 0.0468843058, 0
0.3708493   , 0.118677042 , -9.781677   , 0.00168727664, -0.000232496415, -0.0007781659, -0.182486176, -0.163340971, 0.421733856 , -0.0122705577, 0.0363889448, 2.38198781  , 2.48        , 3           , 50          , 0           , 0
0.3389113   , 0.130383119 , -9.796787   , -0.004251724, 0.00141678634, -0.000238142922, -0.182688415, -0.1630039  , 0.421733856 , -0.0123131694, 0.0364030823, 2.381986    , 2.49        , 3           , 11          , 0.007774863 , 0.007774871
0.336732626 , 0.10734275  , -9.781082   , 0.00225570379, 0.00063516025, -0.0002085729, -0.182418764, -0.163340971, 0.421531618 , -0.0122783259, 0.036441233 , 2.38198447  , 2.5         , 3           , 12          , 0.04779202  , 0
0.353727758 , 0.119393669 , -9.800789   , -0.00142437231, 0.00229972042, -0.0005056269, -0.182418764, -0.163340971, 0.421531618 , -0.0122927641, 0.0364641622, 2.38197923  , 2.51        , 3           , 50          , 0           , 0
0.359574854 , 0.08678346  , -9.78506    , -0.00112087233, -0.0019218449, -0.000228281511, -0.182553589, -0.163340971, 0.421801269 , -0.0123040471, 0.03644492  , 2.38197732  , 2.52        , 3           , 11          , 0.00767988432, 0.007679892
0.363190651 , 0.112996161 , -9.809783   , -0.00252029719, -0.00446548 , 4.376567E-05, -0.182823241, -0.163206145, 0.421733856 , -0.0123292143, 0.0364002772, 2.38197827  , 2.53        , 3           , 12          , 0.04779202  , 0
0.359262526 , 0.160402089 , -9.804193   , -0.0005670076, 0.000334496377, 6.03610824E-05, -0.182553589, -0.163138732, 0.421666443 , -0.0123348646, 0.0364036262, 2.38197827  , 2.54        , 3           , 50          , 0           , 0
0.364247382 , 0.130962044 , -9.788908   , 0.00169510627, 6.82172249E-05, 0.00233076257, -0.182553589, -0.163138732, 0.421666443 , -0.012317067, 0.0364045948, 2.382002    , 2.55        , 3           , 11          , 0.00767988432, 0.007679892
0.3574649   , 0.0958617851, -9.793625   , 0.00168675673, 0.00119446428, -0.00247063884, -0.182553589, -0.163138732, 0.42159903  , -0.0123011041, 0.0364162326, 2.38197732  , 2.56        , 3           , 12          , 0.04779202  , 0
0.34933874  , 0.0982087   , -9.792321   , 0.00169798278, -0.0007764843, 6.91608E-05 , -0.183025479, -0.163138732, 0.421733856 , -0.0122840935, 0.036408484 , 2.3819778   , 2.57        , 3           , 50          , 0           , 0
0.354249    , 0.1288172   , -9.787186   , -0.000274006947, -0.00163454516, 0.001471328 , -0.182418764, -0.1630039  , 0.42159903  , -0.0122862915, 0.03639232  , 2.38199258  , 2.58        , 3           , 11          , 0.00767988432, 0.007679892
0.3562554   , 0.110727936 , -9.782273   , 0.00113624369, -0.0013434327, 0.000630734139, -0.182418764, -0.1630039  , 0.42159903  , -0.0122746937, 0.0363789648, 2.38199925  , 2.59        , 3           , 12          , 0.04779202  , 0
0.345342219 , 0.111264333 , -9.769699   , -0.000257567153, 0.001463068 , 6.46739063E-05, -0.182553589, -0.163340971, 0.421531618 , -0.01222097 , 0.03639433  , 2.382002    , 2.6         , 3           , 50          , 0           , 0
0.3520455   , 0.1400515   , -9.765913   , -0.001114932, 0.003428292 , -0.0005013141, -0.182823241, -0.163071319, 0.421733856 , -0.0122323157, 0.0364285447, 2.38199639  , 2.61        , 3           , 11          , 0.00758510176, 0.00758510828
0.375471145 , 0.112004779 , -9.825964   , 0.00199692417, 0.00260461122, 0.00120709511, -0.182486176, -0.163138732, 0.421531618 , -0.01221192 , 0.03645474  , 2.38200831  , 2.62        , 3           , 12          , 0.0487167351, 0
0.371641546 , 0.106523134 , -9.793021   , 0.00313188136, 0.0014859892, 0.0006455522, -0.182486176, -0.163138732, 0.421531618 , -0.0121803731, 0.03646968  , 2.38201451  , 2.63        , 3           , 50          , 0           , 0
0.352264374 , 0.12110991  , -9.769607   , -0.0005313037, -0.000228230943, 0.0006258284, -0.182486176, -0.163206145, 0.421666443 , -0.0121854534, 0.036467474 , 2.38202119  , 2.64        , 3           , 11          , 0.00758510176, 0.00758510828
0.367091835 , 0.104773186 , -9.793515   , -0.0005258908, -0.00135449169, 0.0003415551, -0.182553589, -0.163340971, 0.42159903  , -0.0121905822, 0.03645397  , 2.382025    , 2.65        , 3           , 12          , 0.0487167351, 0
0.342471361 , 0.121809535 , -9.808999   , -0.00194318581, -0.000519351335, -0.00135895237, -0.182486176, -0.163138732, 0.421733856 , -0.012210506, 0.0364486128, 2.38201118  , 2.66        , 3           , 50          , 0           , 0
0.332396269 , 0.114246346 , -9.805944   , -0.0008162665, 5.14187268E-05, -0.00135281682, -0.182486176, -0.163138732, 0.421733856 , -0.0122191627, 0.03644896  , 2.38199735  , 2.67        , 3           , 11          , 0.00758510176, 0.00758510828
0.372606546 , 0.123968296 , -9.751359   , 0.00143076526, 0.00260078488, -0.00105583854, -0.182553589, -0.163273558, 0.421531618 , -0.0122052524, 0.0364748351, 2.38198686  , 2.68        , 3           , 12          , 0.0487167351, 0
0.347175658 , 0.108583018 , -9.783709   , -0.00308216154, 0.00144396676, -0.00051357015, -0.182688415, -0.163408384, 0.421801269 , -0.0122362683, 0.03648921  , 2.38198113  , 2.69        , 3           , 50          , 0           , 0
0.3327883   , 0.110174611 , -9.80415    , 0.00062551687, 4.30098735E-05, -0.00134531921, -0.182553589, -0.1634758  , 0.421666443 , -0.0121774059, 0.0364573933, 2.38197017  , 2.7         , 3           , 11          , 0.00748794945, 0.0074879555
0.3362118   , 0.125965491 , -9.815358   , 0.0009089226, 4.49245563E-05, 0.000351222465, -0.182823241, -0.1634758  , 0.421733856 , -0.0121681876, 0.03645789  , 2.38197351  , 2.71        , 3           , 12          , 0.04965722  , 0
0.355956137 , 0.116660208 , -9.800783   , -0.003602032, -0.00167502766, -0.0005200643, -0.182823241, -0.1634758  , 0.421733856 , -0.012204391, 0.0364410765, 2.38196874  , 2.72        , 3           , 50          , 0           , 0
0.370819718 , 0.116421282 , -9.781687   , -0.00105937489, -0.001657834, 0.000904475339, -0.182486176, -0.163340971, 0.421666443 , -0.0122146476, 0.03642461  , 2.38197827  , 2.73        , 3           , 11          , 0.00748794945, 0.0074879555
0.3410753   , 0.128936559 , -9.77689    , 0.0006157588, 0.00201396551, -0.0013422817, -0.182553589, -0.163206145, 0.421868682 , -0.0122089889, 0.036444582 , 2.381964    , 2.74        , 3           , 12          , 0.04965722  , 0
0.339318871 , 0.127216712 , -9.795894   , 0.00259463023, 0.00174577243, -0.00048588455, -0.182486176, -0.163273558, 0.4214642   , -0.0121832257, 0.0364619829, 2.3819592   , 2.75        , 3           , 50          , 0           , 0
0.346425563 , 0.117200293 , -9.794073   , 0.00034513665, -0.000240462017, -0.000216920089, -0.182486176, -0.163273558, 0.4214642   , -0.0121798534, 0.03645955  , 2.38195729  , 2.76        , 3           , 11          , 0.00748794945, 0.0074879555
0.3455525   , 0.12080805  , -9.790449   , 0.0037090918, 0.004569057 , -0.00273657753, -0.182553589, -0.163408384, 0.421531618 , -0.01214378 , 0.0365049   , 2.38192916  , 2.77        , 3           , 12          , 0.04965722  , 0
0.365128875 , 0.1287002   , -9.790267   , 0.00231376081, 0.00146229821, -0.000205097953, -0.182486176, -0.163408384, 0.421868682 , -0.0121207247, 0.0365194976, 2.38192677  , 2.78        , 3           , 50          , 0           , 0
0.3602591   , 0.104819633 , -9.783623   , 0.00345027447, 6.211194E-05, -0.000484537362, -0.182486176, -0.1634758  , 0.421733856 , -0.012086398, 0.03652006  , 2.381922    , 2.79        , 3           , 11          , 0.00748794945, 0.0074879555
0.343803465 , 0.126682192 , -9.786822   , 0.0017517223, 0.00057758257, 7.301335E-05, -0.182486176, -0.1634758  , 0.421733856 , -0.0120716849, 0.03645877  , 2.381923    , 2.8         , 3           , 12          , 0.0506122932, 0
0.363389015 , 0.10430409  , -9.775467   , 0.000328762631, 0.002820555 , 0.0006349752, -0.182553589, -0.163206145, 0.421733856 , -0.0120681794, 0.0364870541, 2.38192868  , 2.81        , 3           , 50          , 0           , 0
0.349029571 , 0.11350628  , -9.778249   , 0.0014692957, 0.0005756726, 7.16964E-05 , -0.182486176, -0.163206145, 0.421666443 , -0.0120534617, 0.0364928246, 2.38192964  , 2.82        , 3           , 11          , 0.007391773 , 0.00739177968
0.3530493   , 0.131639823 , -9.817014   , 0.00231223134, 0.001426097 , -0.000205588236, -0.182418764, -0.163340971, 0.421666443 , -0.0120304208, 0.03650706  , 2.38192725  , 2.83        , 3           , 12          , 0.0506122932, 0
0.365562737 , 0.09572378  , -9.78091    , 0.000334012322, 0.001694293 , 6.8164416E-05, -0.182418764, -0.163340971, 0.421666443 , -0.0120270643, 0.0365240052, 2.38192773  , 2.84        , 3           , 50          , 0           , 0
0.367435455 , 0.103340335 , -9.771372   , 4.41260345E-05, 0.00310020638, -0.000778595044, -0.182553589, -0.163273558, 0.421531618 , -0.0120269209, 0.036554914 , 2.38191915  , 2.85        , 3           , 11          , 0.007391773 , 0.00739177968
0.380641371 , 0.109049633 , -9.770794   , -0.00219856063, -0.000293854682, -0.000794337655, -0.182351351, -0.163273558, 0.4219361   , -0.0120491963, 0.03655188  , 2.38191152  , 2.86        , 3           , 12          , 0.0506122932, 0
0.3595759   , 0.115722924 , -9.803019   , 4.63357719E-05, 0.002818645 , 0.000633658259, -0.182553589, -0.163138732, 0.421666443 , -0.0120485136, 0.03658014  , 2.38191724  , 2.87        , 3           , 50          , 0           , 0
0.350096673 , 0.125231624 , -9.780001   , -0.000229447323, 0.001408908 , 6.509661E-05, -0.182553589, -0.163138732, 0.421666443 , -0.0120507907, 0.0365942381, 2.38191819  , 2.88        , 3           , 11          , 0.007391773 , 0.00739177968
0.374747783 , 0.1367123   , -9.791064   , -0.000501211558, -0.000845525065, -0.000787304, -0.182553589, -0.163273558, 0.421531618 , -0.0120560871, 0.03658569  , 2.38191056  , 2.89        , 3           , 12          , 0.0506122932, 0
0.3586056   , 0.149083242 , -9.790684   , -0.000231325088, 0.0011470624, 0.0009124088, -0.182688415, -0.1630039  , 0.421666443 , -0.0120652961, 0.0366350822, 2.38191915  , 2.9         , 3           , 50          , 0           , 0
0.365451127 , 0.121001109 , -9.783065   , -0.0002519832, 0.00508896774, -0.00105927826, -0.182890654, -0.163206145, 0.421666443 , -0.0120682269, 0.03668584  , 2.3819077   , 2.91        , 3           , 11          , 0.007296201 , 0.0072962055
0.375105441 , 0.10412053  , -9.761817   , -0.001359876, 0.0005762845, -0.00191910157, -0.182890654, -0.163206145, 0.421666443 , -0.01208253 , 0.0366913639, 2.38188863  , 2.92        , 3           , 12          , 0.0515808836, 0
0.362408727 , 0.126497492 , -9.796624   , -0.00277184672, 0.000566735456, -0.0016431486, -0.182418764, -0.1634758  , 0.42159903  , -0.0121108536, 0.03669684  , 2.38187242  , 2.93        , 3           , 50          , 0           , 0
0.3490419   , 0.109945461 , -9.792728   , 0.0014579118, 0.002003212 , -0.00105615 , -0.182553589, -0.163071319, 0.42159903  , -0.0120966742, 0.0367167331, 2.38186145  , 2.94        , 3           , 11          , 0.007296201 , 0.0072962055
0.346819    , 0.110005289 , -9.802688   , -0.002197324, -0.00111882866, 0.0006171814, -0.182688415, -0.163273558, 0.421531618 , -0.0121184159, 0.0367056169, 2.38186765  , 2.95        , 3           , 12          , 0.0515808836, 0
0.34874472  , 0.121235594 , -9.794492   , -0.00332719437, -0.00112646923, 0.00032937614, -0.182553589, -0.163543209, 0.4213968   , -0.0121515617, 0.0366943926, 2.38187146  , 2.96        , 3           , 50          , 0           , 0
0.346959651 , 0.128865957 , -9.776394   , 0.0003336174, 0.000869311 , -0.00134569092, -0.182553589, -0.163543209, 0.4213968   , -0.012148723, 0.0367029235, 2.38185716  , 2.97        , 3           , 11          , 0.007296201 , 0.0072962055
0.33095777  , 0.116875455 , -9.777922   , -0.00276127271, -0.00140421593, -0.000233498678, -0.182553589, -0.163340971, 0.421733856 , -0.012176415, 0.03668885  , 2.38185525  , 2.98        , 3           , 12          , 0.0515808836, 0
0.3585876   , 0.11477381  , -9.785855   , 0.00118171365, 0.0008750448, 7.094712E-05, -0.182621   , -0.163071319, 0.421666443 , -0.012164576, 0.03669761  , 2.3818562   , 2.99        , 3           , 50          , 0           , 0
0.368734658 , 0.126412481 , -9.793412   , 0.00145681365, 0.00252612983, -0.00105564808, -0.182418764, -0.163071319, 0.42159903  , -0.0121470271, 0.03664297  , 2.38184571  , 3           , 3           , 11          , 0.00720085436, 0.00720085856
0.357183516 , 0.141013265 , -9.801125   , -0.001361226, 0.001380773 , 5.95966267E-05, -0.182418764, -0.163071319, 0.42159903  , -0.0121606244, 0.036656782 , 2.38184571  , 3.01        , 3           , 12          , 0.0525619537, 0
0.3623489   , 0.12377093  , -9.79076    , 0.0011846344, 0.0005532667, -0.000212390034, -0.182486176, -0.163138732, 0.421666443 , -0.0121488571, 0.0366622955, 2.38184381  , 3.02        , 3           , 50          , 0           , 0
0.3839231   , 0.117137678 , -9.772092   , -0.00135007384, -0.0008717477, 5.612515E-05, -0.182553589, -0.1630039  , 0.421868682 , -0.0121623334, 0.03665358  , 2.38184476  , 3.03        , 3           , 11          , 0.00720085436, 0.00720085856
0.363244355 , 0.120181337 , -9.7998085  , -0.0007973511, 0.00138458831, -0.00163299427, -0.182621   , -0.163408384, 0.421666443 , -0.0121709127, 0.03666722  , 2.381828    , 3.04        , 3           , 12          , 0.0525619537, 0
0.361466169 , 0.119336583 , -9.810673   , 0.000333587 , 0.00111066224, -0.001910698, -0.182621   , -0.163408384, 0.421666443 , -0.0121682808, 0.0366780944, 2.38180852  , 3.05        , 3           , 50          , 0           , 0
0.3593452   , 0.108840764 , -9.768698   , -0.0004942663, -0.00255540712, 0.000340009865, -0.182486176, -0.163543209, 0.421666443 , -0.0121730855, 0.0366525836, 2.38181233  , 3.06        , 3           , 11          , 0.00720085436, 0.00720085856
0.3528902   , 0.133296251 , -9.772714   , 0.00175334373, -0.000287610164, -0.00077613286, -0.182351351, -0.163071319, 0.421666443 , -0.0121558364, 0.0366496146, 2.3818047   , 3.07        , 3           , 12          , 0.0525619537, 0
0.347333431 , 0.120315984 , -9.784563   , 0.002024945 , 0.001966822 , -0.000206269542, -0.182553589, -0.163273558, 0.421733856 , -0.0121356724, 0.036669258 , 2.38180232  , 3.08        , 3           , 50          , 0           , 0
0.3875431   , 0.113968857 , -9.78156948 , 0.00117766438, 0.001961092 , -0.000210220343, -0.182553589, -0.163273558, 0.421733856 , -0.0121239834, 0.03668884  , 2.3818      , 3.09        , 3           , 11          , 0.00720085436, 0.00720085856
0.375076234 , 0.122323073 , -9.806941   , 0.0008906994, 0.0008523225, -0.0004959161, -0.182486176, -0.163408384, 0.421531618 , -0.0121357  , 0.0367370732, 2.38179421  , 3.1         , 3           , 12          , 0.0535545759, 0
0.344692051 , 0.113713652 , -9.824384   , -0.00276149623, -0.00311441836, -0.00080164877, -0.182823241, -0.163273558, 0.421801269 , -0.0121636  , 0.0367058367, 2.38178658  , 3.11        , 3           , 50          , 0           , 0
0.34904474  , 0.111286812 , -9.789106   , -0.00192364771, -0.00113773183, -0.000229585465, -0.182553589, -0.162869081, 0.421733856 , -0.0121829147, 0.0366944335, 2.38178468  , 3.12        , 3           , 11          , 0.007107107 , 0.007107112
0.35051316  , 0.118948    , -9.791323   , 0.000331584917, -0.0002777569, -0.000217748209, -0.182553589, -0.162869081, 0.421733856 , -0.0121796764, 0.0366916247, 2.38178229  , 3.13        , 3           , 12          , 0.0535545759, 0
0.309945583 , 0.135197043 , -9.78569    , -0.0007891801, -0.00225635641, -0.001638741, -0.182418764, -0.163408384, 0.4213968   , -0.0121881589, 0.0366688669, 2.38176656  , 3.14        , 3           , 50          , 0           , 0
0.325031757 , 0.116019569 , -9.77119    , 0.002024589 , 1.526723E-05, -0.000491950137, -0.182621   , -0.1630039  , 0.42159903  , -0.0121680954, 0.0366689637, 2.38176131  , 3.15        , 3           , 11          , 0.007107107 , 0.007107112
0.36561352  , 0.123810828 , -9.81378651 , -0.000526684453, 0.00196903455, 6.43097155E-05, -0.182553589, -0.163138732, 0.42159903  , -0.0121733481, 0.0366886556, 2.38176179  , 3.16        , 3           , 12          , 0.0535545759, 0
0.352871656 , 0.128371388 , -9.784034   , -0.00137601153, 0.00224486669, -0.00106935692, -0.182553589, -0.163138732, 0.42159903  , -0.0121875126, 0.0367109738, 2.38175035  , 3.17        , 3           , 50          , 0           , 0
0.3533855   , 0.10527949  , -9.762431   , 0.00483073434, 0.003694713 , -0.000473139662, -0.182486176, -0.163408384, 0.4214642   , -0.0121393939, 0.0367478579, 2.38174558  , 3.18        , 3           , 11          , 0.007107107 , 0.007107112
0.377044261 , 0.107773475 , -9.781223   , 0.000892745855, 0.000570760632, 0.000633799762, -0.182688415, -0.163206145, 0.421666443 , -0.0121302353, 0.036753647 , 2.38175178  , 3.19        , 3           , 12          , 0.0535545759, 0
0.381163776 , 0.1073153   , -9.793397   , 0.00118264812, 0.0002626048, -0.000212964922, -0.182621   , -0.1629365  , 0.421666443 , -0.0121045355, 0.0366959125, 2.38175035  , 3.2         , 3           , 50          , 0           , 0
0.352764    , 0.118910842 , -9.788142   , -0.0005061738, -0.000875114754, 5.99349733E-05, -0.182688415, -0.163273558, 0.4214642   , -0.0121095721, 0.03668717  , 2.3817513   , 3.21        , 3           , 11          , 0.00701538241, 0.00701538566
0.37088114  , 0.121380925 , -9.780762   , 0.000891115633, 0.00223165331, 0.000918905367, -0.182688415, -0.163273558, 0.4214642   , -0.0121003352, 0.0367095955, 2.38176     , 3.22        , 3           , 12          , 0.0545578338, 0
0.356365144 , 0.117958441 , -9.785859   , 0.00118281133, 0.0002626056, 6.957233E-05, -0.182755828, -0.163071319, 0.421666443 , -0.0120884823, 0.0367122367, 2.38176084  , 3.23        , 3           , 50          , 0           , 0
0.361500949 , 0.12606     , -9.797537   , 0.0006240229, -0.0008674725, 0.0009128152, -0.182351351, -0.163340971, 0.421801269 , -0.0120819025, 0.0367036648, 2.38177037  , 3.24        , 3           , 11          , 0.00701538241, 0.00701538566
0.3616215   , 0.132852972 , -9.805192   , 0.004570539 , 0.000567090232, 8.580947E-05, -0.182283938, -0.163812861, 0.42159903  , -0.01203617 , 0.0367093459, 2.38177085  , 3.25        , 3           , 12          , 0.0545578338, 0
0.342242867 , 0.107787572 , -9.798212   , 0.00231251842, 0.00027024548, 7.484006E-05, -0.182283938, -0.163812861, 0.42159903  , -0.0120130163, 0.03671206  , 2.38177133  , 3.26        , 3           , 50          , 0           , 0
0.362966627 , 0.110136583 , -9.764146   , 0.003453704 , -0.001974634, 0.000641711347, -0.182621   , -0.163206145, 0.421666443 , -0.011978236, 0.0366923958, 2.381778    , 3.27        , 3           , 11          , 0.00701538241, 0.00701538566
0.3621171   , 0.11287073  , -9.769113   , -0.00192486285, 0.000241591246, -0.0016401388, -0.182553589, -0.163543209, 0.42159903  , -0.0119980872, 0.0366946124, 2.38176179  , 3.28        , 3           , 12          , 0.0545578338, 0
0.360776484 , 0.103974022 , -9.802155   , 0.00145982509, 0.0013907766, 0.000355162483, -0.182621   , -0.163340971, 0.4214642   , -0.0119833648, 0.03670856  , 2.38176513  , 3.29        , 3           , 50          , 0           , 0
0.36134848  , 0.124151073 , -9.766359   , -0.00275619 , -4.77418034E-05, 0.0003337658, -0.182621   , -0.163340971, 0.4214642   , -0.0119814454, 0.036703676 , 2.38177     , 3.3         , 3           , 11          , 0.00692527555, 0.00692527834
0.347785026 , 0.121202379 , -9.78139    , -0.00190890976, -4.20118449E-05, 0.0003377166, -0.182553589, -0.163340971, 0.421531618 , -0.012000408, 0.036703296 , 2.38177323  , 3.31        , 3           , 12          , 0.0555709079, 0
0.3274003   , 0.11875587  , -9.787885   , 0.000353871175, -0.000871431257, -0.001065737, -0.182283938, -0.163408384, 0.421666443 , -0.0119972583, 0.0366944522, 2.38176274  , 3.32        , 3           , 50          , 0           , 0
0.3369466   , 0.124477431 , -9.778296   , -0.00276307133, 0.00107851229, -0.00192479824, -0.182553589, -0.163340971, 0.421531618 , -0.0120255984, 0.0367050059, 2.38174367  , 3.33        , 3           , 11          , 0.00692527555, 0.00692527834
0.348470747 , 0.103605911 , -9.784171   , -0.00134536135, -3.81981372E-05, -0.00191994931, -0.182553589, -0.163340971, 0.421531618 , -0.0120397573, 0.03670439  , 2.381724    , 3.34        , 3           , 12          , 0.0555709079, 0
0.345951557 , 0.113617562 , -9.80042    , 0.00204973738, -0.000859965163, 0.00120246445, -0.182621   , -0.163071319, 0.4213968   , -0.0120188138, 0.03669594  , 2.381736    , 3.35        , 3           , 50          , 0           , 0
0.359454453 , 0.110268295 , -9.790838   , 0.00203851121, 0.00111098331, -0.00133733521, -0.182621   , -0.163273558, 0.421733856 , -0.0119989263, 0.0367068835, 2.38172269  , 3.36        , 3           , 11          , 0.00692527555, 0.00692527834
0.358767331 , 0.123400107 , -9.802089   , 0.00120926369, -0.00227352139, 0.0009138064, -0.182486176, -0.163273558, 0.4214642   , -0.0119864885, 0.0366842635, 2.38173223  , 3.37        , 3           , 12          , 0.0555709079, 0
0.357898    , 0.119422935 , -9.823807   , 0.004017382 , 0.000842790352, -0.000480938179, -0.182486176, -0.163273558, 0.4214642   , -0.0119464966, 0.0366926342, 2.38172746  , 3.38        , 3           , 50          , 0           , 0
0.336483    , 0.117332377 , -9.798669   , 6.373288E-05, 0.00081605243, 6.569947E-05, -0.182418764, -0.163206145, 0.421329379 , -0.011945839, 0.0367008038, 2.38172746  , 3.39        , 3           , 11          , 0.00692527555, 0.00692527834
0.36757195  , 0.111485243 , -9.778568   , 0.0017497089, 0.00247132359, -0.00218455563, -0.182486176, -0.163273558, 0.421801269 , -0.0119266715, 0.03662259  , 2.381706    , 3.4         , 3           , 12          , 0.0565930046, 0
0.376761526 , 0.08076337  , -9.7989645  , 0.00147646188, 0.0007800271, -0.000775788736, -0.182486176, -0.1634758  , 0.42159903  , -0.0119121959, 0.0366303027, 2.381698    , 3.41        , 3           , 50          , 0           , 0
0.361640751 , 0.131083131 , -9.815595   , 0.0003470809, 0.0007723888, -0.000215981447, -0.182486176, -0.1634758  , 0.42159903  , -0.0119088087, 0.036638    , 2.381696    , 3.42        , 3           , 11          , 0.006837404 , 0.00683740573
0.3586034   , 0.113447547 , -9.793995   , -0.000212523068, -0.000357693061, -0.000785426, -0.182486176, -0.163340971, 0.421329379 , -0.01191122 , 0.03663433  , 2.38168836  , 3.43        , 3           , 12          , 0.0565930046, 0
0.3359894   , 0.115072861 , -9.79597    , 0.00231898227, 0.00191202131, 0.0006425851, -0.182621   , -0.163408384, 0.421733856 , -0.0118878018, 0.0366535261, 2.381694    , 3.44        , 3           , 50          , 0           , 0
0.3389301   , 0.135754615 , -9.78411    , 0.00260108267, 0.00191392959, 7.88270263E-05, -0.182486176, -0.163408384, 0.421666443 , -0.0118617723, 0.03667267  , 2.381695    , 3.45        , 3           , 11          , 0.006837404 , 0.00683740573
0.370143652 , 0.134471923 , -9.779809   , 0.00147309562, 0.00162472622, 0.0006382004, -0.182418764, -0.163812861, 0.4214642   , -0.0118468152, 0.0366889946, 2.38170075  , 3.46        , 3           , 12          , 0.0565930046, 0
0.368420839 , 0.143045411 , -9.773911   , -0.00275338558, -0.000374878175, 0.000897946244, -0.182418764, -0.163812861, 0.4214642   , -0.0118740192, 0.03668536  , 2.38171029  , 3.47        , 3           , 50          , 0           , 0
0.36208     , 0.135530367 , -9.797946   , -0.002478255, 0.00103485573, 0.000336357858, -0.182486176, -0.1630039  , 0.421801269 , -0.0118986834, 0.03669575  , 2.38171315  , 3.48        , 3           , 11          , 0.006837404 , 0.00683740573
0.3818372   , 0.128467232 , -9.779292   , 0.00343574258, 0.00417217333, -0.002456588, -0.182486176, -0.163340971, 0.421733856 , -0.0118652442, 0.03673717  , 2.38168836  , 3.49        , 3           , 12          , 0.0565930046, 0
0.364840269 , 0.101238936 , -9.80801    , 0.000319716579, -0.00259816158, 0.00288504269, -0.182418764, -0.163408384, 0.421261966 , -0.0119676255, 0.03673054  , 2.38171315  , 3.5         , 3           , 50          , 0           , 0
0.357338071 , 0.11577066  , -9.809363   , 0.00171595276, 0.000227029552, -0.000494482869, -0.182418764, -0.163408384, 0.421261966 , -0.01195065 , 0.03673275  , 2.38170838  , 3.51        , 3           , 11          , 0.006751386 , 0.00675138738
0.34005174  , 0.115461037 , -9.791418   , 0.00171102956, 0.001353293 , 0.000637402642, -0.182486176, -0.1634758  , 0.4214642   , -0.0119333137, 0.0367463529, 2.381714    , 3.52        , 3           , 12          , 0.0576234162, 0
0.34585157  , 0.109519407 , -9.789137   , -0.00139213621, 0.000487584883, -0.0005085352, -0.182621   , -0.1634758  , 0.421666443 , -0.0119474223, 0.0367511734, 2.38170934  , 3.53        , 3           , 50          , 0           , 0
0.3730226   , 0.114559859 , -9.772637   , -0.00195494341, 0.000202203053, 0.000618546735, -0.182486176, -0.163678035, 0.421531618 , -0.0119667472, 0.036753267 , 2.381715    , 3.54        , 3           , 11          , 0.006751386 , 0.00675138738
0.349434763 , 0.112123325 , -9.77102    , 0.0005657506, 0.004161296 , -0.00218890049, -0.182486176, -0.163678035, 0.421531618 , -0.01196191 , 0.03679461  , 2.38169312  , 3.55        , 3           , 12          , 0.0576234162, 0
0.3522882   , 0.118004769 , -9.785438   , -0.000551737, 0.00161956868, -0.00276314886, -0.182621   , -0.163273558, 0.4214642   , -0.0119684506, 0.0368104726, 2.381665    , 3.56        , 3           , 50          , 0           , 0
0.345634729 , 0.13381885  , -9.7687     , 0.0003109519, -0.0011903448, -0.000220699716, -0.182688415, -0.163138732, 0.421666443 , -0.0119654182, 0.0367985442, 2.38166261  , 3.57        , 3           , 11          , 0.006751386 , 0.00675138738
0.3480363   , 0.130779356 , -9.812084   , 0.0014281132, 0.0013513806, -0.000211526582, -0.182755828, -0.163273558, 0.421666443 , -0.0119512221, 0.0368120335, 2.3816607   , 3.58        , 3           , 12          , 0.0576234162, 0
0.3713898   , 0.118742779 , -9.802917   , -0.0013788488, -0.002328069, -0.00164302462, -0.182755828, -0.163273558, 0.421666443 , -0.0119656045, 0.036788553 , 2.38164449  , 3.59        , 3           , 50          , 0           , 0
0.378389448 , 0.105068766 , -9.786648   , -0.00196962315, -0.0006596906, -0.00192641455, -0.182553589, -0.163273558, 0.4214642   , -0.0120276073, 0.03674062  , 2.38162351  , 3.6         , 3           , 11          , 0.00666980166, 0.00666980073
0.375581235 , 0.09476047  , -9.79756    , -0.00253489148, -0.000381940627, -0.00023338967, -0.182486176, -0.163273558, 0.42159903  , -0.01205304 , 0.03673677  , 2.3816216   , 3.61        , 3           , 12          , 0.05866143  , 0
0.352682143 , 0.141534179 , -9.806128   , 0.00084890594, 0.000485668716, -0.00219404721, -0.182486176, -0.163071319, 0.421666443 , -0.0120453583, 0.03674137  , 2.38159966  , 3.62        , 3           , 50          , 0           , 0
0.37605983  , 0.137105182 , -9.778398   , 0.000274531863, 0.00273437728, 0.000632165233, -0.182486176, -0.163071319, 0.421666443 , -0.0120423939, 0.0367687829, 2.38160539  , 3.63        , 3           , 11          , 0.00666980166, 0.00666980073
0.380754    , 0.110033579 , -9.795197   , -0.000568151532, 0.0016023824, -0.00106874609, -0.182418764, -0.163273558, 0.4214642   , -0.0120484754, 0.036784675 , 2.381595    , 3.64        , 3           , 12          , 0.05866143  , 0
0.3664132   , 0.126838818 , -9.778061   , 0.0002855207, 0.000481855852, 0.0003461562, -0.182755828, -0.163071319, 0.4214642   , -0.0120454943, 0.0367895365, 2.38159776  , 3.65        , 3           , 50          , 0           , 0
0.3359558   , 0.115045637 , -9.787834   , 0.00281244353, 0.00331469183, -0.00133287674, -0.182621   , -0.163071319, 0.42159903  , -0.0120178768, 0.03682252  , 2.38158441  , 3.66        , 3           , 11          , 0.00666980166, 0.00666980073
0.364658982 , 0.1282453   , -9.78756    , -0.00196741335, -0.000941251637, -0.0005141612, -0.182621   , -0.163071319, 0.42159903  , -0.0120377373, 0.0368130468, 2.38157964  , 3.67        , 3           , 12          , 0.05866143  , 0
0.36822     , 0.118333384 , -9.804297   , 0.004224325 , 0.00360581232, 0.0006519041, -0.182418764, -0.163408384, 0.4213968   , -0.0119952681, 0.03684918  , 2.38158536  , 3.68        , 3           , 50          , 0           , 0
0.342675984 , 0.138936669 , -9.803955   , 0.00112369575, 0.00245854445, 0.00148329465, -0.182621   , -0.163071319, 0.421531618 , -0.0119834952, 0.0368739441, 2.38159966  , 3.69        , 3           , 11          , 0.00666980166, 0.00666980073
0.3554959   , 0.116659485 , -9.798978   , 0.0005428676, 0.0001953285, 0.00119356811, -0.182688415, -0.163340971, 0.42159903  , -0.0120439986, 0.0368590876, 2.3816092   , 3.7         , 3           , 12          , 0.05970642  , 0
0.353574276 , 0.105878793 , -9.806721   , -0.0025484045, -0.00320446817, -0.001086425, -0.182216525, -0.163408384, 0.42159903  , -0.0120698689, 0.0368269123, 2.38159871  , 3.71        , 3           , 50          , 0           , 0
0.339980125 , 0.114510365 , -9.776958   , 0.00225580274, -0.00373512786, -0.000782367541, -0.182216525, -0.163408384, 0.42159903  , -0.0120475823, 0.0367894731, 2.38159156  , 3.72        , 3           , 11          , 0.00658847438, 0.006588471
0.363852769 , 0.106539391 , -9.770933   , 0.00195672247, -7.668522E-05, 0.00176479376, -0.182418764, -0.163071319, 0.4214642   , -0.0120273642, 0.0367889144, 2.3816092   , 3.73        , 3           , 12          , 0.05970642  , 0
0.351673335 , 0.108059071 , -9.7778     , -0.00453900639, -0.0004021859, -0.000526229269, -0.182418764, -0.1629365  , 0.421531618 , -0.0120729469, 0.03678483  , 2.38160443  , 3.74        , 3           , 50          , 0           , 0
0.333572954 , 0.138111949 , -9.795441   , 0.000266595074, -0.00121441064, -0.000222605682, -0.182688415, -0.163273558, 0.4214642   , -0.01207036 , 0.0367726646, 2.381602    , 3.75        , 3           , 11          , 0.00658847438, 0.006588471
0.3603221   , 0.136933818 , -9.80654049 , -0.00200692262, 0.00158595946, -0.0005113393, -0.182688415, -0.163273558, 0.4214642   , -0.0120906224, 0.03678846  , 2.3815968   , 3.76        , 3           , 12          , 0.05970642  , 0
0.366019547 , 0.128677458 , -9.786644   , -0.00228393683, 0.000457788381, -0.000796929467, -0.182621   , -0.163206145, 0.421666443 , -0.0121137584, 0.0367929451, 2.3815887   , 3.77        , 3           , 50          , 0           , 0
0.370564431 , 0.126406342 , -9.797918   , 0.0005453293, -0.000367803324, 0.0006276253, -0.182553589, -0.1629365  , 0.4213968   , -0.0121080726, 0.0367893428, 2.381595    , 3.78        , 3           , 11          , 0.00658847438, 0.006588471
0.348395169 , 0.1298052   , -9.792197   , -0.00198183069, -0.00348221185, -0.0005191501, -0.182486176, -0.163071319, 0.4214642   , -0.0121280663, 0.03675446  , 2.38159013  , 3.79        , 3           , 12          , 0.05970642  , 0
0.372932553 , 0.136283934 , -9.79153252 , 0.00164848624, 0.000188322621, -0.000214881366, -0.182486176, -0.163071319, 0.4214642   , -0.01217055 , 0.0367192551, 2.38158631  , 3.8         , 3           , 50          , 0           , 0
0.370649636 , 0.135848776 , -9.788386   , 0.002201862 , 0.00244466169, -0.000773851061, -0.182486176, -0.163273558, 0.42159903  , -0.0121488273, 0.0367436036, 2.38157773  , 3.81        , 3           , 11          , 0.00650925841, 0.006509254
0.3758755   , 0.114638329 , -9.805612   , 0.00472262967, 0.00668532774, -0.00103802711, -0.182553589, -0.163138732, 0.421666443 , -0.0121020125, 0.0368103273, 2.38156676  , 3.82        , 3           , 12          , 0.0607578   , 0
0.34546572  , 0.111810729 , -9.798171   , 0.00136204064, 0.00103110867, 6.764075E-05, -0.182418764, -0.163273558, 0.4213968   , -0.0120883714, 0.0368206427, 2.38156724  , 3.83        , 3           , 50          , 0           , 0
0.36129123  , 0.114731342 , -9.782671   , -0.000591738557, -0.00376886944, -0.000796566834, -0.182418764, -0.163273558, 0.4213968   , -0.0120945657, 0.03678287  , 2.38155961  , 3.84        , 3           , 11          , 0.00650925841, 0.006509254
0.348967254 , 0.10988497  , -9.77465    , 0.0008070193, -0.0006620948, 0.00260524056, -0.182553589, -0.163071319, 0.421329379 , -0.0120855337, 0.0367765576, 2.38158631  , 3.85        , 3           , 12          , 0.0607578   , 0
0.348633647 , 0.112218618 , -9.796337   , -0.000328338327, 0.00017495366, 5.84373338E-05, -0.182553589, -0.1630039  , 0.4213968   , -0.0120887961, 0.03677832  , 2.38158631  , 3.86        , 3           , 50          , 0           , 0
0.347195327 , 0.145125538 , -9.781749   , 0.0008008794, 0.000182591146, -0.000783907133, -0.182283938, -0.163273558, 0.4214642   , -0.0120810783, 0.0367800519, 2.38157868  , 3.87        , 3           , 11          , 0.00650925841, 0.006509254
0.345909864 , 0.122957192 , -9.760154   , 0.0008009537, 0.000464163226, 0.00175936392, -0.182283938, -0.163273558, 0.4214642   , -0.0120724235, 0.0367849059, 2.38159585  , 3.88        , 3           , 12          , 0.0607578   , 0
0.3454953   , 0.121654384 , -9.773723   , -0.000322436, -0.0009513051, 0.0006217766, -0.182351351, -0.163206145, 0.421261966 , -0.0120754158, 0.03677547  , 2.38160253  , 3.89        , 3           , 50          , 0           , 0
0.342911541 , 0.117330521 , -9.820314   , -0.00260640425, 0.0001320049, -0.0010832455, -0.182486176, -0.163138732, 0.421329379 , -0.0121486625, 0.0367047638, 2.38159013  , 3.9         , 3           , 11          , 0.006432522 , 0.006432516
0.346651822 , 0.13077414  , -9.805766   , -0.00118181284, -0.0021109595, 0.00118016743, -0.182486176, -0.163340971, 0.42159903  , -0.0121600358, 0.03668379  , 2.381602    , 3.91        , 3           , 12          , 0.0618150048, 0
0.3691638   , 0.127280772 , -9.784818   , -0.0009257833, 0.00295911543, -0.00107100455, -0.182486176, -0.163340971, 0.42159903  , -0.0121697  , 0.03671325  , 2.381591    , 3.92        , 3           , 50          , 0           , 0
0.3622812   , 0.117913544 , -9.793045   , 0.00246538548, 0.00270047318, 7.451448E-05, -0.182418764, -0.163206145, 0.421059728 , -0.0121450275, 0.0367402621, 2.381591    , 3.93        , 3           , 11          , 0.006432522 , 0.006432516
0.3500358   , 0.118487038 , -9.786809   , 0.000774591 , 0.002125888 , 0.0017609701, -0.182486176, -0.1630039  , 0.4214642   , -0.0121366456, 0.0367617346, 2.38160872  , 3.94        , 3           , 12          , 0.0618150048, 0
0.365394264 , 0.114706159 , -9.78942    , -8.14540545E-05, 0.00352797471, -0.00134872331, -0.182553589, -0.1629365  , 0.421531618 , -0.0121379737, 0.03679684  , 2.381595    , 3.95        , 3           , 50          , 0           , 0
0.3686676   , 0.131714433 , -9.759944   , -7.013886E-05, 0.00127545488, -0.00106965739, -0.182351351, -0.163273558, 0.421329379 , -0.0121390745, 0.0368094668, 2.381584    , 3.96        , 3           , 11          , 0.006432522 , 0.006432516
0.3767324   , 0.119498156 , -9.778013   , -0.00232553459, 0.0004154791, -0.001364032, -0.182351351, -0.163273558, 0.421329379 , -0.0121628325, 0.0368134566, 2.38157     , 3.97        , 3           , 12          , 0.0618150048, 0
0.3414245   , 0.119920336 , -9.780541   , 0.002747901 , 0.002420812 , -0.002184902, -0.182486176, -0.1630039  , 0.4213968   , -0.0121361678, 0.0368373953, 2.38154817  , 3.98        , 3           , 50          , 0           , 0
0.3451147   , 0.12350364  , -9.78547    , -0.00230406062, -0.003526423, 0.00202034251, -0.182418764, -0.1634758  , 0.4214642   , -0.01215845 , 0.03680238  , 2.38156867  , 3.99        , 3           , 11          , 0.006432522 , 0.006432516
0.359414548 , 0.134264752 , -9.814695   , 0.003306818 , 0.00128219661, -0.00218463619, -0.182418764, -0.163273558, 0.4214642   , -0.0121569205, 0.0367717743, 2.38154531  , 4           , 3           , 12          , 0.062877506 , 0
0.3587208   , 0.118452571 , -9.80663    , 0.000787444063, -0.003240033, -0.0019208939, -0.182418764, -0.163273558, 0.4214642   , -0.0121497391, 0.03673914  , 2.38152623  , 4.01        , 3           , 50          , 0           , 0
0.361147076 , 0.143999487 , -9.764019   , 0.000772674 , 0.000138756761, 0.001474763 , -0.182216525, -0.163408384, 0.421329379 , -0.0121414689, 0.0367407   , 2.38154149  , 4.02        , 3           , 11          , 0.00635708775, 0.006357081
0.349248946 , 0.125289127 , -9.794018   , -0.000641669845, 0.000410768029, 5.592474E-05, -0.182621   , -0.163138732, 0.42159903  , -0.0121478681, 0.0367448181, 2.38154149  , 4.03        , 3           , 12          , 0.062877506 , 0
0.359030724 , 0.106726393 , -9.809387   , 0.000486153935, 0.000699970638, -0.0007859858, -0.182283938, -0.163408384, 0.421194553 , -0.012143299, 0.03675172  , 2.38153386  , 4.04        , 3           , 50          , 0           , 0
0.3554776   , 0.127357066 , -9.760063   , 0.00105387  , 0.000422232522, 0.00175905123, -0.182283938, -0.163408384, 0.421194553 , -0.0121321138, 0.0367561653, 2.3815515   , 4.05        , 3           , 11          , 0.00635708775, 0.006357081
0.355821937 , 0.1116416   , -9.78408051 , -0.0006346998, -0.0009970574, 5.37550477E-05, -0.182418764, -0.163273558, 0.421194553 , -0.0121384384, 0.0367462   , 2.381552    , 4.06        , 3           , 12          , 0.062877506 , 0
0.346753716 , 0.109952368 , -9.786869   , 0.0004958231, -0.0009894136, 0.00147171039, -0.182486176, -0.1630039  , 0.4214642   , -0.0121329362, 0.0367364846, 2.38156724  , 4.07        , 3           , 50          , 0           , 0
0.3499971   , 0.113992155 , -9.7918     , -0.00233302778, -0.0004453918, -0.00164850336, -0.182418764, -0.1630039  , 0.421261966 , -0.0121568684, 0.0367318243, 2.38155055  , 4.08        , 3           , 11          , 0.00635708775, 0.006357081
0.3441191   , 0.110050783 , -9.806776   , 0.0004961494, -0.0009894122, 0.002036785 , -0.182418764, -0.1630039  , 0.421261966 , -0.0121511556, 0.0367221832, 2.381571    , 4.09        , 3           , 12          , 0.062877506 , 0
0.326930583 , 0.116069376 , -9.792419   , 0.00219615176, -0.0012844489, 0.00119662529, -0.182418764, -0.163138732, 0.4213968   , -0.0121162832, 0.0366412662, 2.38158441  , 4.1         , 3           , 50          , 0           , 0
0.331730485 , 0.106044754 , -9.780221   , -0.002313409, -0.00328596635, 0.000324904337, -0.182486176, -0.1629365  , 0.4214642   , -0.0121392831, 0.03660845  , 2.38158822  , 4.11        , 3           , 11          , 0.00628483  , 0.006284824
0.336979747 , 0.121379852 , -9.796388   , -0.002888762, -0.00103726273, 0.001455892 , -0.182486176, -0.1629365  , 0.42159903  , -0.0121676335, 0.03659825  , 2.38160253  , 4.12        , 3           , 12          , 0.063944824 , 0
0.351432025 , 0.116716385 , -9.801722   , 0.00219024974, -0.000158190378, 0.000633286138, -0.182486176, -0.1629365  , 0.42159903  , -0.0121454969, 0.03659675  , 2.3816092   , 4.13        , 3           , 50          , 0           , 0
0.350595057 , 0.0887367055, -9.797775   , 0.0002169541, -0.00101625768, -0.000224846473, -0.182486176, -0.1634758  , 0.421329379 , -0.0121434052, 0.03658656  , 2.38160729  , 4.14        , 3           , 11          , 0.00628483  , 0.006284824
0.334538639 , 0.106086932 , -9.802345   , -0.000915378, -0.000460766722, 5.32909071E-05, -0.182553589, -0.163206145, 0.421329379 , -0.0121525405, 0.03658196  , 2.38160729  , 4.15        , 3           , 12          , 0.063944824 , 0
0.341876984 , 0.119468376 , -9.781895   , -0.0012041966, 0.0006635798, -0.00135897752, -0.182351351, -0.1629365  , 0.4213968   , -0.0121650808, 0.03658843  , 2.381594    , 4.16        , 3           , 50          , 0           , 0
0.355789959 , 0.103581347 , -9.802194   , -0.0007767896, 0.000103319195, 0.000337354752, -0.182351351, -0.1629365  , 0.4213968   , -0.0121727269, 0.0365895033, 2.3815968   , 4.17        , 3           , 11          , 0.00628483  , 0.006284824
0.353897929 , 0.09505644  , -9.809927   , -7.067804E-05, -3.26915142E-05, -0.00078971975, -0.182486176, -0.163138732, 0.421194553 , -0.0121737225, 0.0365890749, 2.38158917  , 4.18        , 3           , 12          , 0.063944824 , 0
0.3422749   , 0.115847833 , -9.780099   , -0.001631611, 0.001505412 , -0.000653307536, -0.182553589, -0.163138732, 0.421261966 , -0.0121902851, 0.036604058 , 2.3815825   , 4.19        , 3           , 50          , 0           , 0
0.3476324   , 0.113937095 , -9.76741    , -0.00216005882, 0.000616494566, 5.003972E-05, -0.182418764, -0.163273558, 0.4214642   , -0.0121223852, 0.03649688  , 2.38158727  , 4.2         , 3           , 11          , 0.006213551 , 0.0062135444
0.3410854   , 0.09732798  , -9.770242   , -0.000454264518, -0.00162456569, 0.000195738641, -0.182418764, -0.163273558, 0.4214642   , -0.01212685 , 0.0364806578, 2.38158965  , 4.21        , 3           , 12          , 0.06501648  , 0
0.356772155 , 0.116577    , -9.779081   , 0.000110218469, -0.00147996168, 0.0007636643, -0.182418764, -0.163273558, 0.4214642   , -0.0121254614, 0.03646595  , 2.38159776  , 4.22        , 3           , 50          , 0           , 0
0.342110276 , 0.1299235   , -9.805353   , 0.000670030247, -0.000490664737, 0.0004852795, -0.182418764, -0.163340971, 0.421329379 , -0.0121185817, 0.0364611037, 2.38160253  , 4.23        , 3           , 11          , 0.006213551 , 0.0062135444
0.3476519   , 0.1375353   , -9.807087   , 0.00193000655, 0.00162966608, -0.0003531521, -0.182553589, -0.163071319, 0.421329379 , -0.0120994179, 0.0364773534, 2.38159871  , 4.24        , 3           , 12          , 0.06501648  , 0
0.374787569 , 0.102449745 , -9.800245   , 0.00121664291, 0.00303271483, -0.000919349666, -0.182283938, -0.163273558, 0.421127141 , -0.0120876  , 0.03650757  , 2.38158917  , 4.25        , 3           , 50          , 0           , 0
0.3617313   , 0.107574105 , -9.802584   , 0.000658714736, 0.001761855 , 0.000206213561, -0.182283938, -0.163273558, 0.421127141 , -0.0120809432, 0.03652521  , 2.381591    , 4.26        , 3           , 11          , 0.006213551 , 0.0062135444
0.3651459   , 0.134070173 , -9.777138   , 9.90664048E-05, 0.000772559 , 0.00076713576, -0.182418764, -0.163273558, 0.421261966 , -0.0120796748, 0.0365330279, 2.38159871  , 4.27        , 3           , 12          , 0.06501648  , 0
0.340573937 , 0.1262244   , -9.773741   , -0.002300657, 0.000474756875, -9.210437E-05, -0.182418764, -0.163138732, 0.421531618 , -0.0121027157, 0.0365377627, 2.38159776  , 4.28        , 3           , 50          , 0           , 0
0.344085872 , 0.145657748 , -9.794877   , -0.00103440788, 0.00132804457, -0.000932488765, -0.182486176, -0.163206145, 0.4213968   , -0.0121134054, 0.0365509242, 2.38158822  , 4.29        , 3           , 11          , 0.006213551 , 0.0062135444
0.3408589   , 0.13850677  , -9.80397    , 0.00163163641, 0.00231036334, -0.000636597455, -0.182486176, -0.163206145, 0.4213968   , -0.0121327378, 0.03651262  , 2.38158059  , 4.3         , 3           , 12          , 0.06609205  , 0
0.344636023 , 0.121256225 , -9.78638649 , 0.00220521772, 0.000765580451, 0.00120014336, -0.182283938, -0.163138732, 0.4214642   , -0.0121102491, 0.0365204178, 2.381592    , 4.31        , 3           , 50          , 0           , 0
0.337263554 , 0.1096325   , -9.792818   , 0.003473513 , 0.00133730634, 0.0014894749, -0.182486176, -0.163071319, 0.421531618 , -0.0120749744, 0.0365339629, 2.38160729  , 4.32        , 3           , 11          , 0.00614425261, 0.006144248
0.340031922 , 0.1114279   , -9.79957    , 0.00162933755, 0.002873496 , 0.000211882711, -0.182755828, -0.163340971, 0.421194553 , -0.0120586148, 0.0365627222, 2.3816092   , 4.33        , 3           , 12          , 0.06609205  , 0
0.3504945   , 0.118932873 , -9.786804   , -0.000908484741, 0.00201161  , -8.380886E-05, -0.182755828, -0.163340971, 0.421194553 , -0.0120677389, 0.0365828238, 2.38160825  , 4.34        , 3           , 50          , 0           , 0
0.3508333   , 0.105891056 , -9.800866   , -0.00174748281, 0.000316489371, -0.000231631886, -0.182486176, -0.163408384, 0.4214642   , -0.0120853009, 0.03658596  , 2.38160539  , 4.35        , 3           , 11          , 0.00614425261, 0.006144248
0.388223678 , 0.127092272 , -9.795068   , -0.000751855841, -0.00108465028, 5.3345073E-05, -0.182418764, -0.1629365  , 0.42159903  , -0.0120927952, 0.0365751274, 2.38160634  , 4.36        , 3           , 12          , 0.06609205  , 0
0.3813191   , 0.120831706 , -9.787916   , -0.000325961417, -0.00150413206, 0.000337206933, -0.182418764, -0.163138732, 0.421329379 , -0.0120959235, 0.03656012  , 2.38161016  , 4.37        , 3           , 50          , 0           , 0
0.3390951   , 0.114537627 , -9.781937   , -0.00047533118, 4.35185029E-05, -0.0005086773, -0.182418764, -0.163138732, 0.421329379 , -0.0121008614, 0.0365604945, 2.38160443  , 4.38        , 3           , 11          , 0.00614425261, 0.006144248
0.33305347  , 0.1335997   , -9.793656   , 0.0006381003, 0.00328915566, -0.0009222253, -0.182755828, -0.163071319, 0.421329379 , -0.012094833, 0.03659327  , 2.381595    , 4.39        , 3           , 12          , 0.06609205  , 0
0.3405787   , 0.155166879 , -9.792604   , -0.000214264364, 0.00269974419, -0.000503686548, -0.182418764, -0.163206145, 0.42159903  , -0.0121211056, 0.0365595967, 2.38158917  , 4.4         , 3           , 50          , 0           , 0
0.356769025 , 0.107201084 , -9.808498   , -0.0007677212, 0.000443404773, -8.59857246E-05, -0.182486176, -0.163408384, 0.421531618 , -0.0121288141, 0.0365640223, 2.3815887   , 4.41        , 3           , 11          , 0.0060768025, 0.006076798
0.360342681 , 0.104441077 , -9.805319   , -0.000203646123, 0.000588006864, -0.000224403615, -0.182486176, -0.163408384, 0.421531618 , -0.0121309375, 0.03656988  , 2.38158631  , 4.42        , 3           , 12          , 0.06717114  , 0
0.353091955 , 0.106306553 , -9.798135   , 0.00304147438, 0.00117310171, -0.000208391022, -0.182486176, -0.163206145, 0.4213968   , -0.0121006044, 0.03658159  , 2.38158441  , 4.43        , 3           , 50          , 0           , 0
0.358937383 , 0.131572247 , -9.817421   , 0.00445348257, 0.00132343674, 0.000787291734, -0.182486176, -0.163138732, 0.421666443 , -0.0120557873, 0.0365949161, 2.381592    , 4.44        , 3           , 11          , 0.0060768025, 0.006076798
0.351516157 , 0.12972872  , -9.780423   , 0.00120828045, 0.0007383416, 0.0006300103, -0.182621   , -0.163206145, 0.421531618 , -0.012043477, 0.03660237  , 2.38159776  , 4.45        , 3           , 12          , 0.06717114  , 0
0.337137222 , 0.107744746 , -9.767968   , -0.0009029507, -0.0006838084, 0.0006179637, -0.182418764, -0.163206145, 0.421261966 , -0.0120522771, 0.03659561  , 2.38160443  , 4.46        , 3           , 50          , 0           , 0
0.339021385 , 0.105550885 , -9.792823   , -0.0024546592, -0.0009758773, 0.00103409286, -0.182418764, -0.163206145, 0.421261966 , -0.0120764421, 0.0365859829, 2.381615    , 4.47        , 3           , 11          , 0.0060768025, 0.006076798
0.368067354 , 0.111068092 , -9.790318   , -0.00147120771, 1.628448E-05, 0.00075768336, -0.182351351, -0.163273558, 0.421531618 , -0.0120908786, 0.0365862362, 2.38162255  , 4.48        , 3           , 12          , 0.06717114  , 0
0.3803621   , 0.116783485 , -9.788393   , -0.000201065661, 0.00016566155, 0.0006225579, -0.182688415, -0.163273558, 0.4213968   , -0.0120926611, 0.03658797  , 2.38162827  , 4.49        , 3           , 50          , 0           , 0
0.3426913   , 0.106886    , -9.800021   , 0.000369956339, 2.28225545E-05, 0.000342684769, -0.182553589, -0.1634758  , 0.42159903  , -0.0120717883, 0.0365705155, 2.381633    , 4.5         , 3           , 11          , 0.00601162435, 0.0060116197
0.3455012   , 0.122105554 , -9.773721   , 0.00135767169, 0.000170289626, 0.000206242228, -0.182553589, -0.1634758  , 0.42159903  , -0.0120581351, 0.03657224  , 2.38163543  , 4.51        , 3           , 12          , 0.06825336  , 0
0.355938017 , 0.1576356   , -9.775302   , 0.00065656536, -0.0008199626, 0.000342699874, -0.182418764, -0.163206145, 0.4214642   , -0.0120514408, 0.0365640856, 2.38163877  , 4.52        , 3           , 50          , 0           , 0
0.346342236 , 0.142946944 , -9.80165    , -0.000756429, -0.0006887307, 5.37948326E-05, -0.182621   , -0.163138732, 0.42159903  , -0.0120589826, 0.036557205 , 2.38163972  , 4.53        , 3           , 11          , 0.00601162435, 0.0060116197
0.357323617 , 0.111295462 , -9.82023048 , -0.00216663536, -0.001120629, -0.000235978121, -0.182486176, -0.163340971, 0.42159903  , -0.01208073 , 0.0365459658, 2.38163733  , 4.54        , 3           , 12          , 0.06825336  , 0
0.361495227 , 0.123377286 , -9.804779   , -0.002871145, -0.00140696822, 4.28329731E-05, -0.182486176, -0.163340971, 0.42159903  , -0.0121094184, 0.0365319   , 2.38163781  , 4.55        , 3           , 50          , 0           , 0
0.357652843 , 0.108065553 , -9.800353   , -0.000479333336, 0.000439440715, 0.000480653631, -0.182823241, -0.163138732, 0.42159903  , -0.0121140378, 0.036536362 , 2.38164258  , 4.56        , 3           , 11          , 0.00601162435, 0.0060116197
0.345270634 , 0.100047536 , -9.788278   , 0.0009341947, 0.000167425431, 0.000486804376, -0.182755828, -0.1630039  , 0.421666443 , -0.012104515, 0.0365380831, 2.38164735  , 4.57        , 3           , 12          , 0.06825336  , 0
0.3597322   , 0.102979556 , -9.771432   , 0.0006497212, 0.000447077357, -0.0006442285, -0.182688415, -0.163071319, 0.421531618 , -0.0120982546, 0.0365424752, 2.38164115  , 4.58        , 3           , 50          , 0           , 0
0.346271127 , 0.102345563 , -9.80408    , 0.00163702865, 0.000594542536, -0.00148701458, -0.182688415, -0.163071319, 0.421531618 , -0.0120824315, 0.036548242 , 2.38162637  , 4.59        , 3           , 11          , 0.00601162435, 0.0060116197
0.355981469 , 0.120697871 , -9.793985   , 0.0015128206, 1.66656719E-05, -0.0004991388, -0.182486176, -0.163206145, 0.421666443 , -0.012025238, 0.0365057625, 2.38162351  , 4.6         , 3           , 12          , 0.06933836  , 0
0.3774045   , 0.1285975   , -9.802377   , 0.000379665464, 0.0008537245, 0.0007683139, -0.182688415, -0.163138732, 0.421666443 , -0.0120211653, 0.036514394 , 2.38163114  , 4.61        , 3           , 50          , 0           , 0
0.376345843 , 0.118218042 , -9.798361   , -0.00103062252, 0.000421825884, 0.000337272184, -0.182486176, -0.163206145, 0.4219361   , -0.01203135 , 0.0365186445, 2.381635    , 4.62        , 3           , 11          , 0.00594765972, 0.005947656
0.339738548 , 0.132987171 , -9.7692     , -0.00102873181, -0.000141308527, -0.00121755188, -0.182486176, -0.163206145, 0.4219361   , -0.0120420828, 0.0365170874, 2.38162255  , 4.63        , 3           , 12          , 0.06933836  , 0
0.378267646 , 0.09916751  , -9.7758255  , 0.0009462095, 0.000153623187, -0.00233804947, -0.182553589, -0.163273558, 0.421531618 , -0.0120334746, 0.03651834  , 2.38159919  , 4.64        , 3           , 50          , 0           , 0
0.393426836 , 0.105417065 , -9.808227   , 0.00348001323, 0.0018602052, -0.0017585184, -0.182486176, -0.163206145, 0.421666443 , -0.0119993268, 0.0365367346, 2.38158154  , 4.65        , 3           , 11          , 0.00594765972, 0.005947656
0.34834373  , 0.118158437 , -9.817105   , 0.00292351632, 0.000448566425, 0.0006382467, -0.182621   , -0.163340971, 0.421868682 , -0.0119698588, 0.0365412943, 2.38158727  , 4.66        , 3           , 12          , 0.06933836  , 0
0.354761481 , 0.103938818 , -9.771013   , 0.00166120427, -0.00124941778, 0.001053523 , -0.182621   , -0.163340971, 0.421868682 , -0.0119528575, 0.03652893  , 2.38159823  , 4.67        , 3           , 50          , 0           , 0
0.375856578 , 0.124442711 , -9.769411   , 0.00109122694, -0.000267761265, 0.00062860176, -0.182418764, -0.163273558, 0.42159903  , -0.0119417142, 0.03652633  , 2.38160443  , 4.68        , 3           , 11          , 0.00594765972, 0.005947656
0.35559082  , 0.118968152 , -9.814787   , 0.000109413908, -0.00154148717, 0.00132838357, -0.182958066, -0.163273558, 0.42159903  , -0.0119401272, 0.03651108  , 2.38161778  , 4.69        , 3           , 12          , 0.06933836  , 0
0.343659043 , 0.115406424 , -9.787775   , 0.000956737669, -0.0009599342, 0.0007685036, -0.182553589, -0.163071319, 0.421733856 , -0.0119202752, 0.0365416966, 2.38162732  , 4.7         , 3           , 50          , 0           , 0
0.362854481 , 0.129610926 , -9.784856   , -0.00102242245, -0.0005509567, 0.000618667167, -0.182486176, -0.163340971, 0.421531618 , -0.011930272, 0.03653626  , 2.381633    , 4.71        , 3           , 11          , 0.00588567276, 0.00588566856
0.3416699   , 0.129046142 , -9.811236   , -0.00257515488, -0.0007022445, 0.000469938474, -0.182486176, -0.163340971, 0.421531618 , -0.011955848, 0.0365292951, 2.38163781  , 4.72        , 3           , 12          , 0.0704258159, 0
0.328818858 , 0.117003329 , -9.80822    , -0.000323325658, 0.0008616434, 0.0006241292, -0.182553589, -0.163206145, 0.421868682 , -0.011958858, 0.03653799  , 2.38164449  , 4.73        , 3           , 50          , 0           , 0
0.3685146   , 0.113736413 , -9.78036    , -0.0003216425, 0.00043929377, -8.28654738E-05, -0.182486176, -0.163206145, 0.421666443 , -0.0119621065, 0.03654237  , 2.38164353  , 4.74        , 3           , 11          , 0.00588567276, 0.00588566856
0.3654238   , 0.114283748 , -9.798009   , -0.00144851732, -0.000272261881, -0.00121936784, -0.182418764, -0.163273558, 0.421666443 , -0.0119770365, 0.0365395   , 2.38163114  , 4.75        , 3           , 12          , 0.0704258159, 0
0.3641252   , 0.114348076 , -9.812481   , -0.0007373708, -0.00111217785, 0.000336578756, -0.182418764, -0.163273558, 0.421666443 , -0.011984284, 0.03652842  , 2.381635    , 4.76        , 3           , 50          , 0           , 0
0.369541764 , 0.121858604 , -9.783934   , 0.0009580502, -0.00124149979, 0.000626800931, -0.182621   , -0.163138732, 0.421666443 , -0.0119744688, 0.0365160927, 2.38164115  , 4.77        , 3           , 11          , 0.00588567276, 0.00588566856
0.328343    , 0.1236852   , -9.781077   , 0.00137693738, -0.0003939424, -0.000358803, -0.182486176, -0.163138732, 0.421733856 , -0.01196083 , 0.03651211  , 2.38163781  , 4.78        , 3           , 12          , 0.0704258159, 0
0.353890717 , 0.103084929 , -9.782324   , -0.000463100558, 0.00043833768, -0.00050733 , -0.182553589, -0.163340971, 0.42159903  , -0.0119656473, 0.03651643  , 2.38163257  , 4.79        , 3           , 50          , 0           , 0
0.3394934   , 0.103775725 , -9.803223   , -0.00103671919, 0.00267937  , 5.864106E-05, -0.182553589, -0.163340971, 0.42159903  , -0.0119693242, 0.03651845  , 2.38163352  , 4.8         , 3           , 11          , 0.005825327 , 0.00582532166
0.3443973   , 0.105886854 , -9.777412   , -0.0013146376, 0.00183276646, 0.0006210972, -0.182553589, -0.163071319, 0.4214642   , -0.01198225 , 0.0365368426, 2.38163972  , 4.81        , 3           , 12          , 0.07151538  , 0
0.376940429 , 0.10858205  , -9.753198   , -0.00229029637, -0.000848788652, -9.397802E-05, -0.182553589, -0.163071319, 0.421666443 , -0.0120051829, 0.03652834  , 2.38163877  , 4.82        , 3           , 50          , 0           , 0
0.354456    , 0.116561249 , -9.766444   , -0.00144207431, -0.0009838402, 0.000333562057, -0.182553589, -0.163273558, 0.421733856 , -0.0120194778, 0.0365185477, 2.381642    , 4.83        , 3           , 11          , 0.005825327 , 0.00582532166
0.342951566 , 0.09869041  , -9.779262   , 0.000385417661, 0.0007179654, 0.000485994475, -0.182553589, -0.163273558, 0.421733856 , -0.012015447, 0.0365257859, 2.38164639  , 4.84        , 3           , 12          , 0.07151538  , 0
0.335558981 , 0.115096316 , -9.801397   , 0.00236597215, 2.74229023E-05, 0.0006353969, -0.182621   , -0.163206145, 0.42159903  , -0.0119915549, 0.0365261324, 2.381653    , 4.85        , 3           , 50          , 0           , 0
0.334069669 , 0.131893322 , -9.826199   , 0.000396814547, -0.00153455406, 0.000906329253, -0.182688415, -0.163071319, 0.421868682 , -0.0119872475, 0.0365108959, 2.38166261  , 4.86        , 3           , 11          , 0.005825327 , 0.00582532166
0.362366766 , 0.127802566 , -9.782156   , 0.00122917572, 0.00128682225, -0.000780605653, -0.182553589, -0.163206145, 0.421666443 , -0.0119752474, 0.0365236737, 2.3816545   , 4.87        , 3           , 12          , 0.07151538  , 0
0.361291438 , 0.112499766 , -9.789911   , 0.00418862933, 0.00257392088, -0.000341018953, -0.182553589, -0.163206145, 0.421666443 , -0.0119334962, 0.03654937  , 2.38165069  , 4.88        , 3           , 50          , 0           , 0
0.3633381   , 0.133647844 , -9.779412   , 0.0016519113, 0.00157125434, 6.94161863E-05, -0.182890654, -0.163273558, 0.4214642   , -0.01191696 , 0.0365650877, 2.38165116  , 4.89        , 3           , 11          , 0.005825327 , 0.00582532166
0.3651755   , 0.1260598   , -9.810165   , -0.0001840677, 0.000421900681, -0.000788717356, -0.182553589, -0.163071319, 0.42159903  , -0.0119365742, 0.0365339331, 2.38164353  , 4.9         , 3           , 12          , 0.07260678  , 0
0.361885935 , 0.117519081 , -9.808417   , -0.0004611632, -0.0007062707, -0.00121557631, -0.182688415, -0.163138732, 0.42159903  , -0.0119416267, 0.03652673  , 2.38163114  , 4.91        , 3           , 50          , 0           , 0
0.382104158 , 0.141627714 , -9.802287   , -0.00159148593, -0.000573127531, -0.00107935828, -0.182688415, -0.163138732, 0.42159903  , -0.0119579332, 0.03652087  , 2.38162065  , 4.92        , 3           , 11          , 0.00576644  , 0.00576643459
0.382213682 , 0.126168355 , -9.768      , -0.00060229504, -0.0007072253, -0.001074966, -0.182486176, -0.163273558, 0.4213968   , -0.0119643463, 0.036513675 , 2.38161016  , 4.93        , 3           , 12          , 0.07260678  , 0
0.371224254 , 0.1244112   , -9.744136   , 0.0003872222, -0.000841321365, -0.0005054988, -0.182755828, -0.163273558, 0.42159903  , -0.0119606555, 0.0365052   , 2.38160539  , 4.94        , 3           , 50          , 0           , 0
0.360050082 , 0.121983834 , -9.788074   , -0.000603162451, -0.0002848717, 0.00104471587, -0.182823241, -0.163340971, 0.421666443 , -0.0119663039, 0.03650248  , 2.38161588  , 4.95        , 3           , 11          , 0.00576644  , 0.00576643459
0.347127    , 0.130786955 , -9.811187   , -0.00158997322, -0.000713906134, 0.000333112024, -0.182418764, -0.1634758  , 0.42159903  , -0.0119820777, 0.0364953838, 2.38161874  , 4.96        , 3           , 12          , 0.07260678  , 0
0.352084279 , 0.129370511 , -9.809799   , -0.002013161, -0.000857554842, -9.288656E-05, -0.182418764, -0.1634758  , 0.42159903  , -0.012002239, 0.0364867933, 2.38161826  , 4.97        , 3           , 50          , 0           , 0
0.3439148   , 0.111224338 , -9.752987   , -0.00117850828, 0.00168226077, -0.000226299118, -0.182486176, -0.163071319, 0.421733856 , -0.0120141143, 0.0365035869, 2.38161588  , 4.98        , 3           , 11          , 0.00576644  , 0.00576643459
0.357156873 , 0.117855594 , -9.758283   , -0.00033241426, 0.00182877085, -0.00106974377, -0.182755828, -0.163340971, 0.421666443 , -0.0120178377, 0.0365217477, 2.38160443  , 4.99        , 3           , 12          , 0.07260678  , 0
0.3784938   , 0.11006318  , -9.796118   , -0.0008999719, 0.000276476581, -8.62497E-05, -0.182351351, -0.163273558, 0.421531618 , -0.0120638376, 0.03652492  , 2.38160253  , 5           , 3           , 50          , 0           , 0
0.382997155 , 0.112221941 , -9.782967   , -0.0008993564, 0.000135693655, -0.000227735436, -0.182351351, -0.163273558, 0.421531618 , -0.0120729143, 0.03652625  , 2.38160062  , 5.01        , 3           , 11          , 0.00570935244, 0.00570934732
0.341913283 , 0.125746712 , -9.770569   , 0.0005057705, 0.00141228281, -0.00149061659, -0.182553589, -0.163340971, 0.421666443 , -0.0120684095, 0.0365402   , 2.38158536  , 5.02        , 3           , 12          , 0.07369972  , 0
0.336752921 , 0.109590963 , -9.7788105  , 0.00050269335, 0.00211619749, -0.0007831881, -0.182688415, -0.163138732, 0.421733856 , -0.01206368 , 0.0365612581, 2.38157725  , 5.03        , 3           , 50          , 0           , 0
0.367113352 , 0.106129646 , -9.794414   , -0.000905629364, 0.00140273641, -0.0002257827, -0.182486176, -0.163138732, 0.421666443 , -0.012072823, 0.0365752578, 2.38157487  , 5.04        , 3           , 11          , 0.00570935244, 0.00570934732
0.34057492  , 0.119976304 , -9.79410648 , -0.0008981699, -5.086531E-06, 0.00061966  , -0.182486176, -0.163138732, 0.421666443 , -0.0120815784, 0.03657528  , 2.381581    , 5.05        , 3           , 12          , 0.07369972  , 0
0.321751773 , 0.105254844 , -9.778944   , 0.000233012819, -0.000279011263, 0.000765762641, -0.182418764, -0.163408384, 0.421666443 , -0.0120789679, 0.036572583 , 2.3815887   , 5.06        , 3           , 50          , 0           , 0
0.346522629 , 0.09235747  , -9.786944   , 0.00108181324, -0.0006956317, -0.000219818525, -0.182621   , -0.163340971, 0.421666443 , -0.012068226, 0.0365656   , 2.38158679  , 5.07        , 3           , 11          , 0.00570935244, 0.00570934732
0.3661626   , 0.102979213 , -9.79352951 , 0.00333938166, -0.0002580031, 0.00021517399, -0.182553589, -0.1630039  , 0.42159903  , -0.0120347524, 0.03656305  , 2.38158917  , 5.08        , 3           , 12          , 0.07369972  , 0
0.37642765  , 0.135692    , -9.762128   , 0.00192724774, -0.000267552969, 0.000208589336, -0.182553589, -0.1630039  , 0.42159903  , -0.0120154023, 0.0365603976, 2.381591    , 5.09        , 3           , 50          , 0           , 0
