Acc X       , Acc Y       , Acc Z       , Gyro X      , Gyro Y      , Gyro Z      , Magn X      , Magn Y      , Magn Z      , Euler X     , Euler Y     , Euler Z     , Time        , Status      , LowRate X   , LowRate Y   , LowRate Z    
0.3945637   , -0.04981164 , -9.810217   , -0.000229636091, -6.279624E-05, 0.0004120433, -0.162397191, -0.1810705  , 0.426048279 , 0.007672305 , 0.04124536  , 2.23648286  , 0           , 3           , 11          , 0.0346410163, 0.0346410163
0.379643559 , -0.0505113043, -9.81847    , -9.981941E-05, 0.00219067815, -7.632889E-06, -0.162329778, -0.181205332, 0.425778627 , 0.007671314 , 0.0412672572, 2.23648334  , 0.01        , 3           , 12          , 0.0346410163, 0
0.422689557 , -0.06877071 , -9.772114   , 0.000893924152, 0.00107110117, -0.000569834257, -0.162194952, -0.180935681, 0.4256438   , 0.00768002169, 0.0412780121, 2.23647761  , 0.02        , 3           , 50          , 0           , 0
0.399620473 , -0.0702664256, -9.783596   , -0.000361336221, -0.00203470769, -1.54588633E-05, -0.162666842, -0.1810031  , 0.42584604  , 0.007676397 , 0.0412576646, 2.23647714  , 0.03        , 3           , 11          , 0.0346410163, 0.0346410163
0.3926939   , -0.0836864561, -9.794101   , 6.28378548E-05, -0.00217262632, -0.000296237937, -0.1624646  , -0.181205332, 0.425778627 , 0.00767689431, 0.0412359573, 2.23647428  , 0.04        , 3           , 12          , 0.0346410163, 0
0.389240921 , -0.103964657, -9.790144   , -0.000221064562, -0.00189297169, -0.0004383897, -0.1624646  , -0.181205332, 0.425778627 , 0.00767450035, 0.04121706  , 2.23646951  , 0.05        , 3           , 50          , 0           , 0
0.4132323   , -0.0699566  , -9.788915   , -0.000924959, -0.00232009357, -0.000301064138, -0.1624646  , -0.181272745, 0.4256438   , 0.00766511727, 0.04119388  , 2.23646665  , 0.06        , 3           , 11          , 0.0346410163, 0.0346410163
0.395940334 , -0.08544662 , -9.81849    , -0.00107236381, -0.00105400546, -0.000158501163, -0.1624646  , -0.181205332, 0.425778627 , 0.00765432557, 0.0411833525, 2.23646474  , 0.07        , 3           , 12          , 0.0346410163, 0
0.394083858 , -0.07608877 , -9.777334   , 4.81565621E-05, 0.0009245925, 0.000838685257, -0.162397191, -0.1815424  , 0.426048279 , 0.00765515445, 0.0411925428, 2.23647332  , 0.08        , 3           , 50          , 0           , 0
0.412939131 , -0.0858164355, -9.768191   , 0.0008910918, 0.00177501678, 0.000561400433, -0.162397191, -0.1815424  , 0.426048279 , 0.007664306 , 0.04121024  , 2.236479    , 0.09        , 3           , 11          , 0.0346410163, 0.0346410163
0.4026562   , -0.07978537 , -9.781353   , -0.00108003069, 0.000494602369, -0.000156115639, -0.162397191, -0.181137919, 0.42584604  , 0.007653441 , 0.0412151963, 2.23647761  , 0.1         , 3           , 12          , 0.0346410163, 0
0.392824918 , -0.0701897144, -9.782744   , 5.43037459E-05, -0.000201664923, 0.00182582962, -0.162329778, -0.181137919, 0.42584604  , 0.007654739 , 0.04121305  , 2.23649573  , 0.11        , 3           , 50          , 0           , 0
0.4067204   , -0.07939566 , -9.777252   , 0.00202858518, 0.0003748354, 0.00197718479, -0.162194952, -0.181340158, 0.42584604  , 0.00767583773, 0.0412166342, 2.23651528  , 0.12        , 3           , 11          , 0.0346410163, 0.0346410163
0.389479458 , -0.08636371 , -9.791877   , -0.0002356198, 0.001063462 , -0.000292565848, -0.162262365, -0.181272745, 0.425778627 , 0.007673365 , 0.0412273   , 2.23651242  , 0.13        , 3           , 12          , 0.0346410163, 0
0.389368355 , -0.06287132 , -9.799915   , -0.00164980069, 0.00133547408, -0.00142886664, -0.162262365, -0.181272745, 0.425778627 , 0.00765628228, 0.0412407666, 2.23649859  , 0.14        , 3           , 50          , 0           , 0
0.413499    , -0.0496547967, -9.788828   , -0.001504531, 0.0006325192, -0.000440411823, -0.162262365, -0.181205332, 0.42584604  , 0.007641054 , 0.04124712  , 2.2364943   , 0.15        , 3           , 11          , 0.0346410163, 0.0346410163
0.401342571 , -0.0721452  , -9.767772   , -0.00248695933, -0.0005004237, 0.0004008558, -0.162262365, -0.181137919, 0.425980866 , 0.007616349 , 0.0412420854, 2.236498    , 0.16        , 3           , 12          , 0.0346410163, 0
0.402202338 , -0.08379808 , -9.794028   , -0.00191784219, -0.00134129857, 0.0005434566, -0.162329778, -0.181205332, 0.4257112   , 0.00759738963, 0.0412286334, 2.23650336  , 0.17        , 3           , 50          , 0           , 0
0.397574574 , -0.0602434576, -9.804813   , -0.001489857, -0.002183128, 0.00082666747, -0.162329778, -0.181205332, 0.4257112   , 0.00758282328, 0.04120674  , 2.23651147  , 0.18        , 3           , 11          , 0.0346410163, 0.0346410163
0.408489764 , -0.0830216  , -9.778609   , -0.00106724 , -0.00203948212, 0.000263784925, -0.162262365, -0.181272745, 0.42584604  , 0.0075722537, 0.04118633  , 2.23651433  , 0.19        , 3           , 12          , 0.0346410163, 0
0.416206121 , -0.08265023 , -9.78171349 , 0.000482622185, -0.00132506539, 0.00027211124, -0.162329778, -0.181137919, 0.42584604  , 0.00757717527, 0.04117303  , 2.23651671  , 0.2         , 3           , 50          , 0           , 0
0.4037231   , -0.07341638 , -9.800302   , 0.000200440089, -0.00132697413, 0.0006946005, -0.162397191, -0.181205332, 0.4257112   , 0.0075794626, 0.0411597081, 2.23652339  , 0.21        , 3           , 11          , 0.03466991  , 0.0346699134
0.406676859 , -0.08791159 , -9.794011   , 0.000760741241, -0.0003376748, 0.00126382813, -0.162397191, -0.181205332, 0.4257112   , 0.00758758839, 0.04115624  , 2.23653626  , 0.22        , 3           , 12          , 0.0346688144, 0
0.4091986   , -0.104616433, -9.799936   , 0.000890024 , 0.00205658283, 0.00112690625, -0.162262365, -0.181272745, 0.425913453 , 0.007596959 , 0.041176714 , 2.23654771  , 0.23        , 3           , 50          , 0           , 0
0.42528668  , -0.08184366 , -9.784803   , -0.001085036, 0.00162086461, 0.0008344993, -0.162397191, -0.180935681, 0.425980866 , 0.00758645637, 0.0411928557, 2.23655581  , 0.24        , 3           , 11          , 0.03466991  , 0.0346699134
0.409945935 , -0.07670933 , -9.782188   , -0.00333526335, -0.000365373562, -0.000167954757, -0.162532017, -0.181137919, 0.425913453 , 0.00755303446, 0.0411892124, 2.23655438  , 0.25        , 3           , 12          , 0.0346688144, 0
0.421803117 , -0.07320809 , -9.791122   , -0.00234184624, -0.001484952, -0.001295231, -0.162532017, -0.181137919, 0.425913453 , 0.00752907852, 0.04117446  , 2.236541    , 0.26        , 3           , 50          , 0           , 0
0.415331781 , -0.0781507641, -9.774921   , 0.0006238357, -0.00132411055, 0.000272769743, -0.162397191, -0.181137919, 0.42584604  , 0.00753542362, 0.0411612019, 2.236544    , 0.27        , 3           , 11          , 0.03466991  , 0.0346699134
0.410733581 , -0.0875279456, -9.788102   , 0.00132621033, -0.000474638044, 0.00112497632, -0.162734255, -0.181137919, 0.4261157   , 0.00754914852, 0.0411563739, 2.23655486  , 0.28        , 3           , 12          , 0.0346688144, 0
0.397676    , -0.0766021  , -9.771434   , -0.00121427421, -0.0009141789, -0.000158945564, -0.1624646  , -0.181205332, 0.42584604  , 0.007536939 , 0.0411472432, 2.23655343  , 0.29        , 3           , 50          , 0           , 0
0.401745945 , -0.08870554 , -9.808968   , -0.002181429, -0.00061621744, -0.000162359021, -0.1624646  , -0.181205332, 0.42584604  , 0.00798411  , 0.0416163355, 2.236571    , 0.3         , 3           , 11          , 0.0347534344, 0.0347534381
0.418261975 , -0.07443889 , -9.81511    , 6.769365E-05, 0.00151080138, 0.000133968322, -0.1624646  , -0.181272745, 0.425778627 , 0.007984848 , 0.04163143  , 2.2365725   , 0.31        , 3           , 12          , 0.03475388  , 0
0.401670545 , -0.09233743 , -9.802203   , -0.0006435787, 0.00249150256, -0.0004328801, -0.162532017, -0.181205332, 0.425913453 , 0.007978241 , 0.04165638  , 2.23656869  , 0.32        , 3           , 50          , 0           , 0
0.392031968 , -0.06919513 , -9.807154   , -7.085762E-05, 0.0010875013, 0.00112154032, -0.162397191, -0.181205332, 0.425913453 , 0.007978003 , 0.0416671671, 2.23658013  , 0.33        , 3           , 11          , 0.0347534344, 0.0347534381
0.4242916   , -0.0543059781, -9.785149   , 0.00162890868, 0.000113484944, 0.00169299787, -0.162397191, -0.181205332, 0.425913453 , 0.007994998 , 0.04166816  , 2.23659635  , 0.34        , 3           , 12          , 0.03475388  , 0
0.402959347 , -0.0554368  , -9.777182   , 0.000359181548, -0.0003174619, 0.000132464673, -0.162329778, -0.181272745, 0.4255764   , 0.007998645 , 0.04166498  , 2.23659825  , 0.35        , 3           , 50          , 0           , 0
0.398621529 , -0.0805975  , -9.794043   , -0.00161300891, -0.00131630979, -1.954124E-05, -0.162532017, -0.181205332, 0.425913453 , 0.007982504 , 0.04165182  , 2.2365973   , 0.36        , 3           , 11          , 0.0347534344, 0.0347534381
0.395972848 , -0.0742615759, -9.790421   , -0.00119137787, -0.0008910967, 0.0001243538, -0.162666842, -0.1810705  , 0.425980866 , 0.007970639 , 0.0416429   , 2.23659873  , 0.37        , 3           , 12          , 0.03475388  , 0
0.413205773 , -0.07310256 , -9.792543   , -0.0013336963, -0.000751271262, -0.000582431443, -0.162329778, -0.181407571, 0.42584604  , 0.007957055 , 0.04163543  , 2.23659253  , 0.38        , 3           , 50          , 0           , 0
0.38684535  , -0.115649849, -9.795633   , -0.0009084544, -0.00117075641, -0.00142871938, -0.162329778, -0.181407571, 0.42584604  , 0.007947373 , 0.04162384  , 2.23657823  , 0.39        , 3           , 11          , 0.0347534344, 0.0347534381
0.4177286   , -0.09986664 , -9.766405   , 0.0005136564, -0.0004805319, -0.000290196476, -0.162262365, -0.181137919, 0.425980866 , 0.0080704   , 0.0414052457, 2.23658013  , 0.4         , 3           , 12          , 0.0348953679, 0
0.402768433 , -0.07166012 , -9.782675   , 0.0005166892, -0.00104366092, 0.0001327419, -0.162666842, -0.1810705  , 0.425980866 , 0.008075617 , 0.0413947962, 2.23658156  , 0.41        , 3           , 50          , 0           , 0
0.414355725 , -0.0853389055, -9.780834   , 0.00192177179, 0.000373713963, 2.274021E-07, -0.162329778, -0.181205332, 0.425913453 , 0.008094837 , 0.0413985327, 2.23658156  , 0.42        , 3           , 11          , 0.0177032575, 0.01770351
0.406805933 , -0.0797727257, -9.799401   , 0.000438152318, 0.000434075366, -0.0009248246, -0.162329778, -0.181205332, 0.425913453 , 0.008098834 , 0.04140295  , 2.2365725   , 0.43        , 3           , 12          , 0.0348953679, 0
0.4149244   , -0.07721593 , -9.783056   , 0.001079248 , -0.000617494341, -0.000217145251, -0.162397191, -0.1810031  , 0.425980866 , 0.008109537 , 0.0413967967, 2.23657012  , 0.44        , 3           , 50          , 0           , 0
0.393647373 , -0.04668527 , -9.797556   , 0.00192394422, -4.86332574E-05, 0.0001408452, -0.162329778, -0.181205332, 0.42584604  , 0.008128835 , 0.0413962938, 2.23657155  , 0.45        , 3           , 11          , 0.0177032575, 0.01770351
0.40736562  , -0.07121071 , -9.798004   , 0.00228616153, -0.001876418, 0.0003515739, -0.162329778, -0.181340158, 0.42584604  , 0.008151836 , 0.0413775034, 2.236575    , 0.46        , 3           , 12          , 0.0348953679, 0
0.4040341   , -0.08112453 , -9.790387   , 0.00256442861, -0.00110020582, -0.000210990635, -0.162329778, -0.181340158, 0.42584604  , 0.00817739  , 0.04136652  , 2.2365725   , 0.47        , 3           , 50          , 0           , 0
0.408558875 , -0.08028747 , -9.786733   , 0.0007280607, -0.00104223052, -0.000643248437, -0.162329778, -0.181474984, 0.425980866 , 0.008184401 , 0.04135616  , 2.23656631  , 0.48        , 3           , 11          , 0.0177032575, 0.01770351
0.4061564   , -0.0585761331, -9.793894   , 8.710586E-05, 7.97327157E-05, -0.000503207033, -0.162532017, -0.1810705  , 0.425913453 , 0.008185065 , 0.041356992 , 2.236561    , 0.49        , 3           , 12          , 0.0348953679, 0
0.3964439   , -0.074698396, -9.796295   , -0.000384186453, 0.00134985684, -1.056431E-05, -0.162194952, -0.181340158, 0.425913453 , 0.00798049849, 0.04139915  , 2.23655248  , 0.5         , 3           , 50          , 0           , 0
0.404063284 , -0.08199357 , -9.800334   , -0.00157523539, -0.0004884325, 0.0003341899, -0.162194952, -0.181340158, 0.425913453 , 0.007964881 , 0.0413942449, 2.23655629  , 0.51        , 3           , 11          , 0.013438154 , 0.0134382751
0.3994434   , -0.08290772 , -9.780938   , -0.00150891091, 0.000286346854, -0.000441265467, -0.1624646  , -0.181205332, 0.425913453 , 0.007949609 , 0.0413971432, 2.23655152  , 0.52        , 3           , 12          , 0.03509215  , 0
0.390805781 , -0.08685197 , -9.78554    , -0.0003078184, 0.000153682122, -0.0002946166, -0.162329778, -0.1810031  , 0.425913453 , 0.007946409 , 0.0413987   , 2.23654866  , 0.53        , 3           , 50          , 0           , 0
0.404469341 , -0.04952731 , -9.795225   , -0.001016629, 0.0005712516, -0.00142740807, -0.162262365, -0.1810031  , 0.425980866 , 0.007935656 , 0.041404523 , 2.23653436  , 0.54        , 3           , 11          , 0.013438154 , 0.0134382751
0.4012245   , -0.08830955 , -9.790891   , -0.0015843187, 0.00141213334, 0.0009021941, -0.162262365, -0.1810031  , 0.425980866 , 0.007920192 , 0.0414185748, 2.236544    , 0.55        , 3           , 12          , 0.03509215  , 0
0.4205066   , -0.06510771 , -9.7802515  , -0.00122927583, 0.0009921727, 0.0007619205, -0.162329778, -0.181340158, 0.425778627 , 0.007908216 , 0.04142843  , 2.23655152  , 0.56        , 3           , 50          , 0           , 0
0.417889953 , -0.0582994744, -9.782955   , -0.00171831017, -0.0002782176, -0.00107883033, -0.162734255, -0.181205332, 0.426048279 , 0.007890583 , 0.0414257348, 2.23654056  , 0.57        , 3           , 11          , 0.013438154 , 0.0134382751
0.38469258  , -0.06874058 , -9.7828     , -0.00191723939, -0.002743341, 0.000117169249, -0.162329778, -0.181205332, 0.425913453 , 0.007871448 , 0.0413982943, 2.23654151  , 0.58        , 3           , 12          , 0.03509215  , 0
0.401907176 , -0.06715006 , -9.779047   , 0.00104449026, -0.0019489819, 0.000273459067, -0.162329778, -0.181205332, 0.425913453 , 0.007882    , 0.0413787849, 2.236544    , 0.59        , 3           , 50          , 0           , 0
0.4356831   , -0.0806411952, -9.776133   , 0.00259367656, 0.00191674847, -0.0004921372, -0.162397191, -0.181205332, 0.4256438   , 0.00774270762, 0.041347947 , 2.23653245  , 0.6         , 3           , 11          , 0.0113510881, 0.0113511337
0.4041674   , -0.067179665, -9.778125   , 5.08083322E-05, 0.00218112557, 0.000132153538, -0.162599429, -0.1810705  , 0.4261157   , 0.00774327852, 0.0413697474, 2.23653388  , 0.61        , 3           , 12          , 0.03534288  , 0
0.39937073  , -0.05268889 , -9.776746   , -1.59612118E-05, 0.0012655583, -0.0010703702, -0.162532017, -0.1810705  , 0.425913453 , 0.007742679 , 0.0413824841, 2.23652339  , 0.62        , 3           , 50          , 0           , 0
0.4146387   , -0.0654701  , -9.786174   , -0.003111074, -0.00107836293, -0.000947167631, -0.1624646  , -0.181205332, 0.425778627 , 0.00771117536, 0.0413717739, 2.23651385  , 0.63        , 3           , 11          , 0.0113510881, 0.0113511337
0.422719121 , -0.06919314 , -9.780704   , -0.00318607013, -9.336035E-05, -9.836579E-05, -0.1624646  , -0.181205332, 0.425778627 , 0.0076792757, 0.0413708463, 2.23651242  , 0.64        , 3           , 12          , 0.03534288  , 0
0.424027443 , -0.06612511 , -9.758533   , 0.000340431754, 0.000704818231, -8.071068E-05, -0.162262365, -0.181137919, 0.425980866 , 0.00768264756, 0.0413779   , 2.23651242  , 0.65        , 3           , 50          , 0           , 0
0.414978474 , -0.06958416 , -9.771725   , 0.000768665166, -0.000277796062, -0.0005746946, -0.162262365, -0.181205332, 0.426048279 , 0.00769009534, 0.0413751639, 2.23650622  , 0.66        , 3           , 11          , 0.0113510881, 0.0113511337
0.4163558   , -0.07181655 , -9.783474   , -0.002408388, -0.000440067844, -0.00136670517, -0.1624646  , -0.1810705  , 0.425913453 , 0.00766544463, 0.04137087  , 2.2364924   , 0.67        , 3           , 12          , 0.03534288  , 0
0.398402154 , -0.0674589053, -9.808905   , -0.00233727344, -0.000369194953, 0.000117054267, -0.1624646  , -0.1810705  , 0.425913453 , 0.00764212  , 0.04136717  , 2.23649383  , 0.68        , 3           , 50          , 0           , 0
0.411986768 , -0.06360035 , -9.79613    , -0.0017733837, -0.000154200752, 0.0002612822, -0.162329778, -0.181272745, 0.426048279 , 0.007624496 , 0.0413656   , 2.23649621  , 0.69        , 3           , 11          , 0.0113510881, 0.0113511337
0.406241924 , -0.08387464 , -9.78541    , -0.002830066, -0.000451244763, 0.000323378656, -0.162532017, -0.1810705  , 0.4261831   , 0.00744803343, 0.04149143  , 2.23649335  , 0.7         , 3           , 12          , 0.0356459953, 0
0.40640524  , -0.07481534 , -9.796219   , -0.0008502496, -0.001001005, 0.0004023637, -0.162397191, -0.181137919, 0.4257112   , 0.00743969344, 0.0414813943, 2.23649716  , 0.71        , 3           , 50          , 0           , 0
0.400815964 , -0.09139274 , -9.811698   , 0.00161098223, 0.0009866618, -6.88164073E-06, -0.162397191, -0.181137919, 0.4257112   , 0.00745580345, 0.0414912552, 2.23649716  , 0.72        , 3           , 11          , 0.01013221  , 0.0101322215
0.419374347 , -0.0568742827, -9.809153   , 0.00048023308, 0.00104940974, -0.00121282507, -0.1624646  , -0.181205332, 0.425913453 , 0.00746010756, 0.041501835 , 2.23648524  , 0.73        , 3           , 12          , 0.0356459953, 0
0.40732643  , -0.08150857 , -9.821551   , 0.00140319951, 0.000210926242, 0.000344109023, -0.162599429, -0.181205332, 0.4261831   , 0.007474282 , 0.0415039174, 2.23648858  , 0.74        , 3           , 50          , 0           , 0
0.398516953 , -0.0833603442, -9.777331   , 4.74892659E-07, -0.00169918791, 0.0003345953, -0.1624646  , -0.181272745, 0.426048279 , 0.00747441873, 0.0414869   , 2.236492    , 0.75        , 3           , 11          , 0.01013221  , 0.0101322215
0.417965621 , -0.08182059 , -9.766329   , -0.000209847465, -0.00205257768, -9.074088E-05, -0.1624646  , -0.181272745, 0.426048279 , 0.00747227855, 0.0414663851, 2.236491    , 0.76        , 3           , 12          , 0.0356459953, 0
0.405685425 , -0.09823662 , -9.806265   , -0.0007100783, -0.000929662, -0.000797653454, -0.162599429, -0.181272745, 0.425778627 , 0.007464844 , 0.0414571427, 2.23648286  , 0.77        , 3           , 50          , 0           , 0
0.4062018   , -0.0928341746, -9.80443    , -0.000288614217, -0.000363664, 0.000264705246, -0.162397191, -0.181137919, 0.425980866 , 0.007462069 , 0.0414534844, 2.23648572  , 0.78        , 3           , 11          , 0.01013221  , 0.0101322215
0.407842845 , -0.103705741, -9.797684   , 0.002241745 , 0.00204683072, 0.000915955345, -0.162666842, -0.181272745, 0.425980866 , 0.00748487376, 0.04147388  , 2.23649478  , 0.79        , 3           , 12          , 0.0356459953, 0
0.410488456 , -0.0739638954, -9.79528    , 0.000615126162, 0.00156391109, -0.000288316252, -0.162666842, -0.181272745, 0.425980866 , 0.00771779567, 0.0415255055, 2.23650146  , 0.8         , 3           , 50          , 0           , 0
0.414773047 , -0.05018539 , -9.769837   , -1.41834735E-05, 0.0002925704, -0.0005051351, -0.162397191, -0.181205332, 0.425913453 , 0.00771744642, 0.04152847  , 2.23649621  , 0.81        , 3           , 11          , 0.00937822  , 0.009378217
0.402293265 , -0.07167294 , -9.777254   , -0.00311526167, -0.0008546994, -0.000450722757, -0.1624646  , -0.181137919, 0.42584604  , 0.00768610649, 0.0415199548, 2.236492    , 0.82        , 3           , 12          , 0.0359997638, 0
0.398521334 , -0.082464084, -9.77552    , -0.00227514026, 0.0007700337, 0.00103904493, -0.162397191, -0.181137919, 0.426048279 , 0.007663789 , 0.0415275767, 2.23650241  , 0.83        , 3           , 50          , 0           , 0
0.418216944 , -0.07224361 , -9.797022   , -0.0009982729, -0.000488415943, 0.000477943249, -0.162262365, -0.181272745, 0.425778627 , 0.0076540024, 0.0415226556, 2.23650718  , 0.84        , 3           , 11          , 0.00937822  , 0.009378217
0.416374415 , -0.07180144 , -9.787994   , -0.000150273147, -0.0006938614, -8.35061655E-05, -0.162262365, -0.181272745, 0.425778627 , 0.007652465 , 0.04151572  , 2.23650622  , 0.85        , 3           , 12          , 0.0359997638, 0
0.3964275   , -0.07426539 , -9.79087    , -0.000360061618, -0.00118803454, -0.000791596947, -0.162397191, -0.181205332, 0.425980866 , 0.00764853274, 0.0415039137, 2.236498    , 0.86        , 3           , 50          , 0           , 0
0.397240341 , -0.07613656 , -9.774146   , -0.000299298117, 0.000924184 , 0.000271502271, -0.1624646  , -0.1810031  , 0.425980866 , 0.00764565263, 0.0415131263, 2.236501    , 0.87        , 3           , 11          , 0.00937822  , 0.009378217
0.418714434 , -0.0722126439, -9.807865   , -0.00170524442, -0.00021162341, 0.00132269738, -0.162397191, -0.1815424  , 0.425980866 , 0.00762915239, 0.04151091  , 2.23651433  , 0.88        , 3           , 12          , 0.0359997638, 0
0.426368058 , -0.07099944 , -9.792887   , 0.000338913029, 0.000224565068, -0.000998038, -0.162397191, -0.1815424  , 0.425980866 , 0.00763212657, 0.0415132269, 2.23650432  , 0.89        , 3           , 50          , 0           , 0
0.408968478 , -0.0531745665, -9.79972649 , -0.00155570835, -0.002336559, -0.00122333388, -0.162532017, -0.181340158, 0.425778627 , 0.00761463074, 0.04156867  , 2.23649144  , 0.9         , 3           , 11          , 0.008913633 , 0.008913649
0.388696134 , -0.07732703 , -9.792748   , 0.0004950971, -0.002674661, 0.0013285086, -0.162397191, -0.181609809, 0.426048279 , 0.00762012647, 0.04154182  , 2.23650479  , 0.91        , 3           , 12          , 0.0364022963, 0
0.4028115   , -0.0765350759, -9.808908   , -0.00128068856, -0.0005748612, 0.00104099489, -0.162262365, -0.181137919, 0.426048279 , 0.00760774966, 0.0415360034, 2.23651528  , 0.92        , 3           , 50          , 0           , 0
0.393304527 , -0.0692806244, -9.786353   , -0.00262592384, 4.95851564E-05, 4.683474E-05, -0.162262365, -0.181137919, 0.426048279 , 0.007581513 , 0.0415364876, 2.23651528  , 0.93        , 3           , 11          , 0.008913633 , 0.008913649
0.404052    , -0.07709289 , -9.781783   , -0.000437605282, 6.438507E-05, -0.000790571445, -0.162329778, -0.181137919, 0.425913453 , 0.007576806 , 0.04153719  , 2.23650765  , 0.94        , 3           , 12          , 0.0364022963, 0
0.392053    , -0.0633755252, -9.79357    , -0.00221077 , 0.00174183992, -0.000160489508, -0.162532017, -0.1810705  , 0.426048279 , 0.00755463773, 0.0415546224, 2.23650622  , 0.95        , 3           , 50          , 0           , 0
0.380378723 , -0.05914067 , -9.804489   , -8.97770442E-05, 0.00105224864, -0.00135248154, -0.162329778, -0.1810705  , 0.425980866 , 0.007553183 , 0.0415652432, 2.2364924   , 0.96        , 3           , 11          , 0.008913633 , 0.008913649
0.394332319 , -0.060265217, -9.787211   , -0.000160246447, 0.00126295059, 0.0006959114, -0.162329778, -0.1810705  , 0.425980866 , 0.00755187357, 0.04157782  , 2.2365      , 0.97        , 3           , 12          , 0.0364022963, 0
0.40873915  , -0.0658582  , -9.784412   , -0.00134118542, -0.00275747129, -0.000163481513, -0.162329778, -0.181474984, 0.426048279 , 0.00753838336, 0.04155026  , 2.236498    , 0.98        , 3           , 50          , 0           , 0
0.3875941   , -0.0583566837, -9.794487   , -0.00183826452, -0.00205689785, 0.000965448446, -0.162397191, -0.181205332, 0.426048279 , 0.00752039673, 0.0415296219, 2.23650765  , 0.99        , 3           , 11          , 0.008913633 , 0.008913649
0.4074073   , -0.0729624  , -9.813831   , -0.00413701776, -0.000859817, 0.0006714383, -0.162397191, -0.1810705  , 0.4261831   , 0.00734966574, 0.04136352  , 2.23650861  , 1           , 3           , 12          , 0.03685159  , 0
0.432611585 , -0.0791855156, -9.795584   , -0.00273020775, -5.577499E-06, -0.00129843759, -0.162397191, -0.1810705  , 0.4261831   , 0.00732182339, 0.04136356  , 2.23649573  , 1.01        , 3           , 50          , 0           , 0
0.3921005   , -0.0570881367, -9.784955   , -0.000332430733, 0.0006441801, -0.0007918266, -0.162329778, -0.1810031  , 0.425778627 , 0.007318173 , 0.0413700528, 2.23648763  , 1.02        , 3           , 11          , 0.008635893 , 0.008635906
0.402908772 , -0.0608339868, -9.782176   , -0.000404698279, 0.0009956593, -0.000650344649, -0.162329778, -0.181137919, 0.425913453 , 0.00731386058, 0.0413800627, 2.236481    , 1.03        , 3           , 12          , 0.03685159  , 0
0.4218097   , -0.07186371 , -9.788404   , 0.00151316135, -0.00124396745, -7.985201E-05, -0.1624646  , -0.181340158, 0.426048279 , 0.007328955 , 0.0413676426, 2.23648     , 1.04        , 3           , 50          , 0           , 0
0.4060894   , -0.06354031 , -9.793463   , -0.000954851741, -0.00203498662, -0.00115208386, -0.1624646  , -0.181340158, 0.426048279 , 0.007318924 , 0.04134737  , 2.23646855  , 1.05        , 3           , 11          , 0.008635893 , 0.008635906
0.411783457 , -0.078940995, -9.795743   , -0.00223715068, 0.000279331 , -0.000942527, -0.162194952, -0.181340158, 0.425778627 , 0.007296164 , 0.0413502343, 2.236459    , 1.06        , 3           , 12          , 0.03685159  , 0
0.400906146 , -0.07525107 , -9.7818     , -0.00166949048, -0.000209586142, -0.000304943154, -0.162532017, -0.1810031  , 0.426048279 , 0.00727934251, 0.04134816  , 2.23645616  , 1.07        , 3           , 50          , 0           , 0
0.3976994   , -0.08283204 , -9.797222   , -0.002286851, -0.00380383688, 0.000251635851, -0.1624646  , -0.181340158, 0.426048279 , 0.007256567 , 0.0413101   , 2.23645854  , 1.08        , 3           , 11          , 0.008635893 , 0.008635906
0.406415075 , -0.104192354, -9.78233    , -4.23588535E-05, -0.0008321251, -0.000227712881, -0.162329778, -0.181407571, 0.425778627 , 0.00725604733, 0.0413018   , 2.23645616  , 1.09        , 3           , 12          , 0.03685159  , 0
0.3916458   , -0.0597625151, -9.793106   , 0.00088228035, 0.0007256892, -5.986732E-06, -0.162329778, -0.181407571, 0.425778627 , 0.00736482767, 0.0413131155, 2.23646     , 1.1         , 3           , 50          , 0           , 0
0.397463381 , -0.06435069 , -9.79082    , -0.00251338165, 0.00204020413, 0.000121539932, -0.162599429, -0.181137919, 0.425980866 , 0.007339749 , 0.0413335077, 2.23646188  , 1.11        , 3           , 11          , 0.008481777 , 0.00848178
0.4064182   , -0.07748294 , -9.80798149 , -0.00109761057, 0.0009938773, -0.0026282426, -0.1624646  , -0.181272745, 0.426250517 , 0.00732768932, 0.0413436368, 2.23643517  , 1.12        , 3           , 12          , 0.0373455659, 0
0.3967468   , -0.08330582 , -9.787289   , 0.000590429059, 0.00241316459, -0.00184119353, -0.162262365, -0.181205332, 0.42584604  , 0.007332838 , 0.0413679071, 2.236417    , 1.13        , 3           , 50          , 0           , 0
0.409934    , -0.08028981 , -9.790791   , 0.00129799033, 0.00220676814, -0.00106124859, -0.162262365, -0.181205332, 0.42584604  , 0.007345385 , 0.04139005  , 2.23640656  , 1.14        , 3           , 11          , 0.008481777 , 0.00848178
0.417626321 , -0.0821696743, -9.795259   , -0.00363056478, -0.000431128516, 0.0006775502, -0.162532017, -0.181205332, 0.426048279 , 0.00730936  , 0.0413856879, 2.23641324  , 1.15        , 3           , 12          , 0.0373455659, 0
0.407104164 , -0.08704485 , -9.784965   , -0.00384818 , 0.000482519419, -0.00151169242, -0.162397191, -0.181272745, 0.426250517 , 0.007270254 , 0.0413906276, 2.236398    , 1.16        , 3           , 50          , 0           , 0
0.407033622 , -0.0866556838, -9.766432   , -0.001018999, -0.000202286814, 0.0009725949, -0.162329778, -0.181407571, 0.42584604  , 0.007260465 , 0.041388534 , 2.236408    , 1.17        , 3           , 11          , 0.008481777 , 0.00848178
0.413847685 , -0.08939546 , -9.780403   , 0.00123627449, 0.000657688361, 0.00105506647, -0.162329778, -0.181407571, 0.42584604  , 0.00727326469, 0.04139503  , 2.23641849  , 1.18        , 3           , 12          , 0.0373455659, 0
0.384216547 , -0.075003   , -9.797294   , 0.00087824295, 0.0014999921, -0.000357965153, -0.162329778, -0.181407571, 0.42584604  , 0.007281902 , 0.04141006  , 2.23641515  , 1.19        , 3           , 50          , 0           , 0
0.3828534   , -0.05408665 , -9.839704   , 0.000101062709, 0.000124874714, -0.00177117763, -0.162329778, -0.181407571, 0.425980866 , 0.007435901 , 0.0413756   , 2.2364037   , 1.2         , 3           , 11          , 0.008401978 , 0.008401985
0.403274268 , -0.07563961 , -9.80845    , -0.00159108441, -0.00016814527, -1.36540848E-05, -0.1624646  , -0.181407571, 0.425980866 , 0.00741998572, 0.041373916 , 2.2364037   , 1.21        , 3           , 12          , 0.03788208  , 0
0.387616962 , -0.08772311 , -9.78376    , -0.00355909322, -0.00201168866, -0.000166961836, -0.1624646  , -0.181407571, 0.425980866 , 0.00738431839, 0.041353818 , 2.2364018   , 1.22        , 3           , 50          , 0           , 0
0.38522312  , -0.05930951 , -9.771457   , -0.000669363944, -0.0009362419, -1.056738E-05, -0.162599429, -0.181137919, 0.425913453 , 0.007377619 , 0.0413444564, 2.23640132  , 1.23        , 3           , 11          , 0.008401978 , 0.008401985
0.394618064 , -0.06933287 , -9.775495   , 0.00279232976, -0.00119440688, 0.0009940123, -0.162532017, -0.1810705  , 0.425980866 , 0.00740595069, 0.0413324349, 2.23641133  , 1.24        , 3           , 12          , 0.03788208  , 0
0.4097818   , -0.09201824 , -9.791292   , -0.00150906248, -0.00234979414, 0.00104282773, -0.1624646  , -0.181272745, 0.425980866 , 0.00739128469, 0.0413088538, 2.23642182  , 1.25        , 3           , 50          , 0           , 0
0.402281851 , -0.07703838 , -9.79174    , -0.000667803048, -0.00135859207, -0.000929465052, -0.1624646  , -0.181272745, 0.425980866 , 0.007384219 , 0.0412953421, 2.23641229  , 1.26        , 3           , 11          , 0.008401978 , 0.008401985
0.39560324  , -0.07017171 , -9.797638   , -0.00299757975, -0.00137434807, -0.000516523432, -0.162262365, -0.180935681, 0.42584604  , 0.00735402573, 0.0412816368, 2.23640656  , 1.27        , 3           , 12          , 0.03788208  , 0
0.4131179   , -0.0785299838, -9.7885     , -0.00216255616, 0.001024683 , -0.00121522811, -0.162599429, -0.1810705  , 0.4261157   , 0.007331905 , 0.0412919745, 2.23639512  , 1.28        , 3           , 50          , 0           , 0
0.405294657 , -0.0847905055, -9.77819    , -0.00215796661, 0.000179989773, -0.000510185957, -0.1624646  , -0.1810705  , 0.426250517 , 0.00731011527, 0.04129382  , 2.2363894   , 1.29        , 3           , 11          , 0.008401978 , 0.008401985
0.3961611   , -0.09679876 , -9.798196   , -0.002490451, 0.000202545474, -0.0005785547, -0.1624646  , -0.1810705  , 0.426250517 , 0.007388327 , 0.0412451737, 2.23638844  , 1.3         , 3           , 12          , 0.03845897  , 0
0.415796876 , -0.08171691 , -9.789396   , -0.00192789268, 0.000628712 , -0.000928441936, -0.1624646  , -0.181407571, 0.42584604  , 0.007368666 , 0.04125152  , 2.236379    , 1.31        , 3           , 50          , 0           , 0
0.4154516   , -0.07492921 , -9.79389    , -0.00171098963, -0.0003553323, -0.000575801, -0.162532017, -0.1810705  , 0.425913453 , 0.007351318 , 0.04124801  , 2.23637319  , 1.32        , 3           , 11          , 0.008364378 , 0.00836439
0.407404751 , -0.06626922 , -9.79165649 , -0.00318655628, -0.001773184, -0.000231712736, -0.162532017, -0.1810705  , 0.425913453 , 0.00731934933, 0.0412303023, 2.23637033  , 1.33        , 3           , 12          , 0.03845897  , 0
0.420249045 , -0.0582489446, -9.805988   , -0.00262201042, -0.00169897266, -0.000158336014, -0.162262365, -0.1810705  , 0.4256438   , 0.007293058 , 0.0412133262, 2.236369    , 1.34        , 3           , 50          , 0           , 0
0.4125128   , -0.08534334 , -9.773165   , 0.00132591825, -0.000475582056, -0.0003499578, -0.162262365, -0.1810705  , 0.4256438   , 0.00730617065, 0.041208595 , 2.23636556  , 1.35        , 3           , 11          , 0.008364378 , 0.00836439
0.3899699   , -0.08589217 , -9.799554   , -0.000657468569, 0.000918876147, 0.000631874253, -0.162532017, -0.1810031  , 0.425980866 , 0.007299859 , 0.0412177332, 2.23637176  , 1.36        , 3           , 12          , 0.03845897  , 0
0.4157706   , -0.0844162554, -9.791667   , 0.0004031076, 0.000644473941, 0.000777647656, -0.1624646  , -0.181340158, 0.425913453 , 0.00730421534, 0.04122413  , 2.23637938  , 1.37        , 3           , 50          , 0           , 0
0.387801915 , -0.107138522, -9.780675   , 0.000684759347, 0.000646380242, -0.000563088455, -0.162397191, -0.181272745, 0.42584604  , 0.00731083052, 0.04123063  , 2.23637414  , 1.38        , 3           , 11          , 0.008364378 , 0.00836439
0.403067946 , -0.0874118656, -9.795844   , -0.0007298141, 0.00112956925, -0.0005689137, -0.162397191, -0.181272745, 0.42584604  , 0.00730329845, 0.0412419662, 2.23636842  , 1.39        , 3           , 12          , 0.03845897  , 0
0.434144467 , -0.0598669723, -9.776057   , 0.00137292617, -0.0008297982, -0.0004140657, -0.162262365, -0.181272745, 0.42584604  , 0.00752894767, 0.04123217  , 2.23637319  , 1.4         , 3           , 50          , 0           , 0
0.383734256 , -0.07457525 , -9.788708   , 0.00109109248, -0.000902098254, 8.314913E-06, -0.162397191, -0.1810705  , 0.425980866 , 0.00753985858, 0.041223146 , 2.23637271  , 1.41        , 3           , 11          , 0.008345425 , 0.00834544
0.394942284 , -0.0819401741, -9.784585   , 0.000308905757, 0.000148517 , -0.000488119869, -0.162734255, -0.181272745, 0.426048279 , 0.00754274847, 0.04122466  , 2.236368    , 1.42        , 3           , 12          , 0.0390740819, 0
0.385377944 , -0.08678366 , -9.786938   , 0.0005962115, -0.000835050771, -0.000488321646, -0.162734255, -0.181272745, 0.426048279 , 0.007548504 , 0.0412163474, 2.2363627   , 1.43        , 3           , 50          , 0           , 0
0.4063226   , -0.08068483 , -9.794888   , 0.00178814668, 0.0006512781, -0.00231694 , -0.162599429, -0.181137919, 0.42584604  , 0.007565432 , 0.0412230343, 2.23633981  , 1.44        , 3           , 11          , 0.008345425 , 0.00834544
0.423022449 , -0.0898516253, -9.81061649 , 0.00192892656, 0.0008634099, -0.00125644065, -0.162262365, -0.1810705  , 0.425913453 , 0.00758420536, 0.0412317663, 2.23632741  , 1.45        , 3           , 12          , 0.0390740819, 0
0.3870259   , -0.0682646  , -9.798148   , -0.001108908, 0.00133562  , -6.905422E-05, -0.1624646  , -0.181340158, 0.4261157   , 0.007573093 , 0.0412451252, 2.23632646  , 1.46        , 3           , 50          , 0           , 0
0.391406029 , -0.07647174 , -9.788205   , 2.27677683E-05, 0.0009209116, -0.0002763404, -0.1624646  , -0.181340158, 0.4261157   , 0.00757320831, 0.04125435  , 2.236324    , 1.47        , 3           , 11          , 0.008345425 , 0.00834544
0.419554323 , -0.0678130537, -9.777557   , -0.001386801, 0.000277837622, -0.00127278257, -0.162599429, -0.181272745, 0.42584604  , 0.00755881844, 0.0412572324, 2.2363112   , 1.48        , 3           , 12          , 0.0390740819, 0
0.4176555   , -0.07545078 , -9.780768   , -0.00229972741, -0.0007138473, -0.00113731262, -0.162397191, -0.181137919, 0.425980866 , 0.00753535  , 0.04125017  , 2.23629975  , 1.49        , 3           , 50          , 0           , 0
0.4134154   , -0.0893735141, -9.785378   , -0.0010453501, -0.00117552315, -0.0005654463, -0.162262365, -0.181272745, 0.425913453 , 0.007584089 , 0.04126499  , 2.236297    , 1.5         , 3           , 11          , 0.00832933653, 0.00832936
0.3987242   , -0.105435789, -9.788269   , -0.002100884, -0.0018865976, -0.000430200918, -0.162262365, -0.181272745, 0.425913453 , 0.0075628967, 0.0412461571, 2.23629212  , 1.51        , 3           , 12          , 0.0397252664, 0
0.413318634 , -0.09927162 , -9.793556   , -0.00175738242, 1.6353375E-05, -0.0006375288, -0.162329778, -0.181205332, 0.425913453 , 0.007545062 , 0.0412463658, 2.236286    , 1.52        , 3           , 50          , 0           , 0
0.4066208   , -0.0906351358, -9.789051   , 0.0006390414, 0.000947676133, -5.98497536E-05, -0.1624646  , -0.181205332, 0.4261831   , 0.00755143166, 0.0412558466, 2.23628545  , 1.53        , 3           , 11          , 0.00832933653, 0.00832936
0.395431578 , -0.07789874 , -9.780497   , 0.000492440944, 0.00186180335, -0.00154241978, -0.162262365, -0.1810705  , 0.426048279 , 0.00755572459, 0.0412745774, 2.23627019  , 1.54        , 3           , 12          , 0.0397252664, 0
0.409062266 , -0.07489561 , -9.781735   , 0.000226857272, -0.001237315, 0.00106496166, -0.162397191, -0.1810705  , 0.4257112   , 0.00755843055, 0.0412621275, 2.23628068  , 1.55        , 3           , 50          , 0           , 0
0.401818752 , -0.07079253 , -9.769117   , -0.00168440293, -0.000264729548, 0.001057591 , -0.162397191, -0.1810705  , 0.4257112   , 0.0075420225, 0.0412593968, 2.23629117  , 1.56        , 3           , 11          , 0.00832933653, 0.00832936
0.404593557 , -0.07300912 , -9.79035    , -0.0006313269, 0.0008686911, 0.000287287374, -0.162599429, -0.180935681, 0.425980866 , 0.007535833 , 0.0412680581, 2.236294    , 1.57        , 3           , 12          , 0.0397252664, 0
0.435823    , -0.07293987 , -9.785591   , 0.00141942617, 0.000178624075, -0.000269324548, -0.1624646  , -0.1810705  , 0.425980866 , 0.00754991453, 0.0412698649, 2.23629117  , 1.58        , 3           , 50          , 0           , 0
0.404894    , -0.0798331052, -9.775007   , 1.08845825E-05, -0.000746016856, -0.00190191006, -0.162532017, -0.181272745, 0.42584604  , 0.00754923653, 0.04126255  , 2.236272    , 1.59        , 3           , 11          , 0.00832933653, 0.00832936
0.383150637 , -0.08003213 , -9.774271   , 8.407906E-05, -4.0449926E-05, 0.000150038977, -0.162532017, -0.181272745, 0.42584604  , 0.00763954362, 0.0413476825, 2.23627734  , 1.6         , 3           , 12          , 0.0404104143, 0
0.39993757  , -0.0721670538, -9.756483   , 0.000295550679, 3.137388E-05, 0.00015113526, -0.1624646  , -0.181205332, 0.425913453 , 0.00764256  , 0.0413479879, 2.23627877  , 1.61        , 3           , 50          , 0           , 0
0.4166219   , -0.0898271054, -9.795751   , -0.00244476763, -0.00259172288, 0.0009112593, -0.162532017, -0.181340158, 0.426048279 , 0.00761848362, 0.041322    , 2.23628783  , 1.62        , 3           , 11          , 0.008308146 , 0.008308171
0.4106746   , -0.101858936, -9.819801   , -0.00102547824, -0.00406039134, 0.0006330282, -0.162262365, -0.181340158, 0.425778627 , 0.00760847656, 0.0412813537, 2.236294    , 1.63        , 3           , 12          , 0.0404104143, 0
0.4060626   , -0.06445471 , -9.78985    , -0.0006911413, -0.000256874162, 0.0008524356, -0.162262365, -0.181340158, 0.425778627 , 0.007601915 , 0.04127872  , 2.23630261  , 1.64        , 3           , 50          , 0           , 0
0.421201766 , -0.08760636 , -9.801131   , 0.000425141217, 0.00235524029, -5.652944E-05, -0.162329778, -0.181340158, 0.425778627 , 0.00760615151, 0.0413022749, 2.23630166  , 1.65        , 3           , 11          , 0.008308146 , 0.008308171
0.4010256   , -0.0675663948, -9.786286   , 0.00211833045, 0.00257787225, -0.000613377255, -0.1624646  , -0.181205332, 0.4261831   , 0.00762709137, 0.0413281   , 2.236296    , 1.66        , 3           , 12          , 0.0404104143, 0
0.386941135 , -0.07190405 , -9.789124   , 0.0021246667, 0.00124043669, -0.001109879, -0.162329778, -0.181340158, 0.42584604  , 0.007647882 , 0.0413405858, 2.236285    , 1.67        , 3           , 50          , 0           , 0
0.410290718 , -0.08930002 , -9.796249   , 0.000862724846, -0.000598331564, -0.00125989458, -0.162329778, -0.181340158, 0.42584604  , 0.007655988 , 0.0413346961, 2.236272    , 1.68        , 3           , 11          , 0.008308146 , 0.008308171
0.398849428 , -0.06479058 , -9.798946   , 0.00114252721, -3.329059E-05, -0.000975172443, -0.162329778, -0.1810705  , 0.425980866 , 0.00766700925, 0.041334454 , 2.23626256  , 1.69        , 3           , 12          , 0.0404104143, 0
0.4120766   , -0.09068078 , -9.794434   , 0.000624282169, -0.00257959263, -0.000132651621, -0.1624646  , -0.181340158, 0.4261831   , 0.0077144294, 0.0412983447, 2.236263    , 1.7         , 3           , 50          , 0           , 0
0.4317575   , -0.07243785 , -9.786524   , 0.00034046144, -0.002299938, -0.000133534617, -0.162397191, -0.181205332, 0.425980866 , 0.007717775 , 0.0412753634, 2.23626161  , 1.71        , 3           , 11          , 0.008276269 , 0.008276296
0.410146475 , -0.08763148 , -9.755565   , -0.00247725169, -0.003445293, 0.00154678512, -0.162397191, -0.181205332, 0.425980866 , 0.00769363251, 0.04124078  , 2.23627687  , 1.72        , 3           , 12          , 0.04112748  , 0
0.3953085   , -0.0503988937, -9.772699   , 0.0003342328, -0.00117368053, -0.00126194884, -0.162734255, -0.181340158, 0.4257112   , 0.007696451 , 0.04122914  , 2.23626351  , 1.73        , 3           , 50          , 0           , 0
0.4154796   , -0.07490653 , -9.800669   , -0.00135000632, -0.002874521, 0.00211799564, -0.162532017, -0.1810031  , 0.426048279 , 0.007683814 , 0.0412002355, 2.236285    , 1.74        , 3           , 11          , 0.008276269 , 0.008276296
0.425975353 , -0.06782096 , -9.797396   , -0.00305735064, -0.0006334685, -0.0007118092, -0.162666842, -0.181205332, 0.42584604  , 0.007652945 , 0.04119395  , 2.23627782  , 1.75        , 3           , 12          , 0.04112748  , 0
0.382184625 , -0.08364129 , -9.77113    , -0.00333173969, -0.00232477067, -0.00128080475, -0.162666842, -0.181205332, 0.42584604  , 0.00761909364, 0.041170802 , 2.23626447  , 1.76        , 3           , 50          , 0           , 0
0.3983548   , -0.0608019941, -9.775883   , 3.40102124E-05, 0.002484757 , -0.0006925496, -0.1624646  , -0.181407571, 0.425778627 , 0.007619154 , 0.0411957   , 2.23625779  , 1.77        , 3           , 11          , 0.008276269 , 0.008276296
0.4124883   , -0.09071936 , -9.784487   , 0.0006132045, -4.55000554E-05, 0.002414091 , -0.162532017, -0.1810705  , 0.425913453 , 0.00762628252, 0.04119506  , 2.236282    , 1.78        , 3           , 12          , 0.04112748  , 0
0.403108954 , -0.07979069 , -9.781349   , 0.00117847323, -0.000323249958, 0.000721066 , -0.162599429, -0.181272745, 0.4261157   , 0.0076383627, 0.0411917754, 2.23628926  , 1.79        , 3           , 50          , 0           , 0
0.423944    , -0.08583214 , -9.801555   , -0.00107191084, 0.00251332112, -0.0009796296, -0.162329778, -0.181272745, 0.425913453 , 0.007657716 , 0.0412629619, 2.23628068  , 1.8         , 3           , 11          , 0.008232077 , 0.008232105
0.4081003   , -0.08564307 , -9.802578   , -0.000482869655, -0.00226946268, -0.000136760136, -0.162329778, -0.181272745, 0.425913453 , 0.00765282  , 0.0412402824, 2.23627973  , 1.81        , 3           , 12          , 0.0418744832, 0
0.410681933 , -0.054167673, -9.778925   , 0.00261472026, -0.000277494546, 0.0010109134, -0.162734255, -0.181272745, 0.426048279 , 0.007679386 , 0.04123743  , 2.23628926  , 1.82        , 3           , 50          , 0           , 0
0.399577022 , -0.07610418 , -9.791757   , 0.0006330607, 0.000553828548, 0.000155384187, -0.162532017, -0.181272745, 0.425980866 , 0.007685779 , 0.0412429571, 2.23629117  , 1.83        , 3           , 11          , 0.008232077 , 0.008232105
0.4119378   , -0.101952009, -9.79674149 , 0.0009167183, 0.000274172664, -0.000126270053, -0.162329778, -0.181205332, 0.426048279 , 0.00769489538, 0.0412457027, 2.23629022  , 1.84        , 3           , 12          , 0.0418744832, 0
0.415098727 , -0.09842536 , -9.783142   , -0.00246994151, -0.000311878684, -0.0007080161, -0.162329778, -0.181205332, 0.426048279 , 0.007669903 , 0.0412426367, 2.23628259  , 1.85        , 3           , 50          , 0           , 0
0.412711173 , -0.0767019242, -9.793919   , 0.0009148349, 0.000555735431, -0.0009734487, -0.1624646  , -0.181340158, 0.425980866 , 0.007678649 , 0.0412482768, 2.236273    , 1.86        , 3           , 11          , 0.008232077 , 0.008232105
0.3932118   , -0.07872911 , -9.794076   , -0.0010596168, 0.000260806 , 0.0009946611, -0.162397191, -0.181137919, 0.4261157   , 0.007668464 , 0.0412508026, 2.236283    , 1.87        , 3           , 12          , 0.0418744832, 0
0.384171724 , -0.07771747 , -9.795046   , -0.00134285935, 0.0002588921, -0.000419343065, -0.162329778, -0.181137919, 0.425980866 , 0.00765486574, 0.0412534252, 2.23627877  , 1.88        , 3           , 50          , 0           , 0
0.4105928   , -0.0938909352, -9.774118   , -0.00301757781, -0.003694477, 0.00013175502, -0.162329778, -0.181137919, 0.425980866 , 0.007624733 , 0.04121647  , 2.23627973  , 1.89        , 3           , 11          , 0.008232077 , 0.008232105
0.400554448 , -0.0671295747, -9.780413   , -0.00124202122, -1.02370395E-05, 0.001279413 , -0.162532017, -0.181272745, 0.425980866 , 0.007742885 , 0.0412326343, 2.23629785  , 1.9         , 3           , 12          , 0.0426495   , 0
0.396167129 , -0.05848187 , -9.78718948 , 0.00100337889, 0.00253912131, -0.00124898332, -0.1630039  , -0.1810705  , 0.4261157   , 0.00775241246, 0.0412581153, 2.23628545  , 1.91        , 3           , 50          , 0           , 0
0.4060831   , -0.06443808 , -9.794822   , -0.0009720515, 0.002244187 , -0.0009760984, -0.162397191, -0.181272745, 0.426048279 , 0.00774229644, 0.04128063  , 2.236276    , 1.92        , 3           , 11          , 0.008176191 , 0.008176219
0.409707934 , -0.06358586 , -9.792531   , 0.00130244507, -0.000556178449, 0.00100786  , -0.162397191, -0.181272745, 0.426048279 , 0.007755735 , 0.0412749946, 2.2362864   , 1.93        , 3           , 12          , 0.0426495   , 0
0.398893327 , -0.06341596 , -9.805268   , -0.0020781497, -0.00226848759, 0.00127199071, -0.162599429, -0.181205332, 0.425980866 , 0.00773547124, 0.0412522145, 2.2362988   , 1.94        , 3           , 50          , 0           , 0
0.406598181 , -0.0884217  , -9.776386   , 0.000718653551, 0.00310034375, -0.00040181994, -0.162329778, -0.1810705  , 0.425913453 , 0.00774250552, 0.0412832424, 2.236295    , 1.95        , 3           , 11          , 0.008176191 , 0.008176219
0.398427963 , -0.09280579 , -9.785958   , -0.00182318781, 0.003083154 , -0.000413672358, -0.162262365, -0.181205332, 0.426048279 , 0.007724111 , 0.0413141027, 2.23629117  , 1.96        , 3           , 12          , 0.0426495   , 0
0.398147076 , -0.0873050243, -9.810345   , 0.000718075433, 0.0033819133, 0.00101130118, -0.162262365, -0.181205332, 0.426048279 , 0.007731721 , 0.04134784  , 2.23630166  , 1.97        , 3           , 50          , 0           , 0
0.391714364 , -0.0628313646, -9.819785   , 0.000166509155, 0.000562439032, -0.000125821753, -0.162599429, -0.181137919, 0.4257112   , 0.007733337 , 0.0413534753, 2.23630023  , 1.98        , 3           , 11          , 0.008176191 , 0.008176219
0.4295066   , -0.07507888 , -9.798304   , -0.000390885019, -0.000849204, 0.00071698695, -0.162532017, -0.181137919, 0.426048279 , 0.00772972  , 0.0413449332, 2.23630738  , 1.99        , 3           , 12          , 0.0426495   , 0
0.4063352   , -0.0762111247, -9.783569   , -0.00491333148, 0.0005270018, -0.0001493551, -0.162532017, -0.1810705  , 0.4261157   , 0.00768579962, 0.0413487628, 2.23630643  , 2           , 3           , 50          , 0           , 0
0.386591166 , -0.0588712879, -9.772349   , -0.0012221036, -0.0033900782, 0.000144227219, -0.162532017, -0.1810705  , 0.4261157   , 0.0076736263, 0.04131485  , 2.23630738  , 2.01        , 3           , 11          , 0.008112084 , 0.008112115
0.39931187  , -0.06434171 , -9.799846   , -0.002354599, -0.00283458852, 0.00013982736, -0.162397191, -0.181205332, 0.425980866 , 0.007650132 , 0.04128649  , 2.23630834  , 2.02        , 3           , 12          , 0.0434507057, 0
0.3910502   , -0.07638781 , -9.811709   , 0.00215537683, -0.00111464108, -0.000684110331, -0.162599429, -0.181137919, 0.425980866 , 0.007671401 , 0.0412754   , 2.23630166  , 2.03        , 3           , 50          , 0           , 0
0.400499582 , -0.07833277 , -9.803059   , 0.00187188236, -0.0008349843, -0.000119918332, -0.162397191, -0.1810705  , 0.426048279 , 0.0076900674, 0.0412670635, 2.23630023  , 2.04        , 3           , 11          , 0.008112084 , 0.008112115
0.4117598   , -0.08074561 , -9.795752   , -0.00206601783, -0.004240508, -0.00127371249, -0.162262365, -0.181137919, 0.425913453 , 0.00766886864, 0.0412247553, 2.23628736  , 2.05        , 3           , 12          , 0.0434507057, 0
0.392198473 , -0.08326929 , -9.78235149 , 0.00299650314, 0.000298918225, 0.0007346974, -0.162262365, -0.181137919, 0.425913453 , 0.007699139 , 0.0412276834, 2.23629451  , 2.06        , 3           , 50          , 0           , 0
0.3970363   , -0.08478251 , -9.752037   , 0.00356816314, -0.001105088, 0.000452624052, -0.162532017, -0.181137919, 0.426048279 , 0.00773500325, 0.0412166081, 2.2362988   , 2.07        , 3           , 11          , 0.008112084 , 0.008112115
0.402098984 , -0.05226509 , -9.778079   , 0.00101861067, 0.000567115843, 0.00157352537, -0.1624646  , -0.181137919, 0.4261831   , 0.007745841 , 0.04122215  , 2.236315    , 2.08        , 3           , 12          , 0.0434507057, 0
0.416606    , -0.0559914857, -9.793802   , 0.000454824767, 0.0002817293, 0.00100538251, -0.1624646  , -0.181205332, 0.426048279 , 0.007750807 , 0.0412248857, 2.236325    , 2.09        , 3           , 50          , 0           , 0
0.406853318 , -0.0685756  , -9.774946   , -0.000743665849, 0.002517394 , -0.00154149591, -0.1624646  , -0.181205332, 0.426048279 , 0.00766258547, 0.04123708  , 2.23630643  , 2.1         , 3           , 11          , 0.00803626  , 0.008036283
0.401380152 , -0.03915898 , -9.781646   , -0.000734486151, 0.0008280075, -0.000131411885, -0.162599429, -0.181205332, 0.426048279 , 0.0076551917, 0.0412453674, 2.23630548  , 2.11        , 3           , 12          , 0.044276353 , 0
0.396889448 , -0.06935339 , -9.777286   , 0.00124726188, -0.000284886919, -0.00153661659, -0.162532017, -0.181137919, 0.426048279 , 0.007667029 , 0.041242633 , 2.23628974  , 2.12        , 3           , 50          , 0           , 0
0.3719799   , -0.107824534, -9.78984    , 0.000659362646, 0.00449790247, -0.000401723548, -0.1624646  , -0.181272745, 0.425913453 , 0.007673471 , 0.041287642 , 2.236286    , 2.13        , 3           , 11          , 0.00803626  , 0.008036283
0.395386726 , -0.08820113 , -9.802687   , -0.00214678352, 0.0008184569, -0.000420534023, -0.1624646  , -0.181272745, 0.425913453 , 0.007651835 , 0.0412958562, 2.23628163  , 2.14        , 3           , 12          , 0.044276353 , 0
0.382646859 , -0.0636273548, -9.819857   , 0.00293706288, 0.0008528371, -0.000114291732, -0.1624646  , -0.1810705  , 0.426048279 , 0.007681164 , 0.0413043872, 2.23628068  , 2.15        , 3           , 50          , 0           , 0
0.39519915  , -0.06477073 , -9.792194   , -0.0004511548, 0.000548350043, -0.0009781414, -0.162329778, -0.181137919, 0.42631793  , 0.00767624844, 0.04130995  , 2.23627114  , 2.16        , 3           , 11          , 0.00803626  , 0.008036283
0.417934269 , -0.08898761 , -9.781726   , 0.00125627848, -0.0019742744, -0.00040907017, -0.162397191, -0.1810031  , 0.4261831   , 0.00768863456, 0.0412902348, 2.23626685  , 2.17        , 3           , 12          , 0.044276353 , 0
0.412257969 , -0.0798214  , -9.803878   , -0.000743176439, 0.00251739635, -0.0006938832, -0.162397191, -0.1810031  , 0.4261831   , 0.00768092647, 0.04131546  , 2.2362597   , 2.18        , 3           , 50          , 0           , 0
0.4186466   , -0.0758384839, -9.80291    , -0.00102265214, 0.00195235724, -0.000413530564, -0.162329778, -0.181340158, 0.425980866 , 0.007670534 , 0.0413350128, 2.236256    , 2.19        , 3           , 11          , 0.00803626  , 0.008036283
0.3981556   , -0.08328094 , -9.799481   , -0.00214054226, 0.000239256871, -0.00126874621, -0.1624646  , -0.181137919, 0.4261831   , 0.00765446061, 0.0413137041, 2.23624349  , 2.2         , 3           , 12          , 0.04512478  , 0
0.3910088   , -0.07195794 , -9.787285   , -0.000441472919, -0.0005939771, -0.000697071431, -0.1624646  , -0.181272745, 0.426048279 , 0.007649756 , 0.0413078144, 2.23623681  , 2.21        , 3           , 50          , 0           , 0
0.386604965 , -0.06287722 , -9.788637   , 0.00378721743, 0.00112406618, 0.00045543586, -0.1624646  , -0.181272745, 0.426048279 , 0.007687818 , 0.0413190238, 2.236241    , 2.22        , 3           , 11          , 0.007953275 , 0.007953296
0.410982549 , -0.06590141 , -9.779424   , -0.0015579816, -0.003135699, 0.00042390512, -0.1624646  , -0.1810705  , 0.425913453 , 0.00767240254, 0.0412876345, 2.23624539  , 2.23        , 3           , 12          , 0.04512478  , 0
0.403781    , -0.06310341 , -9.781276   , -0.000158067181, -0.0005920624, 0.0009994701, -0.162599429, -0.1810031  , 0.4261157   , 0.0076712314, 0.04128164  , 2.236255    , 2.24        , 3           , 50          , 0           , 0
0.4028272   , -0.08053951 , -9.825649   , -0.00129277224, 0.0002449891, -0.000417183, -0.1624646  , -0.1810705  , 0.426048279 , 0.00765813235, 0.04128412  , 2.236251    , 2.25        , 3           , 11          , 0.007953275 , 0.007953296
0.40639174  , -0.077950716, -9.803012   , -0.00212455541, -0.00285795564, -0.000143369558, -0.1624646  , -0.1810031  , 0.425980866 , 0.007636818 , 0.0412555449, 2.23624921  , 2.26        , 3           , 12          , 0.04512478  , 0
0.40134722  , -0.08106845 , -9.79764    , -0.00242419983, 0.000518912741, -0.0009870918, -0.1624646  , -0.1810031  , 0.425980866 , 0.007612171 , 0.04126081  , 2.23623967  , 2.27        , 3           , 50          , 0           , 0
0.400021583 , -0.07209902 , -9.776821   , 0.00237303739, 0.00139607815, -0.000680864556, -0.162532017, -0.181137919, 0.4261831   , 0.007635624 , 0.041274827 , 2.236233    , 2.28        , 3           , 11          , 0.007953275 , 0.007953296
0.4012962   , -0.0820025  , -9.788152   , -0.00157921785, 0.00108777522, -0.000134660615, -0.162397191, -0.181205332, 0.4261831   , 0.00761978  , 0.041285716 , 2.23623157  , 2.29        , 3           , 12          , 0.04512478  , 0
0.3867038   , -0.0930749  , -9.799157   , -0.0018517857, 0.000776444445, 0.000146679842, -0.162666842, -0.181205332, 0.426048279 , 0.00761413667, 0.041250553 , 2.23623347  , 2.3         , 3           , 50          , 0           , 0
0.404879868 , -0.0838617161, -9.784516   , 0.00125925476, -4.724029E-05, 0.0004424018, -0.162666842, -0.181205332, 0.426048279 , 0.0076269093, 0.04125005  , 2.23623776  , 2.31        , 3           , 11          , 0.007865336 , 0.007865352
0.3930531   , -0.0891237259, -9.788696   , 0.0009788   , -0.000612284464, -0.0009724702, -0.1624646  , -0.1810705  , 0.425980866 , 0.007636295 , 0.04124401  , 2.23622823  , 2.32        , 3           , 12          , 0.04599441  , 0
0.423270881 , -0.09136158 , -9.765423   , -0.000420461671, -0.00315591833, -0.0004178853, -0.1624646  , -0.181205332, 0.4261157   , 0.007631908 , 0.0412124731, 2.23622346  , 2.33        , 3           , 50          , 0           , 0
0.406591266 , -0.09021271 , -9.780462   , -0.0007138774, -0.000905306952, -0.000133193273, -0.1624646  , -0.181205332, 0.4261831   , 0.00762471044, 0.0412034281, 2.23622251  , 2.34        , 3           , 11          , 0.007865336 , 0.007865352
0.3946617   , -0.06840485 , -9.78317451 , 0.00182533916, -0.000324986235, 0.000162064243, -0.1624646  , -0.181205332, 0.4261831   , 0.00764302863, 0.0412001722, 2.236224    , 2.35        , 3           , 12          , 0.04599441  , 0
0.388919622 , -0.0548284352, -9.775026   , 0.00266704382, 0.000807003933, 0.000167750783, -0.162329778, -0.181407571, 0.425980866 , 0.0076697683, 0.0412082262, 2.23622537  , 2.36        , 3           , 50          , 0           , 0
0.398456275 , -0.08474857 , -9.766941   , -0.00269258535, -0.0006371133, -0.0007070529, -0.162262365, -0.181272745, 0.426048279 , 0.00764255039, 0.04120191  , 2.23621869  , 2.37        , 3           , 11          , 0.007865336 , 0.007865352
0.4232505   , -0.09628796 , -9.776293   , -0.00183833507, -0.00203920878, -0.0007052717, -0.162397191, -0.181272745, 0.4261157   , 0.007623871 , 0.04118157  , 2.236211    , 2.38        , 3           , 12          , 0.04599441  , 0
0.410084426 , -0.0734726638, -9.805677   , -0.0007194534, 0.0002209534, -0.000131457549, -0.162397191, -0.181272745, 0.4261157   , 0.00761662051, 0.0411837958, 2.23621     , 2.39        , 3           , 50          , 0           , 0
0.401471645 , -0.07159427 , -9.797598   , -0.00207749614, -0.0009031523, -0.00013787394, -0.162397191, -0.181340158, 0.425913453 , 0.007673561 , 0.0411934853, 2.236212    , 2.4         , 3           , 11          , 0.00777327968, 0.007773294
0.403308451 , -0.0671312362, -9.789432   , -0.00264423317, -0.000625409535, -0.0009876864, -0.162532017, -0.181137919, 0.425980866 , 0.00764670968, 0.041187305 , 2.23620152  , 2.41        , 3           , 12          , 0.04688376  , 0
0.4044431   , -0.07982628 , -9.775463   , -0.00122619676, -0.00174211827, -0.000417762436, -0.1624646  , -0.181272745, 0.426048279 , 0.007634269 , 0.04116993  , 2.23619771  , 2.42        , 3           , 50          , 0           , 0
0.396003872 , -0.06754118 , -9.77638149 , 0.00101869949, 0.0013703811, 0.00101023354, -0.1624646  , -0.181272745, 0.426048279 , 0.007644878 , 0.04118355  , 2.23620725  , 2.43        , 3           , 11          , 0.00777327968, 0.007773294
0.408413559 , -0.0577155352, -9.789352   , 0.000743331446, -0.0003209255, -0.00125398673, -0.162734255, -0.181205332, 0.42584604  , 0.0076517947, 0.0411804244, 2.23619485  , 2.44        , 3           , 12          , 0.04688376  , 0
0.42353642  , -0.06748988 , -9.75357151 , 0.00243789284, -0.0003094657, -0.00124608516, -0.162599429, -0.1810031  , 0.426048279 , 0.007675658 , 0.0411774255, 2.23618245  , 2.45        , 3           , 50          , 0           , 0
0.4120878   , -0.04789623 , -9.770301   , 0.00103928312, -0.00285309623, 0.0004386495, -0.162397191, -0.1810705  , 0.426048279 , 0.007686221 , 0.0411488637, 2.23618674  , 2.46        , 3           , 11          , 0.00777327968, 0.007773294
0.40661782  , -0.08706675 , -9.776833   , -0.00123333 , -0.0003342937, -0.0006981302, -0.162397191, -0.1810705  , 0.426048279 , 0.00767359976, 0.0411455743, 2.23617959  , 2.47        , 3           , 12          , 0.04688376  , 0
0.400431126 , -0.08017366 , -9.792219   , -0.00151215307, -0.00089933 , 0.0007123722, -0.162532017, -0.181205332, 0.425980866 , 0.007658767 , 0.0411365256, 2.23618627  , 2.48        , 3           , 50          , 0           , 0
0.4004541   , -0.0819404647, -9.803525   , -0.0026486672, 0.0005008564, 0.0009918115, -0.162599429, -0.1810031  , 0.4261157   , 0.00763269048, 0.04114146  , 2.23619676  , 2.49        , 3           , 11          , 0.00777327968, 0.007773294
0.3977816   , -0.0800873339, -9.80851    , 0.00158225175, 0.000551897567, 0.000163607037, -0.162666842, -0.181205332, 0.426250517 , 0.00764026958, 0.0411841832, 2.23619819  , 2.5         , 3           , 12          , 0.0477914251, 0
0.401905656 , -0.0742929  , -9.801675   , -0.00209536264, 0.00165332586, -0.0006993896, -0.162194952, -0.181272745, 0.42584604  , 0.00761903264, 0.04120077  , 2.236191    , 2.51        , 3           , 50          , 0           , 0
0.404508054 , -0.0802199841, -9.79264    , -0.00180236192, -0.000315715733, 0.000711577 , -0.162194952, -0.181272745, 0.42584604  , 0.00760130025, 0.041197557 , 2.23619866  , 2.52        , 3           , 11          , 0.00767837651, 0.0076783956
0.415298969 , -0.0821945  , -9.77991    , -0.000380054582, -0.002558691, -0.0009805345, -0.162397191, -0.181340158, 0.4261157   , 0.007597089 , 0.0411720537, 2.23618817  , 2.53        , 3           , 12          , 0.0477914251, 0
0.4148442   , -0.08486887 , -9.78806    , 0.00243773335, -0.00113176368, -0.000117583004, -0.1624646  , -0.181272745, 0.4261157   , 0.007621415 , 0.0411607437, 2.23618722  , 2.54        , 3           , 50          , 0           , 0
0.398046523 , -0.0620186068, -9.815213   , 0.00157683878, 0.00167815876, 0.000447880273, -0.162262365, -0.181205332, 0.4261831   , 0.00763737271, 0.04117749  , 2.236192    , 2.55        , 3           , 11          , 0.00767837651, 0.0076783956
0.410076976 , -0.08106664 , -9.828307   , -0.00180448277, -0.000315725862, -0.00296141021, -0.162262365, -0.181205332, 0.4261831   , 0.007618106 , 0.04117456  , 2.236162    , 2.56        , 3           , 12          , 0.0477914251, 0
0.401725531 , -0.08604398 , -9.795397   , 0.00301118847, -0.00253576133, 0.00270825555, -0.162532017, -0.181137919, 0.426048279 , 0.0076493253, 0.0411489941, 2.23618913  , 2.57        , 3           , 50          , 0           , 0
0.406751245 , -0.07803163 , -9.78041    , 0.00102518382, -0.0008597439, 0.001571491 , -0.1624646  , -0.181272745, 0.42631793  , 0.00766021945, 0.0411402769, 2.23620439  , 2.58        , 3           , 11          , 0.00767837651, 0.0076783956
0.413937539 , -0.08128834 , -9.7763     , 0.00186590932, 0.000272241683, -0.00011804721, -0.162666842, -0.181137919, 0.425980866 , 0.007678833 , 0.0411430039, 2.23620343  , 2.59        , 3           , 12          , 0.0477914251, 0
0.4076976   , -0.0757774338, -9.783106   , 0.00188379234, 0.00171188754, -0.002092792, -0.162666842, -0.181137919, 0.425980866 , 0.007741718 , 0.0412151627, 2.23618436  , 2.6         , 3           , 50          , 0           , 0
0.3912764   , -0.08550383 , -9.785531   , -0.00035652105, -0.0019637337, -0.00041374343, -0.162397191, -0.181272745, 0.426250517 , 0.00773797231, 0.04119556  , 2.23618054  , 2.61        , 3           , 11          , 0.0075827674, 0.007582785
0.4065997   , -0.088866815, -9.778196   , 0.000459349947, 0.004517996 , 0.000730337633, -0.162532017, -0.181137919, 0.426385343 , 0.007742881 , 0.0412406847, 2.23618817  , 2.62        , 3           , 12          , 0.0487160869, 0
0.406919152 , -0.07030762 , -9.796649   , 0.00415394362, -0.000243783652, -0.000390068861, -0.162397191, -0.181474984, 0.42584604  , 0.007784257 , 0.04123827  , 2.23618436  , 2.63        , 3           , 50          , 0           , 0
0.402631342 , -0.07802007 , -9.769593   , -8.86868438E-05, 0.000853824 , -0.00153823721, -0.162397191, -0.181474984, 0.42584604  , 0.007782738 , 0.04124693  , 2.23616862  , 2.64        , 3           , 11          , 0.0075827674, 0.007582785
0.408006132 , -0.08438033 , -9.775455   , -0.0009222792, -0.00168598606, 0.000431668828, -0.162329778, -0.181677222, 0.425980866 , 0.0077736876, 0.0412300341, 2.236173    , 2.65        , 3           , 12          , 0.0487160869, 0
0.4021809   , -0.08247638 , -9.784533   , -0.004587021, -0.00311864167, 0.000129841559, -0.162532017, -0.1810705  , 0.4261157   , 0.00772786047, 0.0411988422, 2.23617387  , 2.66        , 3           , 50          , 0           , 0
0.388581753 , -0.08322224 , -9.783734   , -0.00148975768, -0.00112667517, 0.0007124404, -0.162329778, -0.181272745, 0.425980866 , 0.00771325175, 0.04118752  , 2.236181    , 2.67        , 3           , 11          , 0.0075827674, 0.007582785
0.392145962 , -0.0561586171, -9.793087   , 0.0010481535, -0.000546360738, -0.00125260151, -0.162329778, -0.181272745, 0.425980866 , 0.007723216 , 0.0411821529, 2.23616815  , 2.68        , 3           , 12          , 0.0487160869, 0
0.414029717 , -0.07005492 , -9.762693   , -0.00121495349, 0.000283057074, -0.00041422277, -0.162329778, -0.1810705  , 0.4261831   , 0.00771089876, 0.0411850139, 2.23616433  , 2.69        , 3           , 50          , 0           , 0
0.3845984   , -0.06747784 , -9.755676   , 0.000483997719, 1.05770887E-05, 0.000723512261, -0.162869081, -0.181205332, 0.426250517 , 0.00772023434, 0.04118081  , 2.236172    , 2.7         , 3           , 11          , 0.007485982 , 0.007486004
0.390705138 , -0.06692192 , -9.807606   , -0.0006382501, -0.00140488578, 0.00156368734, -0.162397191, -0.181340158, 0.426048279 , 0.007714491 , 0.0411666445, 2.23618722  , 2.71        , 3           , 12          , 0.04965651  , 0
0.4114301   , -0.07305257 , -9.801145   , 0.000215184613, -0.00280698529, 0.00015278098, -0.162397191, -0.181340158, 0.426048279 , 0.00771669671, 0.0411385633, 2.23618817  , 2.72        , 3           , 50          , 0           , 0
0.4029475   , -0.0563391075, -9.777185   , -0.0006245476, -0.00450210972, -0.00126646063, -0.162262365, -0.1810031  , 0.426048279 , 0.00770991854, 0.04109364  , 2.23617578  , 2.73        , 3           , 11          , 0.007485982 , 0.007486004
0.4177336   , -0.0731557161, -9.792509   , 0.0016168193, -0.0005449117, 0.00129298714, -0.162599429, -0.181340158, 0.426048279 , 0.00772661576, 0.0410880931, 2.23618817  , 2.74        , 3           , 12          , 0.04965651  , 0
0.4201226   , -0.06281489 , -9.789737   , 0.000474076543, 0.00198153174, 0.0004440123, -0.162532017, -0.181340158, 0.4261831   , 0.00773154665, 0.0411078744, 2.236193    , 2.75        , 3           , 50          , 0           , 0
0.4021227   , -0.0504604951, -9.778071   , -0.00207202137, 0.002527465 , -0.00210980931, -0.162397191, -0.181474984, 0.425913453 , 0.00770996464, 0.04113331  , 2.236172    , 2.76        , 3           , 11          , 0.007485982 , 0.007486004
0.425650239 , -0.0565534942, -9.79238    , 0.00103474816, 0.00283004716, 0.000447947939, -0.162397191, -0.181474984, 0.425913453 , 0.00772050675, 0.04116158  , 2.23617673  , 2.77        , 3           , 12          , 0.04965651  , 0
0.394686639 , -0.06481379 , -9.777736   , 0.000751668646, 0.00282813422, -0.0006835187, -0.162329778, -0.181205332, 0.426048279 , 0.00772775  , 0.0411899053, 2.23617     , 2.78        , 3           , 50          , 0           , 0
0.389936745 , -0.08279459 , -9.781463   , 0.00244655623, 0.00283959555, -0.000110542089, -0.1624646  , -0.181272745, 0.425778627 , 0.00775217824, 0.0412183255, 2.236169    , 2.79        , 3           , 11          , 0.007485982 , 0.007486004
0.399032563 , -0.0815293044, -9.786811   , 0.00438310253, -0.000241791946, 0.000739191135, -0.162532017, -0.181272745, 0.4261831   , 0.007691901 , 0.04122041  , 2.23617244  , 2.8         , 3           , 12          , 0.0506115332, 0
0.4004115   , -0.08152862 , -9.791773   , -0.000424382248, 0.0008519957, -0.0004116108, -0.162532017, -0.181272745, 0.4261831   , 0.00768749043, 0.04122896  , 2.23616815  , 2.81        , 3           , 50          , 0           , 0
0.398155063 , -0.07881781 , -9.785      , 0.00240381621, 0.000307970826, 0.001578453 , -0.162397191, -0.181205332, 0.425980866 , 0.007712181 , 0.0412319228, 2.23618436  , 2.82        , 3           , 11          , 0.00738926232, 0.007389283
0.407337219 , -0.0667702556, -9.776743   , 0.00352836214, 0.00116030127, -0.000110202272, -0.162329778, -0.181137919, 0.4261157   , 0.00774742151, 0.04124353  , 2.236183    , 2.83        , 3           , 12          , 0.0506115332, 0
0.3842374   , -0.06695182 , -9.776469   , -0.0004356974, 0.00310451584, -0.0006906768, -0.162532017, -0.181137919, 0.425913453 , 0.00774279051, 0.0412746221, 2.23617673  , 2.84        , 3           , 50          , 0           , 0
0.388942778 , -0.0588268042, -9.793574   , 0.000433560868, -0.00139479735, -0.00125874393, -0.162532017, -0.181137919, 0.425913453 , 0.007746602 , 0.04126077  , 2.23616338  , 2.85        , 3           , 11          , 0.00738926232, 0.007389283
0.404226661 , -0.06266816 , -9.778106   , 0.0009933278, -0.000264714647, -0.000406761828, -0.162397191, -0.181137919, 0.426048279 , 0.007756365 , 0.0412581675, 2.23615956  , 2.86        , 3           , 12          , 0.0506115332, 0
0.400455058 , -0.08060062 , -9.799452   , 0.002970316 , -0.000251344871, -0.000397543336, -0.162397191, -0.1810031  , 0.4261157   , 0.007785908 , 0.04125568  , 2.23615575  , 2.87        , 3           , 50          , 0           , 0
0.430320174 , -0.07605682 , -9.778866   , -0.0009843125, -0.000278087566, -0.00154613028, -0.162194952, -0.181205332, 0.425980866 , 0.00777542265, 0.0412530228, 2.23614     , 2.88        , 3           , 11          , 0.00738926232, 0.007389283
0.409013    , -0.0785063356, -9.7813     , 0.00183830969, 0.000304147747, 0.000445669051, -0.162194952, -0.181205332, 0.425980866 , 0.00779399276, 0.04125602  , 2.2361443   , 2.89        , 3           , 12          , 0.0506115332, 0
0.412307769 , -0.0704077  , -9.785759   , -0.000729223248, 0.0002940496, 0.00184533838, -0.162599429, -0.181340158, 0.425913453 , 0.007736536 , 0.0412724279, 2.23616052  , 2.9         , 3           , 50          , 0           , 0
0.4029955   , -0.0545148477, -9.783052   , 0.000107082771, 0.0019891574, -0.002668707, -0.1624646  , -0.180935681, 0.426250517 , 0.00773650967, 0.0412925258, 2.23613429  , 2.91        , 3           , 11          , 0.007294264 , 0.00729428045
0.399066985 , -0.0855186  , -9.808071   , 0.00040779484, -0.00166927767, -0.00239049341, -0.162532017, -0.181340158, 0.426250517 , 0.007739593 , 0.0412760153, 2.23611     , 2.92        , 3           , 12          , 0.05158007  , 0
0.3968457   , -0.07563776 , -9.786804   , -0.0004533514, 0.00142221514, 0.000153166155, -0.162532017, -0.181340158, 0.426250517 , 0.00773513  , 0.0412902236, 2.23611188  , 2.93        , 3           , 50          , 0           , 0
0.3895984   , -0.07421589 , -9.781881   , 0.00180524751, 0.00143749092, -0.00124898565, -0.1629365  , -0.181272745, 0.426048279 , 0.0077526723, 0.0413047038, 2.23609948  , 2.94        , 3           , 11          , 0.007294264 , 0.00729428045
0.393048078 , -0.08332528 , -9.76878452 , -0.00100336038, -0.00167882279, -0.0007018532, -0.162397191, -0.181272745, 0.4261157   , 0.007742342 , 0.04128797  , 2.23609233  , 2.95        , 3           , 12          , 0.05158007  , 0
0.395174652 , -0.06255882 , -9.77907848 , -0.000151245316, -0.002517785, 0.000430945482, -0.162194952, -0.181407571, 0.425980866 , 0.00774099724, 0.041262757 , 2.23609662  , 2.96        , 3           , 50          , 0           , 0
0.4098262   , -0.08751882 , -9.787658   , -0.0007246261, -0.0008322155, 0.00014837776, -0.1624646  , -0.181137919, 0.426048279 , 0.00773380836, 0.0412544236, 2.23609757  , 2.97        , 3           , 11          , 0.007294264 , 0.00729428045
0.3975538   , -0.09321608 , -9.795007   , 0.000408032356, -0.00138770475, 0.000435315131, -0.1624646  , -0.181137919, 0.426048279 , 0.007738067 , 0.0412405133, 2.23610234  , 2.98        , 3           , 12          , 0.05158007  , 0
0.407150149 , -0.08790029 , -9.798979   , 0.00236968626, 0.00172288076, 0.0004493069, -0.162532017, -0.180868283, 0.4261157   , 0.00776195433, 0.04125771  , 2.23610663  , 2.99        , 3           , 50          , 0           , 0
0.387600183 , -0.08773672 , -9.779694   , 0.00239914958, 1.69579871E-05, 0.000447736849, -0.162599429, -0.1810031  , 0.426385343 , 0.007828064 , 0.0412250347, 2.23611331  , 3           , 3           , 11          , 0.00719938427, 0.007199402
0.399318576 , -0.09282851 , -9.782336   , 0.0004218355, 3.58663965E-06, -0.000126556391, -0.162599429, -0.181137919, 0.425980866 , 0.007832231 , 0.0412250832, 2.23611188  , 3.01        , 3           , 12          , 0.05256109  , 0
0.416731745 , -0.0799184  , -9.790737   , -0.00296138413, -0.00114559173, 0.00042097937, -0.162599429, -0.181137919, 0.425980866 , 0.00780278724, 0.0412135944, 2.23611569  , 3.02        , 3           , 50          , 0           , 0
0.395846784 , -0.08596884 , -9.79725    , -0.00153949193, -0.00310699688, 0.000424526545, -0.162532017, -0.180935681, 0.425913453 , 0.007787556 , 0.0411825   , 2.23612     , 3.03        , 3           , 11          , 0.00719938427, 0.007199402
0.404130965 , -0.06854823 , -9.773611   , 0.0009736536, 0.00254149  , -0.0009676296, -0.1624646  , -0.1810031  , 0.4261157   , 0.007796903 , 0.0412079766, 2.23611045  , 3.04        , 3           , 12          , 0.05256109  , 0
0.404165357 , -0.0698593557, -9.786271   , 0.0006989382, 0.0008501863, -0.00210170029, -0.162801668, -0.181205332, 0.425913453 , 0.00780302845, 0.04121664  , 2.23608947  , 3.05        , 3           , 50          , 0           , 0
0.394932181 , -0.08551915 , -9.793638   , -0.000417081, -0.00169153337, -0.000133110792, -0.162801668, -0.181205332, 0.425913453 , 0.00779879652, 0.0411997363, 2.236088    , 3.06        , 3           , 11          , 0.00719938427, 0.007199402
0.398234    , -0.07295133 , -9.785427   , 0.00240365788, -0.0008277358, 0.00101151  , -0.1624646  , -0.181340158, 0.425913453 , 0.00782324653, 0.0411913842, 2.236098    , 3.07        , 3           , 12          , 0.05256109  , 0
0.391464442 , -0.07553165 , -9.79949951 , 0.000420026365, 0.0005667214, 0.00156953628, -0.1624646  , -0.1810705  , 0.426250517 , 0.007828094 , 0.0411969274, 2.23611379  , 3.08        , 3           , 50          , 0           , 0
0.388836473 , -0.06650091 , -9.792251   , 0.00296679139, -0.000542352267, 0.000449502841, -0.162329778, -0.181340158, 0.425980866 , 0.007857945 , 0.04119147  , 2.23611856  , 3.09        , 3           , 11          , 0.00719938427, 0.007199402
0.418688655 , -0.06419926 , -9.775742   , 0.00126804784, -0.000307903276, 0.000724725251, -0.162329778, -0.181340158, 0.425980866 , 0.007864869 , 0.0411152281, 2.23612523  , 3.1         , 3           , 12          , 0.0535536446, 0
0.3989711   , -0.08916713 , -9.796335   , -0.002964662, -0.00118125032, -0.000143942831, -0.162532017, -0.181205332, 0.4261157   , 0.00783516  , 0.0411034264, 2.23612332  , 3.11        , 3           , 50          , 0           , 0
0.4110381   , -0.06898085 , -9.802938   , -0.0007176302, 0.00136811589, 0.0001530353, -0.162532017, -0.181137919, 0.42631793  , 0.00782805  , 0.0411170945, 2.23612523  , 3.12        , 3           , 11          , 0.007106325 , 0.007106344
0.410240024 , -0.08978745 , -9.785404   , 0.00211409735, -2.06074328E-05, 0.0010116474, -0.162666842, -0.181474984, 0.4261831   , 0.007849608 , 0.04111681  , 2.23613572  , 3.13        , 3           , 12          , 0.0535536446, 0
0.405889571 , -0.07664637 , -9.786739   , -0.0004167551, -0.00229031849, 0.000713786052, -0.162666842, -0.181474984, 0.4261831   , 0.007845726 , 0.04109385  , 2.2361424   , 3.14        , 3           , 50          , 0           , 0
0.391616166 , -0.0620182678, -9.793115   , 0.00211483915, -0.0003021757, -0.000118936216, -0.162599429, -0.1810705  , 0.4261157   , 0.007866825 , 0.0410908423, 2.23614144  , 3.15        , 3           , 11          , 0.007106325 , 0.007106344
0.412796676 , -0.06949106 , -9.791628   , 0.00183043967, 0.000259048422, 0.00129330193, -0.162599429, -0.181205332, 0.42631793  , 0.007885662 , 0.04109333  , 2.23615432  , 3.16        , 3           , 12          , 0.0535536446, 0
0.408173025 , -0.0779961646, -9.795767   , -0.00127214764, -0.000888228649, -0.00126575725, -0.162734255, -0.181137919, 0.425980866 , 0.007872417 , 0.0410845578, 2.23614144  , 3.17        , 3           , 50          , 0           , 0
0.4266102   , -0.09126121 , -9.806528   , 0.005210545 , 0.00197135541, 0.000181558775, -0.162734255, -0.181137919, 0.425980866 , 0.007924604 , 0.04110425  , 2.23614335  , 3.18        , 3           , 11          , 0.007106325 , 0.007106344
0.404249042 , -0.1054255  , -9.810373   , 0.00381423417, -0.00113540806, 0.00101781334, -0.162397191, -0.181340158, 0.425913453 , 0.007963159 , 0.0410928167, 2.23615384  , 3.19        , 3           , 12          , 0.0535536446, 0
0.40910688  , -0.0699495748, -9.776743   , 0.000451522879, -0.00225980813, 0.000153309433, -0.162532017, -0.1810705  , 0.4261831   , 0.008012946 , 0.04112268  , 2.2361567   , 3.2         , 3           , 50          , 0           , 0
0.404209882 , -0.07026969 , -9.798477   , -0.001241318, -0.00255283131, 0.0007100489, -0.162599429, -0.181272745, 0.4261831   , 0.008000817 , 0.0410970859, 2.23616338  , 3.21        , 3           , 11          , 0.00701495958, 0.00701498
0.403544545 , -0.0829344  , -9.787235   , 0.00241055177, 0.00141390855, 0.0004507066, -0.162734255, -0.181272745, 0.4261157   , 0.008025113 , 0.0411111861, 2.23616815  , 3.22        , 3           , 12          , 0.0545568354, 0
0.414787531 , -0.07821953 , -9.752779   , 0.0009985806, 0.00140435947, 0.000726659433, -0.162734255, -0.181272745, 0.4261157   , 0.008035403 , 0.0411251746, 2.23617578  , 3.23        , 3           , 50          , 0           , 0
0.4093996   , -0.07722623 , -9.76095    , 0.00128969783, -0.000283119443, 0.00129044778, -0.162734255, -0.181137919, 0.42631793  , 0.008048829 , 0.04112224  , 2.23618817  , 3.24        , 3           , 11          , 0.00701495958, 0.00701498
0.411254257 , -0.0763194859, -9.768616   , 0.000156060516, 0.0002723654, -0.000691714347, -0.162532017, -0.181407571, 0.4261157   , 0.008050107 , 0.04112502  , 2.2361815   , 3.25        , 3           , 12          , 0.0545568354, 0
0.411296874 , -0.0767313242, -9.78037    , -0.000135798036, 0.00224141264, -0.000124918719, -0.162329778, -0.1815424  , 0.4261831   , 0.008048709 , 0.0411474369, 2.23618054  , 3.26        , 3           , 50          , 0           , 0
0.402095377 , -0.057177864, -9.793015   , 0.00268921186, 0.001978944 , -0.00124233332, -0.162329778, -0.1815424  , 0.4261831   , 0.008075094 , 0.0411673263, 2.23616815  , 3.27        , 3           , 11          , 0.00701495958, 0.00701498
0.4054552   , -0.0743943751, -9.78402    , 0.0009945617, 0.00224905554, 0.00101049873, -0.1624646  , -0.181205332, 0.4261831   , 0.008085462 , 0.0411897376, 2.23617864  , 3.28        , 3           , 12          , 0.0545568354, 0
0.40820536  , -0.06948931 , -9.776296   , 0.001557117 , 0.00281600817, 0.00186161289, -0.162397191, -0.1810031  , 0.4261831   , 0.008101811 , 0.0412177481, 2.23619723  , 3.29        , 3           , 50          , 0           , 0
0.401660055 , -0.0562657081, -9.79437    , -0.000438625662, 0.000572075369, -0.00154285762, -0.1624646  , -0.181272745, 0.425913453 , 0.008035624 , 0.0412716   , 2.23617959  , 3.3         , 3           , 11          , 0.00692602433, 0.006926051
0.417339355 , -0.0722103044, -9.803808   , -0.00296792085, -0.00197920017, -0.00155861548, -0.1624646  , -0.181272745, 0.425913453 , 0.008005295 , 0.0412519276, 2.23616338  , 3.31        , 3           , 12          , 0.0555698238, 0
0.415877461 , -0.08120529 , -9.807472   , -0.000153662782, 0.0002924257, 0.000435787631, -0.1624646  , -0.181272745, 0.426048279 , 0.008003939 , 0.04125482  , 2.23616815  , 3.32        , 3           , 50          , 0           , 0
0.389781415 , -0.06112343 , -9.784538   , -0.00100298983, 0.000568257761, -0.000697879, -0.162734255, -0.1810031  , 0.426250517 , 0.007993624 , 0.0412605554, 2.236161    , 3.33        , 3           , 11          , 0.00692602433, 0.006926051
0.3974387   , -0.06749514 , -9.794901   , 0.000968095439, 0.00170788635, -0.00125199964, -0.1624646  , -0.181340158, 0.4261157   , 0.008002794 , 0.0412777364, 2.2361486   , 3.34        , 3           , 12          , 0.0555698238, 0
0.427410722 , -0.06465012 , -9.80596    , 0.00183291978, -0.00166516076, 0.000159431118, -0.1624646  , -0.181340158, 0.4261157   , 0.008021182 , 0.04126107  , 2.23615     , 3.35        , 3           , 50          , 0           , 0
0.411699623 , -0.08391878 , -9.79124451 , 0.001262164 , -0.0005427221, -0.000406541716, -0.162801668, -0.181205332, 0.42584604  , 0.008033637 , 0.04125567  , 2.23614621  , 3.36        , 3           , 11          , 0.00692602433, 0.006926051
0.4059634   , -0.10016901 , -9.76966    , -0.00126262312, -0.00393869076, 0.000141473356, -0.1624646  , -0.180935681, 0.426048279 , 0.008021058 , 0.0412162729, 2.23614717  , 3.37        , 3           , 12          , 0.0555698238, 0
0.40884164  , -0.0608653  , -9.79343    , 0.00211395277, -0.00138168572, 0.000161181975, -0.162532017, -0.181272745, 0.426048279 , 0.008042257 , 0.04120245  , 2.2361486   , 3.38        , 3           , 50          , 0           , 0
0.3941279   , -0.05470246 , -9.830129   , -0.0015597312, -0.000843382266, 0.00127507967, -0.162532017, -0.181272745, 0.426048279 , 0.008027182 , 0.0411939137, 2.23616147  , 3.39        , 3           , 11          , 0.00692602433, 0.006926051
0.41996336  , -0.08169067 , -9.811511   , 0.00121687807, 0.0008776806, 0.000159013143, -0.162666842, -0.181272745, 0.426048279 , 0.007952225 , 0.041231025 , 2.23615956  , 3.4         , 3           , 12          , 0.056591846 , 0
0.397318929 , -0.078304626, -9.80037    , 0.0017767339, 0.00172619184, -0.00124973827, -0.162599429, -0.1810031  , 0.4261831   , 0.007969486 , 0.0412483849, 2.23614717  , 3.41        , 3           , 50          , 0           , 0
0.3932008   , -0.07338181 , -9.774166   , 0.00120941852, 0.00228550355, -0.0006864294, -0.1624646  , -0.181272745, 0.426048279 , 0.0079813   , 0.0412712954, 2.23614049  , 3.42        , 3           , 11          , 0.006838807 , 0.00683883065
0.420610577 , -0.08815953 , -9.769046   , -0.00131987687, -0.000265771756, -0.0007021872, -0.1624646  , -0.181272745, 0.426048279 , 0.007967811 , 0.0412686951, 2.23613334  , 3.43        , 3           , 12          , 0.056591846 , 0
0.413369477 , -0.0609184578, -9.793396   , 0.00291685225, -0.000237120665, -0.000117358206, -0.162599429, -0.181340158, 0.42584604  , 0.007996929 , 0.041266337 , 2.236132    , 3.44        , 3           , 50          , 0           , 0
0.41617462  , -0.05730787 , -9.803304   , 0.00262884935, 0.000887229631, -0.000116939395, -0.162599429, -0.1810031  , 0.4261831   , 0.008023174 , 0.0412752181, 2.236131    , 3.45        , 3           , 11          , 0.006838807 , 0.00683883065
0.416712254 , -0.0861831158, -9.80613    , 0.00236298726, -0.002493462, -0.000406001025, -0.162532017, -0.181137919, 0.4261831   , 0.008046626 , 0.0412503146, 2.23612666  , 3.46        , 3           , 12          , 0.056591846 , 0
0.3973874   , -0.07646374 , -9.811211   , -0.00187678169, -0.00167741242, 0.000988234 , -0.162532017, -0.181272745, 0.425980866 , 0.008028259 , 0.0412334651, 2.23613667  , 3.47        , 3           , 50          , 0           , 0
0.410610646 , -0.0573499128, -9.771707   , -0.00217191782, 0.0008547626, 0.000708284962, -0.162532017, -0.181272745, 0.425980866 , 0.008006835 , 0.041241955 , 2.23614335  , 3.48        , 3           , 11          , 0.006838807 , 0.00683883065
0.383026958 , -0.0610134564, -9.793629   , 0.0003691081, 0.000871948432, -0.00069254986, -0.162599429, -0.1810705  , 0.425913453 , 0.008010245 , 0.0412507281, 2.23613667  , 3.49        , 3           , 12          , 0.056591846 , 0
0.3805481   , -0.0794614  , -9.800503   , -0.00137019309, 0.00170749053, 0.0009943827, -0.162329778, -0.181205332, 0.4261157   , 0.007900396 , 0.04127309  , 2.23614335  , 3.5         , 3           , 50          , 0           , 0
0.406065822 , -0.0951761  , -9.778679   , 0.00117238984, 0.001443112 , -0.000124348546, -0.162532017, -0.181272745, 0.425778627 , 0.007912076 , 0.04128753  , 2.236142    , 3.51        , 3           , 11          , 0.006752909 , 0.00675293151
0.4054495   , -0.07707709 , -9.791264   , 0.0006087669, 0.00115772639, -0.000409953849, -0.162532017, -0.181272745, 0.425778627 , 0.007917997 , 0.04129913  , 2.23613763  , 3.52        , 3           , 12          , 0.05762216  , 0
0.426158935 , -0.08411308 , -9.783903   , -0.0008022994, 0.000866609858, -0.0009820475, -0.162397191, -0.181137919, 0.42631793  , 0.007909573 , 0.0413078777, 2.236128    , 3.53        , 3           , 50          , 0           , 0
0.427167356 , -0.06841807 , -9.758519   , 0.000603027758, 0.00228398573, -0.0006907556, -0.1624646  , -0.181340158, 0.426250517 , 0.007915326 , 0.04133077  , 2.23612142  , 3.54        , 3           , 11          , 0.006752909 , 0.00675293151
0.4331547   , -0.0679589137, -9.781523   , 0.00228980323, 0.003703267 , -0.0020933717, -0.162397191, -0.181272745, 0.425980866 , 0.007937373 , 0.0413679667, 2.236101    , 3.55        , 3           , 12          , 0.05762216  , 0
0.406440765 , -0.0721084252, -9.796207   , 0.000610161 , 0.00087616127, -0.000410387816, -0.162397191, -0.181272745, 0.425980866 , 0.007943306 , 0.0413767621, 2.23609662  , 3.56        , 3           , 50          , 0           , 0
0.386605948 , -0.0290279984, -9.790756   , -0.00051348086, -0.0002577366, 0.000430220971, -0.162599429, -0.1810705  , 0.425980866 , 0.00793835  , 0.0413741432, 2.23610139  , 3.57        , 3           , 11          , 0.006752909 , 0.00675293151
0.4026187   , -0.05757235 , -9.811544   , 0.00145678886, 0.000881888031, -0.001536587, -0.162599429, -0.181205332, 0.426048279 , 0.007952283 , 0.04138308  , 2.23608565  , 3.58        , 3           , 12          , 0.05762216  , 0
0.40224424  , -0.07751522 , -9.784059   , -0.00163417135, -0.00195476366, 0.00155249971, -0.162532017, -0.181340158, 0.426048279 , 0.00793658  , 0.04136341  , 2.23610139  , 3.59        , 3           , 50          , 0           , 0
0.3887514   , -0.0705869645, -9.784584   , 0.00085724087, -0.00136898551, -0.0006970349, -0.162532017, -0.181340158, 0.426048279 , 0.007833958 , 0.0413628668, 2.23608947  , 3.6         , 3           , 11          , 0.00666894531, 0.006668966
0.416704267 , -0.08172603 , -9.789842   , -0.00339359068, 0.00141801324, -0.00156006217, -0.162532017, -0.181609809, 0.4261831   , 0.00779938046, 0.04137716  , 2.23607373  , 3.61        , 3           , 12          , 0.05866009  , 0
0.4086853   , -0.07572155 , -9.802984   , 0.00169574213, 0.000607704569, 0.00100517808, -0.162532017, -0.181137919, 0.426250517 , 0.007816756 , 0.0413831621, 2.23608422  , 3.62        , 3           , 50          , 0           , 0
0.410538733 , -0.1015227  , -9.78545    , 0.00140585611, 0.00201361766, 0.000158418377, -0.162397191, -0.181272745, 0.426048279 , 0.007830886 , 0.0414032936, 2.23608613  , 3.63        , 3           , 11          , 0.00666894531, 0.006668966
0.3847777   , -0.0971638858, -9.784274   , -0.00197162433, -0.000261820271, 0.0009867562, -0.162397191, -0.181272745, 0.426048279 , 0.00781157939, 0.04140059  , 2.23609567  , 3.64        , 3           , 12          , 0.05866009  , 0
0.4102327   , -0.0595156923, -9.7970295  , 0.000284927868, 3.50175542E-05, -0.00154511165, -0.162262365, -0.181272745, 0.4261157   , 0.007813787 , 0.0414010622, 2.23608041  , 3.65        , 3           , 50          , 0           , 0
0.4026834   , -0.07574617 , -9.775008   , 0.000839608256, 0.00229136273, 0.000156218448, -0.1624646  , -0.181205332, 0.426250517 , 0.007822254 , 0.04142396  , 2.23608184  , 3.66        , 3           , 11          , 0.00666894531, 0.006668966
0.399384052 , -0.07983131 , -9.756518   , -0.00140356773, -0.00110270036, -0.000707136467, -0.1624646  , -0.181272745, 0.42631793  , 0.00780792255, 0.0414129868, 2.23607469  , 3.67        , 3           , 12          , 0.05866009  , 0
0.394962132 , -0.07522884 , -9.767834   , 0.00395073742, 0.00118610659, -0.00180879328, -0.162262365, -0.181407571, 0.425980866 , 0.007846683 , 0.04142499  , 2.23605657  , 3.68        , 3           , 50          , 0           , 0
0.394282639 , -0.06700073 , -9.79673    , 0.002256503 , 0.00117464841, -0.00125161977, -0.162262365, -0.181407571, 0.425980866 , 0.007868735 , 0.0414368324, 2.23604417  , 3.69        , 3           , 11          , 0.00666894531, 0.006668966
0.422696829 , -0.07412102 , -9.79112    , -0.0005689543, -0.000272405858, -0.000137027644, -0.162801668, -0.181474984, 0.4261157   , 0.00784129649, 0.0413846336, 2.23604226  , 3.7         , 3           , 12          , 0.0597049855, 0
0.4252042   , -0.08503498 , -9.774875   , -0.00282156165, -0.00169551175, -0.000432270259, -0.162734255, -0.181272745, 0.42631793  , 0.007812896 , 0.04136771  , 2.23603749  , 3.71        , 3           , 50          , 0           , 0
0.379176646 , -0.07186811 , -9.772912   , 0.00197953125, -0.00166304293, -0.0006924199, -0.162329778, -0.181205332, 0.426250517 , 0.0078324   , 0.0413511358, 2.23603034  , 3.72        , 3           , 11          , 0.006587654 , 0.00658766832
0.3728515   , -0.07579963 , -9.789248   , 0.00140803354, -0.000259036082, -0.000127809108, -0.162329778, -0.181205332, 0.426250517 , 0.007846424 , 0.04134856  , 2.236029    , 3.73        , 3           , 12          , 0.0597049855, 0
0.4156433   , -0.0952318  , -9.795328   , -1.26277446E-05, 0.00142080372, -0.000414327631, -0.162397191, -0.181272745, 0.426250517 , 0.007846132 , 0.0413627923, 2.236025    , 3.74        , 3           , 50          , 0           , 0
0.408573121 , -0.08116862 , -9.793064   , 0.000277999934, -0.000266677525, -0.0006981518, -0.1624646  , -0.1810705  , 0.42631793  , 0.00784862  , 0.041360192 , 2.236018    , 3.75        , 3           , 11          , 0.006587654 , 0.00658766832
0.4256994   , -0.08813031 , -9.795222   , 0.0008289134, 0.00255279313, -0.0006911786, -0.162262365, -0.181272745, 0.425913453 , 0.00785663351, 0.0413857661, 2.23601127  , 3.76        , 3           , 12          , 0.0597049855, 0
0.4324023   , -0.09497732 , -9.7952     , 0.00366482325, 0.0003193746, 0.000166131475, -0.162262365, -0.181272745, 0.425913453 , 0.007893354 , 0.0413889438, 2.23601317  , 3.77        , 3           , 50          , 0           , 0
0.3952817   , -0.09408878 , -9.795932   , 0.000845715753, -0.0005444156, 0.00184688531, -0.162532017, -0.181137919, 0.426048279 , 0.007902576 , 0.0413833559, 2.23603177  , 3.78        , 3           , 11          , 0.006587654 , 0.00658766832
0.391841769 , -0.07425909 , -9.776893   , -0.0008445742, -0.00168214191, -0.000423051737, -0.162397191, -0.1810031  , 0.426250517 , 0.00789395  , 0.0413665734, 2.236027    , 3.79        , 3           , 12          , 0.0597049855, 0
0.406791359 , -0.07666002 , -9.785829   , 0.00340159819, 0.00116271258, 0.00101467117, -0.1624646  , -0.181205332, 0.4261831   , 0.007986356 , 0.0413795   , 2.23603988  , 3.8         , 3           , 50          , 0           , 0
0.421403438 , -0.07449879 , -9.808306   , 0.00170097174, 0.00227751071, 0.000160892872, -0.1624646  , -0.181205332, 0.4261831   , 0.008003438 , 0.04140226  , 2.23604131  , 3.81        , 3           , 11          , 0.006508482 , 0.006508496
0.380593061 , -0.0740687549, -9.794153   , 0.003958829 , 0.00257435488, -0.000110674955, -0.162599429, -0.1815424  , 0.426048279 , 0.008042987 , 0.0414280146, 2.23604035  , 3.82        , 3           , 12          , 0.06075626  , 0
0.386402518 , -0.0470468365, -9.798968   , 0.002566701 , -0.00137710362, 0.0007242776, -0.162734255, -0.180935681, 0.4261831   , 0.008068949 , 0.04141418  , 2.236048    , 3.83        , 3           , 50          , 0           , 0
0.416530073 , -0.0654263645, -9.805594   , -0.00166617217, -0.00225045183, -0.000426928018, -0.1624646  , -0.181137919, 0.426048279 , 0.008052104 , 0.041391708 , 2.23604321  , 3.84        , 3           , 11          , 0.006508482 , 0.006508496
0.408169925 , -0.1122935  , -9.794553   , 0.00227607321, 0.000310377422, 0.00100810162, -0.1624646  , -0.181137919, 0.426048279 , 0.008075284 , 0.0413947366, 2.23605371  , 3.85        , 3           , 12          , 0.06075626  , 0
0.4122967   , -0.07532652 , -9.798887   , -0.00110689458, -0.00112037151, -0.000422558427, -0.162599429, -0.181205332, 0.426048279 , 0.008064038 , 0.0413835645, 2.236049    , 3.86        , 3           , 50          , 0           , 0
0.41738078  , -0.0614643171, -9.779356   , -0.0005477801, 9.70799E-06 , -0.0007007263, -0.162532017, -0.1810031  , 0.4261831   , 0.008058271 , 0.0413837135, 2.23604226  , 3.87        , 3           , 11          , 0.006508482 , 0.006508496
0.4110179   , -0.0685508549, -9.79661    , 0.00284617674, -0.000812064565, 0.000443924771, -0.162532017, -0.181137919, 0.426250517 , 0.008086912 , 0.0413755551, 2.23604655  , 3.88        , 3           , 12          , 0.06075626  , 0
0.4009009   , -0.0823969245, -9.803524   , 2.239761E-05, -0.000831162033, 0.00127836794, -0.162532017, -0.181137919, 0.426250517 , 0.008087666 , 0.04136714  , 2.23605943  , 3.89        , 3           , 50          , 0           , 0
0.414601028 , -0.07621307 , -9.811529   , -0.00197004015, -0.0005577417, -0.00183888443, -0.162262365, -0.181272745, 0.426048279 , 0.008035301 , 0.0413753167, 2.2360394   , 3.9         , 3           , 11          , 0.0064311116, 0.006431131
0.384968221 , -0.0564657561, -9.81077    , -0.00139732636, -0.00168017088, 0.00211753859, -0.162599429, -0.1810705  , 0.426048279 , 0.0080222   , 0.0413583368, 2.23606038  , 3.91        , 3           , 12          , 0.0618133619, 0
0.401354462 , -0.0712429  , -9.767768   , 0.00112722325, 0.00143422512, -0.00125628547, -0.162532017, -0.181137919, 0.4261831   , 0.00803296  , 0.04137278  , 2.236048    , 3.92        , 3           , 50          , 0           , 0
0.408854634 , -0.05594496 , -9.780755   , -0.0005722611, 0.00254902872, -0.000132301415, -0.162397191, -0.181205332, 0.425980866 , 0.008027191 , 0.0413982756, 2.236047    , 3.93        , 3           , 11          , 0.0064311116, 0.006431131
0.402948    , -0.0683901757, -9.816106   , -0.00255129533, 0.002817221 , -0.001271236, -0.162397191, -0.181205332, 0.425980866 , 0.008001159 , 0.0414265469, 2.23603463  , 3.94        , 3           , 12          , 0.0618133619, 0
0.395024121 , -0.0720541552, -9.772791   , 0.000282404537, 0.0008653635, -0.00182617933, -0.162599429, -0.1810705  , 0.4261157   , 0.008003231 , 0.041435346 , 2.23601651  , 3.95        , 3           , 50          , 0           , 0
0.423133254 , -0.0634272248, -9.752653   , -0.00139756384, -0.001961744, -0.0007082701, -0.162397191, -0.181677222, 0.4261157   , 0.007988956 , 0.0414157957, 2.236009    , 3.96        , 3           , 11          , 0.0064311116, 0.006431131
0.3900419   , -0.03904121 , -9.777212   , -0.00225960021, 0.000848173047, -0.00212056888, -0.162666842, -0.1815424  , 0.426250517 , 0.007965484 , 0.0414244458, 2.235988    , 3.97        , 3           , 12          , 0.0618133619, 0
0.372158885 , -0.0599941649, -9.790544   , 0.00196539867, 0.003410914 , -0.0001191472, -0.162666842, -0.1815424  , 0.426250517 , 0.0079851   , 0.04145856  , 2.235987    , 3.98        , 3           , 50          , 0           , 0
0.391598374 , -0.07095966 , -9.817559   , -0.000838701264, -0.000550094, 0.0009917581, -0.162599429, -0.1815424  , 0.4261831   , 0.00797712151, 0.0414529778, 2.23599648  , 3.99        , 3           , 11          , 0.0064311116, 0.006431131
0.379114151 , -0.0884337053, -9.810947   , 0.00305137946, 0.00226121116, -0.002095084, -0.1624646  , -0.181407571, 0.426250517 , 0.007878134 , 0.0413928926, 2.23597074  , 4           , 3           , 12          , 0.06287575  , 0
0.3992865   , -0.0607914664, -9.782204   , 0.00250488543, -0.00112138188, 0.0007224497, -0.1624646  , -0.181340158, 0.425913453 , 0.00790348  , 0.04138162  , 2.235978    , 4.01        , 3           , 50          , 0           , 0
0.3961875   , -0.0887430459, -9.778728   , 0.0002383374, 0.000271162979, 0.0004315463, -0.1624646  , -0.181340158, 0.425913453 , 0.007906043 , 0.0413843   , 2.23598218  , 4.02        , 3           , 11          , 0.006355804 , 0.006355828
0.3921301   , -0.09001993 , -9.787352   , -3.809834E-05, -0.00113857712, -0.001267165, -0.162329778, -0.1810705  , 0.42631793  , 0.007905133 , 0.04137301  , 2.23596978  , 4.03        , 3           , 12          , 0.06287575  , 0
0.393931776 , -0.0602175668, -9.79987    , 0.003066135 , -0.00055443577, -0.000686735846, -0.162532017, -0.181272745, 0.4261831   , 0.00793551  , 0.0413675159, 2.23596263  , 4.04        , 3           , 50          , 0           , 0
0.4212131   , -0.04973155 , -9.792838   , 0.00109258783, -0.00113093259, 0.000433327456, -0.1624646  , -0.181272745, 0.4261157   , 0.007946612 , 0.0413561836, 2.235967    , 4.05        , 3           , 11          , 0.006355804 , 0.006355828
0.4020475   , -0.06391187 , -9.802986   , -0.00229948526, -0.0005907229, 0.000135854585, -0.1624646  , -0.181272745, 0.4261157   , 0.007923673 , 0.0413502567, 2.23596787  , 4.06        , 3           , 12          , 0.06287575  , 0
0.399531066 , -0.08283667 , -9.80218    , 0.001655395 , -0.0008455507, -0.000693754468, -0.162532017, -0.181474984, 0.4261831   , 0.007939937 , 0.0413418561, 2.2359612   , 4.07        , 3           , 50          , 0           , 0
0.414309621 , -0.08716165 , -9.775418   , 0.00080983463, -0.001132844, -0.000133064241, -0.1624646  , -0.181205332, 0.4261831   , 0.007947977 , 0.041330535 , 2.23595977  , 4.08        , 3           , 11          , 0.006355804 , 0.006355828
0.411734223 , -0.07228561 , -9.762269   , 0.00194495521, -0.00225146534, -0.000412069727, -0.162329778, -0.181272745, 0.4261831   , 0.007967251 , 0.0413080566, 2.23595548  , 4.09        , 3           , 12          , 0.06287575  , 0
0.3942376   , -0.09999301 , -9.781049   , 0.0007962496, -0.00198148238, 0.00127756677, -0.162329778, -0.181272745, 0.4261831   , 0.007924789 , 0.0412773453, 2.235966    , 4.1         , 3           , 50          , 0           , 0
0.399929285 , -0.08601063 , -9.799027   , -0.002865704, -0.003977268, 0.0009748714, -0.162262365, -0.181137919, 0.426048279 , 0.007896522 , 0.0412374958, 2.2359755   , 4.11        , 3           , 11          , 0.006282553 , 0.00628256844
0.3960768   , -0.0621258542, -9.77681    , -0.00401574327, -4.30012E-05, -0.0004370084, -0.162532017, -0.1810705  , 0.426250517 , 0.007856182 , 0.0412370972, 2.23597074  , 4.12        , 3           , 12          , 0.0639429241, 0
0.38957566  , -0.07468065 , -9.777817   , 0.002489091 , -0.001688459, 0.000720827258, -0.162397191, -0.181474984, 0.4261157   , 0.007881366 , 0.04122016  , 2.235978    , 4.13        , 3           , 50          , 0           , 0
0.412772    , -0.07263551 , -9.79571    , -0.0006205558, -0.00114633958, 0.000424671278, -0.162397191, -0.181474984, 0.4261157   , 0.00787533  , 0.041208677 , 2.23598218  , 4.14        , 3           , 11          , 0.006282553 , 0.00628256844
0.386410356 , -0.0791035444, -9.793225   , -0.00119377347, 0.000539231 , 0.000424640981, -0.1624646  , -0.181205332, 0.425913453 , 0.007863568 , 0.0412140265, 2.235986    , 4.15        , 3           , 12          , 0.0639429241, 0
0.39277637  , -0.080495134, -9.804029   , -0.00203489955, -0.000874328369, -0.0009941667, -0.162532017, -0.181205332, 0.426250517 , 0.007842807 , 0.04120536  , 2.23597646  , 4.16        , 3           , 50          , 0           , 0
0.392616451 , -0.0824101  , -9.771045   , -0.00345105259, -3.918202E-05, -0.000716912036, -0.1624646  , -0.181205332, 0.4261831   , 0.007808002 , 0.0412050337, 2.23596883  , 4.17        , 3           , 11          , 0.006282553 , 0.00628256844
0.396970659 , -0.0603606  , -9.768208   , 0.00106006511, 0.00168077077, 0.0004369122, -0.162194952, -0.181272745, 0.426250517 , 0.007818789 , 0.0412217975, 2.2359736   , 4.18        , 3           , 12          , 0.0639429241, 0
0.408375472 , -0.06131718 , -9.791628   , 0.0005004612, 0.000550689234, -0.000132532092, -0.162194952, -0.181272745, 0.426250517 , 0.007823742 , 0.04122731  , 2.23597264  , 4.19        , 3           , 50          , 0           , 0
0.40188846  , -0.07743129 , -9.807564   , -0.00176791369, -0.000465997815, -0.001698947, -0.162397191, -0.181272745, 0.426385343 , 0.00776897976, 0.0411780737, 2.23595357  , 4.2         , 3           , 11          , 0.00621170038, 0.00621172274
0.404974818 , -0.08155305 , -9.800325   , 0.000207717268, -3.02769422E-05, -0.000417659176, -0.162666842, -0.181340158, 0.4261831   , 0.00777088525, 0.041177813 , 2.23594975  , 4.21        , 3           , 12          , 0.06501446  , 0
0.417008638 , -0.0934567451, -9.791244   , -0.000357099285, 0.000106689236, 0.0008513425, -0.162397191, -0.181272745, 0.4261157   , 0.00776766846, 0.0411788076, 2.23595834  , 4.22        , 3           , 50          , 0           , 0
0.413126469 , -0.07450591 , -9.777636   , 0.00119436462, 0.000398756674, 1.14073373E-05, -0.162397191, -0.181272745, 0.4261157   , 0.007779618 , 0.0411827862, 2.23595834  , 4.23        , 3           , 11          , 0.00621170038, 0.00621172274
0.388150841 , -0.089001745, -9.807716   , 0.003307976 , 0.00125777477, -0.0006837575, -0.162599429, -0.181474984, 0.4261157   , 0.00781242223, 0.041195415 , 2.23595166  , 4.24        , 3           , 12          , 0.06501446  , 0
0.385980129 , -0.08398984 , -9.814492   , 0.00161604  , 0.000683184131, -0.000975064468, -0.162666842, -0.1810031  , 0.4261831   , 0.00782818347, 0.0412023179, 2.23594213  , 4.25        , 3           , 50          , 0           , 0
0.401461959 , -0.107236   , -9.799103   , 0.000912064046, 0.000256061554, -0.0009790077, -0.162532017, -0.181205332, 0.426250517 , 0.00783690251, 0.04120496  , 2.235932    , 4.26        , 3           , 11          , 0.00621170038, 0.00621172274
0.395075053 , -0.07379829 , -9.790877   , 6.33452146E-05, 0.000672682363, 0.000147842235, -0.162532017, -0.181205332, 0.426250517 , 0.007837596 , 0.0412116721, 2.23593354  , 4.27        , 3           , 12          , 0.06501446  , 0
0.394816458 , -0.09587899 , -9.798655   , -0.00177218451, 0.0006602687, 0.0005630883, -0.162599429, -0.181205332, 0.42584604  , 0.007820112 , 0.0412182324, 2.23593926  , 4.28        , 3           , 50          , 0           , 0
0.388598353 , -0.08097705 , -9.780561   , -0.000219652618, 0.0006707697, -0.0008423559, -0.1624646  , -0.1810705  , 0.426452756 , 0.007817567 , 0.041225    , 2.23593068  , 4.29        , 3           , 11          , 0.00621170038, 0.00621172274
0.391094357 , -0.0620689  , -9.776396   , 0.00191753788, 0.001648036 , -0.0001233916, -0.162262365, -0.181340158, 0.426385343 , 0.007904347 , 0.041176632 , 2.235933    , 4.3         , 3           , 12          , 0.06608991  , 0
0.3957959   , -0.05662509 , -9.801196   , 0.00234416639, 0.00122855743, 0.001431889 , -0.162262365, -0.181340158, 0.426385343 , 0.007928383 , 0.0411888063, 2.23594737  , 4.31        , 3           , 50          , 0           , 0
0.405998081 , -0.06852414 , -9.787157   , 0.00333032454, 0.00165758911, 0.00101334287, -0.162532017, -0.1810705  , 0.4261831   , 0.007962109 , 0.0412053019, 2.23595738  , 4.32        , 3           , 11          , 0.006142347 , 0.006142369
0.408647418 , -0.07396683 , -9.788062   , 0.00304601435, 0.00193724176, 0.000164847574, -0.162666842, -0.181205332, 0.4261831   , 0.007992642 , 0.04122466  , 2.23595929  , 4.33        , 3           , 12          , 0.06608991  , 0
0.4080849   , -0.0811920241, -9.784481   , 0.000224126052, 0.00135500974, -0.0005555332, -0.162532017, -0.181609809, 0.4261157   , 0.007994658 , 0.0412382632, 2.23595357  , 4.34        , 3           , 50          , 0           , 0
0.406677246 , -0.08746497 , -9.792653   , -0.00132713059, 0.000922157255, -0.0005634273, -0.162532017, -0.181609809, 0.4261157   , 0.007981157 , 0.04124752  , 2.23594832  , 4.35        , 3           , 11          , 0.006142347 , 0.006142369
0.399757832 , -0.06345984 , -9.795319   , -5.12938641E-05, 8.606048E-05, 0.000712615671, -0.162599429, -0.181340158, 0.4261831   , 0.007980935 , 0.04124833  , 2.23595548  , 4.36        , 3           , 12          , 0.06608991  , 0
0.398994744 , -0.08736253 , -9.796328   , -0.00146281254, -6.427233E-05, 0.0005645453, -0.1624646  , -0.181137919, 0.4261831   , 0.00796654  , 0.04124764  , 2.2359612   , 4.37        , 3           , 50          , 0           , 0
0.416768551 , -0.0754250363, -9.785295   , -0.00245970767, 0.00147764734, -0.000709095853, -0.162599429, -0.181137919, 0.42631793  , 0.007941657 , 0.0412624851, 2.235954    , 4.38        , 3           , 11          , 0.006142347 , 0.006142369
0.405303121 , -0.08344461 , -9.775924   , 7.733643E-05, 0.00248031528, -0.000554455968, -0.1624646  , -0.181340158, 0.426048279 , 0.007942208 , 0.0412873179, 2.2359488   , 4.39        , 3           , 12          , 0.06608991  , 0
0.386425734 , -0.08355458 , -9.811323   , 0.00135623512, 0.00121991558, 0.000155922884, -0.1624646  , -0.181340158, 0.426048279 , 0.007959673 , 0.04129375  , 2.23595071  , 4.4         , 3           , 50          , 0           , 0
0.39561367  , -0.07373406 , -9.811665   , 0.0005063297, 0.00177731679, 0.0004353773, -0.162599429, -0.181272745, 0.4261157   , 0.007964925 , 0.0413114876, 2.23595548  , 4.41        , 3           , 11          , 0.00607496267, 0.00607498642
0.384317815 , -0.06911838 , -9.803144   , -0.0006215312, 0.00134732807, 5.652527E-06, -0.162734255, -0.181272745, 0.426385343 , 0.007958716 , 0.0413249619, 2.23595548  , 4.42        , 3           , 12          , 0.06716887  , 0
0.413197249 , -0.06953871 , -9.77897    , 0.000801592 , -0.0008956435, -0.000273771642, -0.162532017, -0.181205332, 0.42584604  , 0.007966616 , 0.04131603  , 2.23595262  , 4.43        , 3           , 50          , 0           , 0
0.4121353   , -0.0843843147, -9.78853    , 0.00220597768, 0.00066251395, -0.00040606907, -0.162532017, -0.181205332, 0.42584604  , 0.007988512 , 0.0413226858, 2.2359488   , 4.44        , 3           , 11          , 0.00607496267, 0.00607498642
0.392621428 , -0.09088673 , -9.799555   , 0.0005063744, 0.001636531 , -0.00069498946, -0.1624646  , -0.181137919, 0.42631793  , 0.007993292 , 0.0413391031, 2.23594165  , 4.45        , 3           , 12          , 0.06716887  , 0
0.410481751 , -0.0779864639, -9.806597   , -0.00104205718, 0.0007813345, 0.0005678841, -0.162666842, -0.181137919, 0.426250517 , 0.007983109 , 0.0413468741, 2.23594737  , 4.46        , 3           , 50          , 0           , 0
0.407302678 , -0.07572525 , -9.79712    , 0.000379671925, -0.001180072, 0.000288893818, -0.162397191, -0.181205332, 0.4261831   , 0.00798702147, 0.04133505  , 2.23595023  , 4.47        , 3           , 11          , 0.00607496267, 0.00607498642
0.409092963 , -0.06862183 , -9.76905251 , 0.003490141 , -0.00200375961, -0.0004042654, -0.162397191, -0.181205332, 0.4261831   , 0.008021747 , 0.0413150452, 2.235946    , 4.48        , 3           , 12          , 0.06716887  , 0
0.3859092   , -0.08404729 , -9.797318   , 0.0007958083, 0.000371401577, 0.0005757933, -0.162262365, -0.181205332, 0.425980866 , 0.008029947 , 0.04131871  , 2.23595166  , 4.49        , 3           , 50          , 0           , 0
0.4219826   , -0.09753777 , -9.802521   , -0.0025906798, -0.000647921755, -0.000430392, -0.162532017, -0.181137919, 0.42631793  , 0.007998802 , 0.04127929  , 2.235947    , 4.5         , 3           , 11          , 0.006009696 , 0.00600971747
0.430145949 , -0.0922665149, -9.788425   , -0.0017371265, -0.00190923444, -0.0004283939, -0.162734255, -0.181272745, 0.42631793  , 0.007981245 , 0.041260235 , 2.235943    , 4.51        , 3           , 12          , 0.06825095  , 0
0.405506253 , -0.07346032 , -9.793508   , -0.00102901284, -0.00218602153, 0.000704614329, -0.162734255, -0.181272745, 0.42631793  , 0.007971239 , 0.04123832  , 2.23594975  , 4.52        , 3           , 50          , 0           , 0
0.399114341 , -0.07432146 , -9.783617   , -0.000183497221, -0.00175794272, 0.00127429119, -0.162532017, -0.181205332, 0.4261157   , 0.007969922 , 0.0412206352, 2.23596215  , 4.53        , 3           , 11          , 0.006009696 , 0.00600971747
0.402984649 , -0.08658667 , -9.772791   , 0.0006627599, -0.00161143183, 0.000713384 , -0.162599429, -0.181205332, 0.426250517 , 0.007976842 , 0.0412044674, 2.23596931  , 4.54        , 3           , 12          , 0.06825095  , 0
0.401615024 , -0.09684591 , -9.803127   , 0.000661573431, -0.00147065159, -0.000134011483, -0.162329778, -0.181205332, 0.426048279 , 0.007983398 , 0.0411897674, 2.23596787  , 4.55        , 3           , 50          , 0           , 0
0.41641143  , -0.07221782 , -9.798391   , 0.000796224631, -6.186922E-05, 0.000575160258, -0.162329778, -0.181205332, 0.426048279 , 0.007991595 , 0.0411891155, 2.2359736   , 4.56        , 3           , 11          , 0.006009696 , 0.00600971747
0.4036218   , -0.079301   , -9.794451   , 0.0005144949, -0.000204561758, 0.0005736263, -0.162532017, -0.181205332, 0.426250517 , 0.007996975 , 0.0411870219, 2.23597932  , 4.57        , 3           , 12          , 0.06825095  , 0
0.3876534   , -0.08635454 , -9.788275   , 0.0002251426, 0.001060568 , -0.0005558877, -0.162801668, -0.181474984, 0.4261157   , 0.007999002 , 0.04119767  , 2.2359736   , 4.58        , 3           , 50          , 0           , 0
0.40927273  , -0.0573173426, -9.776689   , 0.000363486441, 0.00162465277, -0.000695630151, -0.162532017, -0.1810031  , 0.426250517 , 0.008002355 , 0.04121397  , 2.235967    , 4.59        , 3           , 11          , 0.006009696 , 0.00600971747
0.414978683 , -0.04689429 , -9.809597   , -0.0007636314, 0.0010559099, -0.0009842943, -0.162532017, -0.1810031  , 0.426250517 , 0.007994207 , 0.0412308723, 2.23595738  , 4.6         , 3           , 12          , 0.0693357959, 0
0.4011402   , -0.0612245761, -9.793942   , -0.0007659672, 0.00147825631, -0.00140744972, -0.162397191, -0.181137919, 0.426250517 , 0.007985969 , 0.041245766 , 2.23594356  , 4.61        , 3           , 50          , 0           , 0
0.4123704   , -0.0663397759, -9.788002   , -0.000764780736, 0.00133747619, -0.000560054264, -0.1624646  , -0.181137919, 0.4261831   , 0.007978094 , 0.0412591845, 2.23593831  , 4.62        , 3           , 11          , 0.005945946 , 0.00594597
0.41349265  , -0.0857401043, -9.792594   , -0.00132885587, 0.00119287416, -0.0004216364, -0.162869081, -0.1810031  , 0.4261831   , 0.007964634 , 0.0412711464, 2.23593354  , 4.63        , 3           , 12          , 0.0693357959, 0
0.384663522 , -0.07278128 , -9.788693   , 8.13948645E-05, 0.00148398685, -0.0012622301, -0.162397191, -0.181340158, 0.42631793  , 0.007964935 , 0.041286096 , 2.23592114  , 4.64        , 3           , 50          , 0           , 0
0.415020436 , -0.0708892345, -9.786193   , 7.487706E-05, 0.00275102863, -0.00168408372, -0.162397191, -0.181340158, 0.42631793  , 0.00796499848, 0.0413137339, 2.235905    , 4.65        , 3           , 11          , 0.005945946 , 0.00594597
0.4131283   , -0.0771825761, -9.786686   , -0.000194759021, 0.0002150342, -0.00126549986, -0.162397191, -0.181272745, 0.426250517 , 0.007962526 , 0.041315984 , 2.235892    , 4.66        , 3           , 12          , 0.0693357959, 0
0.4179354   , -0.0573699623, -9.791086   , 0.000382433151, -0.00217444682, -0.000418941869, -0.162532017, -0.1810031  , 0.426048279 , 0.007966171 , 0.0412942842, 2.23588777  , 4.67        , 3           , 50          , 0           , 0
0.429757684 , -0.0530042127, -9.788717   , 0.00023580686, -0.00104914082, -0.000135327078, -0.162397191, -0.181407571, 0.42631793  , 0.00796847  , 0.0412837975, 2.23588586  , 4.68        , 3           , 11          , 0.005945946 , 0.00594597
0.3903067   , -0.09402576 , -9.797325   , -0.0008948866, -0.000775213761, 0.0005661828, -0.162397191, -0.181407571, 0.42631793  , 0.007959751 , 0.041276    , 2.23589158  , 4.69        , 3           , 12          , 0.0693357959, 0
0.387237936 , -0.0863189846, -9.7973175  , -0.000487217825, -0.000479886832, 0.00169796147, -0.162666842, -0.181340158, 0.426250517 , 0.007907345 , 0.04130551  , 2.23590636  , 4.7         , 3           , 50          , 0           , 0
0.409143716 , -0.07572232 , -9.8043375  , -0.00189803983, -0.000771002145, 0.00154967443, -0.1624646  , -0.1815424  , 0.4261157   , 0.007888999 , 0.0412976742, 2.235922    , 4.71        , 3           , 11          , 0.00588401267, 0.00588403968
0.3995328   , -0.07792541 , -9.786793   , -0.00373245729, -0.00120576809, 0.000269044831, -0.1624646  , -0.181272745, 0.42631793  , 0.007851784 , 0.0412855968, 2.23592448  , 4.72        , 3           , 12          , 0.07042308  , 0
0.424925864 , -0.0759612843, -9.788399   , -0.00048835983, -0.0004798923, -0.0002798005, -0.1624646  , -0.181272745, 0.42631793  , 0.007846784 , 0.04128081  , 2.23592162  , 4.73        , 3           , 50          , 0           , 0
0.4248777   , -0.08314191 , -9.799727   , 0.0007830503, -0.000471295061, 0.0005737381, -0.162532017, -0.181474984, 0.426048279 , 0.007854851 , 0.0412760526, 2.23592734  , 4.74        , 3           , 11          , 0.00588401267, 0.00588403968
0.391940534 , -0.06926922 , -9.78500652 , -0.000911058334, -0.0006235386, 0.000141813216, -0.1630039  , -0.1810031  , 0.426048279 , 0.007845798 , 0.0412698165, 2.23592877  , 4.75        , 3           , 12          , 0.07042308  , 0
0.3865534   , -0.0696142539, -9.797705   , -0.000487418059, -0.000620673643, 0.000143788609, -0.162532017, -0.181137919, 0.42631793  , 0.007840983 , 0.041263584 , 2.2359302   , 4.76        , 3           , 50          , 0           , 0
0.39783898  , -0.07557733 , -9.808039   , 0.000218567366, -0.0006158991, 5.81226232E-06, -0.162532017, -0.181137919, 0.42631793  , 0.007843168 , 0.04125743  , 2.2359302   , 4.77        , 3           , 11          , 0.00588401267, 0.00588403968
0.38221693  , -0.08540055 , -9.784697   , -0.0004919264, 0.000224020056, -0.0004199845, -0.162801668, -0.181205332, 0.425913453 , 0.007838075 , 0.0412597023, 2.235926    , 4.78        , 3           , 12          , 0.07042308  , 0
0.419652373 , -0.098903954, -9.790794   , 0.000359862257, -0.000614943565, 0.000147739454, -0.1624646  , -0.1810705  , 0.4261831   , 0.007841732 , 0.04125354  , 2.23592734  , 4.79        , 3           , 50          , 0           , 0
0.399584323 , -0.0711883754, -9.777724   , 0.000223406372, -5.565944E-05, -0.000275479164, -0.162532017, -0.1810705  , 0.426385343 , 0.007869079 , 0.0412436649, 2.235926    , 4.8         , 3           , 11          , 0.005823703 , 0.005823726
0.401431739 , -0.0751974359, -9.799422   , -0.0007659106, 0.000219223351, 0.000709226646, -0.162532017, -0.1810705  , 0.426385343 , 0.007861713 , 0.0412458   , 2.235933    , 4.81        , 3           , 12          , 0.0715124756, 0
0.393882483 , -0.06382829 , -9.799432   , -0.0009040469, -0.000485646218, 1.13950591E-06, -0.162666842, -0.181272745, 0.4261157   , 0.007852673 , 0.0412409455, 2.235933    , 4.82        , 3           , 50          , 0           , 0
0.399198264 , -0.03415613 , -9.785709   , -0.00133592507, 0.0010600941, -0.0009873303, -0.162329778, -0.181272745, 0.426250517 , 0.00783891  , 0.0412516221, 2.235923    , 4.83        , 3           , 11          , 0.005823703 , 0.005823726
0.391168863 , -0.09228622 , -9.78104    , -0.000633632066, 0.00190956634, -0.000276392442, -0.162329778, -0.181205332, 0.426452756 , 0.007832467 , 0.0412707329, 2.23592067  , 4.84        , 3           , 12          , 0.0715124756, 0
0.390000582 , -0.07961839 , -9.786873   , 0.000641841267, 0.0009326817, -0.000837060041, -0.162329778, -0.181205332, 0.426452756 , 0.0078385435, 0.0412801243, 2.23591256  , 4.85        , 3           , 50          , 0           , 0
0.3949143   , -0.08196285 , -9.777805   , -0.0006235033, -0.00020217344, -0.000844722, -0.162599429, -0.181205332, 0.426048279 , 0.007831961 , 0.04127816  , 2.235904    , 4.86        , 3           , 11          , 0.005823703 , 0.005823726
0.4032162   , -0.08104284 , -9.811636   , 0.00120919372, 0.000514156 , -0.000128733431, -0.162532017, -0.181205332, 0.4261157   , 0.007844002 , 0.0412833244, 2.235903    , 4.87        , 3           , 12          , 0.0715124756, 0
0.420314819 , -0.0875806  , -9.805657   , 0.003465613 , 0.00123335083, 0.0007304993, -0.162869081, -0.181137919, 0.426250517 , 0.007878967 , 0.041295588 , 2.2359097   , 4.88        , 3           , 50          , 0           , 0
0.3977168   , -0.0743372738, -9.774136   , 0.00148854358, 0.00121998054, 0.000580012042, -0.162734255, -0.181340158, 0.425980866 , 0.007894095 , 0.0413077436, 2.235916    , 4.89        , 3           , 11          , 0.005823703 , 0.005823726
0.3781597   , -0.0813210756, -9.776123   , 0.00148991949, 0.000929792353, 0.00029717345, -0.162734255, -0.181340158, 0.425980866 , 0.007909615 , 0.041288536 , 2.23591924  , 4.9         , 3           , 12          , 0.07260371  , 0
0.400359482 , -0.08380252 , -9.786359   , 0.0007886055, 8.032506E-05, 0.0012814604, -0.162397191, -0.181137919, 0.42631793  , 0.007918028 , 0.04128924  , 2.235932    , 4.91        , 3           , 50          , 0           , 0
0.403761834 , -0.0613335781, -9.770872   , -0.0021740438, -0.0006436455, 0.000136397837, -0.162599429, -0.181340158, 0.426385343 , 0.007896343 , 0.0412828   , 2.23593354  , 4.92        , 3           , 11          , 0.005764953 , 0.005764977
0.3675053   , -0.0712016448, -9.796049   , -0.00288137887, -0.0005076406, -0.000855558668, -0.162666842, -0.181272745, 0.426250517 , 0.007867173 , 0.04127778  , 2.235925    , 4.93        , 3           , 12          , 0.07260371  , 0
0.389029741 , -0.05473923 , -9.801692   , -0.00189682236, 0.0003437408, -0.000425841252, -0.162666842, -0.181272745, 0.426250517 , 0.00784803  , 0.0412812568, 2.23592067  , 4.94        , 3           , 50          , 0           , 0
0.408647865 , -0.07842996 , -9.802544   , -0.000760760449, -0.0009156618, -0.0002812576, -0.162599429, -0.181137919, 0.4261831   , 0.007840304 , 0.04127212  , 2.23591781  , 4.95        , 3           , 11          , 0.005764953 , 0.005764977
0.4330515   , -0.07384505 , -9.77522    , -0.000473291468, -0.0018992289, 1.07803544E-06, -0.162599429, -0.181407571, 0.426452756 , 0.007835564 , 0.04125313  , 2.23591781  , 4.96        , 3           , 12          , 0.07260371  , 0
0.384945244 , -0.08229857 , -9.77743149 , -0.00146851072, -0.000498087145, 0.0004224446, -0.162532017, -0.181272745, 0.426250517 , 0.007821051 , 0.0412481166, 2.235922    , 4.97        , 3           , 50          , 0           , 0
0.3872444   , -0.08006486 , -9.778759   , 0.0005039687, 0.000359976257, -0.000132110014, -0.162532017, -0.181272745, 0.426250517 , 0.007826037 , 0.0412517227, 2.23592067  , 4.98        , 3           , 11          , 0.005764953 , 0.005764977
0.406316    , -0.08202922 , -9.79760551 , 0.00275576068, 0.00178307819, -0.00124955457, -0.162666842, -0.181340158, 0.42631793  , 0.007853086 , 0.0412696525, 2.23590827  , 4.99        , 3           , 12          , 0.07260371  , 0
0.391815484 , -0.07963662 , -9.787764   , 0.00177223666, 0.000637044141, -0.0009732243, -0.162869081, -0.181205332, 0.4261831   , 0.007867823 , 0.0412319265, 2.23589921  , 5           , 3           , 50          , 0           , 0
0.404159874 , -0.0774518251, -9.809354   , 0.0005098801, -0.0009201544, 0.000572418969, -0.162599429, -0.181137919, 0.426250517 , 0.007873155 , 0.0412226766, 2.235905    , 5.01        , 3           , 11          , 0.00570793357, 0.00570795732
0.40379405  , -0.06309282 , -9.784438   , 0.000360673352, 0.000627497036, 9.072119E-06, -0.162599429, -0.181137919, 0.426250517 , 0.007876769 , 0.0412289463, 2.235905    , 5.02        , 3           , 12          , 0.07369646  , 0
0.395863473 , -0.073457554, -9.761039   , -0.0007671061, 0.000197508722, -0.000279384054, -0.162532017, -0.181205332, 0.426048279 , 0.007868984 , 0.0412309468, 2.235902    , 5.03        , 3           , 50          , 0           , 0
0.400058985 , -0.069390595, -9.777262   , -0.00118591159, -0.0006500483, 0.000847488642, -0.162329778, -0.181137919, 0.42631793  , 0.007857472 , 0.0412243754, 2.23591065  , 5.04        , 3           , 11          , 0.00570793357, 0.00570795732
0.401665658 , -0.0562611744, -9.795727   , -5.644913E-05, -0.000642409665, 0.0004289501, -0.162532017, -0.181340158, 0.42631793  , 0.007857084 , 0.0412179232, 2.23591447  , 5.05        , 3           , 12          , 0.07369646  , 0
0.413759947 , -0.06454507 , -9.789792   , -0.000336540252, -0.0010666661, 0.0008507885, -0.162532017, -0.181340158, 0.42631793  , 0.007854067 , 0.0412071832, 2.235923    , 5.06        , 3           , 50          , 0           , 0
0.4313544   , -0.0683752  , -9.785606   , 0.00149529683, -0.000209554841, 0.0012844567, -0.162599429, -0.181272745, 0.4261157   , 0.007869552 , 0.04120499  , 2.235936    , 5.07        , 3           , 11          , 0.00570793357, 0.00570795732
0.437690526 , -0.0697909743, -9.789179   , 0.002763022 , 0.0003621683, 0.0005849072, -0.162599429, -0.181340158, 0.4261831   , 0.007897423 , 0.0412085652, 2.23594213  , 5.08        , 3           , 12          , 0.07369646  , 0
0.420706183 , -0.08495763 , -9.782141   , -0.000618181133, -0.00149092975, -0.00141147908, -0.1624646  , -0.181340158, 0.4261157   , 0.007890652 , 0.0411937647, 2.23592782  , 5.09        , 3           , 50          , 0           , 0
