Acc X       , Acc Y       , Acc Z       , Gyro X      , Gyro Y      , Gyro Z      , Magn X      , Magn Y      , Magn Z      , Euler X     , Euler Y     , Euler Z     , Time        , Status      , LowRate X   , LowRate Y   , LowRate Z    
-0.107710324, 0.0851188153, -9.808978   , -0.0008288103, -0.0005187748, 0.00068119046, -0.176688686, -0.162599429, 0.4379129   , -0.007144147, -0.0115487948, 2.42138886  , 0           , 3           , 11          , 0.0346410163, 0.0346410163
-0.09971797 , 0.07329017  , -9.808063   , 0.000575864338, 0.000898598 , -0.000157667615, -0.176823512, -0.162801668, 0.4379129   , -0.007138368, -0.0115398206, 2.421388    , 0.01        , 3           , 12          , 0.0346410163, 0
-0.111235969, 0.0571937151, -9.811832   , 0.00142117962, 0.00118589017, -0.001142164, -0.176890925, -0.162329778, 0.438047737 , -0.00712402351, -0.0115280431, 2.421376    , 0.02        , 3           , 50          , 0           , 0
-0.09611676 , 0.07501598  , -9.79718    , 0.0002969668, 5.19895839E-05, -0.001290436, -0.176823512, -0.162666842, 0.43811515  , -0.007120906, -0.0115276156, 2.421363    , 0.03        , 3           , 11          , 0.0346410163, 0.0346410163
-0.105372548, 0.08916922  , -9.813915   , 0.002282682 , -0.00148324331, 0.0005528893, -0.176688686, -0.162397191, 0.4379129   , -0.00709814345, -0.0115424087, 2.42136884  , 0.04        , 3           , 12          , 0.0346410163, 0
-0.114121631, 0.08067113  , -9.805882   , 0.0015779275, -0.00176958356, 0.0004078943, -0.176688686, -0.162397191, 0.4379129   , -0.007082413, -0.011560075, 2.42137265  , 0.05        , 3           , 50          , 0           , 0
-0.133927733, 0.0672366545, -9.767671   , -0.000268257456, 0.000188953985, -0.000727778, -0.1767561  , -0.1629365  , 0.43811515  , -0.007085012, -0.0115582366, 2.421366    , 0.06        , 3           , 11          , 0.0346410163, 0.0346410163
-0.109184079, 0.07522152  , -9.812647   , -0.000131515189, 0.00117538858, -1.925709E-05, -0.1767561  , -0.162801668, 0.437980324 , -0.00708632451, -0.0115464842, 2.4213655   , 0.07        , 3           , 12          , 0.0346410163, 0
-0.09889725 , 0.07454985  , -9.783192   , 0.0014231446, 0.0009043279, -0.000153716639, -0.176823512, -0.162666842, 0.438047737 , -0.007072075, -0.0115374522, 2.421364    , 0.08        , 3           , 50          , 0           , 0
-0.1099977  , 0.09896327  , -9.758769   , 0.00312049384, 0.000352657575, -0.000146682913, -0.176823512, -0.162666842, 0.438047737 , -0.007040853, -0.0115339374, 2.42136216  , 0.09        , 3           , 11          , 0.0346410163, 0.0346410163
-0.121085323, 0.0649893   , -9.814588   , 0.00114498171, 5.77230821E-05, -1.50665774E-05, -0.176688686, -0.162869081, 0.437980324 , -0.00702940254, -0.01153336 , 2.42136216  , 0.1         , 3           , 12          , 0.0346410163, 0
-0.113448575, 0.0661889   , -9.795542   , -0.000125902065, 0.000189914281, 0.00125064293, -0.176688686, -0.162532017, 0.438182563 , -0.007030805, -0.0115313726, 2.42137456  , 0.11        , 3           , 50          , 0           , 0
-0.101921149, 0.0849710852, -9.785432   , 0.0017124156, -0.000360802253, 0.0008345289, -0.176486447, -0.162734255, 0.438182563 , -0.00701377774, -0.0115349218, 2.42138314  , 0.12        , 3           , 11          , 0.0346410163, 0.0346410163
-0.127266765, 0.07902825  , -9.80825    , 0.00143302872, -0.00120741292, -0.00114585238, -0.176486447, -0.162734255, 0.438182563 , -0.00699931569, -0.0115470756, 2.4213717   , 0.13        , 3           , 12          , 0.0346410163, 0
-0.129077911, 0.0790495053, -9.808264   , -0.000969645858, -0.000942085637, -0.00228676246, -0.176688686, -0.162599429, 0.438047737 , -0.00700874766, -0.0115566552, 2.42134881  , 0.14        , 3           , 50          , 0           , 0
-0.114215218, 0.0725609958, -9.809081   , 0.000292621844, 0.0008966841, -0.00157167169, -0.176688686, -0.162397191, 0.438182563 , -0.00700564 , -0.0115477992, 2.421333    , 0.15        , 3           , 11          , 0.0346410163, 0.0346410163
-0.110541731, 0.04362133  , -9.803748   , -0.000274448772, 0.001455997 , -0.000584556547, -0.1767561  , -0.1629365  , 0.437980324 , -0.00700831646, -0.01153328 , 2.42132688  , 0.16        , 3           , 12          , 0.0346410163, 0
-0.114417128, 0.06168498  , -9.794663   , -0.001257122, 0.000323052984, -0.000167095423, -0.1767561  , -0.1629365  , 0.437980324 , -0.00702086743, -0.0115300613, 2.42132545  , 0.17        , 3           , 50          , 0           , 0
-0.103908688, 0.06565635  , -9.80451    , -0.0002599379, -0.001359651, 0.000399985176, -0.176823512, -0.1624646  , 0.437980324 , -0.00702351471, -0.0115436288, 2.42132974  , 0.18        , 3           , 11          , 0.0346410163, 0.0346410163
-0.120044827, 0.08115662  , -9.795529   , 0.000299999519, -0.0005111392, -0.0008674978, -0.176688686, -0.162666842, 0.43811515  , -0.00702041341, -0.0115488013, 2.42132115  , 0.19        , 3           , 12          , 0.0346410163, 0
-0.11067009 , 0.07156326  , -9.793239   , 0.000575410959, 0.00103938126, 0.0002663549, -0.176621273, -0.1629365  , 0.438047737 , -0.00701472349, -0.0115384022, 2.42132354  , 0.2         , 3           , 50          , 0           , 0
-0.109759666, 0.06798574  , -9.805902   , 0.00072502566, -0.0005082681, 0.00153604522, -0.176621273, -0.1629365  , 0.438047737 , -0.007007651, -0.0115433773, 2.4213388   , 0.21        , 3           , 11          , 0.0346699134, 0.0346699134
-0.123834357, 0.07436837  , -9.776604   , 0.00128922658, -0.000504451338, 0.000408529537, -0.17655386 , -0.162532017, 0.4379129   , -0.0069948053, -0.0115483962, 2.421343    , 0.22        , 3           , 12          , 0.0346688   , 0
-0.128659278, 0.08080192  , -9.794241   , -0.00112087035, 0.00130948483, -0.0003061875, -0.17655386 , -0.162599429, 0.438047737 , -0.00700597744, -0.01153532 , 2.42133975  , 0.23        , 3           , 50          , 0           , 0
-0.138150513, 0.07646403  , -9.812863   , -0.0019651996, 0.0007406256, -2.84688E-05, -0.176621273, -0.162599429, 0.438047737 , -0.00702562556, -0.0115279164, 2.42133927  , 0.24        , 3           , 11          , 0.0346699134, 0.0346699134
-0.124723546, 0.07126781  , -9.790635   , -0.00153458933, -0.0006643348, -2.86630675E-05, -0.176621273, -0.162599429, 0.438047737 , -0.00704096956, -0.0115345614, 2.42133927  , 0.25        , 3           , 12          , 0.0346688   , 0
-0.121558346, 0.07301253  , -9.783824   , -0.000265759736, -0.000233392289, -2.20859656E-05, -0.176688686, -0.162666842, 0.4379129   , -0.00704362476, -0.0115368953, 2.42133927  , 0.26        , 3           , 50          , 0           , 0
-0.120424613, 0.06165582  , -9.76533    , 0.00114538823, 5.77245846E-05, 0.0006912763, -0.176823512, -0.1624646  , 0.43811515  , -0.00703225145, -0.0115362694, 2.421346    , 0.27        , 3           , 11          , 0.0346699134, 0.0346699134
-0.1287466  , 0.0735895559, -9.79608    , 0.00114895485, -0.000646187749, 0.000831460231, -0.176823512, -0.162599429, 0.43811515  , -0.00702085858, -0.01154267 , 2.42135453  , 0.28        , 3           , 12          , 0.0346688   , 0
-0.114528671, 0.08964051  , -9.788221   , 0.0005838566, -0.000650008849, 0.000405020226, -0.176688686, -0.162801668, 0.4377781   , -0.00701506762, -0.0115491431, 2.42135835  , 0.29        , 3           , 50          , 0           , 0
-0.1163609  , 0.0914301   , -9.777379   , 0.000139289521, -0.0008227734, -0.000444747566, -0.176688686, -0.162801668, 0.4377781   , -0.007448988, -0.012157049, 2.4213593   , 0.3         , 3           , 11          , 0.03475342  , 0.034753412
-0.1319271  , 0.07897405  , -9.776195   , 0.0002753792, 0.000163658158, -0.000866376562, -0.176621273, -0.162599429, 0.43811515  , -0.00744612934, -0.012155476, 2.42135072  , 0.31        , 3           , 12          , 0.0347538479, 0
-0.106531382, 0.0769231841, -9.791376   , 0.000548745 , 0.00199574139, -0.0008622391, -0.1767561  , -0.162532017, 0.438249975 , -0.007440536, -0.012135582, 2.42134213  , 0.32        , 3           , 50          , 0           , 0
-0.09635043 , 0.0890357   , -9.805711   , 0.00380784273, -9.402871E-05, 0.000421069679, -0.176823512, -0.162532017, 0.438249975 , -0.00740250852, -0.012136491, 2.421346    , 0.33        , 3           , 11          , 0.03475342  , 0.034753412
-0.1207426  , 0.05730686  , -9.812358   , 0.005507773 , -0.00106804445, 0.00127506489, -0.176823512, -0.162532017, 0.438249975 , -0.00734758656, -0.0121470774, 2.4213593   , 0.34        , 3           , 12          , 0.0347538479, 0
-0.1091558  , 0.07569082  , -9.818068   , 0.00176489737, -0.000882176158, 0.001823016 , -0.176621273, -0.162666842, 0.4379129   , -0.00733015966, -0.0121557647, 2.42137742  , 0.35        , 3           , 50          , 0           , 0
-0.118453778, 0.0657810941, -9.791061   , 0.0012751217, -0.001870998, 0.001112849 , -0.176688686, -0.1624646  , 0.438182563 , -0.007317546, -0.0121743931, 2.42138886  , 0.36        , 3           , 11          , 0.03475342  , 0.034753412
-0.113548316, 0.0598591641, -9.7915     , 0.00112736842, -0.0005345185, 0.00125552039, -0.17655386 , -0.162801668, 0.43811515  , -0.00730642537, -0.0121796457, 2.42140126  , 0.37        , 3           , 12          , 0.0347538479, 0
-0.114375882, 0.06707461  , -9.78741    , -0.00134078914, -0.00125514553, 0.000536568637, -0.17655386 , -0.162801668, 0.43811515  , -0.00731989928, -0.012192158, 2.421407    , 0.38        , 3           , 50          , 0           , 0
-0.117622808, 0.0933096   , -9.79501    , -0.00127231434, -0.000832320657, 0.0004669144, -0.176621273, -0.162869081, 0.43811515  , -0.00733268 , -0.0122004477, 2.42141175  , 0.39        , 3           , 11          , 0.03475342  , 0.034753412
-0.11114829 , 0.10004025  , -9.8062315  , 0.00237938273, 0.0005479615, 0.0009808269, -0.17655386 , -0.1624646  , 0.43811515  , -0.00743334834, -0.0120291365, 2.42142272  , 0.4         , 3           , 12          , 0.03489532  , 0
-0.131862313, 0.07322399  , -9.810568   , 0.0005529585, -0.00143541058, 0.000262885878, -0.176621273, -0.162801668, 0.438182563 , -0.007427851, -0.0120434733, 2.421425    , 0.41        , 3           , 50          , 0           , 0
-0.119843081, 0.0617548265, -9.796513   , 0.00209343759, 0.0009683923, -0.00149204175, -0.176621273, -0.162801668, 0.438182563 , -0.00740673672, -0.0120338993, 2.42141032  , 0.42        , 3           , 11          , 0.0177060086, 0.0177060626
-0.102377661, 0.08497338  , -9.784532   , 0.0006028478, 0.00243657921, -0.00241492456, -0.17655386 , -0.162666842, 0.438047737 , -0.00740041537, -0.0120097138, 2.421386    , 0.43        , 3           , 12          , 0.03489532  , 0
-0.113138184, 0.09277506  , -9.785937   , 0.0008946397, 0.000678710465, -0.00128616963, -0.176688686, -0.1624646  , 0.438182563 , -0.00739131356, -0.0120030185, 2.42137313  , 0.44        , 3           , 50          , 0           , 0
-0.101646073, 0.06384331  , -9.809924   , 0.003155033 , 0.0006939949, 0.000419590739, -0.176823512, -0.162397191, 0.438182563 , -0.00735981343, -0.0119960494, 2.42137742  , 0.45        , 3           , 11          , 0.0177060086, 0.0177060626
-0.09231674 , 0.08850799  , -9.797095   , 0.00273047015, 0.000902304368, 0.000629843853, -0.176823512, -0.162397191, 0.438182563 , -0.007332583, -0.0119869793, 2.42138314  , 0.46        , 3           , 12          , 0.03489532  , 0
-0.116181642, 0.0693319738, -9.781538   , 0.00300971884, 0.00153773546, 0.0005615027, -0.176419035, -0.162869081, 0.437980324 , -0.00730255153, -0.0119715622, 2.42138886  , 0.47        , 3           , 50          , 0           , 0
-0.113508515, 0.06837208  , -9.773837   , 0.0006845584, 0.000466107536, -8.669842E-05, -0.176486447, -0.162666842, 0.438249975 , -0.00729569467, -0.0119669065, 2.421388    , 0.48        , 3           , 11          , 0.0177060086, 0.0177060626
-0.111017451, 0.08058101  , -9.790039   , 0.00195628  , 0.000263527356, -0.0005049038, -0.1767561  , -0.162532017, 0.43811515  , -0.0072760717, -0.0119643081, 2.42138314  , 0.49        , 3           , 12          , 0.03489532  , 0
-0.1056347  , 0.07244185  , -9.803591   , -0.000341543957, 0.0009913329, -0.0003723783, -0.1767561  , -0.162532017, 0.43811515  , -0.00744785555, -0.0117659727, 2.42138124  , 0.5         , 3           , 50          , 0           , 0
-0.100077666, 0.0506812148, -9.792792   , -0.00281310454, 0.0009746192, -0.000948976434, -0.176419035, -0.162734255, 0.438047737 , -0.007475874, -0.0117562991, 2.4213717   , 0.51        , 3           , 11          , 0.0134395128, 0.0134395463
-0.106385618, 0.0574760251, -9.7788     , -0.002667361, 6.04877023E-05, -0.0009497284, -0.1767561  , -0.162599429, 0.438182563 , -0.007502437, -0.0117557654, 2.42136216  , 0.52        , 3           , 12          , 0.03509209  , 0
-0.132678524, 0.05061732  , -9.794397   , -0.000335904973, -0.000205319928, -0.000868663134, -0.17655386 , -0.162801668, 0.438249975 , -0.007505693, -0.0117578832, 2.42135358  , 0.53        , 3           , 50          , 0           , 0
-0.1183254  , 0.07302673  , -9.799166   , 0.000368315785, 0.000221803755, -0.00044091366, -0.17655386 , -0.162801668, 0.438249975 , -0.00750195934, -0.0117556984, 2.42134881  , 0.54        , 3           , 11          , 0.0134395128, 0.0134395463
-0.102998957, 0.06877354  , -9.79545    , 0.000370158436, -5.97591643E-05, 0.0003356303, -0.176351622, -0.162734255, 0.438047737 , -0.007498297, -0.01175627 , 2.42135262  , 0.55        , 3           , 12          , 0.03509209  , 0
-0.118598022, 0.0847831443, -9.805448   , -0.0006923605, 0.0004258126, -0.00136377371, -0.176621273, -0.162329778, 0.438249975 , -0.00750506064, -0.0117521137, 2.42133927  , 0.56        , 3           , 50          , 0           , 0
-0.126906246, 0.07269925  , -9.806013   , -0.000195655477, 6.809239E-06, -0.0007264106, -0.176621273, -0.162666842, 0.4383848   , -0.00750693167, -0.0117521007, 2.42133164  , 0.57        , 3           , 11          , 0.0134395128, 0.0134395463
-0.113706551, 0.05258935  , -9.776165   , -0.000747228856, -0.00253109285, 0.000538468768, -0.176688686, -0.162666842, 0.437980324 , -0.00751446933, -0.0117773712, 2.42133737  , 0.58        , 3           , 12          , 0.03509209  , 0
-0.112316862, 0.08466186  , -9.791388   , 0.0015024686, -0.0005448574, 0.000622676045, -0.176688686, -0.162666842, 0.437980324 , -0.00749951834, -0.0117827747, 2.42134356  , 0.59        , 3           , 50          , 0           , 0
-0.10449598 , 0.095384    , -9.786765   , 0.00320772245, 0.00207999814, 0.000139937125, -0.17655386 , -0.162599429, 0.438182563 , -0.007396113, -0.0117353145, 2.421344    , 0.6         , 3           , 11          , 0.01135353  , 0.0113535561
-0.115433373, 0.0883128047, -9.792753   , 0.00243002549, 0.00221552653, -0.000428542349, -0.176890925, -0.162734255, 0.438182563 , -0.00737176 , -0.0117131919, 2.42133927  , 0.61        , 3           , 12          , 0.0353428051, 0
-0.09644358 , 0.08405036  , -9.798953   , 0.000820400368, -0.0006814975, -0.0003699282, -0.176688686, -0.162801668, 0.43811515  , -0.007363513, -0.0117200352, 2.421336    , 0.62        , 3           , 50          , 0           , 0
-0.105074994, 0.0707377642, -9.835234   , -0.00171183131, -0.00245846482, 0.00116946339, -0.176688686, -0.162801668, 0.43811515  , -0.00738077 , -0.0117445309, 2.42134786  , 0.63        , 3           , 11          , 0.01135353  , 0.0113535561
-0.138115615, 0.0782777   , -9.815567   , -0.0009379047, -0.00189008168, 0.001244587 , -0.1767561  , -0.1624646  , 0.43811515  , -0.00739029841, -0.0117633389, 2.42136025  , 0.64        , 3           , 12          , 0.0353428051, 0
-0.114968494, 0.08697823  , -9.799987   , 0.00208238256, 0.00115727086, -0.0001492784, -0.176958337, -0.1624646  , 0.4384522   , -0.007369456, -0.0117517775, 2.4213593   , 0.65        , 3           , 50          , 0           , 0
-0.116974831, 0.07255812  , -9.798705   , 0.000393746 , -5.084053E-05, -0.000159024145, -0.176621273, -0.162532017, 0.438182563 , -0.00736549962, -0.0117522972, 2.42135739  , 0.66        , 3           , 11          , 0.01135353  , 0.0113535561
-0.125740811, 0.06136824  , -9.795203   , -0.00109022215, 7.99121262E-05, -0.001083968, -0.176621273, -0.162532017, 0.438182563 , -0.00737627456, -0.0117515773, 2.42134643  , 0.67        , 3           , 12          , 0.0353428051, 0
-0.112739712, 0.08736953  , -9.790025   , -0.00108807173, -0.000272042264, -0.0003781666, -0.1767561  , -0.162532017, 0.438182563 , -0.0073871105, -0.0117543256, 2.42134261  , 0.68        , 3           , 50          , 0           , 0
-0.128106177, 0.08534139  , -9.804161   , -0.00185574393, -0.002177861, -0.00109106093, -0.176890925, -0.162666842, 0.43811515  , -0.0074055423, -0.0117761875, 2.42133164  , 0.69        , 3           , 11          , 0.01135353  , 0.0113535561
-0.113728747, 0.07526107  , -9.808613   , -0.00282639917, -0.0031939107, 3.38083955E-05, -0.176486447, -0.162666842, 0.438249975 , -0.007557198, -0.0118596787, 2.421334    , 0.7         , 3           , 12          , 0.0356459059, 0
-0.105960183, 0.0583412647, -9.769301   , -0.00050234684, -0.00184071658, 0.00117688428, -0.176486447, -0.162666842, 0.438249975 , -0.007562362, -0.011877995, 2.421346    , 0.71        , 3           , 50          , 0           , 0
-0.09827957 , 0.0506493635, -9.789614   , -0.000513639767, 0.00034141037, 0.000332634925, -0.1767561  , -0.162734255, 0.4383174   , -0.00756753841, -0.0118745547, 2.42134976  , 0.72        , 3           , 11          , 0.0101333484, 0.0101333633
-0.121332996, 0.05273716  , -9.793398   , 0.0002628114, 0.0002762688, -0.0006527332, -0.176823512, -0.162666842, 0.438249975 , -0.00756483246, -0.01187184 , 2.421343    , 0.73        , 3           , 12          , 0.0356459059, 0
-0.110645875, 0.07917084  , -9.774675   , 0.000822493341, 0.00154713669, 0.0012589813, -0.17655386 , -0.162869081, 0.438249975 , -0.00755675649, -0.0118562728, 2.42135549  , 0.74        , 3           , 50          , 0           , 0
-0.09688868 , 0.08183016  , -9.808005   , -0.00100245513, -0.000717800052, 0.000681874633, -0.17655386 , -0.162869081, 0.438249975 , -0.00756686227, -0.0118634  , 2.42136216  , 0.75        , 3           , 11          , 0.0101333484, 0.0101333633
-0.116683006, 0.05903187  , -9.802828   , 0.001126672 , -0.002885604, 0.000900291838, -0.176621273, -0.162666842, 0.4383174   , -0.00755570456, -0.0118921911, 2.4213717   , 0.76        , 3           , 12          , 0.0356459059, 0
-0.107209563, 0.0620163046, -9.784211   , 0.0005528424, -0.00120003661, -0.000159253861, -0.176688686, -0.162869081, 0.438249975 , -0.00755015761, -0.0119042005, 2.42136979  , 0.77        , 3           , 50          , 0           , 0
-0.12770839 , 0.08663055  , -9.786526   , 0.000469096267, 0.00140396168, -0.000579375366, -0.176688686, -0.1629365  , 0.438249975 , -0.00754539575, -0.0118902056, 2.421364    , 0.78        , 3           , 11          , 0.0101333484, 0.0101333633
-0.1373151  , 0.0799673647, -9.784367   , 0.00124017533, 0.0024650814, -0.00120983587, -0.176688686, -0.1629365  , 0.438249975 , -0.007532848, -0.0118656466, 2.42135167  , 0.79        , 3           , 12          , 0.0356459059, 0
-0.1402788  , 0.08597386  , -9.815552   , 0.0018818581, 0.00365140149, -0.00120528182, -0.176688686, -0.1629365  , 0.437980324 , -0.007493764, -0.0118534509, 2.42133927  , 0.8         , 3           , 50          , 0           , 0
-0.108080164, 0.09144024  , -9.808955   , -0.0007229489, 0.00229630526, 0.00054633437, -0.17655386 , -0.1629365  , 0.438182563 , -0.00750105642, -0.0118304472, 2.421345    , 0.81        , 3           , 11          , 0.00938000251, 0.009380014
-0.09424393 , 0.05280134  , -9.77285    , -0.000790319056, 0.00173269981, 0.00132211531, -0.177093163, -0.162734255, 0.438249975 , -0.00750911376, -0.0118130213, 2.42135739  , 0.82        , 3           , 12          , 0.0359996557, 0
-0.104913674, 0.0597838722, -9.799118   , 0.000132224566, 0.0006830355, 0.000335887133, -0.176823512, -0.162666842, 0.437980324 , -0.00750783039, -0.0118061658, 2.42136121  , 0.83        , 3           , 50          , 0           , 0
-0.110343136, 0.0576191135, -9.807305   , -0.00261774077, -0.00032107014, -0.00172686833, -0.176823512, -0.162666842, 0.437980324 , -0.007533803, -0.0118095083, 2.421344    , 0.84        , 3           , 11          , 0.00938000251, 0.009380014
-0.102281116, 0.05432758  , -9.795958   , -0.00190690556, -0.0009498089, 0.00110082235, -0.176823512, -0.162734255, 0.438249975 , -0.007553004, -0.0118189221, 2.42135453  , 0.85        , 3           , 12          , 0.0359996557, 0
-0.12654303 , 0.07262137  , -9.784315   , -0.00387921836, -0.00194865733, 0.000736913062, -0.1767561  , -0.1624646  , 0.4383174   , -0.00759188551, -0.0118383532, 2.42136216  , 0.86        , 3           , 50          , 0           , 0
-0.126562   , 0.06457171  , -9.805593   , -0.002615798, -0.000532239559, -0.000173237786, -0.1767561  , -0.162734255, 0.43811515  , -0.00761802448, -0.01184369 , 2.42136073  , 0.87        , 3           , 11          , 0.00938000251, 0.009380014
-0.1333637  , 0.07401676  , -9.773062   , -0.0008495626, -0.000801869144, -0.0007305158, -0.1767561  , -0.162734255, 0.43811515  , -0.007626434, -0.0118517615, 2.42135358  , 0.88        , 3           , 12          , 0.0359996557, 0
-0.128023535, 0.06628945  , -9.774861   , -0.000502779847, 0.000397168536, -0.00129210053, -0.176688686, -0.162801668, 0.43811515  , -0.00763130747, -0.0118478891, 2.4213407   , 0.89        , 3           , 50          , 0           , 0
-0.1166509  , 0.0697703   , -9.776115   , -0.00167565106, -0.00170523382, -0.000384350336, -0.1767561  , -0.162666842, 0.438249975 , -0.00752565265, -0.0119384089, 2.42133546  , 0.9         , 3           , 11          , 0.008914809 , 0.008914814
-0.129440323, 0.09296491  , -9.785609   , -0.0008255862, -0.002121848, 0.0008197338, -0.176419035, -0.162666842, 0.43811515  , -0.00753400754, -0.0119595649, 2.421344    , 0.91        , 3           , 12          , 0.0364021733, 0
-0.10632512 , 0.0962833762, -9.779543   , 0.00023433732, -0.00239625364, -0.0001646428, -0.176419035, -0.162666842, 0.43811515  , -0.00753164757, -0.01198354 , 2.42134213  , 0.92        , 3           , 50          , 0           , 0
-0.125539258, 0.07938557  , -9.786539   , -0.0008348883, -0.0004324622, -0.0008022531, -0.176688686, -0.162666842, 0.438182563 , -0.0075399  , -0.0119879246, 2.42133451  , 0.93        , 3           , 11          , 0.008914809 , 0.008914814
-0.12298426 , 0.0622613244, -9.801959   , -0.0037991025, -0.0005932968, 0.000172583212, -0.176688686, -0.162599429, 0.43811515  , -0.00757791148, -0.011993845, 2.42133641  , 0.94        , 3           , 12          , 0.0364021733, 0
-0.09348925 , 0.0677702   , -9.798546   , -0.000199020113, -0.000428162835, -9.294627E-05, -0.176621273, -0.162532017, 0.43811515  , -0.00757989148, -0.0119981337, 2.42133546  , 0.95        , 3           , 50          , 0           , 0
-0.103818566, 0.106719457 , -9.80524349 , 1.01343858E-05, 0.000136400427, 0.0001208123, -0.176621273, -0.162532017, 0.43811515  , -0.0075798044, -0.01199676 , 2.42133641  , 0.96        , 3           , 11          , 0.008914809 , 0.008914814
-0.125400573, 0.0879786   , -9.79283    , -0.0006210253, -0.000571805867, 0.00152945181, -0.1767561  , -0.162734255, 0.438047737 , -0.00758619839, -0.0120023619, 2.42135167  , 0.97        , 3           , 12          , 0.0364021733, 0
-0.101437442, 0.05382044  , -9.782393   , -4.78262E-05, -0.00232776953, 0.000893664255, -0.176688686, -0.162599429, 0.438182563 , -0.007586786, -0.0120255714, 2.42136121  , 0.98        , 3           , 50          , 0           , 0
-0.129259318, 0.07577806  , -9.77438    , 0.00100797124, -0.0015463006, 0.00181804271, -0.176688686, -0.162599429, 0.438182563 , -0.007576927, -0.0120408954, 2.42137933  , 0.99        , 3           , 11          , 0.008914809 , 0.008914814
-0.119296044, 0.070752874 , -9.790596   , -0.00232430478, -0.00365565484, 0.00116408837, -0.176688686, -0.162599429, 0.438182563 , -0.007630238, -0.0120462077, 2.42139173  , 1           , 3           , 12          , 0.0368514471, 0
-0.117199674, 0.0558609925, -9.7974205  , -0.000779714, -0.00174458243, 0.00230441033, -0.176621273, -0.162666842, 0.438047737 , -0.00763831474, -0.0120634772, 2.42141461  , 1.01        , 3           , 50          , 0           , 0
-0.139855713, 0.0561131649, -9.793526   , 0.00075512944, 0.00171508791, -0.000155233327, -0.176958337, -0.1624646  , 0.438047737 , -0.007630744, -0.0120463381, 2.42141271  , 1.02        , 3           , 11          , 0.008637029 , 0.008637031
-0.116011105, 0.07304096  , -9.811352   , 0.0009720955, 0.0006606509, -0.000297141582, -0.17655386 , -0.162599429, 0.438249975 , -0.007620986, -0.0120397545, 2.42140985  , 1.03        , 3           , 12          , 0.0368514471, 0
-0.126917228, 0.07045861  , -9.810541   , 0.002877227 , 0.0008847159, -0.0006410987, -0.17655386 , -0.162599429, 0.438249975 , -0.007592135, -0.0120309573, 2.42140317  , 1.04        , 3           , 50          , 0           , 0
-0.110339306, 0.06030032  , -9.79961    , 0.00118003762, 0.00157717278, 0.0008354062, -0.176688686, -0.162734255, 0.438047737 , -0.007580433, -0.012015122, 2.42141175  , 1.05        , 3           , 11          , 0.008637029 , 0.008637031
-0.114546582, 0.0504213274, -9.799232   , -1.11708978E-05, -0.000401903264, -0.0003033782, -0.176688686, -0.1624646  , 0.438047737 , -0.007580508, -0.0120191621, 2.421409    , 1.06        , 3           , 12          , 0.0368514471, 0
-0.130148858, 0.07223088  , -9.789769   , -0.0007879448, -0.00047754898, -0.00108408625, -0.176688686, -0.162599429, 0.437980324 , -0.00758825848, -0.01202402 , 2.421398    , 1.07        , 3           , 50          , 0           , 0
-0.100005873, 0.09217581  , -9.787647   , -0.00289672147, -0.00218125922, 0.000739926647, -0.176823512, -0.162734255, 0.43811515  , -0.007617316, -0.0120457765, 2.421405    , 1.08        , 3           , 11          , 0.008637029 , 0.008637031
-0.103046872, 0.0593613423, -9.814021   , -0.000365212822, -5.23307353E-05, 0.0009669366, -0.176823512, -0.162734255, 0.43811515  , -0.00762108434, -0.0120462282, 2.421415    , 1.09        , 3           , 12          , 0.0368514471, 0
-0.129338309, 0.0672334   , -9.782551   , 0.000135789727, 0.00133461331, 0.001040971 , -0.176688686, -0.1624646  , 0.4383174   , -0.007521157, -0.0119779836, 2.42142415  , 1.1         , 3           , 50          , 0           , 0
-0.112843364, 0.0756804347, -9.802278   , -0.00114058086, 0.0023114935, 4.76825735E-05, -0.176688686, -0.162666842, 0.438249975 , -0.00753256725, -0.0119548663, 2.42142415  , 1.11        , 3           , 11          , 0.008482539 , 0.008482538
-0.08926802 , 0.07632144  , -9.806614   , -0.00148383423, 0.0002677578, -0.0005221845, -0.176688686, -0.162599429, 0.438182563 , -0.007547343, -0.0119522288, 2.42141938  , 1.12        , 3           , 12          , 0.0373454057, 0
-0.107215151, 0.06201178  , -9.782856   , 0.000422157522, 0.000351041148, -0.000583821151, -0.176688686, -0.162599429, 0.438182563 , -0.00754305 , -0.0119487615, 2.42141366  , 1.13        , 3           , 50          , 0           , 0
-0.0952054  , 0.08036624  , -9.781332   , 0.00318315579, -0.00103816018, 6.255847E-05, -0.17655386 , -0.162532017, 0.437980324 , -0.007511228, -0.0119591383, 2.42141414  , 1.14        , 3           , 11          , 0.008482539 , 0.008482538
-0.0989183  , 0.0687302351, -9.796777   , -0.00204018666, -0.00121427316, 0.0015213   , -0.176621273, -0.162599429, 0.438182563 , -0.007531813, -0.0119711673, 2.4214294   , 1.15        , 3           , 12          , 0.0373454057, 0
-0.0962895751, 0.0605927333, -9.80131    , -0.00296952645, 0.0008208598, -0.0008107682, -0.176419035, -0.162532017, 0.43811515  , -0.00756141031, -0.0119630191, 2.42142129  , 1.16        , 3           , 50          , 0           , 0
-0.131081462, 0.09848012  , -9.809554   , -0.0004964302, 0.0006264021, 0.000613116834, -0.176419035, -0.162532017, 0.43811515  , -0.00756644644, -0.01195671 , 2.421427    , 1.17        , 3           , 11          , 0.008482539 , 0.008482538
-0.09609638 , 0.0799423456, -9.786312   , 0.0008506991, -0.000701964658, -0.00114854809, -0.17655386 , -0.1624646  , 0.43811515  , -0.00755780237, -0.0119638164, 2.42141557  , 1.18        , 3           , 12          , 0.0373454057, 0
-0.112464011, 0.0747229159, -9.787363   , 0.000428367552, -0.000845609058, -9.122497E-05, -0.176688686, -0.162666842, 0.43811515  , -0.00755350851, -0.0119722793, 2.421415    , 1.19        , 3           , 50          , 0           , 0
-0.112924881, 0.0662410259, -9.812712   , -0.0004411832, 0.00146672537, 0.0003331718, -0.176621273, -0.162666842, 0.438047737 , -0.007571279, -0.0118029341, 2.42141843  , 1.2         , 3           , 11          , 0.00840256  , 0.008402557
-0.102420866, 0.07690406  , -9.79993248 , -0.000653515, 0.00153568364, 4.975528E-05, -0.176621273, -0.162666842, 0.438047737 , -0.00757781975, -0.0117875775, 2.42141938  , 1.21        , 3           , 12          , 0.0378819   , 0
-0.1165166  , 0.0774670839, -9.784219   , 0.000842098147, -0.0009883732, 0.0006178387, -0.17655386 , -0.162734255, 0.438182563 , -0.00756947231, -0.0117974114, 2.421425    , 1.22        , 3           , 50          , 0           , 0
-0.101448163, 0.084535785 , -9.791758   , 0.000912601 , -0.0009175032, 0.00104208256, -0.176621273, -0.162397191, 0.43811515  , -0.00756046968, -0.0118065076, 2.42143559  , 1.23        , 3           , 11          , 0.00840256  , 0.008402557
-0.101743422, 0.0633180737, -9.78778    , 0.00183134852, -0.00105207751, 0.00132868311, -0.17655386 , -0.162532017, 0.438182563 , -0.00754231354, -0.0118169282, 2.421449    , 1.24        , 3           , 12          , 0.0378819   , 0
-0.115297981, 0.0572521351, -9.815027   , -0.0026831727, -0.00206811749, 0.00031721234, -0.17655386 , -0.162532017, 0.438182563 , -0.007569186, -0.0118375858, 2.42145276  , 1.25        , 3           , 50          , 0           , 0
-0.123777583, 0.07039721  , -9.803287   , -0.00198557 , -0.000444345642, -0.0004539782, -0.1767561  , -0.162532017, 0.437980324 , -0.007588988, -0.0118420618, 2.421448    , 1.26        , 3           , 11          , 0.00840256  , 0.008402557
-0.11330428 , 0.07478647  , -9.803188   , -0.0007891524, 0.000408468361, 4.73609653E-05, -0.176823512, -0.1624646  , 0.438182563 , -0.007596886, -0.0118379742, 2.42144847  , 1.27        , 3           , 12          , 0.0378819   , 0
-0.117318332, 0.07666916  , -9.81225    , 0.001890729 , 0.00091934856, -0.00121078745, -0.176688686, -0.162599429, 0.438249975 , -0.007577834, -0.0118288742, 2.42143655  , 1.28        , 3           , 50          , 0           , 0
-0.107229285, 0.05798316  , -9.792364   , 0.0008302121, 0.001264144 , -0.0006501084, -0.176688686, -0.162599429, 0.438249975 , -0.007569455, -0.01181628 , 2.42142987  , 1.29        , 3           , 11          , 0.00840256  , 0.008402557
-0.116943032, 0.075262    , -9.797791   , -0.00248884642, -0.000944461441, -0.000740202668, -0.176823512, -0.162734255, 0.437980324 , -0.007527801, -0.0117504578, 2.42142177  , 1.3         , 3           , 12          , 0.038458772 , 0
-0.119876176, 0.0924520344, -9.800453   , -0.00193045125, 0.000396793359, -0.000452970125, -0.176688686, -0.162532017, 0.43811515  , -0.007547051, -0.0117465239, 2.42141747  , 1.31        , 3           , 50          , 0           , 0
-0.102763616, 0.08458651  , -9.802163   , -0.0008081404, 0.00174186355, -0.001787694, -0.176621273, -0.162532017, 0.438182563 , -0.00755492225, -0.0117292413, 2.42139935  , 1.32        , 3           , 11          , 0.008364514 , 0.008364512
-0.108590506, 0.0566577539, -9.795996   , -0.000163010787, 5.67766619E-05, 0.000472965039, -0.176621273, -0.162532017, 0.438182563 , -0.00755660841, -0.0117286379, 2.42140412  , 1.33        , 3           , 12          , 0.038458772 , 0
-0.10425932 , 0.070207946 , -9.814889   , -0.00129593606, 0.000682657934, 0.000327405 , -0.176688686, -0.162801668, 0.437980324 , -0.007569605, -0.0117217861, 2.421407    , 1.34        , 3           , 50          , 0           , 0
-0.105048291, 0.08682802  , -9.789968   , 0.00146576331, -0.0009881118, -0.000227433484, -0.176621273, -0.1624646  , 0.437980324 , -0.007554921, -0.0117316842, 2.421405    , 1.35        , 3           , 11          , 0.008364514 , 0.008364512
-0.103005446, 0.07010734  , -9.78957    , -0.00023089243, -0.0004364382, 0.000966317 , -0.176688686, -0.162532017, 0.43811515  , -0.00755734229, -0.0117359748, 2.42141461  , 1.36        , 3           , 12          , 0.038458772 , 0
-0.110609271, 0.06804173  , -9.819468   , 0.000756678346, -0.000218578964, 0.00118315464, -0.176688686, -0.162666842, 0.4377781   , -0.007549916, -0.0117380712, 2.421426    , 1.37        , 3           , 50          , 0           , 0
-0.117340848, 0.08156075  , -9.790988   , 0.003084182 , 0.000149130909, -0.000147491024, -0.176688686, -0.162666842, 0.4377781   , -0.007519057, -0.0117365913, 2.421425    , 1.38        , 3           , 11          , 0.008364514 , 0.008364512
-0.109714136, 0.07159344  , -9.805433   , 0.000470547559, 0.0002722439, -0.00100706809, -0.176823512, -0.162599429, 0.43811515  , -0.00751423324, -0.0117339436, 2.42141461  , 1.39        , 3           , 12          , 0.038458772 , 0
-0.104198605, 0.0715961754, -9.825279   , 0.000689334935, -0.00197457219, 0.000121131452, -0.17655386 , -0.1624646  , 0.438249975 , -0.00751324138, -0.0116689224, 2.42141652  , 1.4         , 3           , 50          , 0           , 0
-0.0972344  , 0.09308098  , -9.7980175  , -0.000381981779, 0.000411566638, -0.000515827851, -0.176688686, -0.162599429, 0.438047737 , -0.007517   , -0.011664845, 2.4214108   , 1.41        , 3           , 11          , 0.008345204 , 0.008345201
-0.1267698  , 0.0884320959, -9.788772   , -0.00152149156, 0.002515668 , 0.0006123088, -0.176688686, -0.162599429, 0.438047737 , -0.007532285, -0.0116396425, 2.421417    , 1.42        , 3           , 12          , 0.0390738659, 0
-0.134693742, 0.07450199  , -9.778494   , -0.000451669039, 0.000340700557, 0.000472615531, -0.17655386 , -0.162532017, 0.438047737 , -0.007536858, -0.0116361994, 2.42142177  , 1.43        , 3           , 50          , 0           , 0
-0.130078316, 0.07942964  , -9.783861   , 0.00207307748, 0.00373666966, -0.000146034028, -0.176688686, -0.162262365, 0.43811515  , -0.007516107, -0.011598845, 2.42142034  , 1.44        , 3           , 11          , 0.008345204 , 0.008345201
-0.121119007, 0.06228391  , -9.815052   , 0.00405765045, 0.002201431 , -0.000280470849, -0.176823512, -0.1624646  , 0.4378455   , -0.00747549627, -0.0115768528, 2.421417    , 1.45        , 3           , 12          , 0.0390738659, 0
-0.1021917  , 0.0593098924, -9.801811   , -0.00080865476, 0.0009718307, -0.0009407415, -0.176823512, -0.1624646  , 0.4378455   , -0.00748347351, -0.0115672052, 2.421408    , 1.46        , 3           , 50          , 0           , 0
-0.102028325, 0.07104739  , -9.804021   , -0.00173074263, 0.00173992547, -0.00157953764, -0.1767561  , -0.162801668, 0.438047737 , -0.007500597, -0.0115499245, 2.42139173  , 1.47        , 3           , 11          , 0.008345204 , 0.008345201
-0.0902563259, 0.0677843839, -9.813889   , -0.00144708855, 0.00160105526, -0.0006601908, -0.17655386 , -0.162734255, 0.438182563 , -0.0075149904, -0.0115339663, 2.421385    , 1.48        , 3           , 12          , 0.0390738659, 0
-0.109911174, 0.0923381   , -9.801282   , -0.002707454, -0.0004488842, 0.000107714914, -0.1767561  , -0.162532017, 0.437980324 , -0.00754207652, -0.0115384459, 2.421386    , 1.49        , 3           , 50          , 0           , 0
-0.09847594 , 0.07228726  , -9.782747   , -0.00166570081, -0.000599416031, -0.000169575156, -0.1767561  , -0.162532017, 0.437980324 , -0.0075798044, -0.0114825917, 2.421385    , 1.5         , 3           , 11          , 0.008329021 , 0.008329016
-0.104694441, 0.07647647  , -9.799047   , -0.00137962587, -0.00130141783, 0.000113194328, -0.1767561  , -0.163071319, 0.437980324 , -0.007593615, -0.0114955967, 2.421386    , 1.51        , 3           , 12          , 0.0397250243, 0
-0.09332314 , 0.0781708658, -9.805734   , -0.001444519, -0.00221697637, 0.00215985137, -0.1767561  , -0.162599429, 0.438047737 , -0.00760831 , -0.0115176039, 2.421408    , 1.52        , 3           , 50          , 0           , 0
-0.09474932 , 0.0772391558, -9.792189   , 0.000241744361, -0.0007273045, 0.000474806526, -0.17655386 , -0.162666842, 0.438249975 , -0.007605948, -0.0115248393, 2.42141271  , 1.53        , 3           , 11          , 0.008329021 , 0.008329016
-0.117876031, 0.0734650046, -9.796901   , -0.00194679655, -0.0008124984, 0.00032322295, -0.17655386 , -0.162666842, 0.438249975 , -0.007625454, -0.011532939, 2.42141557  , 1.54        , 3           , 12          , 0.0397250243, 0
-0.105780527, 0.06428939  , -9.794135   , 0.000306834379, 0.0004698265, 0.00118332356, -0.176823512, -0.162734255, 0.438047737 , -0.007622522, -0.0115281492, 2.421428    , 1.55        , 3           , 50          , 0           , 0
-0.120550714, 0.0748700052, -9.802791   , -0.00244280486, -0.0005342776, -0.000314357, -0.176621273, -0.162532017, 0.43811515  , -0.007646914, -0.0115335193, 2.42142463  , 1.56        , 3           , 11          , 0.008329021 , 0.008329016
-0.113469757, 0.06527903  , -9.793285   , -0.000753326749, 0.000462659053, -0.0006581084, -0.176688686, -0.162666842, 0.438182563 , -0.00765437167, -0.0115289427, 2.421418    , 1.57        , 3           , 12          , 0.0397250243, 0
-0.11413236 , 0.05886542  , -9.762583   , -0.000617048, 0.0012379128, -0.00256338483, -0.176688686, -0.162666842, 0.438182563 , -0.00766024552, -0.0115167592, 2.42139268  , 1.58        , 3           , 50          , 0           , 0
-0.108136   , 0.08648513  , -9.811235   , 0.0005210088, 0.000119305674, 0.00224328437, -0.176823512, -0.162801668, 0.4378455   , -0.007655294, -0.0115153948, 2.42141461  , 1.59        , 3           , 11          , 0.008329021 , 0.008329016
-0.130581841, 0.0610934868, -9.830497   , 0.00140276458, -0.00095440005, 0.00111536612, -0.176621273, -0.162599429, 0.438249975 , -0.007606288, -0.0114692328, 2.42142558  , 1.6         , 3           , 12          , 0.0404101536, 0
-0.136633784, 0.0614746474, -9.788959   , -0.00170720776, -0.000412281923, 0.000254135259, -0.1767561  , -0.162734255, 0.438182563 , -0.00762338936, -0.0114733372, 2.421428    , 1.61        , 3           , 50          , 0           , 0
-0.113329157, 0.0489521362, -9.769397   , -0.00367025565, -0.00324130175, 0.000240577356, -0.176486447, -0.162734255, 0.437980324 , -0.007660123, -0.0115057332, 2.42143083  , 1.62        , 3           , 11          , 0.008307949 , 0.008307947
-0.104521237, 0.0588369444, -9.787367   , -0.001130876, -0.00266098068, 0.000818372646, -0.176486447, -0.162734255, 0.437980324 , -0.007671529, -0.0115322778, 2.42143941  , 1.63        , 3           , 12          , 0.0404101536, 0
-0.151309162, 0.07927369  , -9.79758549 , -0.0008625523, 0.000156579132, 0.0005414914, -0.176688686, -0.162329778, 0.43811515  , -0.007680216, -0.0115306694, 2.42144465  , 1.64        , 3           , 50          , 0           , 0
-0.128020853, 0.0546865128, -9.812876   , -0.000584470748, 0.00100318354, 0.000261572655, -0.176688686, -0.162666842, 0.4383174   , -0.00768609 , -0.0115206186, 2.421447    , 1.65        , 3           , 11          , 0.008307949 , 0.008307947
-0.08482477 , 0.06771908  , -9.8133955  , 0.00223078113, 0.00271167047, -0.000852804165, -0.176621273, -0.162801668, 0.437980324 , -0.00766368164, -0.0114935683, 2.42143846  , 1.66        , 3           , 12          , 0.0404101536, 0
-0.125071883, 0.0789457262, -9.79151    , -2.37991044E-05, 0.00185169873, 0.000265508337, -0.176621273, -0.162801668, 0.437980324 , -0.00766395 , -0.01147503 , 2.42144132  , 1.67        , 3           , 50          , 0           , 0
-0.117665753, 0.0580872819, -9.787019   , -0.0002894979, -0.00152899208, 0.0002589842, -0.176621273, -0.1624646  , 0.438047737 , -0.00766687468, -0.0114902994, 2.4214437   , 1.68        , 3           , 11          , 0.008307949 , 0.008307947
-0.0939264745, 0.06868083  , -9.79945    , 0.000273961778, -0.00124360714, 0.000262052 , -0.17655386 , -0.162801668, 0.43811515  , -0.007664166, -0.0115027148, 2.421446    , 1.69        , 3           , 12          , 0.0404101536, 0
-0.106397532, 0.0890831   , -9.784996   , -0.0007453845, -0.000417349627, 0.00110428385, -0.176621273, -0.162666842, 0.4377781   , -0.007531878, -0.0115200691, 2.42145562  , 1.7         , 3           , 50          , 0           , 0
-0.0967062563, 0.104295485 , -9.78034    , -0.000740950461, -0.00154361513, -0.0008752141, -0.176621273, -0.162666842, 0.4377781   , -0.007539188, -0.011535571, 2.421447    , 1.71        , 3           , 11          , 0.008276154 , 0.008276152
-0.114315532, 0.06801622  , -9.799157   , -0.0004579599, -0.00126013067, 0.00251698657, -0.177093163, -0.162599429, 0.43811515  , -0.0075440607, -0.0115479808, 2.42147279  , 1.72        , 3           , 12          , 0.0411272   , 0
-0.114584394, 0.07977566  , -9.806341   , 0.0001047728, -0.00125632109, -0.00115336687, -0.176621273, -0.162397191, 0.438182563 , -0.00754288165, -0.0115606282, 2.42146134  , 1.73        , 3           , 50          , 0           , 0
-0.102847889, 0.08407187  , -9.783182   , 0.00181130145, -0.003497378, 0.000263750466, -0.176419035, -0.1624646  , 0.438047737 , -0.007524801, -0.0115955817, 2.42146373  , 1.74        , 3           , 11          , 0.008276154 , 0.008276152
-0.107567966, 0.06611525  , -9.794141   , -0.00131958106, 0.00126821629, -0.000590971147, -0.176419035, -0.1624646  , 0.438047737 , -0.00753792748, -0.0115829445, 2.42145753  , 1.75        , 3           , 12          , 0.0411272   , 0
-0.110320933, 0.09505637  , -9.80308151 , -0.000181672891, -0.000413535163, -0.0008708446, -0.176688686, -0.162532017, 0.4378455   , -0.00753964251, -0.0115871476, 2.421449    , 1.76        , 3           , 50          , 0           , 0
-0.103691667, 0.08190082  , -9.805346   , 0.002636115 , 0.00101339235, -7.893025E-06, -0.176890925, -0.162599429, 0.438047737 , -0.00751328142, -0.0115770129, 2.421449    , 1.77        , 3           , 11          , 0.008276154 , 0.008276152
-0.103283033, 0.04756489  , -9.794185   , 0.00151821226, -0.00124676479, 0.00111351744, -0.176621273, -0.162666842, 0.4379129   , -0.00749823 , -0.0115893967, 2.42146039  , 1.78        , 3           , 12          , 0.0411272   , 0
-0.114478968, 0.08878811  , -9.80314    , -0.000177490874, -0.00125823007, -0.000872146338, -0.176621273, -0.162666842, 0.4379129   , -0.007499905, -0.0116020432, 2.42145181  , 1.79        , 3           , 50          , 0           , 0
-0.117242761, 0.0856573954, -9.801818   , -0.00389877241, 0.001875625 , -0.000318546256, -0.17655386 , -0.1624646  , 0.4378455   , -0.00758296158, -0.0115052359, 2.421449    , 1.8         , 3           , 11          , 0.008231918 , 0.008231914
-0.1314307  , 0.072308816 , -9.80831    , -0.001348404, 0.000203425065, -2.67599771E-05, -0.1767561  , -0.162532017, 0.437980324 , -0.007596443, -0.011503201, 2.42144847  , 1.81        , 3           , 12          , 0.0418741778, 0
-0.1320706  , 0.06635996  , -9.78167248 , 0.000352623174, -0.0006297995, 0.003935364 , -0.176823512, -0.162397191, 0.438182563 , -0.007593371, -0.0115092006, 2.421488    , 1.82        , 3           , 50          , 0           , 0
-0.120743178, 0.06667973  , -9.782036   , 0.00288061355, 0.00192146981, 0.0016908223, -0.176823512, -0.162397191, 0.438182563 , -0.007564756, -0.0114898579, 2.42150474  , 1.83        , 3           , 11          , 0.008231918 , 0.008231914
-0.110490829, 0.09224062  , -9.770551   , -0.00220298069, 0.00160551886, -0.0005936161, -0.176688686, -0.162599429, 0.4378455   , -0.007586717, -0.0114738476, 2.42149854  , 1.84        , 3           , 12          , 0.0418741778, 0
-0.118398085, 0.075645946 , -9.772941   , 0.000616037752, 0.00275088055, -1.36360313E-05, -0.1767561  , -0.162397191, 0.438047737 , -0.007580553, -0.0114463419, 2.42149854  , 1.85        , 3           , 50          , 0           , 0
-0.121230647, 0.06263981  , -9.786576   , 0.00203202781, 0.00191573345, -0.0005734282, -0.17655386 , -0.162666842, 0.438182563 , -0.0075601656, -0.0114272283, 2.42149234  , 1.86        , 3           , 11          , 0.008231918 , 0.008231914
-0.10538289 , 0.09540974  , -9.79129    , -0.00219666329, 0.0001976905, -0.00172593573, -0.17655386 , -0.162666842, 0.438182563 , -0.007581935, -0.0114253825, 2.42147517  , 1.87        , 3           , 12          , 0.0418741778, 0
-0.09823193 , 0.08721456  , -9.794435   , -0.000495710643, -0.000917106168, -0.0003070824, -0.176419035, -0.1624646  , 0.437710673 , -0.007586857, -0.0114345774, 2.42147183  , 1.88        , 3           , 50          , 0           , 0
-0.103865616, 0.0786354244, -9.773269   , -0.00302746752, -0.00290524983, 0.00024310239, -0.176621273, -0.162666842, 0.437980324 , -0.00761716347, -0.01146361 , 2.4214747   , 1.89        , 3           , 11          , 0.008231918 , 0.008231914
-0.09830173 , 0.0835872144, -9.789026   , -0.000549312332, -0.00118724653, 0.00054082257, -0.176621273, -0.1624646  , 0.43811515  , -0.00769588165, -0.0114603685, 2.42148137  , 1.9         , 3           , 12          , 0.04264917  , 0
-0.117445856, 0.07567311  , -9.784233   , 0.00113664719, 0.000232030638, -0.00227448065, -0.176284209, -0.162599429, 0.4378455   , -0.007684254, -0.0114582209, 2.42145848  , 1.91        , 3           , 50          , 0           , 0
-0.118796192, 0.07391015  , -9.791934   , -0.0042373375, 0.001885134 , -0.00144928647, -0.176284209, -0.162599429, 0.4378455   , -0.00772645976, -0.0114394836, 2.4214437   , 1.92        , 3           , 11          , 0.008176031 , 0.008176025
-0.112354144, 0.07704369  , -9.806788   , 1.93969754E-05, -0.00202812371, -2.29200778E-05, -0.176823512, -0.162599429, 0.437980324 , -0.007726265, -0.011459765, 2.4214437   , 1.93        , 3           , 12          , 0.04264917  , 0
-0.1192662  , 0.0707770661, -9.797826   , -0.00224157469, -0.00176183938, -0.0003155591, -0.176958337, -0.162532017, 0.437980324 , -0.00774864526, -0.011477408, 2.42144036  , 1.94        , 3           , 50          , 0           , 0
-0.107418396, 0.07427074  , -9.804502   , 0.00253721443, 0.00277567073, -0.000568765739, -0.176351622, -0.162599429, 0.438047737 , -0.00772320572, -0.0114496946, 2.42143464  , 1.95        , 3           , 11          , 0.008176031 , 0.008176025
-0.0902374759, 0.07315587  , -9.80121    , 0.0005676857, 0.00135447807, 0.000267458236, -0.176351622, -0.162599429, 0.438047737 , -0.007717558, -0.0114361309, 2.4214375   , 1.96        , 3           , 12          , 0.04264917  , 0
-0.1262081  , 0.06448626  , -9.781635   , 0.00141094741, 0.00220490387, 0.000555248349, -0.176688686, -0.162397191, 0.437980324 , -0.007703511, -0.0114140389, 2.42144275  , 1.97        , 3           , 50          , 0           , 0
-0.103201345, 0.08728209  , -9.797184   , 0.00395852746, 0.00109583407, 0.000847902556, -0.17655386 , -0.162734255, 0.437980324 , -0.007664022, -0.0114030158, 2.42145085  , 1.98        , 3           , 11          , 0.008176031 , 0.008176025
-0.108336367, 0.075164035 , -9.798629   , 0.000579905463, -0.00117960921, -0.000301521883, -0.1767561  , -0.162532017, 0.437980324 , -0.007658189, -0.0114148343, 2.421448    , 1.99        , 3           , 12          , 0.04264917  , 0
-0.119115658, 0.08027241  , -9.804114   , 0.00283020968, -0.00170520379, 0.0005560876, -0.1767561  , -0.162532017, 0.437980324 , -0.00764692761, -0.0114013506, 2.42145419  , 2           , 3           , 50          , 0           , 0
-0.113152847, 0.0829434842, -9.814001   , 0.00085248024, -0.00143700559, 0.00167745294, -0.176621273, -0.162599429, 0.4378455   , -0.007638596, -0.0114155924, 2.42147088  , 2.01        , 3           , 11          , 0.008111621 , 0.008111618
-0.091508314, 0.0505529977, -9.784591   , -0.00309476233, -0.00315314368, -0.00116896234, -0.176486447, -0.162532017, 0.4383174   , -0.00766941346, -0.0114472127, 2.42145944  , 2.02        , 3           , 12          , 0.04345035  , 0
-0.11526455 , 0.06977703  , -9.782885   , -0.000292145938, 0.00137100043, -1.87000824E-05, -0.176688686, -0.162666842, 0.4379129   , -0.007672331, -0.0114335045, 2.42145944  , 2.03        , 3           , 50          , 0           , 0
-0.111613505, 0.0657406747, -9.802761   , -0.000565141032, -0.0006018668, -0.000588129566, -0.176688686, -0.162666842, 0.4379129   , -0.007677917, -0.0114395674, 2.42145371  , 2.04        , 3           , 11          , 0.008111621 , 0.008111618
-0.108339325, 0.07114449  , -9.810849   , -0.00141660357, 0.00023709872, -0.000590778538, -0.17655386 , -0.1624646  , 0.4379129   , -0.007692015, -0.0114372429, 2.42144752  , 2.05        , 3           , 12          , 0.04345035  , 0
-0.113176733, 0.0584489927, -9.776136   , 0.00168500491, 0.001384371 , 0.0002730557, -0.176890925, -0.1624646  , 0.437980324 , -0.007675194, -0.0114233792, 2.42145038  , 2.06        , 3           , 50          , 0           , 0
-0.103870407, 0.07461437  , -9.785037   , 0.000573093363, -0.00228361646, -0.000302927918, -0.1767561  , -0.162666842, 0.438047737 , -0.00766943162, -0.0114462376, 2.421447    , 2.07        , 3           , 11          , 0.008111621 , 0.008111618
-0.119175553, 0.0748676658, -9.80684948 , 0.000282628927, -0.0005961345, 0.0002634335, -0.1767561  , -0.162666842, 0.438047737 , -0.00766663626, -0.0114521785, 2.42145     , 2.08        , 3           , 12          , 0.04345035  , 0
-0.118825689, 0.0667446554, -9.807783   , 0.0011357374, -0.00199823524, -0.00171254762, -0.1767561  , -0.162666842, 0.4379129   , -0.007655085, -0.01147229 , 2.42143273  , 2.09        , 3           , 50          , 0           , 0
-0.115206279, 0.0729486942, -9.78694    , -0.0002475434, 0.00221971143, -0.00227822363, -0.176823512, -0.162666842, 0.4378455   , -0.007585926, -0.0114445426, 2.42140937  , 2.1         , 3           , 11          , 0.008035887 , 0.008035885
-0.138807878, 0.03442079  , -9.787279   , 0.000326490059, 0.0005341449, -0.000865506, -0.176688686, -0.162599429, 0.4379129   , -0.007582562, -0.0114392675, 2.42140079  , 2.11        , 3           , 12          , 0.044275973 , 0
-0.114584394, 0.07977566  , -9.806342   , -0.0022167454, 0.0007985203, -0.000876924547, -0.176688686, -0.162599429, 0.4379129   , -0.00760462834, -0.0114313485, 2.42139173  , 2.12        , 3           , 50          , 0           , 0
-0.123581529, 0.0910881758, -9.784669   , 0.00144815969, 0.002231177 , -0.000292559649, -0.176823512, -0.1624646  , 0.437710673 , -0.007590111, -0.0114090592, 2.42138886  , 2.13        , 3           , 11          , 0.008035887 , 0.008035885
-0.1193996  , 0.09692949  , -9.791843   , -0.00107908912, -0.0006016607, 0.000821398455, -0.176621273, -0.162734255, 0.4379129   , -0.00760099571, -0.011415014, 2.42139745  , 2.14        , 3           , 12          , 0.044275973 , 0
-0.113688514, 0.08689878  , -9.780995   , 0.00287070451, 0.000269774231, 0.000841137255, -0.176621273, -0.162734255, 0.438182563 , -0.007572385, -0.0114122517, 2.42140555  , 2.15        , 3           , 50          , 0           , 0
-0.111777171, 0.08874411  , -9.799502   , 3.66780732E-05, 0.00222163  , 0.0008310054, -0.176823512, -0.162734255, 0.4377781   , -0.00757211028, -0.0113899726, 2.42141366  , 2.16        , 3           , 11          , 0.008035887 , 0.008035885
-0.127019092, 0.07394688  , -9.77437    , -0.00137283118, 0.00164894923, 0.000541015354, -0.176823512, -0.162734255, 0.4377781   , -0.00758589758, -0.0113734445, 2.421419    , 2.17        , 3           , 12          , 0.044275973 , 0
-0.118768565, 0.08107415  , -9.775634   , 0.0003212403, 0.00166040671, -0.000298695231, -0.176688686, -0.162532017, 0.4379129   , -0.00758265052, -0.0113568623, 2.42141557  , 2.18        , 3           , 50          , 0           , 0
-0.108855315, 0.068866834 , -9.802727   , 0.00172935566, 0.00251465268, -8.27127951E-06, -0.176688686, -0.162532017, 0.438182563 , -0.007565354, -0.0113317166, 2.42141557  , 2.19        , 3           , 11          , 0.008035887 , 0.008035885
-0.110432371, 0.0579931624, -9.784253   , -0.0008400788, 0.00187612639, -2.10865819E-05, -0.176621273, -0.162397191, 0.4379129   , -0.00761876348, -0.0113991862, 2.42141557  , 2.2         , 3           , 12          , 0.0451243632, 0
-0.112436794, 0.078762114 , -9.781017   , 0.0005738644, 0.00132254139, -0.001710595, -0.176621273, -0.162397191, 0.4379129   , -0.007612829, -0.0113860909, 2.4213984   , 2.21        , 3           , 50          , 0           , 0
-0.088822946, 0.07854164  , -9.797563   , 1.031594E-05, 0.00131872774, 0.000547071046, -0.17655386 , -0.162397191, 0.4377781   , -0.007612788, -0.0113728624, 2.42140365  , 2.22        , 3           , 11          , 0.00795373  , 0.007953724
-0.102422468, 0.0497495458, -9.776091   , -0.0011063558, -0.00122299534, 0.00138551043, -0.176621273, -0.162397191, 0.438047737 , -0.00762401056, -0.0113849863, 2.42141747  , 2.23        , 3           , 12          , 0.0451243632, 0
-0.114427112, 0.0607842021, -9.795119   , -0.0005493768, 0.000470217172, 0.00223836023, -0.17655386 , -0.162599429, 0.4377781   , -0.007629758, -0.0113801137, 2.42144     , 2.24        , 3           , 50          , 0           , 0
-0.127679527, 0.0853149   , -9.797831   , 0.00113969692, 0.001326366 , -1.27359117E-05, -0.17655386 , -0.162599429, 0.4377781   , -0.00761835929, -0.0113668507, 2.42144     , 2.25        , 3           , 11          , 0.00795373  , 0.007953724
-0.117919244, 0.0729836151, -9.787865   , 0.00114232185, 0.000763235032, -0.000296141254, -0.17702575 , -0.1624646  , 0.4379129   , -0.007606902, -0.0113592418, 2.42143655  , 2.26        , 3           , 12          , 0.0451243632, 0
-0.107391424, 0.08054151  , -9.79091549 , -0.001676044, -0.000382123515, 0.0002540284, -0.1767561  , -0.162599429, 0.43811515  , -0.00762369158, -0.0113630453, 2.42143941  , 2.27        , 3           , 50          , 0           , 0
-0.128898129, 0.06275436  , -9.793865   , 0.00115175359, -0.00120772189, -0.000864253845, -0.176890925, -0.162869081, 0.437980324 , -0.007612077, -0.011375186, 2.42143083  , 2.28        , 3           , 11          , 0.00795373  , 0.007953724
-0.134290084, 0.0659762   , -9.793894   , -0.0008352442, 0.00103143428, 0.00110776129, -0.176890925, -0.162869081, 0.437980324 , -0.00762055255, -0.0113647887, 2.42144179  , 2.29        , 3           , 12          , 0.0451243632, 0
-0.126692012, 0.0550929867, -9.804276   , 0.00174748828, -0.000145763683, 0.00111696369, -0.176621273, -0.1624646  , 0.4379129   , -0.00754881464, -0.0114710918, 2.42145228  , 2.3         , 3           , 50          , 0           , 0
-0.104963981, 0.08734268  , -9.80894852 , 0.00201720628, 0.00239023124, 0.0008396484, -0.1767561  , -0.162801668, 0.4379129   , -0.007528736, -0.0114471251, 2.42146039  , 2.31        , 3           , 11          , 0.007866283 , 0.007866279
-0.111076564, 0.07115975  , -9.805898   , 0.0009023432, -0.0007146269, -1.80047828E-05, -0.176688686, -0.162666842, 0.437980324 , -0.00751971174, -0.011454273, 2.42146039  , 2.32        , 3           , 12          , 0.04599396  , 0
-0.109230086, 0.07607696  , -9.798633   , -0.00248243334, -0.00158224092, 0.000247427437, -0.176688686, -0.162666842, 0.437980324 , -0.00754456641, -0.0114700766, 2.42146325  , 2.33        , 3           , 50          , 0           , 0
-0.1083041  , 0.07340478  , -9.812195   , 5.703501E-05, -0.0012834908, -0.00143551093, -0.176419035, -0.162734255, 0.4377781   , -0.00754383253, -0.01148302 , 2.421449    , 2.34        , 3           , 11          , 0.007866283 , 0.007866279
-0.131381437, 0.07591954  , -9.808746   , -0.000798861438, 0.000681740232, 0.000541338 , -0.176890925, -0.162599429, 0.4377781   , -0.00755188055, -0.011476161, 2.42145419  , 2.35        , 3           , 12          , 0.04599396  , 0
-0.137848362, 0.06428519  , -9.815171   , 0.0008965152, 0.000693204 , 0.00196192716, -0.176958337, -0.162532017, 0.4379129   , -0.00754314 , -0.011469081, 2.42147374  , 2.36        , 3           , 50          , 0           , 0
-0.111386091, 0.05082317  , -9.795589   , -0.0005127421, -0.000161047326, -0.000306259084, -0.176958337, -0.162532017, 0.4379129   , -0.00754823256, -0.0114707127, 2.42147088  , 2.37        , 3           , 11          , 0.007866283 , 0.007866279
-0.112394668, 0.07522548  , -9.802728   , -0.00417469628, -0.00215683342, -0.000608954229, -0.1767561  , -0.1624646  , 0.4378455   , -0.007589911, -0.0114923269, 2.42146516  , 2.38        , 3           , 12          , 0.04599396  , 0
-0.114200316, 0.08016102  , -9.788258   , -0.002766907, -0.00130258873, -0.000883605331, -0.177227989, -0.162397191, 0.437980324 , -0.007617479, -0.01150542 , 2.421456    , 2.39        , 3           , 50          , 0           , 0
-0.09435689 , 0.0762922242, -9.780438   , -0.00499444874, -0.00107641006, 0.0008009136, -0.176621273, -0.162666842, 0.437980324 , -0.00761584565, -0.0115803182, 2.4214642   , 2.4         , 3           , 11          , 0.007774119 , 0.007774114
-0.09798059 , 0.0718701   , -9.794496   , -0.000193682339, -0.001043943, -2.43107679E-05, -0.17655386 , -0.162801668, 0.4377781   , -0.00761778 , -0.0115907583, 2.42146373  , 2.41        , 3           , 12          , 0.0468832739, 0
-0.11164248 , 0.06437814  , -9.8000555  , -0.00245137652, -0.001340786, 0.000529794546, -0.17655386 , -0.162801668, 0.4377781   , -0.007642356, -0.0116041265, 2.421469    , 2.42        , 3           , 50          , 0           , 0
-0.104183078, 0.080089435 , -9.801741   , -0.000771823339, 0.001767891 , 0.00110754441, -0.176688686, -0.162329778, 0.4378455   , -0.007650201, -0.0115863625, 2.42148     , 2.43        , 3           , 11          , 0.007774119 , 0.007774114
-0.10495463 , 0.0624287948, -9.780578   , -0.00133035972, 0.000356242526, -2.74088343E-05, -0.176890925, -0.1624646  , 0.437980324 , -0.00766350143, -0.011582803, 2.42147946  , 2.44        , 3           , 12          , 0.0468832739, 0
-0.115264468, 0.072455205 , -9.774286   , 0.00319667067, -0.0013025892, -0.000291479, -0.176621273, -0.162397191, 0.4377781   , -0.007631502, -0.0115958508, 2.4214766   , 2.45        , 3           , 50          , 0           , 0
-0.120067306, 0.07846029  , -9.798705   , 0.003484925 , -0.00270851 , -0.00227009412, -0.176621273, -0.162397191, 0.4377781   , -0.00759639 , -0.0116231078, 2.42145467  , 2.46        , 3           , 11          , 0.007774119 , 0.007774114
-0.101368815, 0.08593914  , -9.806667   , 0.00122230744, -0.00187909 , -0.0005841029, -0.176621273, -0.162329778, 0.4378455   , -0.00758410152, -0.011641942, 2.421449    , 2.47        , 3           , 12          , 0.0468832739, 0
-0.117221795, 0.0887988359, -9.796833   , 0.000661799 , -0.00272760424, -0.000305501075, -0.176890925, -0.162666842, 0.4378455   , -0.007577452, -0.01166924 , 2.421446    , 2.48        , 3           , 50          , 0           , 0
-0.111132212, 0.0715610161, -9.790981   , -0.00189955847, 0.001197117 , -0.0003112784, -0.176823512, -0.162801668, 0.4378455   , -0.007596409, -0.011657293, 2.42144275  , 2.49        , 3           , 11          , 0.007774119 , 0.007774114
-0.110814676, 0.0977066159, -9.784543   , 0.0006336109, 0.0006761196, 0.000265115115, -0.176823512, -0.162801668, 0.4378455   , -0.00760969333, -0.0116090607, 2.42144561  , 2.5         , 3           , 12          , 0.0477908961, 0
-0.109464541, 0.0941132158, -9.79404    , -0.001626293, 0.0006608375, -0.0005930326, -0.176823512, -0.162666842, 0.4378455   , -0.00762588624, -0.0116024995, 2.42143941  , 2.51        , 3           , 50          , 0           , 0
-0.106955729, 0.07248805  , -9.812641   , -0.00246816082, -0.0004711536, -0.000881256652, -0.17655386 , -0.1624646  , 0.4378455   , -0.0076504657, -0.0116072781, 2.42143083  , 2.52        , 3           , 11          , 0.007679999 , 0.00767999375
-0.0988668352, 0.07278909  , -9.796307   , -0.00076835003, -0.00158595538, -0.0014401658, -0.176890925, -0.162599429, 0.437980324 , -0.00765798334, -0.0116232447, 2.42141652  , 2.53        , 3           , 12          , 0.0477908961, 0
-0.105271436, 0.06477604  , -9.806333   , -0.000495607, 0.00066848204, 0.00110745977, -0.176890925, -0.162599429, 0.437980324 , -0.00766306743, -0.0116164768, 2.42142749  , 2.54        , 3           , 50          , 0           , 0
-0.12851426 , 0.05778336  , -9.79298    , 0.00317315385, 0.00125644181, 0.0011254478, -0.176958337, -0.162599429, 0.4378455   , -0.00763146626, -0.0116038267, 2.42143846  , 2.55        , 3           , 11          , 0.007679999 , 0.00767999375
-0.110080808, 0.0797028542, -9.800432   , 6.851973E-05, 0.000390726753, -0.00256332732, -0.176688686, -0.162329778, 0.4377781   , -0.007630482, -0.0116001172, 2.42141318  , 2.56        , 3           , 12          , 0.0477908961, 0
-0.108718909, 0.074333556 , -9.818522   , -0.0019058577, 0.000377369463, 0.0019480536, -0.1767561  , -0.1624646  , 0.4378455   , -0.00764976675, -0.0115961926, 2.42143273  , 2.57        , 3           , 50          , 0           , 0
-0.115537509, 0.08108684  , -9.79052448 , -0.0007712269, -0.000741254131, 0.0008214358, -0.1767561  , -0.1624646  , 0.4378455   , -0.00765757542, -0.0116035417, 2.42144084  , 2.58        , 3           , 11          , 0.007679999 , 0.00767999375
-0.116196349, 0.06708831  , -9.785164   , 7.154525E-05, 0.000109169574, 0.000261613372, -0.17655386 , -0.162734255, 0.437980324 , -0.00765689 , -0.0116024306, 2.42144322  , 2.59        , 3           , 12          , 0.0477908961, 0
-0.101584196, 0.07192775  , -9.799044   , -0.00021684989, 0.00237160735, -0.000583817135, -0.176621273, -0.1624646  , 0.437980324 , -0.007649204, -0.0115583595, 2.4214375   , 2.6         , 3           , 50          , 0           , 0
-0.0941083953, 0.0596064031, -9.78412151 , 0.000633381656, 0.00181420788, -0.000298196683, -0.1767561  , -0.162532017, 0.437980324 , -0.007642833, -0.0115402406, 2.42143416  , 2.61        , 3           , 11          , 0.00758381747, 0.00758381141
-0.097598   , 0.0651126355, -9.799041   , 0.003155544 , 0.00577330869, -0.00056280673, -0.1767561  , -0.162532017, 0.437980324 , -0.0076112086, -0.0114825526, 2.421428    , 2.62        , 3           , 12          , 0.0487155169, 0
-0.111439906, 0.0761473849, -9.811756   , 0.00176694465, 0.000977151 , -0.0008593058, -0.176688686, -0.162666842, 0.437575847 , -0.00759344129, -0.0114728473, 2.42141938  , 2.63        , 3           , 50          , 0           , 0
-0.124090619, 0.04782605  , -9.7993145  , -0.000765464967, -0.00101099582, -0.00143927068, -0.176688686, -0.162532017, 0.4378455   , -0.007600931, -0.0114830667, 2.421405    , 2.64        , 3           , 11          , 0.00758381747, 0.00758381141
-0.123138219, 0.05320958  , -9.793409   , 7.68921163E-05, 0.000120997611, -0.00030343415, -0.176621273, -0.1624646  , 0.43811515  , -0.00760012632, -0.01148188 , 2.42140222  , 2.65        , 3           , 12          , 0.0487155169, 0
-0.119992815, 0.0834305137, -9.800943   , -0.000198401569, -0.00128873682, -2.43832783E-05, -0.176621273, -0.1624646  , 0.43811515  , -0.00760210864, -0.0114947688, 2.42140222  , 2.66        , 3           , 50          , 0           , 0
-0.105568074, 0.07428123  , -9.813978   , -0.0007627657, -0.00129255455, 0.0008205952, -0.17655386 , -0.162599429, 0.43764326  , -0.007609832, -0.0115076313, 2.42140985  , 2.67        , 3           , 11          , 0.00758381747, 0.00758381141
-0.105838664, 0.0562079735, -9.80592    , 0.00148026168, 0.0015383641, -0.003402592, -0.17655386 , -0.162532017, 0.438047737 , -0.00759463757, -0.0114925075, 2.42137647  , 2.68        , 3           , 12          , 0.0487155169, 0
-0.123553984, 0.08798607  , -9.801404   , -0.00331165153, -0.000183491153, -0.00173235883, -0.176890925, -0.162599429, 0.4378455   , -0.007627555, -0.0114944745, 2.42135882  , 2.69        , 3           , 50          , 0           , 0
-0.1239498  , 0.08937659  , -9.810893   , -0.00130586815, 0.0006722169, -2.69546817E-05, -0.17655386 , -0.1624646  , 0.437575847 , -0.00758338533, -0.0114919785, 2.42135835  , 2.7         , 3           , 11          , 0.00748656457, 0.00748655945
-0.1282574  , 0.0749528   , -9.80059052 , 0.00237969519, -0.00183703215, 0.00252909726, -0.17655386 , -0.1624646  , 0.437575847 , -0.007559882, -0.011510157, 2.42138314  , 2.71        , 3           , 12          , 0.0496559   , 0
-0.113883689, 0.06486948  , -9.804137   , -0.003559217, -0.0004693209, 0.000808386365, -0.176621273, -0.162532017, 0.4379129   , -0.0075955675, -0.0115147876, 2.42139173  , 2.72        , 3           , 50          , 0           , 0
-0.132839918, 0.07674707  , -9.781635   , -0.001004993, -0.00298621738, 0.0005337958, -0.17655386 , -0.1624646  , 0.437980324 , -0.007605682, -0.0115446085, 2.42139745  , 2.73        , 3           , 11          , 0.00748656457, 0.00748655945
-0.128526956, 0.09340696  , -9.786052   , -0.000180832343, 0.00152454956, -0.000867997645, -0.17655386 , -0.162734255, 0.4378455   , -0.00760738831, -0.01152943 , 2.42138839  , 2.74        , 3           , 12          , 0.0496559   , 0
-0.112297438, 0.08066046  , -9.809032   , 0.000667679 , 0.0012487137, -0.00114701828, -0.17655386 , -0.162734255, 0.4378455   , -0.00760057848, -0.01151703 , 2.42137647  , 2.75        , 3           , 50          , 0           , 0
-0.1179694  , 0.0631233   , -9.807341   , -0.00017320973, 0.000116727431, 0.000259982422, -0.17655386 , -0.162397191, 0.4377781   , -0.00760234 , -0.0115158428, 2.42137933  , 2.76        , 3           , 11          , 0.00748656457, 0.00748655945
-0.110670634, 0.07334821  , -9.787354   , 0.001788859 , 0.0029457435, -0.0014216844, -0.1767561  , -0.162599429, 0.437980324 , -0.007584285, -0.011486494, 2.421365    , 2.77        , 3           , 12          , 0.0496559   , 0
-0.104486585, 0.062882185 , -9.782831   , -0.00188466185, 0.003484048 , -2.52492082E-05, -0.176486447, -0.162532017, 0.43764326  , -0.00760312658, -0.0114516569, 2.42136455  , 2.78        , 3           , 50          , 0           , 0
-0.106870979, 0.05120604  , -9.791034   , 0.001505691 , 0.00322540151, -0.000292417419, -0.176486447, -0.162532017, 0.43764326  , -0.007588033, -0.0114194248, 2.42136121  , 2.79        , 3           , 11          , 0.00748656457, 0.00748655945
-0.113722496, 0.0761588439, -9.807253   , 0.00267318683, 0.00265335315, -0.0008536049, -0.176823512, -0.162599429, 0.437710673 , -0.00749574555, -0.0114236306, 2.42135167  , 2.8         , 3           , 12          , 0.0506108627, 0
-0.100482993, 0.08189535  , -9.814814   , -0.0009909027, 0.00122070056, -2.52822556E-05, -0.176688686, -0.1624646  , 0.438047737 , -0.00750565 , -0.0114114285, 2.42135167  , 2.81        , 3           , 50          , 0           , 0
-0.09705    , 0.07545054  , -9.78905    , 0.000991246 , 0.0003893799, 0.00167785911, -0.176486447, -0.162666842, 0.4379129   , -0.00749592949, -0.011407407, 2.42136836  , 2.82        , 3           , 11          , 0.007390774 , 0.00739076827
-0.105217233, 0.0674980655, -9.810841   , 0.00211407221, 0.00152327376, -0.000575437036, -0.176486447, -0.162666842, 0.4379129   , -0.007474722, -0.01139222 , 2.42136264  , 2.83        , 3           , 12          , 0.0506108627, 0
-0.10845226 , 0.06971392  , -9.787805   , -0.0009994298, 0.00291009038, -0.000305216148, -0.176621273, -0.162666842, 0.437710673 , -0.00748467958, -0.01136314 , 2.4213593   , 2.84        , 3           , 50          , 0           , 0
-0.09940401 , 0.0696015656, -9.785929   , -0.000151244749, 0.002634253 , -0.00114931166, -0.17655386 , -0.1624646  , 0.437980324 , -0.00748605933, -0.0113368845, 2.42134786  , 2.85        , 3           , 11          , 0.007390774 , 0.00739076827
-0.11378143 , 0.07209395  , -9.805915   , 0.000149793574, -0.001024181, -0.0003060235, -0.1767561  , -0.162397191, 0.4377781   , -0.0074845273, -0.0113471476, 2.421345    , 2.86        , 3           , 12          , 0.0506108627, 0
-0.112125754, 0.06346604  , -9.795543   , 0.0004241827, 0.0006671211, 0.0002629718, -0.1767561  , -0.162397191, 0.4377781   , -0.007480314, -0.0113404579, 2.421347    , 2.87        , 3           , 50          , 0           , 0
-0.115242824, 0.06890194  , -9.791024   , -0.000417684962, -0.000464869954, -2.52519931E-05, -0.1767561  , -0.162666842, 0.4377781   , -0.00748448959, -0.011345108, 2.421347    , 2.88        , 3           , 11          , 0.007390774 , 0.00739076827
-0.126301423, 0.0893321037, -9.789668   , -0.00211765873, 0.0006499314, 0.0002511194, -0.1767561  , -0.162599429, 0.437980324 , -0.007505693, -0.0113385906, 2.42134976  , 2.89        , 3           , 12          , 0.0506108627, 0
-0.115659513, 0.06982921  , -9.7969     , -0.000412646681, -0.000756138936, 0.000256752421, -0.176823512, -0.162666842, 0.4378455   , -0.00750317145, -0.011364745, 2.42135167  , 2.9         , 3           , 50          , 0           , 0
-0.130155429, 0.0708865   , -9.792486   , 0.00012801947, 0.00403428543, -0.000580849068, -0.176823512, -0.162666842, 0.4378455   , -0.00750182243, -0.0113244466, 2.421346    , 2.91        , 3           , 11          , 0.007295414 , 0.00729540875
-0.108834885, 0.0662052855, -9.816298   , 0.00184258574, 0.0001038363, 0.0002685897, -0.176958337, -0.162801668, 0.437508434 , -0.007483427, -0.0113233887, 2.42134881  , 2.92        , 3           , 12          , 0.05157934  , 0
-0.124213815, 0.0726477057, -9.800117   , 0.0009886617, 0.00150593324, 0.0008318835, -0.176688686, -0.162666842, 0.4379129   , -0.007473633, -0.0113082668, 2.42135644  , 2.93        , 3           , 50          , 0           , 0
-0.09595143 , 0.089433156 , -9.791244   , 0.00183176016, 0.00235635834, 0.0008371361, -0.176890925, -0.1624646  , 0.4377781   , -0.007455409, -0.011284641, 2.421365    , 2.94        , 3           , 11          , 0.007295414 , 0.00729540875
-0.110288173, 0.0639125556, -9.800499   , 0.0010002288, -0.00102815719, -0.0008672466, -0.176688686, -0.162599429, 0.4378455   , -0.00744530931, -0.0112949871, 2.42135644  , 2.95        , 3           , 12          , 0.05157934  , 0
-0.1143886  , 0.06751064  , -9.782887   , -0.00238979748, -0.0007695094, -3.500335E-05, -0.176688686, -0.162599429, 0.4378455   , -0.00746920425, -0.0113026835, 2.421356    , 2.96        , 3           , 50          , 0           , 0
-0.107586727, 0.06342195  , -9.79822    , -0.00324142328, 6.94553E-05 , -0.000320189836, -0.176621273, -0.162532017, 0.4377781   , -0.00750158355, -0.011302013, 2.42135262  , 2.97        , 3           , 11          , 0.007295414 , 0.00729540875
-0.0998316556, 0.06828821  , -9.796332   , -0.00324330665, 0.000351017952, -0.00116736826, -0.1767561  , -0.162329778, 0.4377781   , -0.007533884, -0.0112985913, 2.42134118  , 2.98        , 3           , 12          , 0.05157934  , 0
-0.117852241, 0.07794779  , -9.788295   , 0.000129576641, 0.003752721 , -0.0002987455, -0.1767561  , -0.1624646  , 0.4377781   , -0.00753255142, -0.0112610888, 2.42133832  , 2.99        , 3           , 50          , 0           , 0
-0.102937512, 0.07373318  , -9.794526   , -0.0021018798, 0.00119713007, 0.000816782762, -0.1767561  , -0.1624646  , 0.4377781   , -0.007524377, -0.011261411, 2.421346    , 3           , 3           , 11          , 0.00720044272, 0.007200439
-0.10420458 , 0.07873295  , -9.800843   , 0.000440213771, 0.000932749244, -0.001149561, -0.176688686, -0.162532017, 0.437441021 , -0.007519847, -0.01125217 , 2.42133451  , 3.01        , 3           , 12          , 0.0525603034, 0
-0.111465611, 0.07925102  , -9.795472   , -0.00323830475, 0.002315745 , -0.00116451143, -0.176890925, -0.162666842, 0.4377781   , -0.00755209662, -0.0112290988, 2.42132258  , 3.02        , 3           , 50          , 0           , 0
-0.0958024561, 0.06418605  , -9.798127   , -0.00181896344, 0.00119904242, 0.00166571233, -0.176688686, -0.162532017, 0.4379129   , -0.007570471, -0.0112169841, 2.42133927  , 3.03        , 3           , 11          , 0.00720044272, 0.007200439
-0.08930094 , 0.0695995241, -9.820202   , -0.000122267054, 0.000647368957, 0.0005425959, -0.176688686, -0.162532017, 0.4379129   , -0.00757175544, -0.0112104686, 2.42134452  , 3.04        , 3           , 12          , 0.0525603034, 0
-0.107472152, 0.06708559  , -9.814475   , 0.001574103 , 9.569392E-05, -0.001145595, -0.1767561  , -0.162666842, 0.437710673 , -0.00755588571, -0.0112095978, 2.421333    , 3.05        , 3           , 50          , 0           , 0
-0.124350213, 0.06718097  , -9.784321   , -0.00095437665, -0.00245557772, 0.000251334335, -0.176621273, -0.162599429, 0.4378455   , -0.00756545924, -0.0112341344, 2.42133546  , 3.06        , 3           , 11          , 0.00720044272, 0.007200439
-0.111389011, 0.08199118  , -9.805404   , -0.0006789198, -0.00104584231, 0.000254820945, -0.176823512, -0.162599429, 0.437710673 , -0.007572278, -0.0112445727, 2.42133832  , 3.07        , 3           , 12          , 0.0525603034, 0
-0.114740752, 0.06491942  , -9.815896   , 0.00044358  , 8.805015E-05, -0.00256355037, -0.176823512, -0.162599429, 0.437710673 , -0.00756755564, -0.0112438854, 2.42131257  , 3.08        , 3           , 50          , 0           , 0
-0.111951612, 0.0720878   , -9.810421   , -0.000399770448, -0.000480804621, -0.0005906065, -0.17655386 , -0.162599429, 0.437710673 , -0.007571486, -0.0112487376, 2.42130685  , 3.09        , 3           , 11          , 0.00720044272, 0.007200439
-0.122283287, 0.08031113  , -9.80459    , 0.000177650611, 0.0006515761, 0.00110882369, -0.176621273, -0.162329778, 0.43764326  , -0.00753464 , -0.0112374322, 2.42131734  , 3.1         , 3           , 12          , 0.0535528   , 0
-0.120460957, 0.08029894  , -9.807288   , -0.00319802063, -0.00218699663, 0.000241068687, -0.17655386 , -0.162532017, 0.4378455   , -0.007566649, -0.0112592839, 2.4213202   , 3.11        , 3           , 50          , 0           , 0
-0.12058723 , 0.07082325  , -9.806876   , 0.00217152969, -0.002713834, 0.00139537256, -0.17655386 , -0.162532017, 0.4378455   , -0.007545093, -0.0112863155, 2.42133451  , 3.12        , 3           , 11          , 0.00710767927, 0.00710767647
-0.136790708, 0.05599129  , -9.76819    , 0.00157617114, 0.00347677851, 0.00168482284, -0.176486447, -0.162397191, 0.4378455   , -0.0075295195, -0.0112514216, 2.42135072  , 3.13        , 3           , 12          , 0.0535528   , 0
-0.121861324, 0.07894177  , -9.801429   , 0.00160323549, -0.00215452723, 0.0002634566, -0.176688686, -0.162397191, 0.4378455   , -0.00751351938, -0.0112729445, 2.42135358  , 3.14        , 3           , 50          , 0           , 0
-0.11999514 , 0.08789214  , -9.786011   , -0.000677741831, 0.00205366616, -0.0008707196, -0.176419035, -0.1624646  , 0.43764326  , -0.007520197, -0.0112524731, 2.421345    , 3.15        , 3           , 11          , 0.00710767927, 0.00710767647
-0.09939029 , 0.07050537  , -9.786377   , -0.00124505721, 0.002612978 , -0.0003074106, -0.176419035, -0.1624646  , 0.43764326  , -0.007532611, -0.0112263672, 2.42134166  , 3.16        , 3           , 12          , 0.0535528   , 0
-0.110852078, 0.08741027  , -9.808541   , -0.00123750907, 0.0009235835, -0.00172270183, -0.176621273, -0.162734255, 0.43764326  , -0.00754479226, -0.0112172617, 2.421324    , 3.17        , 3           , 50          , 0           , 0
-0.1284061  , 0.0730469152, -9.770315   , 0.00214841  , 0.00179120316, -1.03717175E-05, -0.1767561  , -0.162397191, 0.437710673 , -0.007523305, -0.0111993514, 2.421324    , 3.18        , 3           , 11          , 0.00710767927, 0.00710767647
-0.09580488 , 0.06596949  , -9.791792   , -0.000386461645, 0.000366187975, -2.43937975E-05, -0.176688686, -0.162666842, 0.4378455   , -0.007527167, -0.01119569 , 2.421324    , 3.19        , 3           , 12          , 0.0535528   , 0
-0.0951235145, 0.0750764   , -9.818416   , -0.00123580114, 0.0003379342, -0.0005935747, -0.176688686, -0.162666842, 0.4378455   , -0.007543122, -0.01124004 , 2.42131782  , 3.2         , 3           , 50          , 0           , 0
-0.11761111 , 0.06393411  , -9.781571   , 0.00131570967, -0.00133426022, 0.00167597376, -0.176688686, -0.162397191, 0.4377781   , -0.00753015373, -0.0112532564, 2.42133451  , 3.21        , 3           , 11          , 0.007015529 , 0.007015527
-0.105322726, 0.07366149  , -9.765165   , 0.00554235373, 0.0006653448, 0.00169876532, -0.17655386 , -0.162194952, 0.437575847 , -0.007474922, -0.0112464763, 2.42135167  , 3.22        , 3           , 12          , 0.0545559265, 0
-0.110121205, 0.0805628151, -9.787773   , 0.00215085945, 0.0009239855, -1.1828688E-05, -0.176688686, -0.162801668, 0.437710673 , -0.007453411, -0.0112372376, 2.42135167  , 3.23        , 3           , 50          , 0           , 0
-0.0978827  , 0.07819831  , -9.798084   , -0.00207332359, -0.00163875124, -0.0006005631, -0.176621273, -0.1624646  , 0.437710673 , -0.00747407647, -0.0112536689, 2.421346    , 3.24        , 3           , 11          , 0.007015529 , 0.007015527
-0.1074982  , 0.07733054  , -9.77511    , 0.00130464637, 0.000636689 , -0.0005812884, -0.176621273, -0.1624646  , 0.437710673 , -0.00746096438, -0.0112473434, 2.42134023  , 3.25        , 3           , 12          , 0.0545559265, 0
-0.122508563, 0.06807713  , -9.788824   , 0.00016288241, 0.00316313724, 0.000264961476, -0.176419035, -0.162329778, 0.43764326  , -0.007459362, -0.0112156924, 2.42134213  , 3.26        , 3           , 50          , 0           , 0
-0.107095443, 0.07014309  , -9.785985   , 0.00242533721, 0.00233371626, -0.00170356734, -0.176890925, -0.162397191, 0.4378455   , -0.00743491575, -0.011192482, 2.421325    , 3.27        , 3           , 11          , 0.007015529 , 0.007015527
-0.102974735, 0.0763811246, -9.776888   , 0.00187056756, 0.0003589423, -0.00114416354, -0.176688686, -0.162329778, 0.437710673 , -0.00741608161, -0.0111889774, 2.42131352  , 3.28        , 3           , 12          , 0.0545559265, 0
-0.117906079, 0.06808445  , -9.806867   , 0.001290128 , 0.00373390922, 0.000836172141, -0.176688686, -0.162329778, 0.437710673 , -0.007403271, -0.0111515783, 2.421322    , 3.29        , 3           , 50          , 0           , 0
-0.117911562, 0.0707581   , -9.796913   , -0.00152666087, 0.00145582273, -0.001440768, -0.176688686, -0.162397191, 0.4378455   , -0.00742354756, -0.0111512374, 2.4213078   , 3.3         , 3           , 11          , 0.006925309 , 0.00692530628
-0.105283216, 0.07413985  , -9.773299   , -0.00236829114, 0.0006054046, 0.0010968165, -0.176688686, -0.162397191, 0.437710673 , -0.00744735124, -0.0111451028, 2.42131829  , 3.31        , 3           , 12          , 0.05556886  , 0
-0.121820293, 0.07897504  , -9.811373   , 0.00159085984, -0.000775689841, -0.00199482823, -0.176486447, -0.162666842, 0.4377781   , -0.00743122166, -0.0111530069, 2.42129827  , 3.32        , 3           , 50          , 0           , 0
-0.127644032, 0.0777557   , -9.830857   , -0.00153019035, 0.002300521 , -0.000309316267, -0.176486447, -0.162666842, 0.4377781   , -0.007446487, -0.0111300256, 2.4212954   , 3.33        , 3           , 11          , 0.006925309 , 0.00692530628
-0.105711393, 0.06702351  , -9.802258   , -0.00209913729, 0.00285982527, -0.00257138233, -0.176958337, -0.162666842, 0.437710673 , -0.00746719074, -0.0111016193, 2.42126918  , 3.34        , 3           , 12          , 0.05556886  , 0
-0.108750112, 0.08011084  , -9.792284   , -0.002076922, -0.00136364484, -0.000317591272, -0.1767561  , -0.162397191, 0.4378455   , -0.00748792524, -0.011115279, 2.42126584  , 3.35        , 3           , 50          , 0           , 0
-0.109382406, 0.06925829  , -9.783294   , 0.0007377513, 0.0006264112, -1.88469221E-05, -0.1767561  , -0.162599429, 0.43764326  , -0.007480545, -0.0111090168, 2.42126584  , 3.36        , 3           , 11          , 0.006925309 , 0.00692530628
-0.118928082, 0.06442994  , -9.790167   , -0.0006486381, -0.00445130654, 0.0010969073, -0.1767561  , -0.162599429, 0.43764326  , -0.00748715829, -0.0111534465, 2.42127728  , 3.37        , 3           , 12          , 0.05556886  , 0
-0.116893955, 0.073516354 , -9.815425   , 0.0004567185, 0.0003429361, -2.059779E-05, -0.176486447, -0.162734255, 0.4377781   , -0.00748258736, -0.0111500183, 2.42127728  , 3.38        , 3           , 50          , 0           , 0
-0.12061359 , 0.07303365  , -9.793307   , 0.0001778954, -0.0002221001, 0.00138990465, -0.17655386 , -0.162532017, 0.437710673 , -0.007480964, -0.0111521352, 2.42129064  , 3.39        , 3           , 11          , 0.006925309 , 0.00692530628
-0.0935147256, 0.06864225  , -9.789504   , 0.00158469856, 0.00116757723, -0.00312218978, -0.176621273, -0.162532017, 0.4377781   , -0.007455187, -0.0112030562, 2.42125916  , 3.4         , 3           , 12          , 0.0565908141, 0
-0.108942337, 0.06210108  , -9.803207   , 0.0007308485, 0.00285124662, -1.56249E-05, -0.176621273, -0.162532017, 0.4377781   , -0.00744787464, -0.0111745447, 2.42125916  , 3.41        , 3           , 50          , 0           , 0
-0.09922832 , 0.0777782351, -9.802616   , 0.000168782921, 0.00228429632, -1.91266372E-05, -0.176621273, -0.162397191, 0.437710673 , -0.00744618149, -0.0111517031, 2.42125869  , 3.42        , 3           , 11          , 0.006838356 , 0.00683835149
-0.114425637, 0.0928484648, -9.80312252 , -0.00123145781, -0.000259342371, -0.00115976669, -0.17655386 , -0.1624646  , 0.4377781   , -0.00745836832, -0.0111543834, 2.42124677  , 3.43        , 3           , 12          , 0.0565908141, 0
-0.121591046, 0.07164699  , -9.780213   , 0.002436888 , 0.0006101872, 0.000553879945, -0.176621273, -0.1624646  , 0.4379129   , -0.007434061, -0.0111482413, 2.42125249  , 3.44        , 3           , 50          , 0           , 0
-0.125142962, 0.07353191  , -9.79153252 , 0.00355618447, 0.00258877943, -0.000567964453, -0.176621273, -0.1624646  , 0.4379129   , -0.00739843259, -0.0111223962, 2.42124677  , 3.45        , 3           , 11          , 0.006838356 , 0.00683835149
-0.106582619, 0.07063276  , -9.799087   , 0.00216914248, -0.002488942, -0.000582359964, -0.176486447, -0.162599429, 0.43764326  , -0.007376679, -0.01114733 , 2.421241    , 3.46        , 3           , 12          , 0.0565908141, 0
-0.12328355 , 0.0757815242, -9.796029   , 0.00132095756, -0.0022131044, 0.0002617354, -0.17655386 , -0.162262365, 0.4379129   , -0.0073635  , -0.01116944 , 2.421244    , 3.47        , 3           , 50          , 0           , 0
-0.09642494 , 0.08406548  , -9.80347252 , -0.001525778, 0.0022728364, -2.702824E-05, -0.176621273, -0.162532017, 0.4377781   , -0.00737875234, -0.0111467149, 2.42124343  , 3.48        , 3           , 11          , 0.006838356 , 0.00683835149
-0.107949413, 0.06930281  , -9.801362   , 0.00243065925, 0.00173644442, -0.000574534, -0.176621273, -0.1624646  , 0.437710673 , -0.00735438 , -0.0111293932, 2.42123771  , 3.49        , 3           , 12          , 0.0565908141, 0
-0.1418813  , 0.06838432  , -9.812473   , -0.00321251946, -0.00168978283, 0.00024158349, -0.176621273, -0.1624646  , 0.437710673 , -0.00741405832, -0.0111677386, 2.42124057  , 3.5         , 3           , 50          , 0           , 0
-0.119859807, 0.08934084  , -9.814477   , -0.00124635757, 0.000576109043, 0.0008193485, -0.176486447, -0.162532017, 0.4378455   , -0.00742661441, -0.0111619169, 2.42124867  , 3.51        , 3           , 11          , 0.006752297 , 0.006752293
-0.117730185, 0.08161748  , -9.806358   , -0.000397757452, 1.870183E-05, -0.00172040588, -0.176486447, -0.162599429, 0.4377781   , -0.007430399, -0.0111618591, 2.42123151  , 3.52        , 3           , 12          , 0.05762106  , 0
-0.13046141 , 0.08038414  , -9.797873   , -0.0009649096, 0.0005780143, -0.0008745593, -0.176486447, -0.162599429, 0.4378455   , -0.007439951, -0.0111561436, 2.421223    , 3.53        , 3           , 50          , 0           , 0
-0.1161031  , 0.07475184  , -9.783322   , 0.00101642311, -0.000253310369, -0.00058410503, -0.176486447, -0.162599429, 0.4378455   , -0.0074297213, -0.01115872 , 2.42121673  , 3.54        , 3           , 11          , 0.006752297 , 0.006752293
-0.110071875, 0.111773156 , -9.810242   , 0.00100183045, 0.00256233732, -0.0017099157, -0.17655386 , -0.162666842, 0.437710673 , -0.00741951168, -0.0111332238, 2.42119956  , 3.55        , 3           , 12          , 0.05762106  , 0
-0.116135523, 0.06356679  , -9.811393   , 0.000732765533, 2.63456041E-05, -0.000302450557, -0.176486447, -0.162666842, 0.4377781   , -0.007412151, -0.0111329826, 2.42119622  , 3.56        , 3           , 50          , 0           , 0
-0.0925662443, 0.0686664   , -9.799891   , -0.0003918551, -0.001107557, -0.00115706655, -0.176621273, -0.1624646  , 0.43764326  , -0.007415941, -0.0111441435, 2.42118478  , 3.57        , 3           , 11          , 0.006752297 , 0.006752293
-0.108691275, 0.0814975649, -9.802221   , -0.000965814164, 0.000859581749, -2.651288E-05, -0.176621273, -0.1624646  , 0.43764326  , -0.00742559647, -0.01113555 , 2.42118478  , 3.58        , 3           , 12          , 0.05762106  , 0
-0.127344251, 0.07762641  , -9.793793   , 0.00243913149, -0.002214712, 0.0008321294, -0.176419035, -0.162532017, 0.4377781   , -0.00740129966, -0.0111576365, 2.42119336  , 3.59        , 3           , 50          , 0           , 0
-0.126477212, 0.07847726  , -9.781579   , 0.000151507309, -0.00197243784, -0.00143822166, -0.176486447, -0.162532017, 0.437980324 , -0.007460573, -0.01123483 , 2.42117953  , 3.6         , 3           , 11          , 0.00666891225, 0.00666890759
-0.0922953  , 0.06226483  , -9.775961   , -0.00127825944, 0.00167836063, -0.0005915526, -0.176419035, -0.162532017, 0.43764326  , -0.007473288, -0.0112180924, 2.42117333  , 3.61        , 3           , 12          , 0.0586589128, 0
-0.142039865, 0.0606678836, -9.798495   , 0.000717918156, -0.00225018221, -0.0011534841, -0.176419035, -0.162532017, 0.43764326  , -0.00746598141, -0.0112406788, 2.421162    , 3.62        , 3           , 50          , 0           , 0
-0.134144485, 0.0763602555, -9.796109   , 0.0006947095, 0.0025364263, -0.000298494764, -0.176621273, -0.162532017, 0.4377781   , -0.007458998, -0.01121534 , 2.421159    , 3.63        , 3           , 11          , 0.00666891225, 0.00666890759
-0.0983112752, 0.08581121  , -9.779525   , 0.00013780476, 0.00112478586, 0.00139192643, -0.1767561  , -0.162262365, 0.4379129   , -0.007457776, -0.0112039866, 2.42117238  , 3.64        , 3           , 12          , 0.0586589128, 0
-0.13324067 , 0.0790263   , -9.787052   , 0.00127694383, -0.0008385315, 0.000829081633, -0.176351622, -0.162599429, 0.437710673 , -0.0074451  , -0.01121231 , 2.421181    , 3.65        , 3           , 50          , 0           , 0
-0.137946635, 0.09001973  , -9.819133   , -0.00043072697, 0.00140251988, -0.00256579835, -0.176351622, -0.162599429, 0.437710673 , -0.00744911842, -0.011198475, 2.42115521  , 3.66        , 3           , 11          , 0.00666891225, 0.00666890759
-0.102137454, 0.0972194746, -9.803914   , -0.00184246036, 0.00167454383, 0.0005359633, -0.176486447, -0.1629365  , 0.43764326  , -0.00746760145, -0.0111816917, 2.42116046  , 3.67        , 3           , 12          , 0.0586589128, 0
-0.09693448 , 0.08804196  , -9.776794   , 0.00267292839, 0.00226823031, -0.0005722476, -0.17655386 , -0.162397191, 0.43764326  , -0.007440806, -0.011159054, 2.42115426  , 3.68        , 3           , 50          , 0           , 0
-0.09985305 , 0.06960991  , -9.786836   , -0.000704878534, -7.209019E-06, -0.000308984832, -0.17655386 , -0.162397191, 0.437980324 , -0.00744782062, -0.0111591481, 2.4211514   , 3.69        , 3           , 11          , 0.00666891225, 0.00666890759
-0.09972258 , 0.07462548  , -9.802633   , 0.000120572862, -0.00198832527, -0.0003078817, -0.17655386 , -0.162397191, 0.437980324 , -0.00752423471, -0.0112181287, 2.42114949  , 3.7         , 3           , 12          , 0.0597037338, 0
-0.0955288857, 0.0786909238, -9.818403   , -0.00158251519, -0.000310395262, -0.000595717167, -0.17655386 , -0.162666842, 0.437710673 , -0.00753999362, -0.0112212775, 2.42114329  , 3.71        , 3           , 50          , 0           , 0
-0.09742083 , 0.08043213  , -9.793099   , 0.000958747754, -1.16365263E-05, 0.0008292565, -0.176688686, -0.162397191, 0.437710673 , -0.00753049925, -0.0112213315, 2.4211514   , 3.72        , 3           , 11          , 0.00658778474, 0.00658778
-0.128503889, 0.08673039  , -9.813198   , 0.004351147 , -0.0005518448, 0.001691804 , -0.176351622, -0.162329778, 0.437710673 , -0.00748717831, -0.011226722, 2.42116857  , 3.73        , 3           , 12          , 0.0597037338, 0
-0.118478671, 0.057280276 , -9.812341   , 0.00265052123, 0.0005629534, 0.0008380259, -0.176486447, -0.162397191, 0.437575847 , -0.007460767, -0.0112210307, 2.42117715  , 3.74        , 3           , 50          , 0           , 0
-0.114800759, 0.06442442  , -9.802792   , -0.0021456487, -0.000595778751, -3.37100137E-05, -0.176486447, -0.162397191, 0.437575847 , -0.007482221, -0.01122699 , 2.42117667  , 3.75        , 3           , 11          , 0.00658778474, 0.00658778
-0.11777252 , 0.07220983  , -9.826284   , -0.000179486568, 0.0016701133, 0.0005440547, -0.1767561  , -0.162599429, 0.437710673 , -0.00748407468, -0.0112102469, 2.421182    , 3.76        , 3           , 12          , 0.0597037338, 0
-0.1137572  , 0.07970153  , -9.787352   , 9.949965E-05, 0.0022351502, -0.00058391015, -0.176823512, -0.162329778, 0.4378455   , -0.00748301251, -0.0111879408, 2.4211762   , 3.77        , 3           , 50          , 0           , 0
-0.108932786, 0.06746499  , -9.78827    , 0.002095262 , -0.00141182262, 0.000549816934, -0.17655386 , -0.162532017, 0.437575847 , -0.007462122, -0.0112020187, 2.421182    , 3.78        , 3           , 11          , 0.00658778474, 0.00658778
-0.13672626 , 0.0497946069, -9.803924   , -0.00185748248, -0.00172012823, 0.0002484084, -0.17655386 , -0.162532017, 0.437575847 , -0.00748072565, -0.0112192  , 2.4211843   , 3.79        , 3           , 12          , 0.0597037338, 0
-0.144858122, 0.0819681659, -9.816056   , -0.0001601839, 0.000237143729, 0.0008241419, -0.176688686, -0.162599429, 0.437575847 , -0.00745164976, -0.0112803178, 2.42119241  , 3.8         , 3           , 50          , 0           , 0
-0.09770324 , 0.0614565648, -9.785046   , 0.002375014 , 0.00166216039, 0.001403239 , -0.176621273, -0.162599429, 0.43764326  , -0.00742805563, -0.011263594, 2.42120624  , 3.81        , 3           , 11          , 0.006508127 , 0.00650812266
-0.109211914, 0.0453676656, -9.791076   , 0.00236534467, 0.00335154473, -0.0008544571, -0.176823512, -0.162599429, 0.437508434 , -0.00740430271, -0.0112301419, 2.42119718  , 3.82        , 3           , 12          , 0.060754925 , 0
-0.123188592, 0.05316875  , -9.781207   , 0.00210743165, -0.00143696752, 0.000549536257, -0.176823512, -0.162599429, 0.437508434 , -0.007383292, -0.0112444712, 2.421203    , 3.83        , 3           , 50          , 0           , 0
-0.114660993, 0.0770354941, -9.79641    , 0.000125282881, -0.0006056471, -0.00115360518, -0.176823512, -0.162329778, 0.43764326  , -0.007381909, -0.0112506133, 2.42119145  , 3.84        , 3           , 11          , 0.006508127 , 0.00650812266
-0.126167446, 0.09658227  , -9.799129   , 0.00266842963, -0.000588451163, 0.00111854682, -0.176486447, -0.162599429, 0.437710673 , -0.007355351, -0.0112564145, 2.421203    , 3.85        , 3           , 12          , 0.060754925 , 0
-0.12982665 , 0.0645318   , -9.782566   , -0.000164855359, 0.00108183664, -2.2168535E-05, -0.176688686, -0.162532017, 0.43764326  , -0.007356997, -0.011245599, 2.421203    , 3.86        , 3           , 50          , 0           , 0
-0.128715843, 0.04735397  , -9.777205   , 0.0035244   , -0.00227211 , 0.00168496917, -0.176688686, -0.162532017, 0.43764326  , -0.00732194446, -0.0112681948, 2.42121959  , 3.87        , 3           , 11          , 0.006508127 , 0.00650812266
-0.0988832  , 0.07590027  , -9.782283   , -0.0004286707, -0.00258041685, 0.0008184857, -0.176486447, -0.162397191, 0.437575847 , -0.007326327, -0.0112939384, 2.42122769  , 3.88        , 3           , 12          , 0.060754925 , 0
-0.09588822 , 0.0917161256, -9.79937    , 0.00380199216, -0.00142550759, 0.0005574379, -0.1767561  , -0.162599429, 0.43764326  , -0.00728837028, -0.0113081532, 2.42123342  , 3.89        , 3           , 50          , 0           , 0
-0.1301001  , 0.07003862  , -9.808761   , -0.000161931559, 0.000223375522, 0.00025899522, -0.176621273, -0.1624646  , 0.437575847 , -0.00729370862, -0.0113416519, 2.42123628  , 3.9         , 3           , 11          , 0.006430968 , 0.006430961
-0.128331229, 0.070875816 , -9.795635   , 0.00155247189, -0.00370707433, 0.0008258968, -0.176621273, -0.1624646  , 0.437575847 , -0.007278281, -0.0113786627, 2.42124486  , 3.91        , 3           , 12          , 0.061811924 , 0
-0.09734468 , 0.08763543  , -9.788549   , 0.00238327635, -0.0006041339, -0.0011431413, -0.176621273, -0.1624646  , 0.437441021 , -0.00725431973, -0.0113847852, 2.42123342  , 3.92        , 3           , 50          , 0           , 0
-0.122449838, 0.06678566  , -9.80736    , 0.00265380973, 0.001931865 , -7.769068E-06, -0.1767561  , -0.162262365, 0.43764326  , -0.00722778 , -0.0113654668, 2.42123342  , 3.93        , 3           , 11          , 0.006430968 , 0.006430961
-0.139762   , 0.0593135431, -9.806167   , 0.000114429815, 0.00135154335, -0.000585564354, -0.176688686, -0.162329778, 0.437575847 , -0.00722656865, -0.0113519942, 2.42122769  , 3.94        , 3           , 12          , 0.061811924 , 0
-0.129247442, 0.06909243  , -9.798814   , -0.000450335036, 0.00106615224, -0.00284893229, -0.176688686, -0.162329778, 0.437575847 , -0.007230747, -0.0113415392, 2.421199    , 3.95        , 3           , 50          , 0           , 0
-0.113209389, 0.08468307  , -9.794559   , 0.000127302119, -0.00118254079, -2.43947525E-05, -0.176688686, -0.162397191, 0.437441021 , -0.00722947344, -0.0113533661, 2.421199    , 3.96        , 3           , 11          , 0.006430968 , 0.006430961
-0.0981615856, 0.09664489  , -9.781286   , -0.00354957045, -0.000362680468, -0.00201797555, -0.176688686, -0.162532017, 0.43764326  , -0.007264739, -0.0113571379, 2.421179    , 3.97        , 3           , 12          , 0.061811924 , 0
-0.112425618, 0.07877119  , -9.78373    , 0.000383331731, 0.00388753437, -0.002275567, -0.176688686, -0.162532017, 0.437508434 , -0.007260644, -0.0113184294, 2.42115569  , 3.98        , 3           , 50          , 0           , 0
-0.129650638, 0.07315508  , -9.797896   , -0.000159633, -0.000339757, -0.0005894849, -0.176688686, -0.162532017, 0.437508434 , -0.00726217357, -0.0113218706, 2.42114949  , 3.99        , 3           , 11          , 0.006430968 , 0.006430961
-0.1327532  , 0.07547828  , -9.80695    , 0.0029092906, 0.00359663973, -3.84728946E-06, -0.176621273, -0.162666842, 0.437508434 , -0.007282628, -0.0113566509, 2.42114949  , 4           , 3           , 12          , 0.06287421  , 0
-0.127066821, 0.06989104  , -9.77574348 , 0.000396070478, -0.00233342033, -0.00115496235, -0.176823512, -0.162397191, 0.43764326  , -0.00727853738, -0.0113800708, 2.42113853  , 4.01        , 3           , 50          , 0           , 0
-0.116033293, 0.07837919  , -9.788731   , 0.00378198875, -0.00146580022, 0.000557367457, -0.1767561  , -0.162262365, 0.437508434 , -0.007240783, -0.011394687, 2.42114425  , 4.02        , 3           , 11          , 0.00635652151, 0.00635651
-0.13510929 , 0.07185937  , -9.796136   , 0.00123645517, -0.0006382929, 0.00139442924, -0.176688686, -0.162532017, 0.437575847 , -0.007228579, -0.0114009688, 2.421158    , 4.03        , 3           , 12          , 0.06287421  , 0
-0.123835847, 0.0672255456, -9.79923248 , 0.00180393353, -0.00119760376, 0.00111365772, -0.176688686, -0.162532017, 0.437575847 , -0.007210667, -0.0114128655, 2.42116952  , 4.04        , 3           , 50          , 0           , 0
-0.124789931, 0.0671968758, -9.787488   , 0.00294200517, -0.00287935417, 0.00111632189, -0.17655386 , -0.1624646  , 0.437508434 , -0.007181376, -0.0114415772, 2.421181    , 4.05        , 3           , 11          , 0.00635652151, 0.00635651
-0.1353786  , 0.080494    , -9.813277   , -0.00242336281, -0.003197212, -3.92834554E-05, -0.1767561  , -0.162397191, 0.437441021 , -0.00720560737, -0.0114735514, 2.421181    , 4.06        , 3           , 12          , 0.06287421  , 0
-0.1147956  , 0.0613041632, -9.814103   , 0.00208521867, -0.00119569944, -0.0008627874, -0.176621273, -0.162532017, 0.4373736   , -0.00718465727, -0.01148557 , 2.42117238  , 4.07        , 3           , 50          , 0           , 0
-0.1192682  , 0.0756853   , -9.781535   , 0.0006773036, -0.00190915819, 0.0004009615, -0.176621273, -0.162532017, 0.4373736   , -0.007177932, -0.01150463 , 2.4211762   , 4.08        , 3           , 11          , 0.00635652151, 0.00635651
-0.108899012, 0.07284857  , -9.779207   , 0.0009564529, -0.00134412036, -0.000444466074, -0.176890925, -0.162262365, 0.4373736   , -0.00716831675, -0.0115181031, 2.421172    , 4.09        , 3           , 12          , 0.06287421  , 0
-0.127454743, 0.06682448  , -9.801521   , -0.001732753, -0.00181185442, -0.0003163851, -0.176823512, -0.162397191, 0.437508434 , -0.00720838457, -0.0116108  , 2.42116952  , 4.1         , 3           , 50          , 0           , 0
-0.108427964, 0.06214565  , -9.818119   , -0.00286598969, -0.000974796, 0.000809798832, -0.1767561  , -0.162532017, 0.437508434 , -0.007237138, -0.0116204908, 2.421178    , 4.11        , 3           , 11          , 0.006283127 , 0.006283116
-0.1112639  , 0.0847706646, -9.827086   , 0.000936525059, 0.00102194177, -1.69973646E-05, -0.1767561  , -0.162532017, 0.437508434 , -0.007227771, -0.0116102714, 2.42117715  , 4.12        , 3           , 12          , 0.0639413   , 0
-0.106059782, 0.107210785 , -9.809326   , 0.002773204 , 0.000752789 , -0.000856483646, -0.1767561  , -0.162599429, 0.437508434 , -0.00719993934, -0.0116028087, 2.421169    , 4.13        , 3           , 50          , 0           , 0
-0.11430385 , 0.06356216  , -9.816349   , 0.00136562239, -0.0002422401, -0.001429662, -0.176688686, -0.162329778, 0.437508434 , -0.007186117, -0.0116053335, 2.42115474  , 4.14        , 3           , 11          , 0.006283127 , 0.006283116
-0.101063952, 0.0800114   , -9.789515   , 0.000512313738, 0.00101907388, -0.00100785389, -0.176823512, -0.1624646  , 0.43764326  , -0.00718087563, -0.0115952138, 2.42114472  , 4.15        , 3           , 12          , 0.0639413   , 0
-0.111745082, 0.05670706  , -9.799636   , 0.0002300057, 0.00115795038, 0.000403733517, -0.176823512, -0.1624646  , 0.43764326  , -0.00717862044, -0.0115836058, 2.42114854  , 4.16        , 3           , 50          , 0           , 0
-0.124829113, 0.06716512  , -9.777997   , 0.0002335723, 0.000454038236, 0.0005439173, -0.176823512, -0.162599429, 0.437238783 , -0.00717634754, -0.0115790283, 2.42115378  , 4.17        , 3           , 11          , 0.006283127 , 0.006283116
-0.0988775045, 0.0785829946, -9.77504    , -0.00188077323, -0.000404983264, -3.23363674E-05, -0.1767561  , -0.1624646  , 0.437575847 , -0.007195152, -0.0115830787, 2.42115331  , 4.18        , 3           , 12          , 0.0639413   , 0
-0.122595966, 0.09337413  , -9.796855   , -0.00230112858, -0.001252548, -0.00158956973, -0.176486447, -0.1624646  , 0.437575847 , -0.00721798 , -0.0115957176, 2.421138    , 4.19        , 3           , 50          , 0           , 0
-0.103219353, 0.08816022  , -9.789948   , 0.0006409294, -0.000248986878, -0.000867709052, -0.176486447, -0.1624646  , 0.437575847 , -0.0072646765, -0.0116038155, 2.42112947  , 4.2         , 3           , 11          , 0.00621191552, 0.00621189969
-0.110994689, 0.07345784  , -9.818543   , 0.00204969733, 0.0006052621, 0.000552864862, -0.176486447, -0.1624646  , 0.437238783 , -0.007244243, -0.0115977218, 2.42113519  , 4.21        , 3           , 12          , 0.06501272  , 0
-0.103092939, 0.0927261561, -9.8062     , 0.000642894534, -0.000530549267, 0.00012073823, -0.1767561  , -0.162397191, 0.437441021 , -0.007237828, -0.01160302 , 2.42113614  , 4.22        , 3           , 50          , 0           , 0
-0.1215336  , 0.1037566   , -9.801775   , 0.000365428219, -0.0015179367, 0.000259171153, -0.176621273, -0.162734255, 0.437441021 , -0.007234205, -0.0116181793, 2.421139    , 4.23        , 3           , 11          , 0.00621191552, 0.00621189969
-0.147571266, 0.0517252721, -9.803546   , 0.00148468046, 0.00060144125, 0.0002676934, -0.176621273, -0.162734255, 0.437441021 , -0.007219389, -0.0116121452, 2.42114139  , 4.24        , 3           , 12          , 0.06501272  , 0
-0.118973829, 0.0630537942, -9.783394   , -0.000502636365, 0.00255902461, -0.0007273688, -0.1767561  , -0.162599429, 0.4373062   , -0.00722432975, -0.0115866084, 2.42113423  , 4.25        , 3           , 50          , 0           , 0
-0.11801374 , 0.0662118047, -9.786537   , -0.00177208148, 0.002268865 , -0.0005924602, -0.176823512, -0.162397191, 0.4373736   , -0.00724198 , -0.0115639633, 2.421128    , 4.26        , 3           , 11          , 0.00621191552, 0.00621189969
-0.119153962, 0.07890233  , -9.799149   , -0.00105868094, 0.00100660208, 0.00124537316, -0.176890925, -0.162329778, 0.437508434 , -0.00725271041, -0.0115538072, 2.42114043  , 4.27        , 3           , 12          , 0.06501272  , 0
-0.110128663, 0.08055677  , -9.785965   , -0.0013360657, 1.92151E-05 , 0.001525075 , -0.176486447, -0.162666842, 0.437238783 , -0.00726624765, -0.0115535045, 2.42115569  , 4.28        , 3           , 50          , 0           , 0
-0.103944913, 0.06964414  , -9.782799   , -0.0009154137, 0.00044442332, -2.62548383E-05, -0.176486447, -0.162666842, 0.437238783 , -0.007275398, -0.0115490621, 2.42115521  , 4.29        , 3           , 11          , 0.00621191552, 0.00621189969
-0.132727057, 0.07549946  , -9.813277   , -0.002061969, 0.00127568655, -0.00101903733, -0.176823512, -0.162532017, 0.437575847 , -0.00733070169, -0.0115530407, 2.42114568  , 4.3         , 3           , 12          , 0.06608805  , 0
-0.13482213 , 0.08458987  , -9.82545948 , -0.00106769858, 0.000296898041, 0.0005380092, -0.1767561  , -0.162532017, 0.43764326  , -0.0073414403, -0.0115500335, 2.42115045  , 4.31        , 3           , 50          , 0           , 0
-0.120270744, 0.06802939  , -9.782479   , 0.002459478 , 0.001024687 , 0.00112063065, -0.176823512, -0.162532017, 0.4373062   , -0.007316974, -0.0115397023, 2.421162    , 4.32        , 3           , 11          , 0.006142986 , 0.006142972
-0.09586929 , 0.0645782351, -9.7804985  , 0.00287943333, 0.00159067765, -0.000430482323, -0.176823512, -0.162532017, 0.4373062   , -0.00728813 , -0.0115238279, 2.42115712  , 4.33        , 3           , 12          , 0.06608805  , 0
-0.108760409, 0.07876343  , -9.794097   , 0.00147107313, 0.000736430753, -0.00114471233, -0.176621273, -0.162397191, 0.437441021 , -0.007273286, -0.0115165468, 2.42114568  , 4.34        , 3           , 50          , 0           , 0
-0.122472353, 0.07167727  , -9.786097   , 0.0007721763, -0.0005353827, 0.000403998682, -0.17655386 , -0.162397191, 0.4373736   , -0.00726561 , -0.0115218721, 2.42115     , 4.35        , 3           , 11          , 0.006142986 , 0.006142972
-0.133999765, 0.08808263  , -9.793799   , 0.00247616158, -0.00221330835, 0.00224579033, -0.176688686, -0.1624646  , 0.43717137  , -0.00724111 , -0.01154384 , 2.42117238  , 4.36        , 3           , 12          , 0.06608805  , 0
-0.115901738, 0.0874128044, -9.791857   , 0.00275691249, -0.00207062042, 0.0005520992, -0.176688686, -0.1624646  , 0.43717137  , -0.0072136065, -0.0115645062, 2.421178    , 4.37        , 3           , 50          , 0           , 0
-0.100436822, 0.09398422  , -9.787191   , 0.000205891512, -0.000398423639, -0.000869836833, -0.1767561  , -0.162532017, 0.4373062   , -0.00721144676, -0.0115685528, 2.42116952  , 4.38        , 3           , 11          , 0.006142986 , 0.006142972
-0.09993405 , 0.06597349  , -9.778716   , 0.0006198926, 0.00171618327, 0.0005480804, -0.176486447, -0.162397191, 0.4373736   , -0.00720530841, -0.0115513522, 2.42117524  , 4.39        , 3           , 12          , 0.06608805  , 0
-0.09599091 , 0.08136686  , -9.807549   , 0.002290441 , 0.00186781434, -8.64793E-06, -0.176890925, -0.1624646  , 0.4373062   , -0.00725018373, -0.0115344776, 2.42117524  , 4.4         , 3           , 50          , 0           , 0
-0.106899165, 0.045827    , -9.801452   , 0.001591796 , 0.000314430246, -0.000438133167, -0.176890925, -0.1624646  , 0.4373062   , -0.00723421434, -0.011531366, 2.421171    , 4.41        , 3           , 11          , 0.00607554475, 0.00607553357
-0.105958819, 0.09531528  , -9.761464   , 0.0004628672, 0.000166008234, -0.000302349072, -0.176958337, -0.162532017, 0.437103957 , -0.00722955074, -0.0115297278, 2.42116761  , 4.42        , 3           , 12          , 0.06716689  , 0
-0.127829745, 0.0762661844, -9.790185   , 0.00173111842, 0.0008785198, 0.00111734937, -0.17702575 , -0.1624646  , 0.437441021 , -0.00721236644, -0.0115208626, 2.421179    , 4.43        , 3           , 50          , 0           , 0
-0.127717763, 0.051435452 , -9.786672   , 0.002719894 , 0.00102599186, 0.00281740027, -0.1767561  , -0.1624646  , 0.437238783 , -0.00718549173, -0.0115104  , 2.42120671  , 4.44        , 3           , 11          , 0.00607554475, 0.00607553357
-0.112104781, 0.0590195358, -9.814996   , 0.000885929 , 0.000450442167, 0.00111274759, -0.1767561  , -0.1624646  , 0.437238783 , -0.00717676 , -0.0115058189, 2.42121816  , 4.45        , 3           , 12          , 0.06716689  , 0
-0.09714709 , 0.06510581  , -9.798585   , 0.000468606246, -0.0009602511, -2.15472537E-05, -0.176621273, -0.162329778, 0.4373736   , -0.007172072, -0.0115154209, 2.42121816  , 4.46        , 3           , 50          , 0           , 0
-0.111025006, 0.0778967738, -9.796831   , 5.193606E-05, -0.00237094145, -2.56923213E-05, -0.176890925, -0.162262365, 0.4373062   , -0.007171551, -0.0115391314, 2.42121816  , 4.47        , 3           , 11          , 0.00607554475, 0.00607553357
-0.125130892, 0.07220265  , -9.79877    , 0.00061551464, -0.00194477022, 0.00139027962, -0.176890925, -0.1624646  , 0.437238783 , -0.00716555864, -0.0115584787, 2.421232    , 4.48        , 3           , 12          , 0.06716689  , 0
-0.130163327, 0.0677556545, -9.800634   , -0.000801335264, -0.0009688414, 0.001667751 , -0.176890925, -0.1624646  , 0.437238783 , -0.00717376545, -0.0115680452, 2.42124867  , 4.49        , 3           , 50          , 0           , 0
-0.123719551, 0.07580044  , -9.8001     , -0.00362699 , -0.00113713858, 0.0001004265, -0.176823512, -0.162329778, 0.4373062   , -0.00721363025, -0.011604798, 2.42125058  , 4.5         , 3           , 11          , 0.00601013657, 0.0060101226
-0.115202874, 0.0725051   , -9.789202   , -0.00150821765, -0.00112281111, 0.00109918474, -0.1767561  , -0.162194952, 0.4373062   , -0.007228842, -0.011615945, 2.421261    , 4.51        , 3           , 12          , 0.06824884  , 0
-0.122435041, 0.0717075   , -9.7951355  , -0.000379741425, -0.0008336053, 0.00138742372, -0.176958337, -0.162532017, 0.4373062   , -0.00723280152, -0.0116241807, 2.42127538  , 4.52        , 3           , 50          , 0           , 0
-0.139986008, 0.07378745  , -9.8156     , -0.0005242323, -0.0002714324, 0.0005400207, -0.176958337, -0.162532017, 0.4373062   , -0.007238108, -0.0116268545, 2.421281    , 4.53        , 3           , 11          , 0.00601013657, 0.0060101226
-0.104046404, 0.058403153 , -9.794147   , 0.0004662266, -0.00054631 , 0.00153307721, -0.176823512, -0.162666842, 0.43717137  , -0.00723362342, -0.0116322068, 2.42129636  , 4.54        , 3           , 12          , 0.06824884  , 0
-0.08306983 , 0.06988403  , -9.79258251 , 0.0006071137, -0.0005453565, 0.0009686608, -0.1767561  , -0.162599429, 0.437441021 , -0.00722766668, -0.01163759 , 2.421306    , 4.55        , 3           , 50          , 0           , 0
-0.110322155, 0.05317262  , -9.826758   , 0.00130802009, 0.000304109 , -0.0007219698, -0.176419035, -0.162397191, 0.437508434 , -0.007214503, -0.0116346013, 2.42129827  , 4.56        , 3           , 11          , 0.00601013657, 0.0060101226
-0.120170578, 0.07748391  , -9.776563   , 0.00172940618, 0.0007293208, -0.001001881, -0.176890925, -0.162397191, 0.4373062   , -0.007197091, -0.0116273789, 2.42128873  , 4.57        , 3           , 12          , 0.06824884  , 0
-0.12061546 , 0.07303213  , -9.792855   , 0.00257918518, 0.000312705059, -0.000292237528, -0.176890925, -0.162397191, 0.4373062   , -0.007171266, -0.0116242738, 2.42128587  , 4.58        , 3           , 50          , 0           , 0
-0.119403563, 0.05638256  , -9.810543   , 0.00314194779, 0.0007388726, -0.000288952753, -0.176823512, -0.162532017, 0.4373062   , -0.00713981176, -0.011616908, 2.42128253  , 4.59        , 3           , 11          , 0.00601013657, 0.0060101226
-0.154637247, 0.0715944543, -9.783631   , 0.0018748109, 0.0014293826, 0.000271221244, -0.1767561  , -0.162329778, 0.437441021 , -0.00709964242, -0.0116174547, 2.42128539  , 4.6         , 3           , 12          , 0.0693335459, 0
-0.141223311, 0.05879973  , -9.782678   , 0.00131081732, 0.0012847808, 0.0005509079, -0.1767561  , -0.162397191, 0.4373062   , -0.00708659738, -0.0116045643, 2.42129064  , 4.61        , 3           , 50          , 0           , 0
-0.108191222, 0.0472357124, -9.813207   , 0.00131721632, -0.000123047139, -0.000440142845, -0.1767561  , -0.162397191, 0.4373062   , -0.0070733754, -0.0116058262, 2.42128634  , 4.62        , 3           , 11          , 0.0059464993, 0.00594648346
-0.10069342 , 0.06699526  , -9.81126    , -0.00122130336, -0.000844150258, -0.0007356176, -0.176823512, -0.1624646  , 0.4373062   , -0.007085503, -0.011614318, 2.42127919  , 4.63        , 3           , 12          , 0.0693335459, 0
-0.127044171, 0.0600897036, -9.812847   , -0.00123487285, 0.0018307165, -0.00129657018, -0.176621273, -0.162262365, 0.4373062   , -0.007097699, -0.0115961051, 2.42126584  , 4.64        , 3           , 50          , 0           , 0
-0.096262306, 0.09223154  , -9.816996   , 0.00242839358, 0.00354493712, -0.00113557768, -0.176688686, -0.1624646  , 0.4373736   , -0.00707328133, -0.0115607372, 2.4212544   , 4.65        , 3           , 11          , 0.0059464993, 0.00594648346
-0.105315655, 0.0629548   , -9.801369   , 0.00300816656, 0.000733110937, 0.0005579416, -0.176688686, -0.1624646  , 0.4373736   , -0.00704326341, -0.0115533667, 2.42126     , 4.66        , 3           , 12          , 0.0693335459, 0
-0.105501749, 0.0507525541, -9.795093   , 0.0006153685, -0.0008317313, 0.0008268985, -0.176823512, -0.162262365, 0.437238783 , -0.007037207, -0.0115616266, 2.42126822  , 4.67        , 3           , 50          , 0           , 0
-0.1272486  , 0.04831894  , -9.80069351 , -0.00051683787, -0.0004170256, 0.000115938 , -0.176688686, -0.162397191, 0.437441021 , -0.00704238843, -0.0115657868, 2.42126966  , 4.68        , 3           , 11          , 0.0059464993, 0.00594648346
-0.114725612, 0.07028787  , -9.802314   , 0.000338191254, -0.001959903, 0.000258770771, -0.176486447, -0.1624646  , 0.437508434 , -0.007039038, -0.0115853669, 2.421272    , 4.69        , 3           , 12          , 0.0693335459, 0
-0.0722562447, 0.0932957157, -9.81454849 , 0.00204412267, -0.001249035, 0.000267584226, -0.176486447, -0.1624646  , 0.437508434 , -0.006971667, -0.0116120782, 2.42127442  , 4.7         , 3           , 50          , 0           , 0
-0.08221002 , 0.06849727  , -9.785801   , 0.000489344 , -0.00111876091, -0.00101086043, -0.176688686, -0.1624646  , 0.4373062   , -0.006966658, -0.0116233351, 2.421264    , 4.71        , 3           , 11          , 0.00588485459, 0.005884838
-0.120130874, 0.0757307038, -9.791938   , -0.000489473343, -0.00309640169, -0.00115977589, -0.17655386 , -0.162397191, 0.4373736   , -0.00697141932, -0.0116543816, 2.421253    , 4.72        , 3           , 12          , 0.070420675 , 0
-0.103872165, 0.0697031   , -9.800425   , -0.00119529583, -0.00310117519, -0.0007392621, -0.176621273, -0.162329778, 0.437508434 , -0.006983288, -0.0116854431, 2.42124581  , 4.73        , 3           , 50          , 0           , 0
-0.102102488, 0.06652378  , -9.800425   , -0.002192443, -0.00127768517, -3.470716E-05, -0.176621273, -0.162329778, 0.437508434 , -0.00700520957, -0.01169822 , 2.42124581  , 4.74        , 3           , 11          , 0.00588485459, 0.005884838
-0.101326376, 0.09043704  , -9.80258    , 0.000345009263, -0.00027501554, 0.0008262763, -0.176688686, -0.162329778, 0.4373736   , -0.007001856, -0.0117009124, 2.421254    , 4.75        , 3           , 12          , 0.070420675 , 0
-0.114797175, 0.0693372041, -9.787856   , 0.0020450647, -0.0013898164, 0.00069117354, -0.176688686, -0.162262365, 0.437508434 , -0.006981488, -0.0117147611, 2.421261    , 4.76        , 3           , 50          , 0           , 0
-0.121891059, 0.07400784  , -9.810037   , 0.00218172534, -0.0004033821, 0.00125842576, -0.17702575 , -0.162194952, 0.437575847 , -0.0069598183, -0.0117187053, 2.42127347  , 4.77        , 3           , 11          , 0.00588485459, 0.005884838
-0.11180117 , 0.078904964 , -9.825308   , 0.00133567571, -0.000690677844, 0.0009715035, -0.17702575 , -0.162194952, 0.437575847 , -0.006946577, -0.0117255449, 2.421283    , 4.78        , 3           , 12          , 0.070420675 , 0
-0.0939810947, 0.06283401  , -9.804898   , 0.000632849 , -0.00139936653, 0.00054332  , -0.17702575 , -0.162262365, 0.43717137  , -0.006940312, -0.0117395008, 2.42128873  , 4.79        , 3           , 50          , 0           , 0
-0.114623591, 0.07974391  , -9.796851   , -0.00050948956, -0.0006826416, 0.000256849569, -0.177160576, -0.16212754 , 0.437441021 , -0.0069744736, -0.0116802072, 2.42129159  , 4.8         , 3           , 11          , 0.005824592 , 0.005824574
-0.114382796, 0.06528361  , -9.791485   , -0.00135746691, -0.000547589, 0.000253115752, -0.177362815, -0.162329778, 0.437710673 , -0.006988078, -0.0116856657, 2.42129445  , 4.81        , 3           , 12          , 0.07150993  , 0
-0.1175749  , 0.0675342456, -9.778844   , -0.00220597838, -0.00027175303, 0.000532136241, -0.177362815, -0.162329778, 0.437238783 , -0.0070101996, -0.0116883479, 2.42130017  , 4.82        , 3           , 50          , 0           , 0
-0.102507547, 0.0705849156, -9.799055   , -0.00276340963, -0.00182418188, 0.0001033096, -0.177362815, -0.162329778, 0.437238783 , -0.007037848, -0.0117065813, 2.42130113  , 4.83        , 3           , 11          , 0.005824592 , 0.005824574
-0.121398829, 0.0468812659, -9.796134   , -0.00177971309, -0.000832019, 0.0002507064, -0.178036943, -0.162262365, 0.437710673 , -0.007055676, -0.0117148831, 2.42130351  , 4.84        , 3           , 12          , 0.07150993  , 0
-0.11240951 , 0.0427040122, -9.792919   , 0.00018866577, 0.000870740041, -0.000161277654, -0.1778347  , -0.162262365, 0.437710673 , -0.00705376966, -0.0117061874, 2.421302    , 4.85        , 3           , 50          , 0           , 0
-0.117542759, 0.0706847459, -9.776571   , 0.00132440135, -0.000388664019, -0.000581768749, -0.178036943, -0.162262365, 0.4373736   , -0.0070404564, -0.0117101157, 2.42129636  , 4.86        , 3           , 11          , 0.005824592 , 0.005824574
-0.118414149, 0.104125194 , -9.788191   , 0.00245074229, 0.000463674951, 0.0008374882, -0.178036943, -0.162262365, 0.4373736   , -0.00701604737, -0.01170542 , 2.42130446  , 4.87        , 3           , 12          , 0.07150993  , 0
-0.12576291 , 0.08671816  , -9.819055   , 0.00315193064, 0.0014539276, 0.000842299138, -0.178508833, -0.162666842, 0.437508434 , -0.00698462548, -0.0116908234, 2.42131257  , 4.88        , 3           , 50          , 0           , 0
-0.120314822, 0.0537104756, -9.817792   , 0.0013195225, 0.0005968137, -0.000580249936, -0.178239182, -0.162060127, 0.4377781   , -0.006971361, -0.0116848946, 2.42130685  , 4.89        , 3           , 11          , 0.005824592 , 0.005824574
-0.114761822, 0.06668773  , -9.80504    , 0.000757591857, -0.000818545348, 0.000121588484, -0.17796953 , -0.162532017, 0.437508434 , -0.006978528, -0.0117053352, 2.42131019  , 4.9         , 3           , 12          , 0.0726009756, 0
-0.130109891, 0.0744942   , -9.792019   , 0.000337065983, -0.00138453883, 0.0006838202, -0.17796953 , -0.162532017, 0.437508434 , -0.006975238, -0.0117191328, 2.42131734  , 4.91        , 3           , 50          , 0           , 0
-0.1111366  , 0.07066475  , -9.792793   , -0.00390757434, 0.0001354166, -0.000322428241, -0.17796953 , -0.162194952, 0.437508434 , -0.00701427553, -0.011717801, 2.42131352  , 4.92        , 3           , 11          , 0.005765885 , 0.005765863
-0.116110839, 0.06671125  , -9.807312   , -0.004751533, -0.000574226666, -0.0006100014, -0.1778347  , -0.162329778, 0.437710673 , -0.007061721, -0.0117235836, 2.4213078   , 4.93        , 3           , 12          , 0.0726009756, 0
-0.107882932, 0.07605194  , -9.795911   , -9.325495E-05, -0.000120362987, -2.25462154E-05, -0.177902117, -0.16212754 , 0.43764326  , -0.00706265029, -0.0117247887, 2.4213078   , 4.94        , 3           , 50          , 0           , 0
-0.118900381, 0.09919354  , -9.795898   , 0.00272826268, 0.000602652843, 0.0012631265, -0.177902117, -0.16212754 , 0.43764326  , -0.00703551574, -0.0117186718, 2.4213202   , 4.95        , 3           , 11          , 0.005765885 , 0.005765863
-0.10678786 , 0.0877999738, -9.8044405  , 0.00188942766, -0.00109246711, 0.0013978408, -0.177632466, -0.162599429, 0.437441021 , -0.00701678544, -0.0117295  , 2.42133451  , 4.96        , 3           , 12          , 0.0726009756, 0
-0.09747502 , 0.07771009  , -9.788592   , 0.000478486938, -0.00152436877, -0.000163350749, -0.177632466, -0.162397191, 0.437575847 , -0.007011982, -0.0117447553, 2.4213326   , 4.97        , 3           , 50          , 0           , 0
-0.134214818, 0.0745178461, -9.784819   , 0.0007536175, -0.000114635011, -0.000724939, -0.1778347  , -0.1624646  , 0.43764326  , -0.00700436067, -0.0117459521, 2.42132545  , 4.98        , 3           , 11          , 0.005765885 , 0.005765863
-0.104097269, 0.0877469   , -9.798092   , 0.000185605109, 0.0005854593, -0.000161413031, -0.1778347  , -0.1624646  , 0.43764326  , -0.00700248452, -0.0117401071, 2.421324    , 4.99        , 3           , 12          , 0.0726009756, 0
-0.08986238 , 0.109167844 , -9.777103   , -0.0005369225, -0.000683060847, 0.0006813858, -0.17749764 , -0.162262365, 0.4373736   , -0.00708631426, -0.0117357569, 2.4213326   , 5           , 3           , 50          , 0           , 0
-0.102466524, 0.0782061145, -9.784561   , -0.000534423569, -0.00110540667, 0.00138707855, -0.177699879, -0.162194952, 0.4373062   , -0.0070918235, -0.011746712, 2.42134643  , 5.01        , 3           , 11          , 0.005708714 , 0.005708694
-0.129648209, 0.0713716447, -9.804232   , -0.000259990018, 0.000445109676, 0.000825707044, -0.177699879, -0.162666842, 0.4373736   , -0.00709452 , -0.0117422044, 2.42135453  , 5.02        , 3           , 12          , 0.07369355  , 0
-0.1287297  , 0.07628135  , -9.791549   , -0.000120252254, 0.0007276294, 0.0006855307, -0.177699879, -0.162666842, 0.4373736   , -0.007095803, -0.01173488 , 2.42136168  , 5.03        , 3           , 50          , 0           , 0
-0.125570655, 0.07980648  , -9.777499   , -0.0006830149, 0.000301462 , 0.00068224594, -0.177565053, -0.162599429, 0.437441021 , -0.00710271252, -0.0117318165, 2.42136836  , 5.04        , 3           , 11          , 0.005708714 , 0.005708694
-0.118563585, 0.0910599455, -9.79367    , -0.000117708943, 0.000164498168, 0.000260856585, -0.177430227, -0.162397191, 0.437441021 , -0.00710391952, -0.0117301531, 2.42137074  , 5.05        , 3           , 12          , 0.07369355  , 0
-0.122794665, 0.07669816  , -9.801897   , 0.000165496444, 2.56259227E-05, 0.0004032253, -0.177699879, -0.1624646  , 0.4373736   , -0.007102311, -0.0117298691, 2.421375    , 5.06        , 3           , 50          , 0           , 0
-0.128570646, 0.05461321  , -9.789378   , 0.00185874454, 0.000318651262, 0.0005528296, -0.177632466, -0.162532017, 0.437508434 , -0.00708378851, -0.011726643, 2.42138028  , 5.07        , 3           , 11          , 0.005708714 , 0.005708694
