Acc X       , Acc Y       , Acc Z       , Gyro X      , Gyro Y      , Gyro Z      , Magn X      , Magn Y      , Magn Z      , Euler X     , Euler Y     , Euler Z     , Time        , Status      , LowRate X   , LowRate Y   , LowRate Z    
-0.118763864, 0.08241701  , -9.772464   , -0.00185258349, 0.00140167866, 0.0001270722, -0.180059329, -0.164352164, 0.450788736 , -0.009453896, -0.0124400407, 2.43006063  , 0           , 3           , 11          , 0.0346410163, 0.0346410163
-0.107861787, 0.08454974  , -9.773727   , -0.00129183021, 0.00225019455, 0.0002722767, -0.180059329, -0.164284751, 0.450721323 , -0.009466846, -0.0124175148, 2.43006349  , 0.01        , 3           , 12          , 0.0346410163, 0
-0.122011945, 0.059180323 , -9.828178   , -0.0005811288, 0.00126949046, -0.000149755986, -0.179722264, -0.164419577, 0.450923562 , -0.009472637, -0.0124048339, 2.43006158  , 0.02        , 3           , 50          , 0           , 0
-0.14105919 , 0.0914421454, -9.828642   , -0.000713118061, -0.000561636931, 0.000129302323, -0.1799245  , -0.164419577, 0.450856149 , -0.00947978348, -0.0124104377, 2.43006253  , 0.03        , 3           , 11          , 0.0346410163, 0.0346410163
-0.13495554 , 0.118330225 , -9.795038   , -0.000150607375, 0.000146101142, 0.00211078348, -0.1799245  , -0.164419577, 0.450856149 , -0.009481552, -0.0124087771, 2.430084    , 0.04        , 3           , 12          , 0.0346410163, 0
-0.127717987, 0.113776006 , -9.807657   , -0.0001546634, 0.0008500111, 0.00112298725, -0.180059329, -0.164352164, 0.450451672 , -0.009483238, -0.0124001708, 2.430095    , 0.05        , 3           , 50          , 0           , 0
-0.09044284 , 0.0952328146, -9.790726   , -0.000295053847, 0.0005674884, 0.0001330136, -0.179991916, -0.164352164, 0.450788736 , -0.009486205, -0.0123944851, 2.43009639  , 0.06        , 3           , 11          , 0.0346410163, 0.0346410163
-0.11524342 , 0.09560833  , -9.815772   , -0.000289396266, -0.0005587715, 0.000272546516, -0.1799245  , -0.164419577, 0.450923562 , -0.009489132, -0.0124000469, 2.43009925  , 0.07        , 3           , 12          , 0.0346410163, 0
-0.119087256, 0.08341989  , -9.800937   , 0.00140381511, -0.000406532228, -0.0008494848, -0.180126742, -0.164756641, 0.4506539   , -0.00947499 , -0.0124041932, 2.43009067  , 0.08        , 3           , 50          , 0           , 0
-0.109939381, 0.094547    , -9.787262   , 0.00125911669, 0.0002964254, -0.000849058444, -0.180126742, -0.164756641, 0.4506539   , -0.009462292, -0.0124013089, 2.43008256  , 0.09        , 3           , 11          , 0.0346410163, 0.0346410163
-0.122748844, 0.08834042  , -9.775634   , -0.0002863635, -0.00112190051, 0.0006954836, -0.180126742, -0.164756641, 0.450856149 , -0.009465242, -0.0124124587, 2.43008924  , 0.1         , 3           , 12          , 0.0346410163, 0
-0.107879989, 0.080071494 , -9.7836895  , 0.00028865604, -0.00308903446, 0.00140142371, -0.17985709 , -0.164756641, 0.450923562 , -0.00946253352, -0.0124432174, 2.43010354  , 0.11        , 3           , 50          , 0           , 0
-0.12389496 , 0.100579768 , -9.788247   , 0.00183540431, -0.00181148853, 0.0008455448, -0.17985709 , -0.164352164, 0.4506539   , -0.009444286, -0.0124612506, 2.43011212  , 0.12        , 3           , 11          , 0.0346410163, 0.0346410163
-0.138850689, 0.0971732   , -9.796512   , 0.00139803172, 0.0008605129, 7.930989E-08, -0.17985709 , -0.164352164, 0.4506539   , -0.009430305, -0.0124526462, 2.43011212  , 0.13        , 3           , 12          , 0.0346410163, 0
-0.13837643 , 0.106112286 , -9.772967   , -0.000444260571, 0.00211514  , -0.00043033433, -0.179789677, -0.164352164, 0.450923562 , -0.009434692, -0.0124315359, 2.43010736  , 0.14        , 3           , 50          , 0           , 0
-0.132404536, 0.11102248  , -9.777874   , -0.0001673726, 0.00338409632, 0.000844353868, -0.180126742, -0.164082512, 0.450923562 , -0.009436467, -0.0123976162, 2.430116    , 0.15        , 3           , 11          , 0.0346410163, 0.0346410163
-0.130066723, 0.107484952 , -9.807249   , -0.00128904206, 0.0016870643, 0.0002714075, -0.180194154, -0.164689228, 0.4506539   , -0.009449388, -0.012380721, 2.43011832  , 0.16        , 3           , 12          , 0.0346410163, 0
-0.113594964, 0.119930372 , -9.808428   , -0.00198243721, -0.0009925816, -0.000724888465, -0.180194154, -0.164689228, 0.4506539   , -0.00946912449, -0.0123907141, 2.43011117  , 0.17        , 3           , 50          , 0           , 0
-0.101457506, 0.08452823  , -9.789498   , -0.0009973912, -0.000141197961, 0.000552441343, -0.17985709 , -0.1645544  , 0.450788736 , -0.009479167, -0.0123920729, 2.430117    , 0.18        , 3           , 11          , 0.0346410163, 0.0346410163
-0.102488138, 0.07417145  , -9.792261   , -0.00128448941, 0.000701584853, -0.0002951861, -0.1799245  , -0.164352164, 0.450788736 , -0.009491975, -0.0123850852, 2.43011355  , 0.19        , 3           , 12          , 0.0346410163, 0
-0.127626881, 0.09606996  , -9.77609    , -0.00184806914, 0.000275415252, -0.001711159, -0.180059329, -0.1645544  , 0.4506539   , -0.009510284, -0.0123824347, 2.43009686  , 0.2         , 3           , 50          , 0           , 0
-0.124375969, 0.102793977 , -9.774231   , -0.00156183087, -0.000426585757, -0.0011458518, -0.180059329, -0.1645544  , 0.4506539   , -0.009525761, -0.01238681 , 2.43008542  , 0.21        , 3           , 11          , 0.0346699134, 0.0346699134
-0.140357971, 0.0899268761, -9.783445   , 0.000135473543, -0.000837470463, -8.451357E-06, -0.17985709 , -0.164419577, 0.450721323 , -0.009524407, -0.0123951854, 2.43008542  , 0.22        , 3           , 12          , 0.0346688144, 0
-0.119526766, 0.0887921453, -9.786907   , 0.0009854605, -0.00139487116, -0.000146637161, -0.1799245  , -0.164486989, 0.450788736 , -0.009514536, -0.0124091469, 2.43008351  , 0.23        , 3           , 50          , 0           , 0
-0.122263446, 0.08702246  , -9.78784    , 0.000981234 , -0.00040939037, 0.0009850315, -0.180126742, -0.164284751, 0.4506539   , -0.009504845, -0.0124131469, 2.430094    , 0.24        , 3           , 11          , 0.0346699134, 0.0346699134
-0.137489274, 0.09626703  , -9.80012    , -0.00029333483, 0.000285926653, 0.0006976526, -0.180126742, -0.164284751, 0.4506539   , -0.00950786751, -0.01241022 , 2.43010068  , 0.25        , 3           , 12          , 0.0346688144, 0
-0.113495931, 0.0977672338, -9.793151   , -0.0011350764, -0.0009868497, -0.000579669548, -0.179789677, -0.164621815, 0.450788736 , -0.009519146, -0.012420143, 2.430095    , 0.26        , 3           , 50          , 0           , 0
-0.142514318, 0.08914791  , -9.812391   , 0.000281032117, -0.00168121012, 0.0002734427, -0.180059329, -0.164217338, 0.450788736 , -0.009516372, -0.01243693 , 2.43009782  , 0.27        , 3           , 11          , 0.0346699134, 0.0346699134
-0.117095344, 0.06844333  , -9.782453   , 0.002816927 , -0.000396975927, 0.0008523226, -0.1799245  , -0.164419577, 0.4506539   , -0.00948831 , -0.0124408184, 2.4301064   , 0.28        , 3           , 12          , 0.0346688144, 0
-0.131660342, 0.09436611  , -9.791948   , 0.00239123986, -0.000118278876, -0.0002793687, -0.1799245  , -0.164419577, 0.4506539   , -0.009464364, -0.0124420272, 2.43010354  , 0.29        , 3           , 50          , 0           , 0
-0.144052818, 0.112600327 , -9.80371952 , 0.000146969571, -0.00155620056, -0.00071612664, -0.180126742, -0.1645544  , 0.450721323 , -0.009289374, -0.0127628427, 2.43009448  , 0.3         , 3           , 11          , 0.0347534455, 0.0347534455
-0.137342975, 0.09995637  , -9.82405949 , 0.00211551157, 0.000146559076, -0.00084557326, -0.180194154, -0.164284751, 0.450721323 , -0.00926811 , -0.012761456, 2.430086    , 0.31        , 3           , 12          , 0.03475388  , 0
-0.13478978 , 0.09309673  , -9.805988   , 0.003097651 , 0.00142028637, -0.0009802801, -0.18032898 , -0.164352164, 0.4505865   , -0.009237007, -0.0127473446, 2.430076    , 0.32        , 3           , 50          , 0           , 0
-0.11992909 , 0.09151646  , -9.790515   , 0.00196896726, 0.00127186556, -0.000420689728, -0.18032898 , -0.164352164, 0.4505865   , -0.009217261, -0.0127346646, 2.43007159  , 0.33        , 3           , 11          , 0.0347534455, 0.0347534455
-0.109264039, 0.100524575 , -9.822487   , 0.002820511 , 0.000432900648, -0.000276771985, -0.17985709 , -0.164352164, 0.4505865   , -0.009189021, -0.012730361, 2.43006921  , 0.34        , 3           , 12          , 0.03475388  , 0
-0.115626179, 0.0970094353, -9.828424   , 0.00240125344, -0.000273872662, 0.0012741239, -0.179991916, -0.164284751, 0.450856149 , -0.00916517 , -0.0127329836, 2.43008161  , 0.35        , 3           , 50          , 0           , 0
-0.13000983 , 0.08127054  , -9.794702   , 0.0007065292, -0.000285333255, 0.0009836848, -0.179991916, -0.164419577, 0.450788736 , -0.00915823 , -0.0127357468, 2.43009162  , 0.36        , 3           , 11          , 0.0347534455, 0.0347534455
-0.09549567 , 0.08585945  , -9.803459   , -0.0009998363, 0.00195572432, -0.000150895357, -0.179789677, -0.164756641, 0.450923562 , -0.009168207, -0.0127162039, 2.43008971  , 0.37        , 3           , 12          , 0.03475388  , 0
-0.118778825, 0.107326359 , -9.79947948 , -0.00142462575, 0.00223442563, 0.0002713693, -0.179789677, -0.164756641, 0.450923562 , -0.009182486, -0.0126938354, 2.430092    , 0.38        , 3           , 50          , 0           , 0
-0.115483254, 0.118996412 , -9.792626   , 0.000352390838, -0.000146940089, 0.000275911676, -0.180194154, -0.164419577, 0.4505865   , -0.009178995, -0.01269528 , 2.430095    , 0.39        , 3           , 11          , 0.0347534455, 0.0347534455
-0.142063648, 0.09137264  , -9.804696   , -0.000813477556, -0.000905127265, 0.0004820793, -0.180126742, -0.164352164, 0.450788736 , -0.009556364, -0.012485655, 2.43010449  , 0.4         , 3           , 12          , 0.0348953642, 0
-0.11706306 , 0.06668407  , -9.79602    , -0.00173550588, -6.66392443E-05, 0.0005497355, -0.179991916, -0.164621815, 0.450519085 , -0.009573786, -0.0124862688, 2.43011022  , 0.41        , 3           , 50          , 0           , 0
-0.114521839, 0.0811653957, -9.817183   , 3.09333918E-05, -0.000336267665, 0.000345629262, -0.179991916, -0.164621815, 0.450519085 , -0.00957352 , -0.0124895992, 2.43011355  , 0.42        , 3           , 11          , 0.0177094843, 0.0177094378
-0.146549582, 0.0977086648, -9.79476    , -0.000184864854, 0.0005069961, 0.0006991153, -0.179991916, -0.164621815, 0.4506539   , -0.009575456, -0.0124844592, 2.43012071  , 0.43        , 3           , 12          , 0.0348953642, 0
-0.138844579, 0.1029807   , -9.779312   , -0.00110711588, 0.00127509015, -0.000222218121, -0.179991916, -0.164419577, 0.4506539   , -0.009586497, -0.0124717318, 2.43011785  , 0.44        , 3           , 50          , 0           , 0
-0.09585863 , 0.10155981  , -9.77492    , 0.000366360036, 0.00311528961, -0.000565655529, -0.180059329, -0.164352164, 0.4505865   , -0.009582761, -0.012440634, 2.43011212  , 0.45        , 3           , 11          , 0.0177094843, 0.0177094378
-0.110772088, 0.09729478  , -9.796296   , 9.959721E-05, -0.000124620463, -0.00120767206, -0.180059329, -0.164352164, 0.4505865   , -0.009581614, -0.0124419956, 2.4301002   , 0.46        , 3           , 12          , 0.0348953642, 0
-0.130377144, 0.08848671  , -9.792415   , 0.00320192124, 0.000952262257, 0.000291763223, -0.179991916, -0.164486989, 0.450721323 , -0.009549631, -0.0124324458, 2.430103    , 0.47        , 3           , 50          , 0           , 0
-0.12339247 , 0.09972204  , -9.803163   , 0.002425989 , 0.000665441563, -0.000842442154, -0.180059329, -0.164284751, 0.450788736 , -0.009525266, -0.0124258706, 2.43009448  , 0.48        , 3           , 11          , 0.0177094843, 0.0177094378
-0.133554012, 0.09119606  , -9.782033   , 0.000932051742, 0.00304872054, 0.00028448223, -0.179991916, -0.164284751, 0.4505865   , -0.009515978, -0.0123953586, 2.43009686  , 0.49        , 3           , 12          , 0.0348953642, 0
-0.13293384 , 0.09311177  , -9.816822   , -0.00105102 , 0.00266643753, 0.000415929215, -0.179991916, -0.164284751, 0.4505865   , -0.009564583, -0.0124502247, 2.43010163  , 0.5         , 3           , 50          , 0           , 0
-0.128357947, 0.09756105  , -9.814056   , -0.000754404755, -0.00028808802, -0.000364288077, -0.180194154, -0.164486989, 0.4506539   , -0.009572082, -0.0124531426, 2.43009782  , 0.51        , 3           , 11          , 0.01343845  , 0.01343846
-0.130185783, 0.100246876 , -9.801404   , -0.00259042415, -0.0003005038, -0.0007966543, -0.180059329, -0.164217338, 0.450721323 , -0.009597887, -0.0124562234, 2.43009019  , 0.52        , 3           , 12          , 0.03509214  , 0
-0.1376946  , 0.0858346149, -9.783442   , -0.00160066213, -0.000434598769, 0.000196618974, -0.1799245  , -0.164352164, 0.450788736 , -0.009613919, -0.01246055 , 2.430092    , 0.53        , 3           , 50          , 0           , 0
-0.123010442, 0.0947495252, -9.801824   , 0.0002310971, 0.000281726185, -0.000711982837, -0.1799245  , -0.164352164, 0.450788736 , -0.009611519, -0.0124578029, 2.43008447  , 0.54        , 3           , 11          , 0.01343845  , 0.01343846
-0.108183436, 0.09046386  , -9.786813   , 0.000856243365, 0.00246815546, 0.0001419556, -0.1799245  , -0.164419577, 0.450451672 , -0.009602971, -0.0124331079, 2.430086    , 0.55        , 3           , 12          , 0.03509214  , 0
-0.135370851, 0.0885346   , -9.78928852 , -0.000331891642, -7.40494652E-05, -0.000503256, -0.180059329, -0.164419577, 0.450721323 , -0.009606227, -0.0124338958, 2.43008065  , 0.56        , 3           , 50          , 0           , 0
-0.142588824, 0.08417768  , -9.810154   , -0.000755246438, -7.69131E-05, -1.07908818E-05, -0.179991916, -0.164352164, 0.450788736 , -0.00961377751, -0.0124346651, 2.43008065  , 0.57        , 3           , 11          , 0.01343845  , 0.01343846
-0.117248006, 0.08609948  , -9.799105   , -0.00117776322, -0.000150165564, 0.00132917834, -0.179991916, -0.164352164, 0.450788736 , -0.009625721, -0.01243604 , 2.430094    , 0.58        , 3           , 12          , 0.03509214  , 0
-0.109827168, 0.06748471  , -9.790989   , -0.0006807691, -0.00070995366, 0.00125998061, -0.180126742, -0.164352164, 0.450384259 , -0.009632686, -0.0124430181, 2.4301064   , 0.59        , 3           , 50          , 0           , 0
-0.100177892, 0.0737360641, -9.8049     , 0.00191409525, 0.00104750949, -0.000139104974, -0.180059329, -0.164284751, 0.450451672 , -0.009426575, -0.0124908667, 2.43010259  , 0.6         , 3           , 11          , 0.0113545712, 0.0113545768
-0.102623172, 0.0980908051, -9.793066   , 0.00120858429, 0.0008315586, -0.0009903351, -0.179991916, -0.164284751, 0.450788736 , -0.009414365, -0.012482645, 2.430093    , 0.61        , 3           , 12          , 0.0353428721, 0
-0.120076656, 0.0784527361, -9.796446   , -0.00119085365, 0.000533757731, -0.001355135, -0.179991916, -0.164284751, 0.450788736 , -0.009426104, -0.0124774361, 2.43007922  , 0.62        , 3           , 50          , 0           , 0
-0.114705324, 0.07253607  , -9.800044   , -0.00224120822, -0.0009516145, 0.00110985129, -0.179991916, -0.164621815, 0.450249434 , -0.009448655, -0.0124868471, 2.43009019  , 0.63        , 3           , 11          , 0.0113545712, 0.0113545768
-0.147444159, 0.092372    , -9.814676   , -0.003456912, 0.00192630512, -0.000798425754, -0.180126742, -0.164284751, 0.4505865   , -0.009483123, -0.0124676628, 2.43008256  , 0.64        , 3           , 12          , 0.0353428721, 0
-0.127803922, 0.111028276 , -9.795465   , -0.0021198336, 0.002850464 , -0.0006494913, -0.179991916, -0.164082512, 0.4506539   , -0.009504237, -0.0124392174, 2.430076    , 0.65        , 3           , 50          , 0           , 0
-0.105739035, 0.110222928 , -9.767277   , -0.00154895533, 0.001728026 , 0.000128384781, -0.1799245  , -0.164352164, 0.450249434 , -0.009519742, -0.0124219274, 2.43007684  , 0.66        , 3           , 11          , 0.0113545712, 0.0113545768
-0.104153812, 0.0894865   , -9.77865    , -0.00281097787, -0.000110742738, -0.000162899363, -0.1799245  , -0.164352164, 0.450249434 , -0.009547831, -0.0124230506, 2.430075    , 0.67        , 3           , 12          , 0.0353428721, 0
-0.0917345956, 0.09708815  , -9.801124   , -0.002808498, -0.0006034814, -9.302431E-05, -0.179991916, -0.1645544  , 0.4506539   , -0.009575905, -0.0124290958, 2.430074    , 0.68        , 3           , 50          , 0           , 0
-0.131609991, 0.10199485  , -9.779713   , -0.004566184, -0.00209363457, 0.000179004026, -0.180126742, -0.164149925, 0.4506539   , -0.009621591, -0.0124500133, 2.430076    , 0.69        , 3           , 11          , 0.0113545712, 0.0113545768
-0.115818135, 0.09462215  , -9.789115   , -0.00414310675, -0.001895242, 0.000464264536, -0.179991916, -0.164419577, 0.450519085 , -0.009663149, -0.0123530636, 2.43008113  , 0.7         , 3           , 12          , 0.03564599  , 0
-0.138465017, 0.08193758  , -9.829114   , -0.00316189067, -0.0004103404, 0.0005417863, -0.179991916, -0.164419577, 0.450519085 , -0.009694834, -0.0123571148, 2.43008637  , 0.71        , 3           , 50          , 0           , 0
-0.118151158, 0.08432667  , -9.805446   , -0.00104578072, 2.63319671E-05, 0.000552314159, -0.180126742, -0.164217338, 0.450519085 , -0.00970536 , -0.0123567963, 2.430092    , 0.72        , 3           , 11          , 0.0101338541, 0.0101338513
-0.09508644 , 0.0849261358, -9.795775   , -0.000207965451, 0.00172144722, -0.00134825916, -0.180261567, -0.164284751, 0.450519085 , -0.009707272, -0.0123397121, 2.43007827  , 0.73        , 3           , 12          , 0.03564599  , 0
-0.146985829, 0.09995914  , -9.79159    , 7.18514348E-05, 0.002497667 , 0.000773282256, -0.17985709 , -0.164621815, 0.450316846 , -0.009706645, -0.0123146614, 2.430086    , 0.74        , 3           , 50          , 0           , 0
-0.126330137, 0.120925553 , -9.791798   , -0.00237773545, -0.00188330386, 0.00082566723, -0.17985709 , -0.164621815, 0.450316846 , -0.009730527, -0.0123334136, 2.430094    , 0.75        , 3           , 11          , 0.0101338541, 0.0101338513
-0.09600338 , 0.114758871 , -9.807862   , 0.000162218887, -0.00144376559, 0.00119134237, -0.179789677, -0.164217338, 0.450384259 , -0.009729054, -0.0123477383, 2.4301064   , 0.76        , 3           , 12          , 0.03564599  , 0
-0.08726697 , 0.0911836252, -9.805181   , 0.002762187 , 0.00089680875, -0.000488120771, -0.180126742, -0.164149925, 0.4505865   , -0.00970137 , -0.0123388143, 2.43010163  , 0.77        , 3           , 50          , 0           , 0
-0.121789746, 0.115080014 , -9.813481   , -0.000138055882, 0.00186270708, -0.001347713, -0.180059329, -0.164149925, 0.450384259 , -0.009702581, -0.0123203183, 2.43008733  , 0.78        , 3           , 11          , 0.0101338541, 0.0101338513
-0.124080248, 0.07677308  , -9.819533   , 0.00233631185, 0.00138668367, -0.000136165079, -0.180059329, -0.164149925, 0.450384259 , -0.0096792  , -0.0123064667, 2.43008637  , 0.79        , 3           , 12          , 0.03564599  , 0
-0.121851347, 0.07984257  , -9.800973   , -8.50840952E-05, 0.00100587716, 0.000276643434, -0.179789677, -0.164217338, 0.4505865   , -0.00971836 , -0.0122006722, 2.43008924  , 0.8         , 3           , 50          , 0           , 0
-0.113800928, 0.108604714 , -9.794465   , -0.00086491293, 0.00156375323, -0.000361819431, -0.180126742, -0.164149925, 0.450451672 , -0.009726964, -0.0121850707, 2.43008542  , 0.81        , 3           , 11          , 0.009383333 , 0.009383333
-0.1199716  , 0.119527921 , -9.800794   , -0.0015501366, -0.002453319, 0.00132392929, -0.1799245  , -0.164217338, 0.450384259 , -0.009742629, -0.0122094769, 2.43009877  , 0.82        , 3           , 12          , 0.03599976  , 0
-0.125986621, 0.1092266   , -9.80269051 , -0.0001517536, 0.0001607033, -0.000148793741, -0.1799245  , -0.164217338, 0.450384259 , -0.00974413 , -0.0122078825, 2.43009782  , 0.83        , 3           , 50          , 0           , 0
-0.1279382  , 0.09574357  , -9.811802   , -0.00234008324, -0.000206061508, -0.00234920788, -0.17985709 , -0.164486989, 0.450451672 , -0.009767243, -0.0122101726, 2.430074    , 0.84        , 3           , 11          , 0.009383333 , 0.009383333
-0.131811216, 0.08442415  , -9.787019   , -0.00219225232, -0.00140175456, -0.00114960922, -0.180059329, -0.164082512, 0.4506539   , -0.009789026, -0.0122243017, 2.430063    , 0.85        , 3           , 12          , 0.03599976  , 0
-0.1121206  , 0.103121251 , -9.78001    , -0.00246734545, -0.00267070252, 0.0006836147, -0.180059329, -0.164149925, 0.4505865   , -0.009813787, -0.01225094 , 2.43007016  , 0.86        , 3           , 50          , 0           , 0
-0.109064974, 0.09272571  , -9.785454   , -0.00269125937, -0.0002788329, 0.000262509246, -0.180059329, -0.164149925, 0.4505865   , -0.009840733, -0.0122537026, 2.430073    , 0.87        , 3           , 11          , 0.009383333 , 0.009383333
-0.1238126  , 0.0734932944, -9.784742   , -0.003533023, -0.00148121617, -0.0004496294, -0.1799245  , -0.164352164, 0.450316846 , -0.009876009, -0.0122685581, 2.43006825  , 0.88        , 3           , 12          , 0.03599976  , 0
-0.12493021 , 0.0839703754, -9.810019   , -0.00234584487, 0.0009905911, -0.0020648262, -0.180126742, -0.164217338, 0.450384259 , -0.009899214, -0.0122588556, 2.43004727  , 0.89        , 3           , 50          , 0           , 0
-0.136445791, 0.06609048  , -9.820125   , -0.0021955492, -0.00302212 , -0.000658722245, -0.180126742, -0.164217338, 0.4505865   , -0.009838465, -0.0122903939, 2.4300406   , 0.9         , 3           , 11          , 0.008917023 , 0.008917023
-0.109733261, 0.07604145  , -9.786433   , 0.0002063025, -0.0030058797, 0.00147150271, -0.179991916, -0.164419577, 0.450316846 , -0.009836587, -0.012320308, 2.43005538  , 0.91        , 3           , 12          , 0.03640229  , 0
-0.125552267, 0.106974587 , -9.80540848 , -0.00107892172, -0.000339611463, -0.000366794644, -0.179991916, -0.164419577, 0.450316846 , -0.00984733 , -0.0123237409, 2.43005157  , 0.92        , 3           , 50          , 0           , 0
-0.150144771, 0.0991122   , -9.797042   , -0.00115604245, 0.0007861669, -0.00198997837, -0.180126742, -0.164352164, 0.450721323 , -0.009858645, -0.0123160752, 2.43003154  , 0.93        , 3           , 11          , 0.008917023 , 0.008917023
-0.147610515, 0.0842029   , -9.800248   , -0.00136251631, -0.0001303482, -0.0005796891, -0.1799245  , -0.164284751, 0.450519085 , -0.009872198, -0.0123174358, 2.43002582  , 0.94        , 3           , 12          , 0.03640229  , 0
-0.118616484, 0.0901244   , -9.783731   , -0.000447354163, 0.000368596753, -0.00106909045, -0.180059329, -0.164419577, 0.450451672 , -0.00987654 , -0.0123138558, 2.43001485  , 0.95        , 3           , 50          , 0           , 0
-0.109736323, 0.112119213 , -9.780407   , 0.0005421223, 0.0002345005, -0.0005702575, -0.180059329, -0.164419577, 0.450451672 , -0.009871048, -0.0123115676, 2.43000913  , 0.96        , 3           , 11          , 0.008917023 , 0.008917023
-0.1255342  , 0.08117505  , -9.782013   , 0.0009711717, -0.0007481099, 0.000348445843, -0.180126742, -0.164284751, 0.450519085 , -0.00986138 , -0.0123190144, 2.430013    , 0.97        , 3           , 12          , 0.03640229  , 0
-0.124061584, 0.0767882   , -9.824053   , -0.0027565544, -0.00358906528, 0.00117426959, -0.180059329, -0.164149925, 0.4505865   , -0.009889095, -0.0123547865, 2.43002534  , 0.98        , 3           , 50          , 0           , 0
-0.1297952  , 0.0917105153, -9.813641   , -0.000645426859, -0.0020965226, 0.00161023112, -0.17985709 , -0.164419577, 0.4505865   , -0.00989575 , -0.0123755913, 2.43004155  , 0.99        , 3           , 11          , 0.008917023 , 0.008917023
-0.104898609, 0.0976617038, -9.79173    , -0.000266784482, -0.000747332349, 0.001894389 , -0.17985709 , -0.164419577, 0.4505865   , -0.009769338, -0.01245888 , 2.43005872  , 1           , 3           , 12          , 0.0368515775, 0
-0.109880686, 0.100843459 , -9.781358   , -0.00161158573, -0.0003340628, -0.000159612144, -0.1799245  , -0.164352164, 0.450451672 , -0.009785435, -0.012462236, 2.43005729  , 1.01        , 3           , 50          , 0           , 0
-0.125445113, 0.08571076  , -9.789225   , -0.00175238773, -0.00047580176, -0.0006549281, -0.180126742, -0.164149925, 0.4505865   , -0.009802877, -0.0124670593, 2.430051    , 1.02        , 3           , 11          , 0.008639715 , 0.008639713
-0.114365853, 0.103162944 , -9.784548   , -0.00104660983, -0.00033024227, 5.492476E-05, -0.1799245  , -0.164352164, 0.450519085 , -0.00981335 , -0.0124703562, 2.430051    , 1.03        , 3           , 12          , 0.0368515775, 0
-0.119726747, 0.105517268 , -9.794975   , 0.00170842721, -0.0006635783, -0.000568486867, -0.1799245  , -0.164352164, 0.450519085 , -0.009796197, -0.0124770477, 2.43004584  , 1.04        , 3           , 50          , 0           , 0
-0.118881084, 0.1001019   , -9.797703   , 0.001286055 , -0.000807223143, 0.000418201962, -0.180194154, -0.164284751, 0.450451672 , -0.009783389, -0.0124850776, 2.43005013  , 1.05        , 3           , 11          , 0.008639715 , 0.008639713
-0.130650178, 0.0971183255, -9.808653   , -0.000197486544, -0.000606075337, 0.000835419749, -0.180059329, -0.164149925, 0.450519085 , -0.00978547 , -0.0124910558, 2.43005872  , 1.06        , 3           , 12          , 0.0368515775, 0
-0.131069288, 0.09982905  , -9.808192   , 0.0005010359, 0.000947308 , 0.00105300185, -0.179991916, -0.164284751, 0.450519085 , -0.00978058949, -0.0124814808, 2.43006921  , 1.07        , 3           , 50          , 0           , 0
-0.107194588, 0.0972159654, -9.78542    , 0.00170313311, 0.0006034694, 0.00112869078, -0.179991916, -0.164284751, 0.450519085 , -0.009763697, -0.012475336, 2.4300797   , 1.08        , 3           , 11          , 0.008639715 , 0.008639713
-0.108985119, 0.0999320447, -9.781809   , 0.00177999435, -0.0007334891, 0.0004912494, -0.180261567, -0.164284751, 0.4506539   , -0.009745959, -0.0124826217, 2.430085    , 1.09        , 3           , 12          , 0.0368515775, 0
-0.09683834 , 0.0894589052, -9.79577    , 0.00168177  , -0.000611605064, 0.0002799825, -0.179991916, -0.164217338, 0.450384259 , -0.009761103, -0.0124275964, 2.43008828  , 1.1         , 3           , 50          , 0           , 0
-0.1271855  , 0.09069921  , -9.790573   , 0.0004058478, 0.0003652773, 6.36721161E-05, -0.179991916, -0.164284751, 0.450519085 , -0.009757053, -0.0124239372, 2.43008924  , 1.11        , 3           , 11          , 0.00848447  , 0.008484462
-0.129964963, 0.0839850157, -9.79695    , 0.00103778241, 0.00107348722, -2.91426363E-06, -0.179991916, -0.164284751, 0.450519085 , -0.00974667352, -0.0124132028, 2.43008924  , 1.12        , 3           , 12          , 0.03734555  , 0
-0.126257643, 0.0880285352, -9.804588   , 0.00180724135, 0.002486564 , -0.000420929253, -0.1799245  , -0.164284751, 0.450519085 , -0.009728545, -0.01238838 , 2.43008447  , 1.13        , 3           , 50          , 0           , 0
-0.111421727, 0.08062564  , -9.801794   , 0.0011179432, -0.000896991871, -0.0003587944, -0.180126742, -0.164352164, 0.450856149 , -0.009717323, -0.0123973843, 2.43008113  , 1.14        , 3           , 11          , 0.00848447  , 0.008484462
-0.122217223, 0.0839354545, -9.809094   , -0.00191761483, -0.0009175215, 0.0005452953, -0.180059329, -0.164284751, 0.450451672 , -0.009736569, -0.0124065047, 2.43008637  , 1.15        , 3           , 12          , 0.03734555  , 0
-0.117809772, 0.0997792   , -9.839277   , -0.00178570359, 0.000772819563, -0.00107603322, -0.180059329, -0.164284751, 0.450451672 , -0.009754292, -0.0123988809, 2.430076    , 1.16        , 3           , 50          , 0           , 0
-0.13043803 , 0.08174212  , -9.799223   , 0.00217386638, -0.0002563082, -0.000423513935, -0.180126742, -0.164486989, 0.450384259 , -0.0097325  , -0.0124014867, 2.43007159  , 1.17        , 3           , 11          , 0.00848447  , 0.008484462
-0.135444283, 0.08758242  , -9.774377   , 0.00316159637, 0.000102337748, 0.00127686257, -0.180059329, -0.164419577, 0.4505865   , -0.009701043, -0.01240034 , 2.43008447  , 1.18        , 3           , 12          , 0.03734555  , 0
-0.110030547, 0.08465342  , -9.796795   , 0.00244737347, 0.00164616853, 0.0004283445, -0.180059329, -0.164756641, 0.4506539   , -0.009676619, -0.0123838373, 2.43008828  , 1.19        , 3           , 50          , 0           , 0
-0.100456893, 0.0895044655, -9.796701   , -0.000210899292, 0.000997209 , -0.000646119763, -0.180059329, -0.164486989, 0.450519085 , -0.009572957, -0.0123703135, 2.43008065  , 1.2         , 3           , 11          , 0.008404395 , 0.008404386
-0.138985664, 0.08858318  , -9.791123   , 1.74005663E-06, 0.0008578593, -0.000433446, -0.180059329, -0.164486989, 0.450519085 , -0.009572884, -0.0123617779, 2.430076    , 1.21        , 3           , 12          , 0.0378820673, 0
-0.118409112, 0.10591466  , -9.783664   , -0.0007059507, 0.00134582713, 0.0009767084, -0.180059329, -0.164082512, 0.450721323 , -0.009580063, -0.0123482263, 2.430086    , 1.22        , 3           , 50          , 0           , 0
-0.103087187, 0.06289951  , -9.792764   , -0.0008447246, 0.0008521333, 0.0009752905, -0.180194154, -0.1645544  , 0.4505865   , -0.009588629, -0.0123396125, 2.43009543  , 1.23        , 3           , 11          , 0.008404395 , 0.008404386
-0.105127558, 0.07024882  , -9.823936   , 0.000280229637, 0.00170446571, -7.02103762E-06, -0.179991916, -0.164486989, 0.450451672 , -0.009585824, -0.01232257 , 2.430095    , 1.24        , 3           , 12          , 0.0378820673, 0
-0.134662926, 0.100787476 , -9.81228352 , -0.001679044, -0.00196925178, -0.0007282244, -0.179991916, -0.164486989, 0.450451672 , -0.009602526, -0.01234233 , 2.43008828  , 1.25        , 3           , 50          , 0           , 0
-0.140618369, 0.09544428  , -9.812803   , -0.00118465244, -0.00203630165, -0.00107920018, -0.180261567, -0.164352164, 0.450451672 , -0.009614242, -0.0123627968, 2.43007779  , 1.26        , 3           , 11          , 0.008404395 , 0.008404386
-0.130671263, 0.0988866538, -9.797797   , -0.0009769327, -0.00119017367, -0.0009356419, -0.180126742, -0.1645544  , 0.4505865   , -0.009623896, -0.0123747876, 2.43006825  , 1.27        , 3           , 12          , 0.0378820673, 0
-0.1136127  , 0.09365547  , -9.77780151 , -0.00275659258, 0.00168393017, -0.0012925968, -0.179991916, -0.164486989, 0.4505865   , -0.0096513005, -0.012358075, 2.430055    , 1.28        , 3           , 50          , 0           , 0
-0.1175024  , 0.09474622  , -9.81986    , -0.0009825124, 7.687237E-05, 0.000267095078, -0.179991916, -0.164486989, 0.4505865   , -0.009661159, -0.0123572806, 2.43005776  , 1.29        , 3           , 11          , 0.008404395 , 0.008404386
-0.129541755, 0.116911486 , -9.79455    , -0.00162921974, -0.00119809236, 0.0004024264, -0.180126742, -0.164352164, 0.450519085 , -0.009617738, -0.0123727759, 2.430061    , 1.3         , 3           , 12          , 0.03845896  , 0
-0.117504857, 0.10411758  , -9.789087   , -0.000438556483, 0.0005698022, -0.00121385511, -0.1799245  , -0.164284751, 0.450721323 , -0.009621972, -0.0123671954, 2.43004918  , 1.31        , 3           , 50          , 0           , 0
-0.126940235, 0.104734808 , -9.8054285  , -0.00241103559, -0.0002882613, -0.000659300247, -0.180059329, -0.1645544  , 0.450451672 , -0.009646003, -0.012370144, 2.43004251  , 1.32        , 3           , 11          , 0.008366875 , 0.008366866
-0.105880462, 0.09537879  , -9.780447   , -0.0028197316, -0.00331795146, -0.0007365749, -0.180059329, -0.1645544  , 0.450451672 , -0.00967411 , -0.01240339 , 2.43003488  , 1.33        , 3           , 12          , 0.03845896  , 0
-0.10961584 , 0.08104645  , -9.799067   , -0.00268413848, -0.00204995 , 0.000396186166, -0.180059329, -0.164486989, 0.450384259 , -0.009701003, -0.0124238525, 2.43003964  , 1.34        , 3           , 50          , 0           , 0
-0.131293669, 0.07866878  , -9.821389   , 0.000906367 , 0.000156533235, 0.00105204934, -0.17985709 , -0.164352164, 0.4505865   , -0.009692071, -0.0124221854, 2.43005013  , 1.35        , 3           , 11          , 0.008366875 , 0.008366866
-0.107636936, 0.09365894  , -9.799452   , -0.00170103891, -0.0008466108, 0.00132088643, -0.1799245  , -0.164284751, 0.4505865   , -0.009709246, -0.0124305226, 2.43006349  , 1.36        , 3           , 12          , 0.03845896  , 0
-0.116741151, 0.0937259346, -9.787769   , -0.000642038358, -0.000909842143, 0.000548738346, -0.1799245  , -0.164284751, 0.4505865   , -0.009715737, -0.0124395695, 2.43006873  , 1.37        , 3           , 50          , 0           , 0
-0.123516552, 0.09069449  , -9.801844   , 0.00373090222, 0.000105241183, 0.0009238414, -0.1799245  , -0.164419577, 0.4505865   , -0.009678542, -0.0124384258, 2.43007779  , 1.38        , 3           , 11          , 0.008366875 , 0.008366866
-0.123064004, 0.0929207355, -9.7946     , 0.0006883814, 0.00121096522, -0.000571901561, -0.180059329, -0.164217338, 0.450451672 , -0.009671585, -0.0124263717, 2.430072    , 1.39        , 3           , 12          , 0.03845896  , 0
-0.121556669, 0.110433161 , -9.774629   , 0.000167273189, -0.000590858632, 0.0007645991, -0.180126742, -0.164621815, 0.450721323 , -0.0096315  , -0.0123956874, 2.4300797   , 1.4         , 3           , 50          , 0           , 0
-0.114111118, 0.08737491  , -9.786871   , 0.00129800744, -0.0008647857, 0.000133723719, -0.180126742, -0.164621815, 0.450721323 , -0.009618538, -0.0124043254, 2.43008065  , 1.41        , 3           , 11          , 0.008346831 , 0.008346823
-0.119033366, 0.0856953   , -9.806803   , -0.00076098385, 0.00137388636, -0.000296158774, -0.180194154, -0.164689228, 0.4505865   , -0.009626109, -0.0123906145, 2.43007779  , 1.42        , 3           , 12          , 0.0390740633, 0
-0.132032037, 0.100686044 , -9.791473   , -5.02824842E-05, 0.0003931823, -0.0007181915, -0.180126742, -0.164486989, 0.450519085 , -0.009626523, -0.0123867523, 2.43007016  , 1.43        , 3           , 50          , 0           , 0
-0.116458073, 0.113594718 , -9.793107   , 0.002332387 , 0.004069764 , -0.000418818876, -0.180059329, -0.164419577, 0.4506539   , -0.009603142, -0.0123460954, 2.43006587  , 1.44        , 3           , 11          , 0.008346831 , 0.008346823
-0.122397684, 0.106925309 , -9.801769   , 0.00275854813, 0.00357989012, -0.00027633406, -0.180059329, -0.164419577, 0.4506539   , -0.009575518, -0.0123103261, 2.43006253  , 1.45        , 3           , 12          , 0.0390740633, 0
-0.113545269, 0.08389041  , -9.825752   , -0.00153197767, 0.000171981126, -0.000725430844, -0.179991916, -0.1645544  , 0.450519085 , -0.009590748, -0.0123086758, 2.43005586  , 1.46        , 3           , 50          , 0           , 0
-0.1252791  , 0.09343323  , -9.805011   , -0.00103500579, -0.000317413942, -0.000229444937, -0.180126742, -0.164352164, 0.4505865   , -0.009601071, -0.0123118721, 2.430053    , 1.47        , 3           , 11          , 0.008346831 , 0.008346823
-0.116857119, 0.08559766  , -9.785543   , 0.000228144068, 0.00131018122, 0.000202782438, -0.180059329, -0.164352164, 0.4505865   , -0.009598813, -0.0122987488, 2.430055    , 1.48        , 3           , 12          , 0.0390740633, 0
-0.105169624, 0.07646364  , -9.793627   , 0.0006573824, 0.000116393087, -0.000362161256, -0.1799245  , -0.164284751, 0.450451672 , -0.009592194, -0.0122976219, 2.43005157  , 1.49        , 3           , 50          , 0           , 0
-0.115099505, 0.11893516  , -9.7759     , 0.0005553014, -0.000193499189, -0.000151504864, -0.1799245  , -0.164284751, 0.450451672 , -0.009543505, -0.0122498088, 2.43004918  , 1.5         , 3           , 11          , 0.008330341 , 0.008330333
-0.120559387, 0.118531175 , -9.77097    , -0.000566308736, -0.00182013772, -1.79989765E-05, -0.1799245  , -0.164486989, 0.450519085 , -0.009549168, -0.0122680087, 2.43004918  , 1.51        , 3           , 12          , 0.0397252478, 0
-0.140854031, 0.114372246 , -9.805042   , -0.00282349135, -0.00218737172, 0.000818535336, -0.180059329, -0.164284751, 0.4505865   , -0.009577506, -0.0122898035, 2.43005776  , 1.52        , 3           , 50          , 0           , 0
-0.137406975, 0.101689927 , -9.802809   , 0.0024611936, -0.0001806092, -0.0009902283, -0.180194154, -0.164486989, 0.4505865   , -0.009552774, -0.0122917034, 2.43004823  , 1.53        , 3           , 11          , 0.008330341 , 0.008330333
-0.09540407 , 0.0988778248, -9.783968   , 0.000201860108, -0.000195888657, -0.0008594948, -0.180194154, -0.164486989, 0.4505865   , -0.009550649, -0.0122937458, 2.43003964  , 1.54        , 3           , 12          , 0.0397252478, 0
-0.09128848 , 0.09306026  , -9.812436   , -0.000352686766, -0.00210026861, 0.000688898261, -0.180059329, -0.164419577, 0.4505865   , -0.009554263, -0.01231468 , 2.43004632  , 1.55        , 3           , 50          , 0           , 0
-0.12859717 , 0.08665479  , -9.790601   , -0.00177494588, -0.000138864518, 4.964195E-05, -0.179991916, -0.164486989, 0.450519085 , -0.00957202 , -0.012316063, 2.43004727  , 1.56        , 3           , 11          , 0.008330341 , 0.008330333
-0.1430264  , 0.09222964  , -9.787977   , -0.000234715582, 0.00240572332, -0.0009280906, -0.1799245  , -0.164352164, 0.450856149 , -0.009574249, -0.0122920955, 2.43003774  , 1.57        , 3           , 12          , 0.0397252478, 0
-0.116924331, 0.110464677 , -9.799905   , -0.0003696745, 0.00106733234, -0.00156651984, -0.1799245  , -0.164352164, 0.450856149 , -0.009577754, -0.0122815724, 2.43002152  , 1.58        , 3           , 50          , 0           , 0
-0.1081605  , 0.08869705  , -9.79812    , -0.00233985879, -0.000213077772, -0.0006594441, -0.180126742, -0.1645544  , 0.4505865   , -0.00960107148, -0.0122837685, 2.43001485  , 1.59        , 3           , 11          , 0.008330341 , 0.008330333
-0.1042354  , 0.07736892  , -9.797685   , -0.00126280845, 0.000664093066, -0.00114648673, -0.180194154, -0.164352164, 0.4506539   , -0.009670813, -0.0122477291, 2.43000436  , 1.6         , 3           , 12          , 0.0404104   , 0
-0.122381158, 0.0739829242, -9.801001   , 0.0007823908, 0.00102989352, -0.00226654648, -0.180126742, -0.164756641, 0.4505865   , -0.009662711, -0.0122376494, 2.42998147  , 1.61        , 3           , 50          , 0           , 0
-0.1387142  , 0.105318107 , -9.803707   , -0.001894498, -4.41157681E-05, -0.000656093936, -0.180126742, -0.164756641, 0.4505865   , -0.009681576, -0.0122381523, 2.42997479  , 1.62        , 3           , 11          , 0.00830804  , 0.00830803253
-0.134944379, 0.08315176  , -9.800156   , -0.00293845381, -0.00293731573, 0.0008178413, -0.180059329, -0.164486989, 0.4506539   , -0.009711064, -0.0122674443, 2.42998338  , 1.63        , 3           , 12          , 0.0404104   , 0
-0.134004891, 0.08361496  , -9.806926   , -0.00238942355, 0.000163717428, -2.23637435E-05, -0.179991916, -0.1645544  , 0.4505865   , -0.009734957, -0.0122658089, 2.42998338  , 1.64        , 3           , 50          , 0           , 0
-0.112439714, 0.109930143 , -9.790833   , -0.000124922517, -0.000947265653, -0.0008611765, -0.179991916, -0.164284751, 0.450721323 , -0.0097361  , -0.0122753652, 2.42997479  , 1.65        , 3           , 11          , 0.00830804  , 0.00830803253
-0.103982717, 0.09899847  , -9.789909   , 0.00155667739, 0.0018798497, 0.0008462892, -0.179991916, -0.164284751, 0.450721323 , -0.009720636, -0.0122564873, 2.429983    , 1.66        , 3           , 12          , 0.0404104   , 0
-0.145713016, 0.09005416  , -9.802468   , 0.0009978148, 0.000468199753, -0.000853739155, -0.180126742, -0.164486989, 0.450519085 , -0.009710553, -0.0122518865, 2.42997479  , 1.67        , 3           , 50          , 0           , 0
-0.12359184 , 0.08974078  , -9.786483   , 0.004106719 , 0.000207648263, 0.000573000463, -0.180059329, -0.1645544  , 0.450788736 , -0.009669555, -0.0122497547, 2.42998052  , 1.68        , 3           , 11          , 0.00830804  , 0.00830803253
-0.119738504, 0.107293151 , -9.786379   , -0.0004143193, 0.0004586499, -0.0008603238, -0.180059329, -0.1645544  , 0.4506539   , -0.0096735945, -0.0122452518, 2.429972    , 1.69        , 3           , 12          , 0.0404104   , 0
-0.122163177, 0.09915517  , -9.773324   , -0.00183051906, 0.0001238372, 0.00308784656, -0.180059329, -0.1645544  , 0.4506539   , -0.009701772, -0.0122973146, 2.43000245  , 1.7         , 3           , 50          , 0           , 0
-0.115987927, 0.1118181   , -9.803056   , 0.0004269374, 0.000139107578, -0.0002920673, -0.180261567, -0.164419577, 0.450249434 , -0.009697466, -0.012295953, 2.42999959  , 1.71        , 3           , 11          , 0.008276217 , 0.00827621
-0.116729714, 0.09150345  , -9.797722   , -0.000404608378, -0.00268226443, 0.00280755432, -0.180126742, -0.164419577, 0.450721323 , -0.009701861, -0.0123225022, 2.4300282   , 1.72        , 3           , 12          , 0.0411274657, 0
-0.138014168, 0.09710662  , -9.779782   , 0.000722814759, -0.0026746355, -0.00114270218, -0.180059329, -0.164419577, 0.4506539   , -0.009694495, -0.0123493588, 2.43001676  , 1.73        , 3           , 50          , 0           , 0
-0.123018041, 0.09965323  , -9.784177   , -0.000683995255, -0.003528875, 0.000827173644, -0.180059329, -0.164621815, 0.4506539   , -0.009701441, -0.0123845655, 2.43002534  , 1.74        , 3           , 11          , 0.008276217 , 0.00827621
-0.102441356, 0.112074986 , -9.792555   , -0.00578989368, 0.0006602152, -0.001450322, -0.180059329, -0.164621815, 0.4506539   , -0.009759161, -0.012378105, 2.430011    , 1.75        , 3           , 12          , 0.0411274657, 0
-0.09774326 , 0.09036277  , -9.793061   , -0.0032378044, -0.00129354815, -0.0005938946, -0.180059329, -0.164419577, 0.450923562 , -0.009791467, -0.0123910969, 2.43000531  , 1.76        , 3           , 50          , 0           , 0
-0.116754644, 0.09059057  , -9.794561   , -0.000142424542, 0.0009799813, -0.0008584744, -0.179991916, -0.164486989, 0.450788736 , -0.009792784, -0.0123813823, 2.42999673  , 1.77        , 3           , 11          , 0.008276217 , 0.00827621
-0.123616278, 0.119552307 , -9.795398   , 0.00212977384, -0.00125725172, 0.00197396427, -0.180059329, -0.164756641, 0.450519085 , -0.009771733, -0.0123937605, 2.43001628  , 1.78        , 3           , 12          , 0.0411274657, 0
-0.137585551, 0.09975983  , -9.765305   , -0.00182845816, -0.0007208684, -0.000586442067, -0.180059329, -0.164756641, 0.450519085 , -0.009789946, -0.0124010257, 2.43001056  , 1.79        , 3           , 50          , 0           , 0
-0.140569985, 0.100393325 , -9.808715   , -0.00302804541, 0.00124820939, 0.00110734685, -0.180126742, -0.164352164, 0.4505865   , -0.009897985, -0.012381115, 2.43002248  , 1.8         , 3           , 11          , 0.008231857 , 0.008231851
-0.117587104, 0.09110677  , -9.810837   , 0.00233889464, 0.0007213593, -0.002258949, -0.180126742, -0.164756641, 0.450721323 , -0.009874315, -0.0123741245, 2.42999959  , 1.81        , 3           , 12          , 0.04187446  , 0
-0.105640739, 0.07690045  , -9.787754   , 0.00178362138, -0.0006902737, 0.002256847 , -0.180194154, -0.164621815, 0.450451672 , -0.00985676 , -0.012380803, 2.43002248  , 1.82        , 3           , 50          , 0           , 0
-0.108362816, 0.07469625  , -9.793659   , -0.0004912905, 0.00239166175, 0.00196854747, -0.180194154, -0.164621815, 0.450451672 , -0.009861914, -0.0123566929, 2.43004155  , 1.83        , 3           , 11          , 0.008231857 , 0.008231851
-0.11335396 , 0.06805095  , -9.812709   , 7.119024E-05, 0.002677042 , 0.0002763903, -0.180194154, -0.164352164, 0.450451672 , -0.009861233, -0.0123298969, 2.43004441  , 1.84        , 3           , 12          , 0.04187446  , 0
-0.125029325, 0.08612181  , -9.778823   , 8.168968E-05, 0.000424518337, -0.000857230858, -0.1799245  , -0.164419577, 0.450721323 , -0.009860311, -0.0123257367, 2.43003583  , 1.85        , 3           , 50          , 0           , 0
-0.109524675, 0.09094003  , -9.789534   , 0.00177641376, 0.000435978931, -0.000566791743, -0.180059329, -0.164419577, 0.4505865   , -0.009842476, -0.0123214321, 2.43003     , 1.86        , 3           , 11          , 0.008231857 , 0.008231851
-0.117134564, 0.09333302  , -9.803593   , -0.000769936, 0.001263483 , -0.00114241731, -0.180059329, -0.164419577, 0.4505865   , -0.009850033, -0.0123089114, 2.43001866  , 1.87        , 3           , 12          , 0.04187446  , 0
-0.13822481 , 0.07685017  , -9.79342651 , -0.00216592033, -0.001843279, 0.000258911867, -0.180126742, -0.164352164, 0.4505865   , -0.009871726, -0.0123273181, 2.43002152  , 1.88        , 3           , 50          , 0           , 0
-0.1280364  , 0.088968724 , -9.80957    , -0.006116945, -0.00243314775, 0.00052214443, -0.180126742, -0.164284751, 0.450519085 , -0.009932962, -0.0123515977, 2.43002677  , 1.89        , 3           , 11          , 0.008231857 , 0.008231851
-0.134922877, 0.08450823  , -9.801053   , -0.00289886515, -0.00101340446, 0.00110235112, -0.179991916, -0.164352164, 0.4505865   , -0.009806448, -0.0123736272, 2.43003583  , 1.9         , 3           , 12          , 0.04264948  , 0
-0.136270732, 0.0912279561, -9.782053   , 0.00246036355, 0.0001491392, -0.001131191, -0.179991916, -0.164352164, 0.4505865   , -0.009781705, -0.0123722488, 2.43002439  , 1.91        , 3           , 50          , 0           , 0
-0.119472347, 0.0892826   , -9.79865551 , -0.003200808, 0.002926597 , 0.00110710924, -0.180194154, -0.164419577, 0.450519085 , -0.009813847, -0.012342874, 2.43003583  , 1.92        , 3           , 11          , 0.008176338 , 0.008176333
-0.12504147 , 0.07718497  , -9.804625   , 0.00162660785, -0.00239067152, 0.00055617746, -0.180059329, -0.164284751, 0.450721323 , -0.009797651, -0.0123667251, 2.43004155  , 1.93        , 3           , 12          , 0.04264948  , 0
-0.143031955, 0.0846371651, -9.811059   , -0.00148320151, -0.00184855261, -2.2515711E-05, -0.180126742, -0.164419577, 0.4506539   , -0.009812484, -0.0123852128, 2.43004155  , 1.94        , 3           , 50          , 0           , 0
-0.137580216, 0.0841418952, -9.816895   , 0.00159865327, 0.002959058 , -0.001978415, -0.180126742, -0.164419577, 0.4506539   , -0.009796248, -0.0123558175, 2.43002152  , 1.95        , 3           , 11          , 0.008176338 , 0.008176333
-0.119527854, 0.0847741142, -9.79958    , -0.000651907641, 0.00125438988, -0.00114394154, -0.179991916, -0.164486989, 0.450721323 , -0.009802624, -0.0123433871, 2.4300096   , 1.96        , 3           , 12          , 0.04264948  , 0
-0.135474086, 0.0799703   , -9.791585   , -9.058343E-05, 0.00210290821, -9.855963E-06, -0.180126742, -0.164486989, 0.4505865   , -0.009803526, -0.01232236 , 2.43000913  , 1.97        , 3           , 50          , 0           , 0
-0.12991108 , 0.0862604156, -9.802815   , 0.00102174329, 0.005489326 , -0.001129531, -0.180194154, -0.164419577, 0.4506539   , -0.009793162, -0.0122675793, 2.42999768  , 1.98        , 3           , 11          , 0.008176338 , 0.008176333
-0.119614758, 0.08068654  , -9.791461   , 0.0015971706, 0.00352219446, 0.000282752531, -0.180194154, -0.164419577, 0.4506539   , -0.009777221, -0.0122323325, 2.43        , 1.99        , 3           , 12          , 0.04264948  , 0
-0.112125956, 0.100885145 , -9.785896   , 0.0006234691, -0.001079492, 0.00168073375, -0.1799245  , -0.164419577, 0.450451672 , -0.009589077, -0.01236495 , 2.43001485  , 2           , 3           , 50          , 0           , 0
-0.102997281, 0.106194176 , -9.786257   , -0.00107625267, -0.000246261247, -2.10908474E-05, -0.180059329, -0.164419577, 0.450923562 , -0.009599837, -0.0123674152, 2.43001485  , 2.01        , 3           , 11          , 0.008114611 , 0.008114605
-0.120289572, 0.0978454649, -9.79275    , -0.00333320536, -0.000824672868, -0.00059756916, -0.180126742, -0.164689228, 0.450721323 , -0.009633097, -0.0123757189, 2.43000865  , 2.02        , 3           , 12          , 0.04345069  , 0
-0.126733676, 0.08935405  , -9.794643   , 4.304404E-05, 0.001732331 , -0.00114293548, -0.179991916, -0.1645544  , 0.4505865   , -0.009632522, -0.0123585071, 2.42999673  , 2.03        , 3           , 50          , 0           , 0
-0.130633071, 0.09757855  , -9.811361   , 3.4680008E-05, 0.00342172151, -0.001140332, -0.179991916, -0.1645544  , 0.4505865   , -0.0096320305, -0.0123244021, 2.42998528  , 2.04        , 3           , 11          , 0.008114611 , 0.008114605
-0.109453768, 0.09099749  , -9.806707   , 0.000345150154, -0.00220766943, -0.000865156238, -0.180126742, -0.164486989, 0.4506539   , -0.009628476, -0.0123465611, 2.4299767   , 2.05        , 3           , 12          , 0.04345069  , 0
-0.101290271, 0.09894693  , -9.784014   , 0.00260505453, -0.002192387, -7.008243E-06, -0.180261567, -0.164217338, 0.4506539   , -0.009602427, -0.0123684853, 2.4299767   , 2.06        , 3           , 50          , 0           , 0
-0.12895833 , 0.09209056  , -9.795553   , -0.00247551431, -0.002789895, 0.00053349376, -0.179991916, -0.164486989, 0.4506539   , -0.009627252, -0.0123963337, 2.42998242  , 2.07        , 3           , 11          , 0.008114611 , 0.008114605
-0.1332084  , 0.07726704  , -9.800619   , 0.0006251151, -0.00164262753, -0.0002978964, -0.179991916, -0.164486989, 0.4506539   , -0.009620966, -0.0124127856, 2.42997956  , 2.08        , 3           , 12          , 0.04345069  , 0
-0.121936858, 0.0802196339, -9.778825   , 0.00175064034, -0.0007902925, -0.000291326869, -0.180194154, -0.164352164, 0.4505865   , -0.009603424, -0.0124207167, 2.4299767   , 2.09        , 3           , 50          , 0           , 0
-0.112537563, 0.0960139856, -9.811682   , -0.00103325758, 0.00256584864, -0.00143017119, -0.180194154, -0.164419577, 0.4506539   , -0.009531281, -0.0124002378, 2.42996144  , 2.1         , 3           , 11          , 0.008039861 , 0.008039853
-0.115616009, 0.1032666   , -9.810772   , 0.0006658116, 0.00173261459, -0.000858496351, -0.180261567, -0.164824054, 0.4506539   , -0.009524514, -0.0123829953, 2.42995286  , 2.11        , 3           , 12          , 0.0442763381, 0
-0.11819464 , 0.0860768557, -9.789167   , -0.00158335536, -0.000253618229, -2.445689E-05, -0.180261567, -0.164824054, 0.4506539   , -0.009540345, -0.0123855341, 2.42995238  , 2.12        , 3           , 50          , 0           , 0
-0.1108681  , 0.09096807  , -9.79315948 , -0.000467173115, 0.00228810264, -0.00171050872, -0.180261567, -0.164621815, 0.4505865   , -0.009544803, -0.0123628182, 2.42993474  , 2.13        , 3           , 11          , 0.008039861 , 0.008039853
-0.125896692, 0.084824346 , -9.792396   , -0.00160138868, 0.00312515674, -0.0022795496, -0.180194154, -0.164217338, 0.4505865   , -0.009560531, -0.0123317856, 2.42991185  , 2.14        , 3           , 12          , 0.0442763381, 0
-0.109554619, 0.08823766  , -9.7909     , 0.00265706587, -0.00106966472, -0.000288542185, -0.180059329, -0.164621815, 0.450721323 , -0.009533928, -0.012342507, 2.429909    , 2.15        , 3           , 50          , 0           , 0
-0.103343539, 0.111642018 , -9.794825   , -0.00101383042, -0.00109449122, 0.0008244874, -0.180059329, -0.164621815, 0.450721323 , -0.00954417 , -0.0123533718, 2.42991757  , 2.16        , 3           , 11          , 0.008039861 , 0.008039853
-0.13011381 , 0.104322366 , -9.805906   , -0.003553373, -0.00167481322, -3.58451034E-05, -0.179991916, -0.164419577, 0.450721323 , -0.009579701, -0.0123701235, 2.42991757  , 2.17        , 3           , 12          , 0.0442763381, 0
-0.125688314, 0.09436655  , -9.812694   , 0.000387403736, 0.0008860087, -0.0011436526, -0.1804638  , -0.164284751, 0.4505865   , -0.00957568549, -0.0123613756, 2.42990613  , 2.18        , 3           , 50          , 0           , 0
-0.107854947, 0.07607462  , -9.80269    , 0.0006788471, -0.000801468734, -1.47892852E-05, -0.179991916, -0.164689228, 0.4505865   , -0.009568896, -0.01236939 , 2.42990613  , 2.19        , 3           , 11          , 0.008039861 , 0.008039853
-0.121023424, 0.108261295 , -9.8013     , -0.00299055851, 0.002592712 , -0.0003091051, -0.179991916, -0.164689228, 0.4505865   , -0.009570562, -0.0122838859, 2.42990232  , 2.2         , 3           , 12          , 0.045124758 , 0
-0.126069471, 0.105588667 , -9.794119   , -0.001289191, 0.00119634566, -0.0005859107, -0.179991916, -0.1645544  , 0.450721323 , -0.009583382, -0.0122719808, 2.429896    , 2.21        , 3           , 50          , 0           , 0
-0.124032877, 0.08797021  , -9.79508    , -0.000158830982, 0.00120398868, 0.000549506745, -0.1803964  , -0.1645544  , 0.450721323 , -0.009585036, -0.0122598894, 2.42990136  , 2.22        , 3           , 11          , 0.007956578 , 0.007956568
-0.139358252, 0.09624142  , -9.786123   , 0.00125051511, 0.00177666848, 0.0005569593, -0.180126742, -0.164419577, 0.450788736 , -0.009572596, -0.0122420685, 2.429907    , 2.23        , 3           , 12          , 0.045124758 , 0
-0.123736657, 0.07534023  , -9.79739    , 0.00183012453, -0.00103515829, 0.00196794141, -0.180126742, -0.164419577, 0.450788736 , -0.009554537, -0.0122522311, 2.42992663  , 2.24        , 3           , 50          , 0           , 0
-0.125131682, 0.0762191638, -9.785645   , -0.0007140897, -0.000770787767, 0.000261297915, -0.180194154, -0.164486989, 0.450519085 , -0.009561712, -0.0122599136, 2.42992949  , 2.25        , 3           , 11          , 0.007956578 , 0.007956568
-0.118184991, 0.08653102  , -9.79007    , -0.00128017436, -0.000493041764, 0.00054163544, -0.1804638  , -0.164419577, 0.450788736 , -0.009574581, -0.0122647909, 2.42993474  , 2.26        , 3           , 12          , 0.045124758 , 0
-0.111656904, 0.0950904638, -9.808516   , -0.00184879487, 6.6263834E-05, -0.00115535525, -0.180059329, -0.164486989, 0.450923562 , -0.009592927, -0.0122642387, 2.4299233   , 2.27        , 3           , 50          , 0           , 0
-0.1327993  , 0.07365554  , -9.801535   , 0.00238170545, 0.001221172 , -0.00169894053, -0.180059329, -0.164486989, 0.450923562 , -0.0095689  , -0.0122521911, 2.42990613  , 2.28        , 3           , 11          , 0.007956578 , 0.007956568
-0.128460988, 0.0943530947, -9.799155   , -0.000149888714, -0.000766971, -0.000866217946, -0.180261567, -0.1645544  , 0.450384259 , -0.009570294, -0.0122599434, 2.42989755  , 2.29        , 3           , 12          , 0.045124758 , 0
-0.112433463, 0.1108279   , -9.789474   , -0.0009482196, -0.000243520481, 0.00139005168, -0.1803964  , -0.164419577, 0.450721323 , -0.009502253, -0.0123145487, 2.429911    , 2.3         , 3           , 50          , 0           , 0
-0.08812343 , 0.107302651 , -9.765347   , -0.000105358675, 0.000325331785, -0.00143050437, -0.1799245  , -0.164149925, 0.450721323 , -0.009503129, -0.0123114325, 2.42989659  , 2.31        , 3           , 11          , 0.007867658 , 0.00786765
-0.125688583, 0.104186058 , -9.78101349 , 0.000181576455, -0.0005174521, -0.0008654142, -0.180059329, -0.164621815, 0.4506539   , -0.00950120948, -0.012316688, 2.429888    , 2.32        , 3           , 12          , 0.0459943861, 0
-0.131259665, 0.08940871  , -9.79513    , -0.00264129788, -0.0008181169, -0.0008790176, -0.180059329, -0.164621815, 0.4506539   , -0.009527515, -0.0123249535, 2.429879    , 2.33        , 3           , 50          , 0           , 0
-0.135428146, 0.08670279  , -9.78116    , 0.0007470827, -0.000513629, 0.000267369382, -0.180261567, -0.164284751, 0.450788736 , -0.009520078, -0.0123300627, 2.42988181  , 2.34        , 3           , 11          , 0.007867658 , 0.00786765
-0.118978828, 0.0888639241, -9.809954   , -0.000381067453, -0.0008028332, 0.0005442052, -0.180126742, -0.164217338, 0.450856149 , -0.009523957, -0.0123380376, 2.429887    , 2.35        , 3           , 12          , 0.0459943861, 0
-0.116941   , 0.105541319 , -9.811677   , 0.00243606768, 0.000624091248, 0.000277006737, -0.180194154, -0.164284751, 0.4506539   , -0.00949963 , -0.0123317707, 2.42989     , 2.36        , 3           , 50          , 0           , 0
-0.135662675, 0.10206084  , -9.785167   , -0.000679644, 0.002292469 , -0.0008650257, -0.180194154, -0.164284751, 0.4506539   , -0.009506319, -0.0123089291, 2.42988133  , 2.37        , 3           , 11          , 0.007867658 , 0.00786765
-0.148489341, 0.09271586  , -9.779428   , -0.000385086285, 4.18630079E-05, 0.000828044547, -0.180261567, -0.1645544  , 0.450451672 , -0.009510271, -0.0123084318, 2.42988944  , 2.38        , 3           , 12          , 0.0459943861, 0
-0.13617976 , 0.095765166 , -9.789718   , -0.00123957428, 0.00116238557, -0.00199954514, -0.180126742, -0.164486989, 0.450923562 , -0.009522419, -0.0122969979, 2.42986941  , 2.39        , 3           , 50          , 0           , 0
-0.113438874, 0.101830617 , -9.794038   , -0.002375121, -0.00173640728, -0.000314400124, -0.17985709 , -0.1645544  , 0.450788736 , -0.009579344, -0.012435236, 2.429867    , 2.4         , 3           , 11          , 0.007774991 , 0.00777498353
-0.124386586, 0.09341203  , -9.80184    , -0.00210048025, -0.000326675945, -0.00172360113, -0.17985709 , -0.1645544  , 0.450788736 , -0.009600137, -0.0124386679, 2.42984986  , 2.41        , 3           , 12          , 0.0468837321, 0
-0.11410936 , 0.08469823  , -9.795921   , -0.00209294632, -0.00145292666, 0.00166511291, -0.180059329, -0.164419577, 0.450721323 , -0.009621275, -0.0124530364, 2.429866    , 2.42        , 3           , 50          , 0           , 0
-0.104226515, 0.0742516741, -9.809901   , 0.00270003453, -1.26381638E-05, -0.0005706292, -0.180126742, -0.164352164, 0.450856149 , -0.009594204, -0.0124532189, 2.42986083  , 2.43        , 3           , 11          , 0.007774991 , 0.00777498353
-0.114458755, 0.08835812  , -9.809468   , 0.00100514712, -2.40995432E-05, -0.0011436058, -0.180261567, -0.164689228, 0.4506539   , -0.009584011, -0.0124535691, 2.42984939  , 2.44        , 3           , 12          , 0.0468837321, 0
-0.112179719, 0.0937      , -9.79587    , 0.0007138669, 0.00166337856, -0.00198993157, -0.180261567, -0.164689228, 0.4506539   , -0.009576621, -0.0124371257, 2.429829    , 2.45        , 3           , 50          , 0           , 0
-0.1353626  , 0.08452413  , -9.804221   , 0.002418097 , -1.45457452E-05, 0.0002756661, -0.179991916, -0.164419577, 0.450721323 , -0.009552475, -0.0124372449, 2.42983174  , 2.46        , 3           , 11          , 0.007774991 , 0.00777498353
-0.133768022, 0.106570758 , -9.79101    , 0.001291504 , -0.000585314352, 0.00083460554, -0.1804638  , -0.164284751, 0.450788736 , -0.009539664, -0.0124430181, 2.42984033  , 2.47        , 3           , 12          , 0.0468837321, 0
-0.101035856, 0.08271227  , -9.787695   , 0.000165489357, -0.00143765158, -1.9576295E-05, -0.1799245  , -0.164352164, 0.4505865   , -0.009538009, -0.012457395, 2.42984033  , 2.48        , 3           , 50          , 0           , 0
-0.106722273, 0.09588743  , -9.794462   , 0.000161144213, -0.000592957367, -0.000300811982, -0.1799245  , -0.164352164, 0.4505865   , -0.009536361, -0.0124633554, 2.42983747  , 2.49        , 3           , 11          , 0.007774991 , 0.00777498353
-0.100162171, 0.112507112 , -9.794795   , 0.00186716334, 1.855765E-05, 0.00168591039, -0.180194154, -0.164419577, 0.450788736 , -0.009496125, -0.0124016479, 2.42985368  , 2.5         , 3           , 12          , 0.0477913953, 0
-0.106367789, 0.08642911  , -9.800827   , -0.00406166445, -0.000584685069, 0.000527236843, -0.1803964  , -0.164352164, 0.450788736 , -0.009536808, -0.0124074453, 2.4298594   , 2.51        , 3           , 50          , 0           , 0
-0.0882078856, 0.09384372  , -9.788002   , -0.00235611456, -0.00282574655, 0.000249129516, -0.180194154, -0.164352164, 0.450788736 , -0.009560403, -0.0124356775, 2.42986226  , 2.52        , 3           , 11          , 0.00768046547, 0.00768045848
-0.103520617, 0.09900072  , -9.792166   , -0.00291620777, -0.003955831, -0.00116792729, -0.180194154, -0.164352164, 0.450788736 , -0.009589425, -0.0124753444, 2.42985082  , 2.53        , 3           , 12          , 0.0477913953, 0
-0.11079713 , 0.101291627 , -9.777296   , -0.000104737614, -0.00112107489, 0.0008273436, -0.180194154, -0.1645544  , 0.450721323 , -0.00959057547, -0.0124864765, 2.4298594   , 2.54        , 3           , 50          , 0           , 0
-0.1306826  , 0.103787333 , -9.779246   , 0.00271477038, 2.42891256E-05, 0.00225493615, -0.180126742, -0.164621815, 0.450788736 , -0.009563711, -0.0124860164, 2.42988133  , 2.55        , 3           , 11          , 0.00768046547, 0.00768045848
-0.114680156, 0.106404945 , -9.80804    , -0.000108830835, -0.000557951, -0.00143208832, -0.180194154, -0.164486989, 0.450788736 , -0.009564621, -0.0124917338, 2.42986751  , 2.56        , 3           , 12          , 0.0477913953, 0
-0.115903489, 0.09008947  , -9.782806   , 0.00187069294, -0.0008261408, 0.000554458529, -0.180059329, -0.1645544  , 0.4506539   , -0.009545985, -0.0124999415, 2.42987275  , 2.57        , 3           , 50          , 0           , 0
-0.10097155 , 0.08142534  , -9.807586   , 0.00100217608, 0.003391604 , -8.057977E-06, -0.180059329, -0.1645544  , 0.4506539   , -0.009535958, -0.0124660274, 2.42987275  , 2.58        , 3           , 11          , 0.00768046547, 0.00768045848
-0.10360007 , 0.09491919  , -9.785855   , -0.000959314464, 0.000281019049, 0.000260487461, -0.180194154, -0.1645544  , 0.450788736 , -0.009545583, -0.0124631915, 2.42987561  , 2.59        , 3           , 12          , 0.0477913953, 0
-0.122705683, 0.08614361  , -9.79327    , 0.000154185618, 0.00179159315, 0.000834021834, -0.1799245  , -0.1645544  , 0.450721323 , -0.009560652, -0.0122811748, 2.42988324  , 2.6         , 3           , 50          , 0           , 0
-0.1453995  , 0.08324075  , -9.790292   , 0.000158367635, 0.000946897955, 0.00083272  , -0.180059329, -0.164689228, 0.450788736 , -0.009559169, -0.0122716269, 2.42989182  , 2.61        , 3           , 11          , 0.007583742 , 0.00758373458
-0.140493423, 0.110721424 , -9.794208   , 0.003536174 , 0.00322233769, 0.0005694572, -0.180059329, -0.164689228, 0.450788736 , -0.009523874, -0.0122393481, 2.429897    , 2.62        , 3           , 12          , 0.0487160571, 0
-0.140288174, 0.09355423  , -9.788854   , 0.00354725169, 0.0006882447, -0.00197728537, -0.180126742, -0.164419577, 0.450721323 , -0.009488158, -0.0122326547, 2.42987752  , 2.63        , 3           , 50          , 0           , 0
-0.121439941, 0.0793573856, -9.792384   , -0.000688987144, 0.000659595942, -0.001714502, -0.180261567, -0.164419577, 0.450856149 , -0.009494836, -0.0122262212, 2.42986035  , 2.64        , 3           , 11          , 0.007583742 , 0.00758373458
-0.110895537, 0.08916046  , -9.792263   , -0.000962159946, -0.000750128645, 0.002237536 , -0.1799245  , -0.164419577, 0.450721323 , -0.009504734, -0.0122335088, 2.42988229  , 2.65        , 3           , 12          , 0.0487160571, 0
-0.103618488, 0.09267251  , -9.788577   , -0.00321967644, -0.00161011412, -0.00172982586, -0.1799245  , -0.164419577, 0.450721323 , -0.009536722, -0.0122497743, 2.42986512  , 2.66        , 3           , 50          , 0           , 0
-0.12970449 , 0.106067225 , -9.789625   , -0.0006850571, 9.647135E-05, 0.000262392423, -0.180059329, -0.164217338, 0.450721323 , -0.009543603, -0.0122487834, 2.429868    , 2.67        , 3           , 11          , 0.007583742 , 0.00758373458
-0.125753045, 0.0925286859, -9.802758   , 0.001004254 , 0.001234193 , 0.000837104744, -0.180194154, -0.164217338, 0.450721323 , -0.009533663, -0.0122363651, 2.42987657  , 2.68        , 3           , 12          , 0.0487160571, 0
-0.130587339, 0.10654261  , -9.793696   , -0.00237485766, -0.00104125275, -0.00115993212, -0.180126742, -0.164486989, 0.450721323 , -0.009557271, -0.0122468872, 2.42986512  , 2.69        , 3           , 50          , 0           , 0
-0.115196958, 0.07295625  , -9.7892     , 0.00212243875, 9.42868646E-05, 0.000275563885, -0.180126742, -0.164486989, 0.450721323 , -0.009566073, -0.0122839753, 2.429868    , 2.7         , 3           , 11          , 0.007486632 , 0.007486624
-0.125790149, 0.0902669   , -9.80096    , 0.0043775076, 0.00095426105, 4.86392355E-06, -0.18032898 , -0.164824054, 0.4506539   , -0.009522297, -0.0122744357, 2.429868    , 2.71        , 3           , 12          , 0.04965648  , 0
-0.1076003  , 0.100383863 , -9.786768   , -0.00011992162, -0.00329977227, 0.000824896269, -0.180261567, -0.164217338, 0.450788736 , -0.009523603, -0.0123073524, 2.42987657  , 2.72        , 3           , 50          , 0           , 0
-0.1126305  , 0.08879708  , -9.812164   , -0.00237900973, -0.00331505085, 0.00137943577, -0.180126742, -0.164217338, 0.4511258   , -0.009547566, -0.01234037 , 2.42989087  , 2.73        , 3           , 11          , 0.007486632 , 0.007486624
-0.12759389 , 0.122803569 , -9.808975   , 0.0012673724, 0.00149637833, -0.00113890436, -0.180126742, -0.164217338, 0.4511258   , -0.00953475 , -0.012325515, 2.42987943  , 2.74        , 3           , 12          , 0.04965648  , 0
-0.136422843, 0.107099168 , -9.804587   , 0.00240593357, -0.000185369863, -0.000288627838, -0.180194154, -0.164352164, 0.450788736 , -0.009510657, -0.0123273944, 2.42987657  , 2.75        , 3           , 50          , 0           , 0
-0.123582855, 0.08930172  , -9.790098   , 0.000427225139, 8.282391E-05, -0.0008624875, -0.180531219, -0.164419577, 0.4510584   , -0.009506279, -0.0123266494, 2.429868    , 2.76        , 3           , 11          , 0.007486632 , 0.007486624
-0.1238952  , 0.102811329 , -9.781007   , 0.002674509 , 0.00235061953, -0.00254370575, -0.180261567, -0.164352164, 0.450856149 , -0.009479217, -0.012303385, 2.42984223  , 2.77        , 3           , 12          , 0.04965648  , 0
-0.122760132, 0.085653156 , -9.781521   , 0.00126695726, 0.00177794811, 0.0005567542, -0.180261567, -0.164352164, 0.450856149 , -0.009466614, -0.0122855548, 2.42984748  , 2.78        , 3           , 50          , 0           , 0
-0.123446636, 0.08941209  , -9.823092   , 0.00324345566, 0.00179131574, -0.000281639484, -0.180261567, -0.164284751, 0.450788736 , -0.009434142, -0.0122676678, 2.42984414  , 2.79        , 3           , 11          , 0.007486632 , 0.007486624
-0.129543826, 0.111553609 , -9.81129551 , 0.0015357642, 0.000915104756, 0.00281713624, -0.180126742, -0.164284751, 0.450788736 , -0.00945453253, -0.0122954259, 2.42987323  , 2.8         , 3           , 12          , 0.050611496 , 0
-0.135238275, 0.09132013  , -9.812779   , -0.000164284, 0.00174833392, 0.0005502366, -0.180194154, -0.164419577, 0.450923562 , -0.00945624 , -0.0122778872, 2.42987847  , 2.81        , 3           , 50          , 0           , 0
-0.115866847, 0.08922647  , -9.794561   , 0.00126236852, -0.00133933581, -0.0008606392, -0.180194154, -0.164419577, 0.450923562 , -0.009443513, -0.0122913616, 2.42987     , 2.82        , 3           , 11          , 0.00739031238, 0.007390305
-0.115894832, 0.0892038   , -9.787781   , -0.00128546415, 5.130441E-05, 0.0008249029, -0.180059329, -0.1645544  , 0.450788736 , -0.009456468, -0.01229077 , 2.42987847  , 2.83        , 3           , 12          , 0.050611496 , 0
-0.116581365, 0.100550666 , -9.804914   , -0.000163216318, 0.00146676716, -1.52720477E-05, -0.18032898 , -0.164352164, 0.450923562 , -0.009458097, -0.0122761047, 2.429878    , 2.84        , 3           , 50          , 0           , 0
-0.09300059 , 0.0709183961, -9.7971735  , 0.000680297264, 0.00203562248, -0.00170567841, -0.1804638  , -0.164621815, 0.4511258   , -0.009451082, -0.01225591 , 2.42986083  , 2.85        , 3           , 11          , 0.00739031238, 0.007390305
-0.09530118 , 0.07180797  , -9.785437   , -0.00100401626, 5.32097147E-05, -0.000869005045, -0.1803964  , -0.164352164, 0.450990975 , -0.009461016, -0.01225546 , 2.42985177  , 2.86        , 3           , 12          , 0.050611496 , 0
-0.116821773, 0.08294821  , -9.80273    , 0.000123229373, 0.000623981236, -0.0002977944, -0.1803964  , -0.164352164, 0.450990975 , -0.009459747, -0.012249249, 2.429849    , 2.87        , 3           , 50          , 0           , 0
-0.130726039, 0.09794959  , -9.787406   , -0.000448594277, 0.00202798657, -0.000298258616, -0.18032898 , -0.1645544  , 0.450990975 , -0.009464194, -0.0122289984, 2.429846    , 2.88        , 3           , 11          , 0.00739031238, 0.007390305
-0.149690658, 0.100893341 , -9.791607   , -0.0007149456, -0.00135270727, -0.00143493281, -0.18032898 , -0.164486989, 0.4511258   , -0.00947117 , -0.0122426609, 2.42983174  , 2.89        , 3           , 12          , 0.050611496 , 0
-0.127152234, 0.0902798   , -9.800066   , 0.00210970431, 0.0009045273, -0.0008534773, -0.18032898 , -0.164352164, 0.450923562 , -0.00942846853, -0.0122612892, 2.42982316  , 2.9         , 3           , 50          , 0           , 0
-0.101821363, 0.08371288  , -9.81391048 , 0.0009623641, 0.00455723563, -5.491406E-06, -0.18032898 , -0.164352164, 0.450923562 , -0.00941884 , -0.0122157186, 2.42982221  , 2.91        , 3           , 11          , 0.00729509676, 0.00729508745
-0.118613139, 0.07941468  , -9.819029   , -0.003253291, 0.000305109279, -0.000314291916, -0.180059329, -0.164352164, 0.450923562 , -0.009451334, -0.0122126974, 2.42981935  , 2.92        , 3           , 12          , 0.05158002  , 0
-0.125530824, 0.09806497  , -9.839344   , 0.000141406621, -0.0007982315, -0.000300224463, -0.1803964  , -0.164486989, 0.450923562 , -0.009449885, -0.0122207077, 2.42981648  , 2.93        , 3           , 50          , 0           , 0
-0.118051626, 0.08530003  , -9.826684   , 0.000125909442, 0.00229898351, -0.0005779886, -0.180059329, -0.164486989, 0.450856149 , -0.0094485525, -0.0121977748, 2.42981029  , 2.94        , 3           , 11          , 0.00729509676, 0.00729508745
-0.116467983, 0.08018457  , -9.787371   , -0.00240503182, 0.0003108439, 0.00138488365, -0.180059329, -0.164486989, 0.450856149 , -0.009472772, -0.0121945357, 2.429824    , 2.95        , 3           , 12          , 0.05158002  , 0
-0.121021368, 0.113619179 , -9.784555   , -0.00269220443, 0.0008720547, -0.00200601527, -0.180261567, -0.164486989, 0.450923562 , -0.009499448, -0.0121860057, 2.429804    , 2.96        , 3           , 50          , 0           , 0
-0.12356966 , 0.08440256  , -9.809103   , -0.00240305928, -0.0002522901, -2.86714949E-05, -0.180126742, -0.164284751, 0.450923562 , -0.009523476, -0.0121885315, 2.42980361  , 2.97        , 3           , 11          , 0.00729509676, 0.00729508745
-0.137782738, 0.06478472  , -9.829632   , -0.00154741528, -0.00193595048, -2.73242968E-05, -0.180194154, -0.1645544  , 0.450990975 , -0.009538948, -0.0122078927, 2.42980361  , 2.98        , 3           , 12          , 0.05158002  , 0
-0.121976078, 0.105109327 , -9.799966   , -0.0007153055, 0.00116699585, 0.000263937021, -0.180194154, -0.1645544  , 0.450990975 , -0.009546134, -0.0121961953, 2.429806    , 2.99        , 3           , 50          , 0           , 0
-0.112578727, 0.100890465 , -9.785899   , 0.00100945809, 0.0003133291, 0.000270029239, -0.180059329, -0.164352164, 0.450856149 , -0.009484443, -0.0122335674, 2.42980838  , 3           , 3           , 11          , 0.00720011676, 0.007200109
-0.138890684, 0.101157956 , -9.773896   , 0.000451248226, -0.00109831779, -0.000299849024, -0.180261567, -0.164149925, 0.4510584   , -0.009479895, -0.0122445794, 2.42980552  , 3.01        , 3           , 12          , 0.05256103  , 0
-0.11913836 , 0.07980765  , -9.800049   , -0.000957356533, -0.001952566, -0.00143788545, -0.180126742, -0.164756641, 0.450990975 , -0.009489294, -0.0122642405, 2.42979121  , 3.02        , 3           , 50          , 0           , 0
-0.116186291, 0.09558873  , -9.80674    , -0.00067624927, -0.00138751883, 0.00110713649, -0.180126742, -0.164756641, 0.450990975 , -0.009496194, -0.0122780092, 2.42980218  , 3.03        , 3           , 11          , 0.00720011676, 0.007200109
-0.100389838, 0.09446862  , -9.79713249 , 0.00127745548, 0.00313088764, -0.0005719267, -0.179991916, -0.164486989, 0.4510584   , -0.009483347, -0.0122467559, 2.42979646  , 3.04        , 3           , 12          , 0.05256103  , 0
-0.119318731, 0.105475672 , -9.784124   , -0.000404396269, 0.000585342757, -0.0003011962, -0.18032898 , -0.164419577, 0.4511258   , -0.009487354, -0.0122409295, 2.4297936   , 3.05        , 3           , 50          , 0           , 0
-0.145498753, 0.107635446 , -9.79832649 , -0.00293615344, -0.0014028009, 0.000248988566, -0.179991916, -0.1645544  , 0.450990975 , -0.009516747, -0.0122549338, 2.429796    , 3.06        , 3           , 11          , 0.00720011676, 0.007200109
-0.119012512, 0.0861585438, -9.810416   , 0.00102307182, -0.00250232336, -0.000299384817, -0.179991916, -0.1645544  , 0.450990975 , -0.009506483, -0.0122799845, 2.4297936   , 3.07        , 3           , 12          , 0.05256103  , 0
-0.114800647, 0.102290161 , -9.791786   , 0.0007246584, 0.000592979544, -0.0014260785, -0.180059329, -0.164419577, 0.450923562 , -0.009499062, -0.0122741908, 2.42977929  , 3.08        , 3           , 50          , 0           , 0
-0.111488461, 0.08369599  , -9.775567   , 0.00269779051, 0.001451046 , -0.000850483135, -0.180059329, -0.164486989, 0.4510584   , -0.009471976, -0.0122597627, 2.42977023  , 3.09        , 3           , 11          , 0.00720011676, 0.007200109
-0.104936026, 0.09495328  , -9.791289   , -0.000975339848, 0.000302486354, -0.00143431732, -0.179991916, -0.164621815, 0.450923562 , -0.009495561, -0.0122516835, 2.4297564   , 3.1         , 3           , 12          , 0.0535535775, 0
-0.103212886, 0.0868264139, -9.795829   , -0.00124424172, -0.00223350455, 0.000255685 , -0.179991916, -0.164621815, 0.450923562 , -0.009508036, -0.0122739943, 2.42975879  , 3.11        , 3           , 50          , 0           , 0
-0.143106371, 0.08234514  , -9.800221   , 0.00101754558, -0.00249978527, 0.00196101167, -0.180261567, -0.164284751, 0.450923562 , -0.009498104, -0.0122988019, 2.42977834  , 3.12        , 3           , 11          , 0.0071065356, 0.00710653
-0.136549592, 0.1020866   , -9.789694   , 0.0009951672, 0.0017236839, -0.000575316662, -0.180059329, -0.164419577, 0.450990975 , -0.009488081, -0.0122816227, 2.42977262  , 3.13        , 3           , 12          , 0.0535535775, 0
-0.12743631 , 0.111846648 , -9.77195549 , 0.0001497703, 0.00143639115, 0.000267910829, -0.180059329, -0.164419577, 0.450990975 , -0.009486615, -0.012267231, 2.42977548  , 3.14        , 3           , 50          , 0           , 0
-0.130442768, 0.0879871845, -9.777954   , -0.000134050526, 0.00171604624, 0.000267027848, -0.17985709 , -0.1645544  , 0.450990975 , -0.009487987, -0.0122500462, 2.42977786  , 3.15        , 3           , 11          , 0.0071065356, 0.00710653
-0.113166042, 0.08784264  , -9.794998   , -0.0018312363, 0.00226771738, 0.0005425316, -0.17985709 , -0.1645544  , 0.450990975 , -0.009506363, -0.0122273182, 2.429783    , 3.16        , 3           , 12          , 0.0535535775, 0
-0.118480571, 0.06486669  , -9.78745    , -0.00266801729, 9.463867E-06, -0.0005950404, -0.180059329, -0.164486989, 0.4510584   , -0.00953297 , -0.012227281, 2.429777    , 3.17        , 3           , 50          , 0           , 0
-0.127081692, 0.09747857  , -9.79416    , 0.00182760309, 0.00482663233, 0.00028101966, -0.180194154, -0.164419577, 0.4511258   , -0.009514723, -0.01217899 , 2.42977929  , 3.18        , 3           , 11          , 0.0071065356, 0.00710653
-0.122014612, 0.1059708   , -9.787759   , 0.00128463854, 0.0005993406, 0.00196710182, -0.179789677, -0.164756641, 0.450990975 , -0.009502115, -0.0121728107, 2.42979884  , 3.19        , 3           , 12          , 0.0535535775, 0
-0.09206046 , 0.115050308 , -9.774384   , 0.001291038 , -0.0008272219, -0.000578143459, -0.179789677, -0.164756641, 0.450990975 , -0.009487228, -0.0122207934, 2.42979264  , 3.2         , 3           , 50          , 0           , 0
-0.1035723  , 0.09717344  , -9.785394   , -0.000117166135, -0.001399896, 0.00139216613, -0.180059329, -0.164621815, 0.450856149 , -0.0094885705, -0.0122346608, 2.429807    , 3.21        , 3           , 11          , 0.00701522129, 0.007015214
-0.140310541, 0.0859481543, -9.807869   , 0.0007165894, 0.00113991462, -0.000295202335, -0.180126742, -0.164352164, 0.450990975 , -0.009481369, -0.0122232893, 2.429804    , 3.22        , 3           , 12          , 0.05455676  , 0
-0.118196607, 0.08339715  , -9.797314   , -0.000137334777, 0.00254201167, 0.000268091273, -0.179991916, -0.164419577, 0.450990975 , -0.009482771, -0.0121978456, 2.42980647  , 3.23        , 3           , 50          , 0           , 0
-0.109873876, 0.09995627  , -9.785883   , -0.00011519387, -0.00196303 , -2.13889216E-05, -0.179991916, -0.164419577, 0.450990975 , -0.009483923, -0.012217477, 2.42980647  , 3.24        , 3           , 11          , 0.00701522129, 0.007015214
-0.117853761, 0.07839289  , -9.786485   , 0.001000247 , 0.000860258762, -0.000576856837, -0.180261567, -0.164621815, 0.450721323 , -0.009473849, -0.0122089293, 2.42980027  , 3.25        , 3           , 12          , 0.05455676  , 0
-0.117636822, 0.09195918  , -9.795918   , 0.0010012259, 0.0008602635, 0.00111836777, -0.1799245  , -0.164486989, 0.450990975 , -0.00946397148, -0.0122002186, 2.42981172  , 3.26        , 3           , 50          , 0           , 0
-0.155576751, 0.09605269  , -9.807491   , 0.00184613373, 0.00114755379, -0.000572472054, -0.180059329, -0.164621815, 0.450856149 , -0.009445439, -0.0121887978, 2.429806    , 3.27        , 3           , 11          , 0.00701522129, 0.007015214
-0.114311978, 0.105438374 , -9.790414   , -0.0012537546, -0.00028128206, -0.000871665543, -0.180059329, -0.164621815, 0.450856149 , -0.00945787 , -0.0121916924, 2.42979741  , 3.28        , 3           , 12          , 0.05455676  , 0
-0.121839315, 0.086101234 , -9.783772   , 0.00212765578, 0.00143103115, 0.00027689102, -0.180261567, -0.1645544  , 0.450856149 , -0.009436625, -0.0121773556, 2.4297998   , 3.29        , 3           , 50          , 0           , 0
-0.124960884, 0.09555064  , -9.765225   , -0.00239403825, 0.001103585 , -0.0005923227, -0.180194154, -0.164082512, 0.450923562 , -0.009468724, -0.0121998424, 2.4297936   , 3.3         , 3           , 11          , 0.00692550559, 0.006925498
-0.12346971 , 0.09608864  , -9.795947   , -0.002095462, -0.001991717, 0.000816908141, -0.180261567, -0.164486989, 0.450788736 , -0.009489781, -0.0122196814, 2.42980218  , 3.31        , 3           , 12          , 0.05556976  , 0
-0.127162874, 0.0884857848, -9.803238   , -0.00126523571, 0.00139279221, 0.0002609912, -0.180261567, -0.164486989, 0.450788736 , -0.009502464, -0.0122057293, 2.42980456  , 3.32        , 3           , 50          , 0           , 0
-0.128972545, 0.0604623258, -9.783029   , -0.0009864126, 0.00195782841, -0.0011495112, -0.179991916, -0.164486989, 0.4505865   , -0.009512186, -0.0121862618, 2.42979312  , 3.33        , 3           , 11          , 0.00692550559, 0.006925498
-0.0975893661, 0.0718148947, -9.779578   , -0.001839106, 0.00307835988, -0.0008691888, -0.17985709 , -0.164419577, 0.450923562 , -0.009530467, -0.0121555617, 2.429784    , 3.34        , 3           , 12          , 0.05556976  , 0
-0.129097253, 0.0857290849, -9.78202152 , 0.00101041724, -0.00197071116, -0.0005812928, -0.180059329, -0.164824054, 0.4510584   , -0.009520294, -0.0121753225, 2.42977834  , 3.35        , 3           , 50          , 0           , 0
-0.117561013, 0.09871588  , -9.792726   , 0.001278741 , 0.0008468487, -0.000858174055, -0.180059329, -0.164824054, 0.4510584   , -0.009507402, -0.012166936, 2.42976975  , 3.36        , 3           , 11          , 0.00692550559, 0.006925498
-0.121793874, 0.08703075  , -9.791903   , -0.0009628034, -0.00254720659, 0.00110384554, -0.180194154, -0.164419577, 0.450856149 , -0.009517168, -0.0121923015, 2.4297812   , 3.37        , 3           , 12          , 0.05556976  , 0
-0.102148019, 0.105691567 , -9.774048   , 0.00269907643, -0.0008329928, -0.00113673031, -0.179991916, -0.164419577, 0.450856149 , -0.00949004 , -0.0122007383, 2.42976975  , 3.38        , 3           , 50          , 0           , 0
-0.116245672, 0.09598697  , -9.790919   , 0.00270038145, -0.000832986552, 0.00112356932, -0.180126742, -0.164419577, 0.450990975 , -0.009463174, -0.0122089628, 2.4297812   , 3.39        , 3           , 11          , 0.00692550559, 0.006925498
-0.115020521, 0.08470433  , -9.794573   , 0.00129434629, -0.000833958562, -0.000295707869, -0.1799245  , -0.164352164, 0.450788736 , -0.009434621, -0.012198   , 2.42977834  , 3.4         , 3           , 12          , 0.0565917753, 0
-0.125869364, 0.08395379  , -9.80189    , 0.00410500029, 0.00200079358, 0.000286875555, -0.1799245  , -0.164352164, 0.450788736 , -0.00939360447, -0.0121779656, 2.42978072  , 3.41        , 3           , 50          , 0           , 0
-0.11272683 , 0.0820237547, -9.810386   , 0.002978408 , 0.00143002509, 0.000845815 , -0.180194154, -0.164419577, 0.450923562 , -0.009363921, -0.0121635869, 2.42978883  , 3.42        , 3           , 11          , 0.00683781644, 0.006837808
-0.120412596, 0.0928359255, -9.778761   , -0.0006868235, -2.63290713E-06, -0.0003036246, -0.180059329, -0.164352164, 0.450990975 , -0.009370754, -0.0121636409, 2.429786    , 3.43        , 3           , 12          , 0.0565917753, 0
-0.09883043 , 0.08174559  , -9.776382   , 0.000997401 , 0.00226135133, 0.00112043566, -0.180126742, -0.164419577, 0.450788736 , -0.009360912, -0.0121409241, 2.429797    , 3.44        , 3           , 50          , 0           , 0
-0.114114434, 0.09049669  , -9.77601051 , 0.00184173032, 0.00283021084, 0.0008427169, -0.180126742, -0.164419577, 0.450788736 , -0.009342595, -0.0121125421, 2.429805    , 3.45        , 3           , 11          , 0.00683781644, 0.006837808
-0.1334443  , 0.09842656  , -9.785617   , 0.00214703986, -0.00195448962, -0.0005760303, -0.180194154, -0.164486989, 0.450990975 , -0.009321056, -0.01213214 , 2.42979932  , 3.46        , 3           , 12          , 0.0565917753, 0
-0.1368749  , 0.07548833  , -9.795683   , 0.001002977 , 0.00113509106, 0.0011186999, -0.1803964  , -0.164419577, 0.450856149 , -0.009311162, -0.0121206837, 2.42981076  , 3.47        , 3           , 50          , 0           , 0
-0.115464211, 0.08694877  , -9.789596   , -0.00154214166, 0.0016810291, 0.000260102941, -0.180059329, -0.164352164, 0.450856149 , -0.009326614, -0.0121038519, 2.42981315  , 3.48        , 3           , 11          , 0.00683781644, 0.006837808
-0.114417091, 0.09687254  , -9.792257   , 0.00127638737, 0.00282638846, -7.52923052E-06, -0.180059329, -0.164352164, 0.450856149 , -0.009313846, -0.0120755872, 2.42981267  , 3.49        , 3           , 12          , 0.0565917753, 0
-0.112163804, 0.0950519443, -9.795412   , -0.00236367923, -0.00142621179, -3.13307719E-05, -0.180126742, -0.164284751, 0.450788736 , -0.009312941, -0.0120998183, 2.42981267  , 3.5         , 3           , 50          , 0           , 0
-0.108974129, 0.09458473  , -9.801717   , 0.004681494 , 0.00171875244, -0.000276171631, -0.180059329, -0.164419577, 0.450923562 , -0.009266091, -0.0120826568, 2.42980981  , 3.51        , 3           , 11          , 0.006752461 , 0.00675245235
-0.105798028, 0.09589192  , -9.798976   , -0.000403909071, 0.00196593627, -0.0008645176, -0.1799245  , -0.164486989, 0.450990975 , -0.00927002449, -0.0120630814, 2.42980075  , 3.52        , 3           , 12          , 0.0576220863, 0
-0.102737971, 0.09665873  , -9.76957    , 0.000175047768, -0.000845893868, -0.000583685469, -0.1799245  , -0.164486989, 0.450990975 , -0.009268205, -0.0120715918, 2.429795    , 3.53        , 3           , 50          , 0           , 0
-0.127203077, 0.09470212  , -9.77338    , -0.0009752433, 0.00336994417, -1.73692188E-05, -0.179991916, -0.164284751, 0.450788736 , -0.009277951, -0.0120378947, 2.42979455  , 3.54        , 3           , 11          , 0.006752461 , 0.00675245235
-0.134922117, 0.08807965  , -9.78974    , 0.00186140789, 0.000854957441, -0.000290642754, -0.180126742, -0.164486989, 0.450923562 , -0.009259302, -0.0120293722, 2.42979169  , 3.55        , 3           , 12          , 0.0576220863, 0
-0.116988   , 0.0698693544, -9.804141   , -0.001258901, 0.00364960032, 0.000264285045, -0.180059329, -0.1645544  , 0.450721323 , -0.00927192 , -0.0119928531, 2.4297936   , 3.56        , 3           , 50          , 0           , 0
-0.126506791, 0.06863358  , -9.806027   , 0.002986192 , 0.00198886078, 0.000846510462, -0.180059329, -0.1645544  , 0.450721323 , -0.009242157, -0.01197289 , 2.42980218  , 3.57        , 3           , 11          , 0.006752461 , 0.00675245235
-0.09885132 , 0.10620378  , -9.8034     , 0.000156925744, 0.0028144524, -0.000578044332, -0.179991916, -0.164486989, 0.4505865   , -0.009240516, -0.0119447988, 2.429796    , 3.58        , 3           , 12          , 0.0576220863, 0
-0.105982751, 0.113075756 , -9.809301   , -0.0003802998, -0.0025390985, 0.00138883933, -0.179991916, -0.164419577, 0.450856149 , -0.009244488, -0.01197006 , 2.42980981  , 3.59        , 3           , 50          , 0           , 0
-0.13819772 , 0.07821119  , -9.795681   , 0.00100979465, 1.650519E-05, -0.000295730948, -0.179991916, -0.164352164, 0.450788736 , -0.009254701, -0.0119413137, 2.429807    , 3.6         , 3           , 11          , 0.00666919  , 0.006669179
-0.1294865  , 0.0884639844, -9.788792   , -0.00069173635, 0.0014128706, -0.00030146286, -0.179991916, -0.164352164, 0.450788736 , -0.009261582, -0.0119272135, 2.429804    , 3.61        , 3           , 12          , 0.058660008 , 0
-0.143987253, 0.08550021  , -9.796147   , -0.002100341, 0.000558622531, -0.00143949932, -0.180059329, -0.164486989, 0.4506539   , -0.009282413, -0.0119217606, 2.42978978  , 3.62        , 3           , 50          , 0           , 0
-0.111699685, 0.0901459455, -9.81396    , 0.000730482046, -0.0005485336, 0.000267159 , -0.179991916, -0.164352164, 0.450923562 , -0.00927514 , -0.0119272228, 2.42979264  , 3.63        , 3           , 11          , 0.00666919  , 0.006669179
-0.122305669, 0.0802929848, -9.799166   , 0.00270468183, 2.7966571E-05, 0.0002772454, -0.179789677, -0.164352164, 0.450721323 , -0.009248126, -0.0119269174, 2.4297955   , 3.64        , 3           , 12          , 0.058660008 , 0
-0.122624509, 0.09513641  , -9.784192   , -0.000401271856, -0.000274611346, -0.0008678246, -0.179789677, -0.164352164, 0.450721323 , -0.009252036, -0.0119297439, 2.42978644  , 3.65        , 3           , 50          , 0           , 0
-0.13196753 , 0.104755484 , -9.79416752 , 0.0004290287, 0.00339147  , 0.0011195296, -0.179789677, -0.1645544  , 0.4505865   , -0.009247875, -0.0118957264, 2.42979741  , 3.66        , 3           , 11          , 0.00666919  , 0.006669179
-0.130754963, 0.08899912  , -9.809138   , -0.00152876927, -0.0005638125, 0.000539161 , -0.180059329, -0.164352164, 0.4506539   , -0.009263228, -0.0119013153, 2.42980313  , 3.67        , 3           , 12          , 0.058660008 , 0
-0.130134389, 0.07670611  , -9.778903   , 0.002973658 , 0.0028455297, 0.00113051408, -0.180059329, -0.164419577, 0.450721323 , -0.009233622, -0.0118727572, 2.42981362  , 3.68        , 3           , 50          , 0           , 0
-0.127111316, 0.0952228159, -9.79417    , -0.00125257112, 0.000564354763, -0.000587936, -0.179991916, -0.1645544  , 0.4506539   , -0.009246078, -0.0118671665, 2.429808    , 3.69        , 3           , 11          , 0.00666919  , 0.006669179
-0.115807168, 0.0968627855, -9.784586   , -0.0003968131, -0.0005966967, -0.0005861345, -0.179991916, -0.1645544  , 0.4506539   , -0.009242836, -0.0119728027, 2.42980218  , 3.7         , 3           , 12          , 0.05970491  , 0
-0.118480638, 0.09737606  , -9.793643   , -0.00097314507, 0.00165200257, -0.00115037186, -0.179991916, -0.164284751, 0.4506539   , -0.009252428, -0.0119563872, 2.42979074  , 3.71        , 3           , 50          , 0           , 0
-0.110607177, 0.108587153 , -9.800316   , 0.00214895839, -0.00114263152, 0.00140261231, -0.180126742, -0.164486989, 0.450856149 , -0.009231109, -0.0119676841, 2.42980456  , 3.72        , 3           , 11          , 0.006587861 , 0.00658785226
-0.110190921, 0.10453508  , -9.804398   , 0.00158148  , -0.000583320565, 0.00168338383, -0.180126742, -0.164284751, 0.4505865   , -0.009215496, -0.0119733615, 2.42982125  , 3.73        , 3           , 12          , 0.05970491  , 0
-0.148980409, 0.08376316  , -9.798903   , 0.00157287833, 0.0008244971, -0.00113982125, -0.180126742, -0.164284751, 0.4505865   , -0.00919963 , -0.0119652217, 2.42980981  , 3.74        , 3           , 50          , 0           , 0
-0.149293721, 0.09593293  , -9.793884   , -0.00124720787, -3.92978545E-05, -0.00115429237, -0.180194154, -0.164352164, 0.450721323 , -0.009211963, -0.01196572 , 2.42979836  , 3.75        , 3           , 11          , 0.006587861 , 0.00658785226
-0.133189887, 0.08977983  , -9.76486    , -0.000408128253, 0.001655823 , -0.000865200534, -0.1803964  , -0.164486989, 0.450856149 , -0.009215939, -0.0119492421, 2.42978978  , 3.76        , 3           , 12          , 0.05970491  , 0
-0.120922543, 0.08609968  , -9.786476   , 0.00129036279, 0.00110415847, 0.00111959537, -0.1799245  , -0.164352164, 0.450721323 , -0.009203168, -0.011938097, 2.42980075  , 3.77        , 3           , 50          , 0           , 0
-0.133788884, 0.1061075   , -9.787396   , -0.00238659885, 0.00220558979, 0.00138674851, -0.1799245  , -0.164352164, 0.450721323 , -0.009227198, -0.0119159156, 2.42981458  , 3.78        , 3           , 11          , 0.006587861 , 0.00658785226
-0.118155167, 0.09414314  , -9.77286148 , 0.000160165975, 0.00109651615, 0.0002667152, -0.180059329, -0.164689228, 0.4506539   , -0.009225626, -0.011904926, 2.429817    , 3.79        , 3           , 12          , 0.05970491  , 0
-0.118692614, 0.08292108  , -9.78828049 , 0.0009813695, 0.002749683 , -0.000574548554, -0.180261567, -0.164419577, 0.450721323 , -0.00925927 , -0.0119835176, 2.42981172  , 3.8         , 3           , 50          , 0           , 0
-0.112886451, 0.105476834 , -9.806674   , 0.00238743867, 0.003885491 , -0.00141384068, -0.179789677, -0.164689228, 0.450721323 , -0.009235221, -0.011944795, 2.429797    , 3.81        , 3           , 11          , 0.00650828937, 0.00650828145
-0.0980312  , 0.09898228  , -9.805683   , 0.006335675 , 0.00503849  , -0.00167620555, -0.179789677, -0.164689228, 0.450721323 , -0.00917166 , -0.011894566, 2.42977929  , 3.82        , 3           , 12          , 0.0607561842, 0
-0.127020672, 0.09931342  , -9.803192   , 0.00212787976, -0.000339886057, 0.00196878286, -0.180059329, -0.164486989, 0.4505865   , -0.009150616, -0.0118977847, 2.42979932  , 3.83        , 3           , 50          , 0           , 0
-0.124243751, 0.06994533  , -9.801484   , -0.000971920148, -0.00205029314, -0.000591143966, -0.1799245  , -0.164352164, 0.4505865   , -0.009160267, -0.0119183389, 2.4297936   , 3.84        , 3           , 11          , 0.00650828937, 0.00650828145
-0.109134875, 0.0864201859, -9.788645   , 0.00212386064, 0.000504809956, 0.00225262227, -0.1799245  , -0.164486989, 0.450451672 , -0.009139297, -0.0119130854, 2.429816    , 3.85        , 3           , 12          , 0.0607561842, 0
-0.104211971, 0.08899301  , -9.765997   , -0.0007085199, 0.00189353013, 0.000263860216, -0.1799245  , -0.164486989, 0.450451672 , -0.00914641 , -0.0118941264, 2.42981839  , 3.86        , 3           , 50          , 0           , 0
-0.106034055, 0.07918572  , -9.794979   , 0.0009984238, -0.000629096467, -1.46808079E-05, -0.179991916, -0.164756641, 0.450451672 , -0.009136427, -0.0119004175, 2.42981839  , 3.87        , 3           , 11          , 0.00650828937, 0.00650828145
-0.103506446, 0.0954414   , -9.807096   , -0.00239701523, 0.0007558124, 0.0011018354, -0.180059329, -0.164217338, 0.450721323 , -0.009160527, -0.0118927592, 2.42982936  , 3.88        , 3           , 12          , 0.0607561842, 0
-0.121101111, 0.101503104 , -9.804042   , -0.000127101346, -0.0014814313, -2.12503455E-05, -0.180059329, -0.164419577, 0.4505865   , -0.009161797, -0.0119075738, 2.42982936  , 3.89        , 3           , 50          , 0           , 0
-0.136203781, 0.0935139358, -9.791082   , -0.000420911849, -0.0006309619, 0.0008264473, -0.180059329, -0.164419577, 0.4505865   , -0.009186083, -0.0118938545, 2.42983747  , 3.9         , 3           , 11          , 0.00643093372, 0.00643092673
-0.112919942, 0.108127825 , -9.78994    , 0.000715854345, -0.00231271866, -0.00143118831, -0.1799245  , -0.164419577, 0.450519085 , -0.009178754, -0.0119171105, 2.42982364  , 3.91        , 3           , 12          , 0.0618132725, 0
-0.119914062, 0.09420675  , -9.785531   , -0.000147501618, 0.00106033543, -0.000299781881, -0.179991916, -0.164352164, 0.450721323 , -0.009180193, -0.0119065363, 2.4298203   , 3.92        , 3           , 50          , 0           , 0
-0.105886929, 0.09671259  , -9.774566   , 0.00127488  , -0.0009010681, 0.0005513775, -0.179991916, -0.164352164, 0.450721323 , -0.009167509, -0.0119154966, 2.429826    , 3.93        , 3           , 11          , 0.00643093372, 0.00643092673
-0.109080009, 0.09003543  , -9.790438   , -0.002686718, 0.0004800148, -0.00059503963, -0.179991916, -0.164352164, 0.450721323 , -0.009194307, -0.01191075 , 2.4298203   , 3.94        , 3           , 12          , 0.0618132725, 0
-0.117378019, 0.07662077  , -9.797788   , -0.00183837 , 0.000204178068, -0.00115659775, -0.1799245  , -0.164284751, 0.450451672 , -0.009212553, -0.011908818, 2.42980886  , 3.95        , 3           , 50          , 0           , 0
-0.118467234, 0.09783326  , -9.795449   , 0.0004368681, -0.00287775579, -0.0003032231, -0.179991916, -0.164419577, 0.450519085 , -0.009208152, -0.011937621, 2.42980552  , 3.96        , 3           , 11          , 0.00643093372, 0.00643092673
-0.129863992, 0.0894230157, -9.804159   , 0.000414564 , 0.00162728538, -0.000296280137, -0.179991916, -0.164217338, 0.450721323 , -0.009203969, -0.0119213751, 2.42980218  , 3.97        , 3           , 12          , 0.0618132725, 0
-0.116260432, 0.0661436841, -9.772512   , 0.003232604 , 0.00277264253, -0.00141152507, -0.1799245  , -0.164217338, 0.450384259 , -0.009171473, -0.01189378 , 2.42978787  , 3.98        , 3           , 50          , 0           , 0
-0.129698038, 0.06954588  , -9.797912   , -0.004371684, -0.0015024012, -0.0008885163, -0.1799245  , -0.164217338, 0.450384259 , -0.009215085, -0.0119088832, 2.42977929  , 3.99        , 3           , 11          , 0.00643093372, 0.00643092673
-0.14388904 , 0.09227505  , -9.798378   , 0.00013663662, 0.004430404 , -0.00142370176, -0.1803964  , -0.164352164, 0.4505865   , -0.009162623, -0.0118930312, 2.429764    , 4           , 3           , 12          , 0.06287565  , 0
-0.116862625, 0.088271305 , -9.775589   , 0.00383499754, -0.0008945017, -0.0008497514, -0.180194154, -0.164284751, 0.4506539   , -0.009124173, -0.0119020538, 2.429756    , 4.01        , 3           , 50          , 0           , 0
-0.117809489, 0.107813746 , -9.813481   , 0.00269971439, 0.000224118921, -0.000853283331, -0.180059329, -0.164419577, 0.450519085 , -0.009097075, -0.0118998894, 2.42974734  , 4.02        , 3           , 11          , 0.006355655 , 0.006355647
-0.12361218 , 0.0950805   , -9.764313   , 0.0024219593, -0.0006224839, -8.289564E-06, -0.180059329, -0.164419577, 0.450519085 , -0.009072854, -0.0119061153, 2.42974734  , 4.03        , 3           , 12          , 0.06287565  , 0
-0.119648375, 0.0882472545, -9.758887   , 0.0021383015, -0.000342828047, 0.000273364683, -0.180059329, -0.164352164, 0.450451672 , -0.009051505, -0.0119095175, 2.4297502   , 4.04        , 3           , 50          , 0           , 0
-0.124062948, 0.0901775956, -9.780607   , 0.00101531215, -0.00147672254, 0.00224412372, -0.180126742, -0.164486989, 0.450721323 , -0.00904162 , -0.0119240815, 2.42977262  , 4.05        , 3           , 11          , 0.006355655 , 0.006355647
-0.100009143, 0.08770965  , -9.801225   , -0.0006783442, -0.00176974991, 0.00138817565, -0.179991916, -0.164486989, 0.4505865   , -0.009048572, -0.0119416537, 2.429787    , 4.06        , 3           , 12          , 0.06287565  , 0
-0.108888075, 0.100010656 , -9.80531    , -0.000963396044, -0.00120852911, 0.00167026417, -0.179991916, -0.164486989, 0.4505865   , -0.009058407, -0.0119535867, 2.42980361  , 4.07        , 3           , 50          , 0           , 0
-0.124158286, 0.07715619  , -9.799194   , -0.00068531424, -0.000361924642, 0.00139034528, -0.179991916, -0.164486989, 0.4505865   , -0.009065426, -0.0119570792, 2.42981744  , 4.08        , 3           , 11          , 0.006355655 , 0.006355647
-0.122639969, 0.08932133  , -9.799132   , 0.00298837  , -0.00090022845, 0.0002764476, -0.180194154, -0.164149925, 0.4506539   , -0.009035576, -0.0119660562, 2.4298203   , 4.09        , 3           , 12          , 0.06287565  , 0
-0.127136871, 0.0934167057, -9.793726   , 0.000162375291, -0.000925018452, 0.00167595525, -0.1799245  , -0.164352164, 0.450451672 , -0.009041111, -0.0119907381, 2.42983747  , 4.1         , 3           , 50          , 0           , 0
-0.119962767, 0.08881107  , -9.79097748 , -0.004071566, -0.00151679944, 0.00109025824, -0.1799245  , -0.164352164, 0.450451672 , -0.009081959, -0.012005805, 2.42984843  , 4.11        , 3           , 11          , 0.006283548 , 0.00628354
-0.11894498 , 0.0617381446, -9.794698   , -0.001818913, -0.000234479317, 0.0002551339, -0.180126742, -0.164419577, 0.4505865   , -0.009100179, -0.0120081268, 2.42985082  , 4.12        , 3           , 12          , 0.0639428347, 0
-0.10471376 , 0.0755681247, -9.797243   , 0.00101187278, -0.0014824213, 0.000690156769, -0.180059329, -0.164217338, 0.450519085 , -0.009090145, -0.0120228864, 2.429858    , 4.13        , 3           , 50          , 0           , 0
-0.116175517, 0.092473    , -9.819408   , -0.000399645884, -0.001632754, 0.0005420866, -0.180126742, -0.164284751, 0.4506539   , -0.009094209, -0.0120391641, 2.42986321  , 4.14        , 3           , 11          , 0.006283548 , 0.00628354
-0.14116554 , 0.09135597  , -9.802881   , -0.000825006457, -0.00135405548, -2.45298179E-05, -0.180126742, -0.164284751, 0.4506539   , -0.009102457, -0.0120527083, 2.42986321  , 4.15        , 3           , 12          , 0.0639428347, 0
-0.11827755 , 0.0721728057, -9.813633   , -0.000402144768, -0.00121040829, -0.0001636062, -0.180126742, -0.164419577, 0.450384259 , -0.00910646 , -0.0120648276, 2.42986178  , 4.16        , 3           , 50          , 0           , 0
-0.1327848  , 0.07813077  , -9.790668   , 1.93229425E-05, -0.000785196258, -0.000302248634, -0.18032898 , -0.164419577, 0.450519085 , -0.00910623 , -0.0120727057, 2.429859    , 4.17        , 3           , 11          , 0.006283548 , 0.00628354
-0.140114054, 0.06698844  , -9.806137   , 0.00071919855, 0.000486622 , -0.000155734859, -0.180261567, -0.164284751, 0.4505865   , -0.009099018, -0.0120678563, 2.42985749  , 4.18        , 3           , 12          , 0.0639428347, 0
-0.1303995  , 0.08088064  , -9.81143    , -0.0008428394, 0.00216550613, -0.000725449354, -0.180261567, -0.164284751, 0.4505865   , -0.009107358, -0.0120462691, 2.42984986  , 4.19        , 3           , 50          , 0           , 0
-0.130119324, 0.07180846  , -9.798358   , -0.0005241749, 0.000592352648, -0.00100950478, -0.18032898 , -0.164419577, 0.450384259 , -0.009031816, -0.0121146962, 2.42983937  , 4.2         , 3           , 11          , 0.00621267967, 0.006212666
-0.120462634, 0.0856538   , -9.789639   , -0.000801685557, -0.000254248938, 0.000259295135, -0.180126742, -0.164284751, 0.4505865   , -0.009039865, -0.0121172154, 2.42984223  , 4.21        , 3           , 12          , 0.0650143549, 0
-0.09456708 , 0.09434811  , -9.781721   , -0.00264168647, 0.0007188171, 0.00138240377, -0.179991916, -0.164217338, 0.4505865   , -0.009066448, -0.0121099036, 2.42985559  , 4.22        , 3           , 50          , 0           , 0
-0.124889955, 0.08802015  , -9.806838   , -0.000664735562, 0.000591400836, 0.00011998666, -0.1799245  , -0.164284751, 0.450451672 , -0.009073111, -0.0121039813, 2.42985654  , 4.23        , 3           , 11          , 0.00621267967, 0.006212666
-0.132790059, 0.0709849149, -9.812393   , 4.03081467E-05, 0.0007369568, -0.000441579, -0.1799245  , -0.164284751, 0.450451672 , -0.009072653, -0.01209665 , 2.42985225  , 4.24        , 3           , 12          , 0.0650143549, 0
-0.118596353, 0.0794282854, -9.823097   , -0.00122958934, 0.0005875809, 0.000117352785, -0.180261567, -0.164149925, 0.4506539   , -0.009084962, -0.0120907631, 2.4298532   , 4.25        , 3           , 50          , 0           , 0
-0.112472817, 0.09785184  , -9.821617   , 0.000185251251, 3.400028E-05, -1.81991491E-05, -0.179991916, -0.164486989, 0.4506539   , -0.009083108, -0.0120904259, 2.4298532   , 4.26        , 3           , 11          , 0.00621267967, 0.006212666
-0.122605525, 0.09559813  , -9.787354   , 0.000607045251, 0.000459214061, 0.00040823326, -0.180194154, -0.164352164, 0.450451672 , -0.009077087, -0.0120857973, 2.42985749  , 4.27        , 3           , 12          , 0.0650143549, 0
-0.12856032 , 0.0911481753, -9.785158   , -0.0019324976, -0.000121108184, -0.000452099368, -0.180194154, -0.164352164, 0.450451672 , -0.009096358, -0.012087049, 2.42985272  , 4.28        , 3           , 50          , 0           , 0
-0.120854162, 0.08526237  , -9.805914   , 0.000183367418, 0.000315563026, -0.0008653776, -0.180261567, -0.164284751, 0.4505865   , -0.009094419, -0.0120839719, 2.42984414  , 4.29        , 3           , 11          , 0.00621267967, 0.006212666
-0.09567469 , 0.105725996 , -9.806541   , 0.00216271821, 0.00172522455, -0.000289069023, -0.180126742, -0.164217338, 0.450451672 , -0.009046839, -0.0120999347, 2.42984128  , 4.3         , 3           , 12          , 0.066089794 , 0
-0.113401107, 0.09739773  , -9.817559   , 0.001885252 , 0.000737837341, -0.000150636, -0.180126742, -0.164621815, 0.450519085 , -0.009027967, -0.01209257 , 2.42983937  , 4.31        , 3           , 50          , 0           , 0
-0.102640748, 0.102093711 , -9.775875   , 0.00330484542, -0.0006604359, 0.0007013913, -0.180126742, -0.164621815, 0.450519085 , -0.008995005, -0.0120991105, 2.42984653  , 4.32        , 3           , 11          , 0.00614351453, 0.00614350149
-0.097245954, 0.10021323  , -9.772225   , 0.004147166 , 0.000330771465, 0.000565592141, -0.180126742, -0.164419577, 0.450316846 , -0.008953601, -0.0120957522, 2.42985225  , 4.33        , 3           , 12          , 0.066089794 , 0
-0.114396662, 0.09421098  , -9.805829   , 0.00343392836, 0.00159303506, -0.0009897036, -0.180261567, -0.164284751, 0.450519085 , -0.00891914 , -0.01207991 , 2.42984223  , 4.34        , 3           , 50          , 0           , 0
-0.124644995, 0.07668768  , -9.79242    , -0.0003759642, 0.00100412068, -0.00086708134, -0.1799245  , -0.164284751, 0.450519085 , -0.008922795, -0.0120699471, 2.42983365  , 4.35        , 3           , 11          , 0.00614351453, 0.00614350149
-0.131036878, 0.07582653  , -9.782529   , -0.0003693277, -0.000122134588, 0.000967676635, -0.1799245  , -0.164284751, 0.450519085 , -0.008926605, -0.0120710833, 2.42984319  , 4.36        , 3           , 12          , 0.066089794 , 0
-0.11839065 , 0.100573421 , -9.80538    , 0.000193679472, 0.000304034184, 0.00139476755, -0.180059329, -0.164149925, 0.450451672 , -0.008924836, -0.0120679187, 2.429857    , 4.37        , 3           , 50          , 0           , 0
-0.110865876, 0.08382827  , -9.816691   , -0.00122763438, 0.00198387075, -2.190095E-05, -0.179991916, -0.164217338, 0.450384259 , -0.008937107, -0.0120480815, 2.42985654  , 4.38        , 3           , 11          , 0.00614351453, 0.00614350149
-0.09806097 , 0.101636268 , -9.789853   , 0.00018958631, 0.000867158 , -0.000864664442, -0.180059329, -0.1645544  , 0.450384259 , -0.008935108, -0.01203949 , 2.429848    , 4.39        , 3           , 12          , 0.066089794 , 0
-0.114984885, 0.0900894254, -9.785963   , 0.000753020169, -0.0009453828, 0.000971760252, -0.180059329, -0.1645544  , 0.450384259 , -0.008961718, -0.0120081529, 2.42985749  , 4.4         , 3           , 50          , 0           , 0
-0.09328543 , 0.08891383  , -9.780378   , 0.0006103683, -0.000523987, 0.00210190262, -0.180261567, -0.164217338, 0.450451672 , -0.008955866, -0.0120132035, 2.42987847  , 4.41        , 3           , 11          , 0.00607600762, 0.006075998
-0.128534853, 0.09027611  , -9.794202   , 0.000463912438, 0.0003197482, 0.0002660524, -0.180126742, -0.164284751, 0.450519085 , -0.008951258, -0.012009983, 2.42988133  , 4.42        , 3           , 12          , 0.06716873  , 0
-0.134010285, 0.08896679  , -9.788373   , 0.00215441734, 0.001035118 , -0.0007138423, -0.180126742, -0.164419577, 0.450519085 , -0.008929628, -0.0119996956, 2.4298737   , 4.43        , 3           , 50          , 0           , 0
-0.1138808  , 0.101398386 , -9.798111   , 0.00440965  , 0.00189509289, -0.000702005, -0.180126742, -0.164419577, 0.450519085 , -0.008885446, -0.0119808074, 2.42986655  , 4.44        , 3           , 11          , 0.00607600762, 0.006075998
-0.120225191, 0.106824636 , -9.779606   , 0.003566715 , 0.00104466849, -0.0004247201, -0.180261567, -0.164486989, 0.450249434 , -0.008849726, -0.0119704  , 2.42986226  , 4.45        , 3           , 12          , 0.06716873  , 0
-0.1058048  , 0.07185766  , -9.76382    , 0.00244586077, -0.0006523594, 0.0004150209, -0.180126742, -0.164284751, 0.450721323 , -0.008825318, -0.0119768856, 2.42986655  , 4.46        , 3           , 50          , 0           , 0
-0.108042583, 0.06431748  , -9.794603   , 5.07271579E-05, -0.00179485488, 0.000260822446, -0.179789677, -0.164284751, 0.450519085 , -0.008824843, -0.0119948117, 2.429869    , 4.47        , 3           , 11          , 0.00607600762, 0.006075998
-0.12458685 , 0.08476909  , -9.780634   , 0.0006118068, -0.0009463378, 0.0009711018, -0.179789677, -0.164284751, 0.450519085 , -0.008818843, -0.0120041892, 2.429879    , 4.48        , 3           , 12          , 0.06716873  , 0
-0.12294586 , 0.06630959  , -9.798326   , -0.000104470382, 0.00116062653, 0.00139487011, -0.180194154, -0.164352164, 0.450384259 , -0.008820054, -0.0119924592, 2.42989278  , 4.49        , 3           , 50          , 0           , 0
-0.111006111, 0.07568033  , -9.808591   , -0.0030545292, -0.000406248641, -0.0005992171, -0.180126742, -0.164149925, 0.450316846 , -0.008823664, -0.0119911674, 2.429886    , 4.5         , 3           , 11          , 0.006010423 , 0.006010412
-0.09466151 , 0.07998838  , -9.804832   , -0.002058161, -0.00208895653, -0.00144482381, -0.18032898 , -0.164082512, 0.450519085 , -0.008844073, -0.0120121827, 2.42987227  , 4.51        , 3           , 12          , 0.06825079  , 0
-0.08639203 , 0.09516532  , -9.784819   , -8.0765356E-05, -0.00207558484, -0.0007292615, -0.17985709 , -0.164284751, 0.450384259 , -0.008844797, -0.0120330034, 2.42986512  , 4.52        , 3           , 50          , 0           , 0
-0.120994821, 0.07398965  , -9.80777    , 0.00133177673, -0.002066033, -1.63331842E-05, -0.17985709 , -0.164284751, 0.450384259 , -0.008831479, -0.012053662, 2.42986512  , 4.53        , 3           , 11          , 0.006010423 , 0.006010412
-0.1014843  , 0.108535275 , -9.816517   , -0.00134959491, -0.00250652712, -0.0007358387, -0.18032898 , -0.164082512, 0.450384259 , -0.008844888, -0.0120787909, 2.429858    , 4.54        , 3           , 12          , 0.06825079  , 0
-0.130240962, 0.09618501  , -9.80097    , -0.0036130657, -0.00181789673, -0.00173417036, -0.180126742, -0.1640151  , 0.450519085 , -0.008880812, -0.0120971221, 2.4298408   , 4.55        , 3           , 50          , 0           , 0
-0.122131005, 0.09471774  , -9.795489   , -0.0006597221, 0.0007362453, -0.00101009349, -0.180126742, -0.164621815, 0.450182021 , -0.008887288, -0.01208985 , 2.42983079  , 4.56        , 3           , 11          , 0.006010423 , 0.006010412
-0.105117023, 0.112140149 , -9.802519   , -0.000520807051, 0.0013003326, -0.000160954674, -0.180126742, -0.164621815, 0.450182021 , -0.008892476, -0.0120768612, 2.429829    , 4.57        , 3           , 12          , 0.06825079  , 0
-0.112079084, 0.0986913741, -9.804436   , -0.00108582387, 0.001296512 , -0.00044612604, -0.179991916, -0.164284751, 0.450384259 , -0.008903277, -0.0120639373, 2.429824    , 4.58        , 3           , 50          , 0           , 0
-0.113447   , 0.100931339 , -9.794945   , 0.00131689513, 0.000890399155, -0.000435583032, -0.180126742, -0.1640151  , 0.450451672 , -0.008890057, -0.0120550748, 2.4298203   , 4.59        , 3           , 11          , 0.006010423 , 0.006010412
-0.127172768, 0.09026318  , -9.79509449 , 0.00200912612, -0.000497432949, -1.03931279E-05, -0.1799245  , -0.164284751, 0.450316846 , -0.008935007, -0.0120130321, 2.4298203   , 4.6         , 3           , 12          , 0.06933562  , 0
-0.137717843, 0.08715481  , -9.773493   , 0.002150955 , -0.0006372609, -0.000151220374, -0.1799245  , -0.164284751, 0.450316846 , -0.00891348 , -0.0120194191, 2.42981839  , 4.61        , 3           , 50          , 0           , 0
-0.100357167, 0.10342212  , -9.776303   , 0.000306282542, 0.00118049816, 0.000125577513, -0.180059329, -0.164284751, 0.450384259 , -0.008910432, -0.0120076053, 2.42981982  , 4.62        , 3           , 11          , 0.00594679  , 0.005946775
-0.09285962 , 0.08263776  , -9.79396    , -0.002095287, 0.00130504475, -0.000309205643, -0.1803964  , -0.164217338, 0.450519085 , -0.008931346, -0.0119945835, 2.42981648  , 4.63        , 3           , 12          , 0.06933562  , 0
-0.124083824, 0.08971434  , -9.776993   , -0.000395394745, 0.000190243 , -0.0007268459, -0.179991916, -0.164217338, 0.450249434 , -0.008935213, -0.0119927442, 2.42980933  , 4.64        , 3           , 50          , 0           , 0
-0.133083776, 0.09209758  , -9.78338051 , 0.00269904314, 0.002604554 , -0.00141501508, -0.179991916, -0.164217338, 0.450249434 , -0.00890805 , -0.0119668255, 2.429795    , 4.65        , 3           , 11          , 0.00594679  , 0.005946775
-0.1168457  , 0.08337516  , -9.795496   , 0.00227228133, 0.00344638946, 0.000420804834, -0.180059329, -0.164419577, 0.450316846 , -0.008885373, -0.0119323265, 2.42979884  , 4.66        , 3           , 12          , 0.06933562  , 0
-0.124017864, 0.09066048  , -9.790096   , -0.000116052412, 0.00117763935, 0.002383902 , -0.179991916, -0.164352164, 0.450316846 , -0.008886818, -0.0119203376, 2.42982268  , 4.67        , 3           , 50          , 0           , 0
-0.120764516, 0.09560105  , -9.794571   , -0.000252260827, 5.04213131E-05, 0.00139262655, -0.180059329, -0.164284751, 0.450249434 , -0.0088895075, -0.0119197108, 2.42983651  , 4.68        , 3           , 11          , 0.00594679  , 0.005946775
-0.106619582, 0.106236689 , -9.78628349 , -0.000102312675, -0.00177879829, 0.000825389463, -0.180059329, -0.164284751, 0.450249434 , -0.008890631, -0.0119374245, 2.429845    , 4.69        , 3           , 12          , 0.06933562  , 0
-0.118789449, 0.105532333 , -9.802651   , 0.0005823828, -0.00106942223, 0.0009711545, -0.180059329, -0.164352164, 0.450182021 , -0.008941716, -0.0119458558, 2.42985463  , 4.7         , 3           , 50          , 0           , 0
-0.111179113, 0.09867623  , -9.803074   , -0.0005511358, -0.000373151, 0.000401896716, -0.180261567, -0.164149925, 0.4505865   , -0.00894727651, -0.0119495541, 2.429859    , 4.71        , 3           , 11          , 0.00588476844, 0.0058847554
-0.115540475, 0.08465522  , -9.778306   , -0.0011033176, -0.00305184186, -0.000593740668, -0.179991916, -0.164486989, 0.450182021 , -0.008958243, -0.0119801229, 2.4298532   , 4.72        , 3           , 12          , 0.07042289  , 0
-0.108238071, 0.0846170262, -9.792261   , 0.000308038 , -0.00290151 , -0.000728207757, -0.179991916, -0.164486989, 0.450182021 , -0.008955077, -0.0120092025, 2.429846    , 4.73        , 3           , 50          , 0           , 0
-0.09270488 , 0.08767298  , -9.815633   , -0.000124255341, -0.0010742  , -2.10190137E-05, -0.180194154, -0.164419577, 0.4501146   , -0.00895632 , -0.0120199453, 2.429846    , 4.74        , 3           , 11          , 0.00588476844, 0.0058847554
-0.122109175, 0.0965208262, -9.795031   , -0.000126717045, -0.0005110683, 0.000544923765, -0.180194154, -0.164149925, 0.450249434 , -0.008957652, -0.012025007, 2.42985177  , 4.75        , 3           , 12          , 0.07042289  , 0
-0.133617982, 0.08534168  , -9.785221   , 0.0005813595, -0.000928641239, 0.000406296575, -0.180059329, -0.164217338, 0.450316846 , -0.008951888, -0.0120342579, 2.42985559  , 4.76        , 3           , 50          , 0           , 0
-0.114774227, 0.11034587  , -9.772317   , 0.000861984445, -0.0006451681, -0.000298296247, -0.180059329, -0.164217338, 0.450316846 , -0.008943235, -0.0120407324, 2.42985272  , 4.77        , 3           , 11          , 0.00588476844, 0.0058847554
-0.136225283, 0.0921574757, -9.790184   , 0.00142200349, 0.0002033438, -0.0014245105, -0.179991916, -0.164284751, 0.4500472   , -0.008928843, -0.0120388279, 2.42983842  , 4.78        , 3           , 12          , 0.07042289  , 0
-0.145221382, 0.08963398  , -9.813315   , -0.000127080333, -0.0006518558, -0.00129178667, -0.1799245  , -0.164217338, 0.450249434 , -0.008929959, -0.0120454608, 2.429826    , 4.79        , 3           , 50          , 0           , 0
-0.111956209, 0.108610652 , -9.802586   , -0.001977252, -0.0006776862, -0.00017014546, -0.1799245  , -0.164284751, 0.450384259 , -0.008998353, -0.0120956143, 2.429825    , 4.8         , 3           , 11          , 0.005824554 , 0.005824541
-0.111282058, 0.09814645  , -9.77957249 , -7.278777E-06, 0.0008842945, 0.000971609552, -0.17985709 , -0.164419577, 0.450182021 , -0.008998542, -0.0120866839, 2.4298346   , 4.81        , 3           , 12          , 0.0715122744, 0
-0.110161036, 0.07963784  , -9.780997   , 0.0002800715, -0.000240058944, -0.000158959214, -0.17985709 , -0.164419577, 0.450182021 , -0.008995722, -0.0120890979, 2.4298327   , 4.82        , 3           , 50          , 0           , 0
-0.113411613, 0.0733604357, -9.781501   , -0.00183325063, -0.00123986136, -0.000170355008, -0.179991916, -0.164352164, 0.450182021 , -0.009014035, -0.0121015115, 2.42983127  , 4.83        , 3           , 11          , 0.005824554 , 0.005824541
-0.111699075, 0.09862711  , -9.786806   , -0.000425913866, -0.000244833354, -2.09828158E-05, -0.179991916, -0.164284751, 0.450316846 , -0.009018291, -0.0121039608, 2.42983079  , 4.84        , 3           , 12          , 0.0715122744, 0
-0.123891994, 0.09701138  , -9.800466   , 0.00056123035, -9.736905E-05, -0.0011463064, -0.180126742, -0.164082512, 0.450182021 , -0.009012541, -0.0121050393, 2.42981935  , 4.85        , 3           , 50          , 0           , 0
-0.11827974 , 0.114500165 , -9.787695   , -0.000424972241, -0.000385614752, 0.000402606529, -0.180126742, -0.164082512, 0.450182021 , -0.009016839, -0.01210886 , 2.42982364  , 4.86        , 3           , 11          , 0.005824554 , 0.005824541
-0.124607876, 0.114137016 , -9.791813   , 0.002113095 , 0.0004762721, 0.00112210435, -0.180059329, -0.164217338, 0.450384259 , -0.008995841, -0.0121039962, 2.4298346   , 4.87        , 3           , 12          , 0.0715122744, 0
-0.120434456, 0.115954287 , -9.809853   , 0.00337602268, 0.00203347346, 0.000565342256, -0.180194154, -0.163947687, 0.450316846 , -0.008962147, -0.0120836142, 2.42984033  , 4.88        , 3           , 50          , 0           , 0
-0.11613366 , 0.106343791 , -9.784999   , 0.00153906166, 0.00216183881, -0.000290613272, -0.1799245  , -0.164149925, 0.4501146   , -0.00894672 , -0.0120620225, 2.42983747  , 4.89        , 3           , 11          , 0.005824554 , 0.005824541
-0.106400385, 0.08774173  , -9.788618   , 0.00122196181, 0.00187699392, -0.00128097588, -0.1799245  , -0.164149925, 0.4501146   , -0.009051592, -0.01204788 , 2.429825    , 4.9         , 3           , 12          , 0.07260349  , 0
-0.107068688, 0.0959789157, -9.820229   , 0.000662024366, 0.00102848234, -1.34928541E-05, -0.1799245  , -0.164149925, 0.450249434 , -0.009044969, -0.0120375976, 2.42982459  , 4.91        , 3           , 50          , 0           , 0
-0.09904838 , 0.09176089  , -9.801653   , -0.00201143557, -0.000960618665, -0.0003115788, -0.180059329, -0.164284751, 0.450249434 , -0.009065046, -0.01204723 , 2.42982125  , 4.92        , 3           , 11          , 0.00576582039, 0.00576580549
-0.123970792, 0.09382309  , -9.79144    , -0.00158836646, -0.000957756536, -0.00129848439, -0.180126742, -0.164352164, 0.450249434 , -0.009080776, -0.0120569253, 2.42980886  , 4.93        , 3           , 12          , 0.07260349  , 0
-0.153272033, 0.10587889  , -9.785738   , 0.000106150052, -0.0008055109, -0.000160216048, -0.180126742, -0.164352164, 0.450249434 , -0.009079697, -0.0120649943, 2.429807    , 4.94        , 3           , 50          , 0           , 0
-0.126443952, 0.0780578554, -9.791072   , 0.0003888216, -0.0008035998, 0.0002649071, -0.179991916, -0.164486989, 0.450182021 , -0.009075841, -0.0120730074, 2.42980981  , 4.95        , 3           , 11          , 0.00576582039, 0.00576580549
-0.114726141, 0.107260376 , -9.794024   , 0.000533438462, -0.001506558, 0.000123212027, -0.179991916, -0.164217338, 0.450384259 , -0.009070523, -0.01208806 , 2.42981124  , 4.96        , 3           , 12          , 0.07260349  , 0
-0.125659361, 0.103317015 , -9.790961   , 0.0006795308, -0.00249108067, 0.000122351717, -0.179789677, -0.164419577, 0.450249434 , -0.009063745, -0.0121129621, 2.42981267  , 4.97        , 3           , 50          , 0           , 0
-0.126032472, 0.105172291 , -9.804516   , 0.000108077882, -0.00122785941, -0.000443404337, -0.179789677, -0.164419577, 0.450249434 , -0.009062611, -0.012125277, 2.42980838  , 4.98        , 3           , 11          , 0.00576582039, 0.00576580549
-0.123963   , 0.09427574  , -9.79189    , 0.000100003017, 0.000320746476, -0.00114736147, -0.179789677, -0.164419577, 0.450182021 , -0.009061472, -0.0121221738, 2.42979646  , 4.99        , 3           , 12          , 0.07260349  , 0
-0.116019964, 0.111345761 , -9.79673    , 7.920021E-05, -0.000109900975, -0.00128917489, -0.1799245  , -0.164149925, 0.450249434 , -0.009137498, -0.0121513931, 2.429784    , 5           , 3           , 50          , 0           , 0
-0.114913777, 0.0955032259, -9.785939   , -0.00019531486, -0.00166041753, -0.000869072333, -0.179789677, -0.164149925, 0.450249434 , -0.00913935 , -0.0121680759, 2.42977548  , 5.01        , 3           , 11          , 0.00570888957, 0.0057088756
-0.105563253, 0.07830229  , -9.802211   , -0.00133297837, 2.13349267E-05, -0.000165392863, -0.179789677, -0.164149925, 0.450249434 , -0.009152658, -0.0121678775, 2.42977357  , 5.02        , 3           , 12          , 0.0736962259, 0
-0.110633545, 0.07561001  , -9.789154   , -0.00246678619, 0.000858390762, -2.80900622E-05, -0.17985709 , -0.164352164, 0.450249434 , -0.009177321, -0.0121592972, 2.42977357  , 5.03        , 3           , 50          , 0           , 0
-0.128714457, 0.07674006  , -9.793807   , -0.001468371, -0.00110587908, 0.000256019179, -0.180126742, -0.164149925, 0.450182021 , -0.009192039, -0.0121703343, 2.42977643  , 5.04        , 3           , 11          , 0.00570888957, 0.0057088756
-0.124533951, 0.0857046545, -9.790574   , -0.000336083234, -0.00152058457, 0.00110824837, -0.180194154, -0.164217338, 0.450316846 , -0.009195535, -0.0121854357, 2.4297874   , 5.05        , 3           , 12          , 0.0736962259, 0
-0.135476232, 0.107121758 , -9.814524   , 0.0007848522, 0.000176443747, 0.00040977617, -0.180059329, -0.164284751, 0.4501146   , -0.009187737, -0.0121836346, 2.42979169  , 5.06        , 3           , 50          , 0           , 0
-0.118074618, 0.09465476  , -9.790939   , 0.0016276245, 0.00102686742, -0.000150046311, -0.180059329, -0.164284751, 0.4501146   , -0.00917144 , -0.01217338 , 2.42978978  , 5.07        , 3           , 11          , 0.00570888957, 0.0057088756
-0.126963511, 0.106054991 , -9.795479   , 0.00233705039, 0.0004685149, 0.0008412593, -0.17985709 , -0.164149925, 0.450249434 , -0.009148171, -0.012168617, 2.42979836  , 5.08        , 3           , 12          , 0.0736962259, 0
