Acc X       , Acc Y       , Acc Z       , Gyro X      , Gyro Y      , Gyro Z      , Magn X      , Magn Y      , Magn Z      , Euler X     , Euler Y     , Euler Z     , Time        , Status      , LowRate X   , LowRate Y   , LowRate Z    
-0.08417417 , 0.0857280642, -9.803824   , -0.002959449, -0.00278225983, 0.000196607609, -0.226776332, -0.135701761, 0.4505865   , -0.009073477, -0.009221129, 2.6235373   , 0           , 3           , 11          , 0.0346410163, 0.0346410163
-0.07441212 , 0.105907664 , -9.800502   , -0.00240754941, -0.000244356372, -0.0005031967, -0.22650668 , -0.135769174, 0.450519085 , -0.009097506, -0.009223618, 2.623532    , 0.01        , 3           , 12          , 0.0346410163, 0
-0.08343646 , 0.113180995 , -9.785173   , -0.0007153241, 0.000189450016, -0.000918450532, -0.22650668 , -0.136038825, 0.4505865   , -0.009104574, -0.009221807, 2.623523    , 0.02        , 3           , 50          , 0           , 0
-0.0863696039, 0.07026203  , -9.759611   , -0.000427936728, -0.0007941174, -0.0007773836, -0.22650668 , -0.136038825, 0.4505865   , -0.009108782, -0.009229819, 2.62351537  , 0.03        , 3           , 11          , 0.0346410163, 0.0346410163
-0.09611583 , 0.08394374  , -9.768668   , 0.0008490496, -0.00191178045, 7.44192657E-05, -0.2266415  , -0.135769174, 0.450451672 , -0.009100301, -0.009248929, 2.62351632  , 0.04        , 3           , 12          , 0.0346410163, 0
-0.08746085 , 0.07852872  , -9.798455   , 0.000144169084, -0.00205733557, 0.000918522361, -0.226776332, -0.135499522, 0.4505865   , -0.009098946, -0.009269418, 2.62352586  , 0.05        , 3           , 50          , 0           , 0
-0.0874544755, 0.074516736 , -9.812936   , -0.001700748, -0.000239577843, 0.0007715141, -0.226776332, -0.135634348, 0.450721323 , -0.009116025, -0.009271744, 2.62353349  , 0.06        , 3           , 11          , 0.0346410163, 0.0346410163
-0.114064343, 0.08250295  , -9.81401    , -0.00142647768, 0.00131093769, -7.239471E-05, -0.226776332, -0.135634348, 0.450721323 , -0.009130282, -0.009258641, 2.62353253  , 0.07        , 3           , 12          , 0.0346410163, 0
-0.08837536 , 0.106578022 , -9.816877   , 0.000124697224, 0.00174378988, -0.000205769436, -0.226776332, -0.135769174, 0.450451672 , -0.009129014, -0.009241222, 2.62353015  , 0.08        , 3           , 50          , 0           , 0
-0.111663178, 0.101780623 , -9.785437   , 0.0008351095, 0.0009038702, 7.87584941E-05, -0.2266415  , -0.135499522, 0.4506539   , -0.009120668, -0.009232177, 2.62353063  , 0.09        , 3           , 11          , 0.0346410163, 0.0346410163
-0.103571   , 0.09895989  , -9.779963   , 0.0007100087, -0.00233508274, 0.000214379135, -0.22650668 , -0.135566935, 0.4506539   , -0.009113591, -0.00925551 , 2.62353349  , 0.1         , 3           , 12          , 0.0346410163, 0
-0.09279521 , 0.084029    , -9.805253   , -0.0009826244, -0.002768891, -7.67107558E-05, -0.22650668 , -0.135566935, 0.4506539   , -0.009123413, -0.009283204, 2.62353253  , 0.11        , 3           , 50          , 0           , 0
-0.0775248557, 0.101973727 , -9.82721    , -0.000286233582, -0.0007931602, 7.088791E-05, -0.2265741  , -0.135432109, 0.450519085 , -0.009126282, -0.009291128, 2.62353349  , 0.12        , 3           , 11          , 0.0346410163, 0.0346410163
-0.0715100244, 0.0895851552, -9.78744    , 0.00183250161, -0.000919618644, -0.000201989518, -0.226776332, -0.135566935, 0.4506539   , -0.009107941, -0.009300342, 2.62353158  , 0.13        , 3           , 12          , 0.0346410163, 0
-0.0910236  , 0.09111731  , -9.772667   , 0.000271078869, 0.000618482532, -0.0009131896, -0.226776332, -0.135432109, 0.4505865   , -0.009105142, -0.009294241, 2.62352252  , 0.14        , 3           , 50          , 0           , 0
-0.0644164  , 0.112067528 , -9.788649   , -0.00157002686, 0.00173232937, -0.0004962078, -0.22650668 , -0.135769174, 0.450519085 , -0.009120794, -0.009276963, 2.62351727  , 0.15        , 3           , 11          , 0.0346410163, 0.0346410163
-0.07026179 , 0.114401452 , -9.791395   , -0.00340231648, 0.00101600168, -0.000505852629, -0.22650668 , -0.135769174, 0.450519085 , -0.00915477 , -0.009266849, 2.623512    , 0.16        , 3           , 12          , 0.0346410163, 0
-0.107321635, 0.08416886  , -9.796324   , -0.00227166736, 0.0008828601, -7.699573E-05, -0.2265741  , -0.135566935, 0.4506539   , -0.009177478, -0.009258028, 2.62351155  , 0.17        , 3           , 50          , 0           , 0
-0.101157725, 0.0665449   , -9.809909   , -0.0008565003, 0.000329281029, 0.00035252716, -0.226708919, -0.135432109, 0.4506539   , -0.009186077, -0.009254702, 2.623515    , 0.18        , 3           , 11          , 0.0346410163, 0.0346410163
-0.08593185 , 0.08489995  , -9.81966    , -0.00141811359, -0.000378452678, -7.499769E-05, -0.226708919, -0.135836586, 0.450721323 , -0.00920025 , -0.009258495, 2.62351441  , 0.19        , 3           , 12          , 0.0346410163, 0
-0.08898871 , 0.103775144 , -9.786611   , -0.0002922179, 0.0003330993, -0.000633720541, -0.226708919, -0.135836586, 0.450721323 , -0.009203116, -0.00925519 , 2.62350774  , 0.2         , 3           , 50          , 0           , 0
-0.08932479 , 0.0802926   , -9.779931   , -0.000573169149, 4.96245775E-05, -0.000494202832, -0.226776332, -0.135634348, 0.4505865   , -0.009208801, -0.009254739, 2.623503    , 0.21        , 3           , 11          , 0.0346699134, 0.03466991
-0.10317678 , 0.08774837  , -9.801701   , -0.00141749845, -0.0005192347, -0.000216483939, -0.226843745, -0.135432109, 0.450788736 , -0.009222956, -0.009259952, 2.62350059  , 0.22        , 3           , 12          , 0.03466876  , 0
-0.077407755, 0.0891985744, -9.786131   , -0.00269284588, 0.0003168646, -0.000644914457, -0.226708919, -0.135499522, 0.450451672 , -0.009249828, -0.00925684348, 2.62349439  , 0.23        , 3           , 50          , 0           , 0
-0.065388754, 0.07996098  , -9.764834   , -0.00113823032, 0.000186589619, 0.000350992836, -0.226708919, -0.135499522, 0.450451672 , -0.009261241, -0.009254945, 2.62349772  , 0.24        , 3           , 11          , 0.0346699134, 0.03466991
-0.100584283, 0.08359867  , -9.784523   , -0.000426216517, -0.00107567979, -0.000212742554, -0.2266415  , -0.135499522, 0.450451672 , -0.009265484, -0.009265721, 2.62349534  , 0.25        , 3           , 12          , 0.03466876  , 0
-0.122349016, 0.07713342  , -9.798728   , -0.00241004815, 0.00017799066, -0.00120888941, -0.22650668 , -0.135634348, 0.4506539   , -0.009289474, -0.009264053, 2.623484    , 0.26        , 3           , 50          , 0           , 0
-0.09524688 , 0.0772081763, -9.781344   , -0.000995252, -0.000234804524, -0.000214074622, -0.226843745, -0.135499522, 0.450451672 , -0.009299407, -0.009266421, 2.62348151  , 0.27        , 3           , 11          , 0.0346699134, 0.03466991
-0.107597135, 0.102171838 , -9.781789   , -0.000139444557, -0.00191846432, 6.980995E-05, -0.226843745, -0.135499522, 0.450451672 , -0.009300809, -0.009285597, 2.62348247  , 0.28        , 3           , 12          , 0.03466876  , 0
-0.08670406 , 0.109121569 , -9.774368   , -0.0009928349, -0.0006571507, 0.000350349379, -0.2266415  , -0.135634348, 0.450519085 , -0.00931077 , -0.009292137, 2.6234858   , 0.29        , 3           , 50          , 0           , 0
-0.08197751 , 0.08296889  , -9.796135   , -0.0007145258, 0.000317883416, -0.000353281474, -0.2266415  , -0.135701761, 0.4506539   , -0.009293794, -0.00954341 , 2.623482    , 0.3         , 3           , 11          , 0.03475341  , 0.03475341
-0.09575947 , 0.07448693  , -9.775484   , 0.0009753638, 0.00117403618, -0.00119169033, -0.2266415  , -0.135566935, 0.4505865   , -0.009283925, -0.009531778, 2.62347054  , 0.31        , 3           , 12          , 0.0347537771, 0
-0.0899916  , 0.09567261  , -9.788912   , 0.000968845969, 0.002441078 , -0.00161354407, -0.2266415  , -0.135566935, 0.4505865   , -0.009274081, -0.00950752 , 2.62345386  , 0.32        , 3           , 50          , 0           , 0
-0.09724845 , 0.0917305648, -9.798928   , 0.000403784681, 0.002578043 , -0.0007683485, -0.2266415  , -0.135566935, 0.4506539   , -0.009269969, -0.009481811, 2.62344575  , 0.33        , 3           , 11          , 0.03475341  , 0.03475341
-0.101916753, 0.0858673453, -9.78362    , 0.00196663826, 0.000899162667, 0.00121405337, -0.226708919, -0.135769174, 0.450451672 , -0.009250417, -0.009472707, 2.62345815  , 0.34        , 3           , 12          , 0.0347537771, 0
-0.08998293 , 0.09478693  , -9.793887   , 0.001833255 , -0.0006503995, 0.00149354571, -0.226776332, -0.135566935, 0.450451672 , -0.009232228, -0.009479073, 2.62347341  , 0.35        , 3           , 50          , 0           , 0
-0.0710436553, 0.09539342  , -9.772045   , -0.00155373127, -0.00123645249, 0.000346724817, -0.226776332, -0.135566935, 0.450451672 , -0.009247798, -0.009491405, 2.62347674  , 0.36        , 3           , 11          , 0.03475341  , 0.03475341
-0.08357152 , 0.101912789 , -9.788385   , -0.00170068361, -0.000111147849, 6.526461E-05, -0.22650668 , -0.135634348, 0.450519085 , -0.00926481 , -0.009492511, 2.62347722  , 0.37        , 3           , 12          , 0.0347537771, 0
-0.0884413  , 0.09804395  , -9.828214   , -0.00113000954, -0.001233587, 0.0004899688, -0.226843745, -0.1353647  , 0.4505865   , -0.009276157, -0.009504802, 2.623482    , 0.38        , 3           , 50          , 0           , 0
-0.092570886, 0.09492315  , -9.825094   , -0.0008413912, -0.00249872031, 0.000348064321, -0.2265741  , -0.135701761, 0.450721323 , -0.009284608, -0.009529755, 2.6234858   , 0.39        , 3           , 11          , 0.03475341  , 0.03475341
-0.0925959647, 0.106507935 , -9.781655   , 0.00125630375, -0.0007769637, -6.29808637E-05, -0.2265741  , -0.135701761, 0.450721323 , -0.009381598, -0.009371388, 2.62348676  , 0.4         , 3           , 12          , 0.034895204 , 0
-0.06713812 , 0.0853885   , -9.762566   , 0.00196097675, -0.0004906236, -5.925462E-05, -0.226911157, -0.135701761, 0.4505865   , -0.009361981, -0.0093763  , 2.6234858   , 0.41        , 3           , 50          , 0           , 0
-0.0839759856, 0.07926755  , -9.762267   , 0.00181971909, -0.000350792921, 0.00107045367, -0.226708919, -0.135432109, 0.4505865   , -0.009343884, -0.009379705, 2.62349629  , 0.42        , 3           , 11          , 0.0177205838, 0.0177205577
-0.09320254 , 0.08496383  , -9.813389   , 0.000541131245, 0.00118922011, 0.00106691418, -0.22650668 , -0.1353647  , 0.4506539   , -0.009338573, -0.009367715, 2.62350726  , 0.43        , 3           , 12          , 0.034895204 , 0
-0.08632746 , 0.0840589   , -9.8363905  , -0.000239087021, 0.00181748718, 0.0003579252, -0.22650668 , -0.1353647  , 0.4506539   , -0.009340994, -0.009349506, 2.6235106   , 0.44        , 3           , 50          , 0           , 0
-0.08771788 , 0.09119046  , -9.805637   , 0.00110346754, 0.00154499267, -0.000271962461, -0.226708919, -0.135432109, 0.450384259 , -0.009329934, -0.009334083, 2.62350774  , 0.45        , 3           , 11          , 0.0177205838, 0.0177205577
-0.07370299 , 0.0999353   , -9.771595   , 0.000682388956, 0.00104938936, -6.279422E-05, -0.226843745, -0.135432109, 0.4505865   , -0.009323103, -0.009323595, 2.62350678  , 0.46        , 3           , 12          , 0.034895204 , 0
-0.08859536 , 0.09390195  , -9.803824   , 0.00125115784, 0.00027890582, 7.991499E-05, -0.2265741  , -0.135566935, 0.450519085 , -0.00931059849, -0.009320801, 2.62350774  , 0.47        , 3           , 50          , 0           , 0
-0.103276424, 0.08409683  , -9.789062   , 0.00153543078, -0.000141533, -0.000343225, -0.2265741  , -0.135566935, 0.450519085 , -0.009295214, -0.009322247, 2.6235044   , 0.48        , 3           , 11          , 0.0177205838, 0.0177205577
-0.0918341  , 0.08852686  , -9.804323   , -0.00101795571, 0.002304975 , 0.000778869435, -0.226708919, -0.135566935, 0.4505865   , -0.009305463, -0.00929912552, 2.623512    , 0.49        , 3           , 12          , 0.034895204 , 0
-0.08331852 , 0.08121348  , -9.806096   , -0.00164546655, 0.00189253537, 0.0005634325, -0.226708919, -0.135634348, 0.4506539   , -0.009293168, -0.009211745, 2.62351727  , 0.5         , 3           , 50          , 0           , 0
-0.0645670444, 0.09989401  , -9.79096    , -0.00177321094, -0.0008536798, 0.000346640067, -0.2265741  , -0.135432109, 0.4506539   , -0.00931093 , -0.009220249, 2.62352061  , 0.51        , 3           , 11          , 0.013447444 , 0.013447443
-0.0909853  , 0.09248738  , -9.777634   , -0.0007896145, 6.80898E-05 , -0.000283049536, -0.2266415  , -0.135499522, 0.4505865   , -0.009318802, -0.009219594, 2.62351823  , 0.52        , 3           , 12          , 0.0350919329, 0
-0.09429162 , 0.08393307  , -9.771817   , -0.0014982248, 0.0006264462, 0.0001383321, -0.2266415  , -0.135499522, 0.4505865   , -0.009333795, -0.009213318, 2.62351918  , 0.53        , 3           , 50          , 0           , 0
-0.0734028444, 0.0926647037, -9.757611   , -0.00122791051, 0.00295126485, -0.0009162865, -0.226911157, -0.135432109, 0.4506539   , -0.009345987, -0.009183892, 2.62350965  , 0.54        , 3           , 11          , 0.013447444 , 0.013447443
-0.0766186938, 0.11803218  , -9.77561    , -0.000577286351, 0.00013991748, 0.00120136829, -0.226911157, -0.135566935, 0.450721323 , -0.00935187 , -0.009182381, 2.623522    , 0.55        , 3           , 12          , 0.0350919329, 0
-0.09737915 , 0.08894655  , -9.775889   , -0.00107064738, -0.000215385284, -0.000284800451, -0.226708919, -0.135634348, 0.450451672 , -0.00936255 , -0.009184562, 2.62351918  , 0.56        , 3           , 50          , 0           , 0
-0.09235288 , 0.09517396  , -9.766786   , -0.00192426378, 0.00111632037, 0.000207750491, -0.226708919, -0.135634348, 0.450451672 , -0.009381812, -0.009173378, 2.623521    , 0.57        , 3           , 11          , 0.013447444 , 0.013447443
-0.0862602144, 0.07704593  , -9.764553   , -0.00148852984, -0.0012741168, 0.0006298437, -0.2265741  , -0.135566935, 0.450721323 , -0.009396755, -0.009186062, 2.62352729  , 0.58        , 3           , 12          , 0.0350919329, 0
-0.08299867 , 0.102897465 , -9.814592   , -0.0014790165, -0.0032450736, 0.000202999858, -0.2266415  , -0.135499522, 0.4506539   , -0.009411569, -0.009218491, 2.62352967  , 0.59        , 3           , 50          , 0           , 0
-0.08594965 , 0.09113443  , -9.795227   , 0.00011953769, 0.000249945151, 0.000922644744, -0.226439267, -0.135566935, 0.450519085 , -0.00943657 , -0.00911163352, 2.62353921  , 0.6         , 3           , 11          , 0.0113585573, 0.0113585526
-0.07426942 , 0.08735072  , -9.78430748 , 0.000686345 , -0.000379762118, -0.00112409447, -0.226439267, -0.135566935, 0.450519085 , -0.009429605, -0.009115538, 2.62352777  , 0.61        , 3           , 12          , 0.0353426076, 0
-0.110951386, 0.08420534  , -9.794543   , 0.000680479861, 0.000887282658, -0.000415798, -0.226708919, -0.135769174, 0.450519085 , -0.00942276 , -0.009106703, 2.623524    , 0.62        , 3           , 50          , 0           , 0
-0.07094564 , 0.09681188  , -9.791473   , -0.00205733581, -0.00229894556, -0.000150982247, -0.2266415  , -0.135701761, 0.450721323 , -0.009443322, -0.009129706, 2.623522    , 0.63        , 3           , 11          , 0.0113585573, 0.0113585526
-0.0834015  , 0.0824852958, -9.781685   , -0.00214089663, 0.000234660547, -0.0008537498, -0.226776332, -0.135701761, 0.450721323 , -0.009464652, -0.00912744 , 2.623514    , 0.64        , 3           , 12          , 0.0353426076, 0
-0.09516853 , 0.07727168  , -9.800327   , 0.000670336245, 0.002787844 , -0.00168428745, -0.226776332, -0.135701761, 0.450721323 , -0.009457793, -0.009099723, 2.62349677  , 0.65        , 3           , 50          , 0           , 0
-0.07972586 , 0.0789152   , -9.806079   , -0.0005898847, 0.000667511835, -0.001269662, -0.2266415  , -0.135769174, 0.450519085 , -0.009463575, -0.009093167, 2.623484    , 0.66        , 3           , 11          , 0.0113585573, 0.0113585526
-0.08422136 , 0.0874752253, -9.786642   , -0.000862535031, -0.00123496063, -0.000638198631, -0.226843745, -0.135566935, 0.450721323 , -0.009472143, -0.009105576, 2.62347817  , 0.67        , 3           , 12          , 0.0353426076, 0
-0.08274101 , 0.09871689  , -9.780256   , -0.003681965, -0.00223953836, -0.000723521051, -0.2265741  , -0.135566935, 0.4506539   , -0.009508899, -0.00912804 , 2.62347054  , 0.68        , 3           , 50          , 0           , 0
-0.08452485 , 0.105455533 , -9.7653265  , -0.0006445049, -0.00243017846, -0.000144614663, -0.2265741  , -0.135566935, 0.4506539   , -0.009515335, -0.009152354, 2.62346959  , 0.69        , 3           , 11          , 0.0113585573, 0.0113585526
-0.09647476 , 0.0822396949, -9.79715252 , -0.00331693864, -0.0009234016, 5.73361431E-05, -0.226708919, -0.1353647  , 0.450721323 , -0.00951076951, -0.009062658, 2.62347     , 0.7         , 3           , 12          , 0.03564567  , 0
-0.107173167, 0.09589426  , -9.794918   , -3.73165676E-07, -0.0004082182, 0.000921182 , -0.226776332, -0.135432109, 0.450788736 , -0.009510856, -0.00906665251, 2.62347913  , 0.71        , 3           , 50          , 0           , 0
-0.09253855 , 0.10343001  , -9.805623   , 0.00176317792, -0.00018510985, -5.914276E-05, -0.226708919, -0.135634348, 0.450856149 , -0.00949322 , -0.009068508, 2.62347865  , 0.72        , 3           , 11          , 0.010139551 , 0.0101395529
-0.06920996 , 0.08289262  , -9.817733   , 0.00119515066, 0.000303805573, -0.001332436, -0.226708919, -0.135634348, 0.450856149 , -0.009481147, -0.009065596, 2.6234653   , 0.73        , 3           , 12          , 0.03564567  , 0
-0.08158761 , 0.081127204 , -9.786649   , 0.0009819143, 0.000654331 , -0.0007678062, -0.226708919, -0.135566935, 0.450721323 , -0.009471258, -0.00905912649, 2.62345719  , 0.74        , 3           , 50          , 0           , 0
-0.07191224 , 0.09498767  , -9.782449   , -0.00176535908, -0.0003497617, 0.00183130638, -0.2265741  , -0.135499522, 0.4505865   , -0.009489077, -0.009062452, 2.62347579  , 0.75        , 3           , 11          , 0.010139551 , 0.0101395529
-0.09293781 , 0.112852052 , -9.788412   , -0.0001399478, -0.0006907371, 0.0013438958, -0.2266415  , -0.135836586, 0.4506539   , -0.009490599, -0.00906922948, 2.62348962  , 0.76        , 3           , 12          , 0.03564567  , 0
-0.105040386, 0.08995886  , -9.78182    , 0.0002770523, 0.0005791689, 0.000712114561, -0.2266415  , -0.135836586, 0.4506539   , -0.009487892, -0.00906337 , 2.62349629  , 0.77        , 3           , 50          , 0           , 0
-0.09731054 , 0.08587769  , -9.802568   , -0.00199106778, 0.00204209913, -0.00169771106, -0.2266415  , -0.135836586, 0.4505865   , -0.009507647, -0.009043111, 2.62347913  , 0.78        , 3           , 11          , 0.010139551 , 0.0101395529
-0.0821798146, 0.10415563  , -9.78926849 , -0.0009999709, 0.001556046 , -0.00141132378, -0.226843745, -0.135432109, 0.4506539   , -0.009517518, -0.009027686, 2.62346482  , 0.79        , 3           , 12          , 0.03564567  , 0
-0.08593607 , 0.09694799  , -9.779837   , 0.00124338607, 0.00276504434, -0.000621882442, -0.226371855, -0.135499522, 0.450451672 , -0.009522566, -0.009004959, 2.623459    , 0.8         , 3           , 50          , 0           , 0
-0.0900723562, 0.08980462  , -9.78803349 , 0.00138888159, 0.00199169735, 0.0001545606, -0.226371855, -0.135499522, 0.450451672 , -0.009508688, -0.008985028, 2.62346     , 0.81        , 3           , 11          , 0.009384232 , 0.009384231
-0.06122484 , 0.111601867 , -9.795405   , -0.00022215971, -0.00055336894, 0.000778792135, -0.226776332, -0.135701761, 0.4506539   , -0.00951098 , -0.008990487, 2.62346816  , 0.82        , 3           , 12          , 0.03599938  , 0
-0.0781268  , 0.104536258 , -9.782457   , -0.000505813747, -0.00041449882, -0.00014055449, -0.226911157, -0.135432109, 0.450721323 , -0.009516027, -0.008994645, 2.62346673  , 0.83        , 3           , 50          , 0           , 0
-0.101381704, 0.09887285  , -9.761867   , -0.0012869772, 0.000495335553, -7.213154E-05, -0.226843745, -0.135634348, 0.450788736 , -0.009528888, -0.008989699, 2.62346578  , 0.84        , 3           , 11          , 0.009384232 , 0.009384231
-0.08807044 , 0.110916413 , -9.766687   , -0.00050013396, -0.0016111515, -0.0005662049, -0.226843745, -0.135634348, 0.450788736 , -0.00953384 , -0.009005864, 2.62346053  , 0.85        , 3           , 12          , 0.03599938  , 0
-0.0780850649, 0.0978748351, -9.814123   , -0.00120698311, -0.00133435859, 0.0004904521, -0.2266415  , -0.135701761, 0.450249434 , -0.009545955, -0.00901916 , 2.62346578  , 0.86        , 3           , 50          , 0           , 0
-0.0894375443, 0.101551913 , -9.794759   , 0.0003453003, -0.00118307292, -0.000137797, -0.22650668 , -0.135634348, 0.450721323 , -0.00954249 , -0.009031003, 2.62346435  , 0.87        , 3           , 11          , 0.009384232 , 0.009384231
-0.0885103643, 0.105575949 , -9.787052   , -0.00134665787, -0.00168727059, 0.000136079369, -0.226911157, -0.135634348, 0.450721323 , -0.009555972, -0.009047863, 2.62346578  , 0.88        , 3           , 12          , 0.03599938  , 0
-0.07848342 , 0.08103709  , -9.770805   , -0.0019258745, 0.000913379365, -0.0024053778, -0.226776332, -0.135836586, 0.450519085 , -0.009575012, -0.009038958, 2.623442    , 0.89        , 3           , 50          , 0           , 0
-0.06693202 , 0.0918044   , -9.792368   , -0.00294909719, -0.00256783073, -0.00142561877, -0.226776332, -0.135836586, 0.450519085 , -0.009678231, -0.009001691, 2.62342858  , 0.9         , 3           , 11          , 0.008917153 , 0.008917152
-0.07003477 , 0.08877124  , -9.818619   , -0.00202986412, -0.00256161671, 0.0009095955, -0.2266415  , -0.135634348, 0.450721323 , -0.009698613, -0.00902721751, 2.62343764  , 0.91        , 3           , 12          , 0.03640185  , 0
-0.102395535, 0.08094175  , -9.793137   , -0.0011868435, -0.00185197778, -0.000427421968, -0.226843745, -0.135499522, 0.450721323 , -0.009710443, -0.009045777, 2.62343335  , 0.92        , 3           , 50          , 0           , 0
-0.112235561, 0.08874489  , -9.79815    , 0.00169802888, 0.0001385537, -0.000834692, -0.2266415  , -0.135769174, 0.4505865   , -0.009693388, -0.009044473, 2.62342525  , 0.93        , 3           , 11          , 0.008917153 , 0.008917152
-0.09785331 , 0.0826856345, -9.790834   , 0.0009133988, 0.00182269362, -0.000129366381, -0.2266415  , -0.135769174, 0.4505865   , -0.009684241, -0.00902626 , 2.62342381  , 0.94        , 3           , 12          , 0.03640185  , 0
-0.09936197 , 0.07097468  , -9.791798   , -0.0011326794, 0.00152728171, 7.255495E-05, -0.226776332, -0.135769174, 0.450721323 , -0.009695574, -0.009010981, 2.62342477  , 0.95        , 3           , 50          , 0           , 0
-0.09590684 , 0.08411306  , -9.819288   , -0.000567392, 0.00131992507, -0.000984652, -0.226776332, -0.135634348, 0.450788736 , -0.009701157, -0.008997879, 2.62341428  , 0.96        , 3           , 11          , 0.008917153 , 0.008917152
-0.105846189, 0.0887113   , -9.810306   , -0.00190021389, -0.000167357313, 0.001408383 , -0.22650668 , -0.135836586, 0.450451672 , -0.009720285, -0.008999415, 2.62342858  , 0.97        , 3           , 12          , 0.03640185  , 0
-0.12001092 , 0.08163045  , -9.802308   , -0.00012315654, -0.00254872278, 0.00148355984, -0.22650668 , -0.135836586, 0.450451672 , -0.009721654, -0.009024757, 2.62344384  , 0.98        , 3           , 50          , 0           , 0
-0.109700523, 0.06981907  , -9.814481   , 0.000228056437, -0.002335165, 0.000143478377, -0.2265741  , -0.135499522, 0.450721323 , -0.009719387, -0.009048094, 2.62344527  , 0.99        , 3           , 11          , 0.008917153 , 0.008917152
-0.08130707 , 0.06491372  , -9.796658   , 0.0006556385, 0.0005340413, 0.00148855185, -0.226843745, -0.135432109, 0.450721323 , -0.00951289 , -0.009242898, 2.62345815  , 1           , 3           , 12          , 0.03685108  , 0
-0.0926335752, 0.09844316  , -9.798412   , -4.89049744E-05, -3.38698337E-05, -0.000705273764, -0.226843745, -0.135769174, 0.4506539   , -0.009513314, -0.009243304, 2.62345147  , 1.01        , 3           , 50          , 0           , 0
-0.08732839 , 0.121411547 , -9.8037     , -0.00139073655, -0.0001133366, -0.0018417876, -0.226843745, -0.135769174, 0.4506539   , -0.00952705 , -0.009244612, 2.62343287  , 1.02        , 3           , 11          , 0.008639951 , 0.008639949
-0.110465243, 0.0864588   , -9.795435   , 0.000376207317, -0.0001717837, 0.0006385376, -0.226708919, -0.135566935, 0.450788736 , -0.009523348, -0.00924627 , 2.623439    , 1.03        , 3           , 12          , 0.03685108  , 0
-0.08845794 , 0.07578709  , -9.784916   , 0.00170990825, 0.00124511  , -0.000836359046, -0.2266415  , -0.135566935, 0.4506539   , -0.009506171, -0.009233899, 2.62343049  , 1.04        , 3           , 50          , 0           , 0
-0.08698823 , 0.08523472  , -9.781701   , 0.00234542787, 0.00131980062, -0.000126943822, -0.226708919, -0.135432109, 0.4505865   , -0.009482702, -0.009220714, 2.62342954  , 1.05        , 3           , 11          , 0.008639951 , 0.008639949
-0.09832217 , 0.09383669  , -9.751018   , 0.000800136535, -0.0003097033, -6.604755E-05, -0.226708919, -0.135432109, 0.4505865   , -0.009474697, -0.009223818, 2.62342858  , 1.06        , 3           , 12          , 0.03685108  , 0
-0.0817816556, 0.0983035   , -9.794714   , 0.000236039254, -0.000383912557, 0.0006375537, -0.226776332, -0.135836586, 0.450519085 , -0.009472394, -0.009227595, 2.62343526  , 1.07        , 3           , 50          , 0           , 0
-0.08578539 , 0.101533584 , -9.801964   , -0.00166829512, -0.000678366749, 0.00175838033, -0.227113381, -0.135432109, 0.4506539   , -0.009489238, -0.009234212, 2.62345243  , 1.08        , 3           , 11          , 0.008639951 , 0.008639949
-0.0962592661, 0.09892928  , -9.796178   , 0.00108266727, -0.0003781857, -0.000488645339, -0.226776332, -0.135432109, 0.4506539   , -0.009478366, -0.00923804 , 2.62344766  , 1.09        , 3           , 12          , 0.03685108  , 0
-0.0877087861, 0.09342958  , -9.800656   , 0.00390744628, 0.00017278819, -0.0002630128, -0.226776332, -0.135432109, 0.4506539   , -0.009435531, -0.009273098, 2.62344527  , 1.1         , 3           , 50          , 0           , 0
-0.09737967 , 0.08314357  , -9.794444   , -0.000189648432, 0.000497049245, -0.000564103364, -0.2266415  , -0.135904   , 0.450721323 , -0.009437374, -0.009268179, 2.62344     , 1.11        , 3           , 11          , 0.008484301 , 0.008484289
-0.09190969 , 0.0795386   , -9.814756   , -0.00132456445, 0.00161567156, 6.80738958E-05, -0.226776332, -0.135499522, 0.4506539   , -0.009450625, -0.009252017, 2.62344     , 1.12        , 3           , 12          , 0.0373449847, 0
-0.0693044662, 0.08370874  , -9.791967   , 0.000925830158, 0.00346112438, 0.000152064255, -0.2266415  , -0.135634348, 0.4505865   , -0.009441378, -0.009217393, 2.62344146  , 1.13        , 3           , 50          , 0           , 0
-0.08935082 , 0.08294961  , -9.765004   , 0.00439747  , 0.00102082558, -0.000330040639, -0.2266415  , -0.135634348, 0.4505865   , -0.009397372, -0.009207217, 2.62343812  , 1.14        , 3           , 11          , 0.008484301 , 0.008484289
-0.092659764, 0.0708223656, -9.770053   , -0.00124215311, -0.0006363686, 0.00119508163, -0.2265741  , -0.135432109, 0.4506539   , -0.009409904, -0.009213467, 2.62345     , 1.15        , 3           , 12          , 0.0373449847, 0
-0.09328938 , 0.09114237  , -9.772232   , -0.00301498035, 0.0006187304, -0.00121276488, -0.226911157, -0.1353647  , 0.450788736 , -0.0094399415, -0.009207396, 2.62343812  , 1.16        , 3           , 50          , 0           , 0
-0.07692973 , 0.09055277  , -9.78793    , 0.000306241 , 7.804194E-05, -0.00133942766, -0.226371855, -0.135499522, 0.4506539   , -0.009436756, -0.009206741, 2.62342477  , 1.17        , 3           , 11          , 0.008484301 , 0.008484289
-0.0903360248, 0.07352236  , -9.775899   , 0.00178836309, 0.00036963803, 9.973076E-06, -0.226371855, -0.135499522, 0.4506539   , -0.009418873, -0.009203044, 2.62342477  , 1.18        , 3           , 12          , 0.0373449847, 0
-0.08265211 , 0.09789623  , -9.80466652 , 0.0008783652, -0.00111478334, 0.000992296 , -0.226708919, -0.135499522, 0.450451672 , -0.009410183, -0.009214098, 2.62343431  , 1.19        , 3           , 50          , 0           , 0
-0.07774103 , 0.09197883  , -9.806461   , 0.000179350784, -0.0005869503, -0.00134184619, -0.227045968, -0.135566935, 0.4505865   , -0.009315575, -0.009174175, 2.62342048  , 1.2         , 3           , 11          , 0.008403898 , 0.008403883
-0.08013059 , 0.08342297  , -9.803351   , -0.00080842746, -0.0006640247, -0.0007108546, -0.226776332, -0.135432109, 0.4506539   , -0.009323595, -0.00918088 , 2.62341332  , 1.21        , 3           , 12          , 0.03788143  , 0
-0.0872493237, 0.09744683  , -9.789335   , -0.00384827144, 0.0002305334, 0.000618451566, -0.226776332, -0.135432109, 0.4506539   , -0.009362132, -0.009178517, 2.62341952  , 1.22        , 3           , 50          , 0           , 0
-0.07379664 , 0.0815590546, -9.80783    , -0.00116587279, 0.000389460823, 0.000701813668, -0.226708919, -0.135701761, 0.450519085 , -0.009373856, -0.009174557, 2.62342668  , 1.23        , 3           , 11          , 0.008403898 , 0.008403883
-0.08907065 , 0.09121095  , -9.807003   , 3.49937181E-05, 0.0003271879, 0.00106047408, -0.226843745, -0.135432109, 0.450721323 , -0.009373603, -0.009171185, 2.62343717  , 1.24        , 3           , 12          , 0.03788143  , 0
-0.10039787 , 0.09624753  , -9.789441   , -0.001010801, -0.00242523523, 0.0005568641, -0.22650668 , -0.135566935, 0.450788736 , -0.009383764, -0.009195385, 2.623443    , 1.25        , 3           , 50          , 0           , 0
-0.09719765 , 0.102484114 , -9.776735   , 0.000960084435, -0.00142639363, -0.00155142974, -0.226911157, -0.135701761, 0.450451672 , -0.009374021, -0.009209794, 2.62342763  , 1.26        , 3           , 11          , 0.008403898 , 0.008403883
-0.0981966853, 0.08947485  , -9.79578    , -0.00165095122, -0.00165523309, -0.0009282274, -0.226911157, -0.135701761, 0.450451672 , -0.009390447, -0.009226433, 2.62341857  , 1.27        , 3           , 12          , 0.03788143  , 0
-0.09455612 , 0.09658876  , -9.777191   , -0.00258441735, 0.00143577449, -0.00135154021, -0.226708919, -0.135566935, 0.450721323 , -0.009416165, -0.009212201, 2.62340474  , 1.28        , 3           , 50          , 0           , 0
-0.0882552862, 0.0902345   , -9.788017   , 0.0006711549, 4.99170274E-05, -0.000137781069, -0.226708919, -0.135701761, 0.450788736 , -0.009409441, -0.009211715, 2.62340379  , 1.29        , 3           , 11          , 0.008403898 , 0.008403883
-0.086402   , 0.0866766   , -9.809713   , 0.000476605928, -0.00206636 , 0.0005642401, -0.226843745, -0.135566935, 0.450519085 , -0.009397503, -0.009235829, 2.62340951  , 1.3         , 3           , 12          , 0.03845825  , 0
-0.0919296741, 0.08532496  , -9.791229   , -0.000599482446, 0.00109407865, -0.00169611629, -0.226843745, -0.135566935, 0.450519085 , -0.00940334052, -0.009225048, 2.62339234  , 1.31        , 3           , 50          , 0           , 0
-0.0887235552, 0.09201267  , -9.77852249 , -0.002510023, 0.00185548852, -0.00226888736, -0.226776332, -0.1353647  , 0.4505865   , -0.00942823 , -0.009206708, 2.62336946  , 1.32        , 3           , 11          , 0.008365915 , 0.008365898
-0.0913994461, 0.09430939  , -9.781245   , -0.00136328384, -0.001445258, -0.00113856827, -0.226708919, -0.1353647  , 0.450788736 , -0.00944176 , -0.009221269, 2.623358    , 1.33        , 3           , 12          , 0.03845825  , 0
-0.0636591539, 0.09542176  , -9.805886   , -0.001225003, -0.000810780737, -0.0007837616, -0.2265741  , -0.135566935, 0.450721323 , -0.009453937, -0.00922945 , 2.62335038  , 1.34        , 3           , 50          , 0           , 0
-0.0744258  , 0.08008242  , -9.769423   , -9.205553E-05, -0.00150705455, -0.001203385, -0.2265741  , -0.135566935, 0.450721323 , -0.009454747, -0.009244633, 2.62333846  , 1.35        , 3           , 11          , 0.008365915 , 0.008365898
-0.07261508 , 0.07693635  , -9.779366   , -8.943425E-05, -0.00192939979, -0.000285789167, -0.2266415  , -0.135432109, 0.450721323 , -0.00945561752, -0.009263952, 2.623336    , 1.36        , 3           , 12          , 0.03845825  , 0
-0.07844982 , 0.0810643   , -9.778941   , -0.00150462321, -0.00130542775, -0.000150128675, -0.226776332, -0.135432109, 0.450856149 , -0.009470651, -0.00927702151, 2.62333417  , 1.37        , 3           , 50          , 0           , 0
-0.0764027759, 0.095071055 , -9.791523   , -2.96088965E-05, 0.000182814241, -0.0008472804, -0.2266415  , -0.135634348, 0.4506539   , -0.009470869, -0.009275273, 2.623326    , 1.38        , 3           , 11          , 0.008365915 , 0.008365898
-0.0942240953, 0.119621657 , -9.784325   , 0.0001816552, 0.0003954229, 1.64513949E-06, -0.2266415  , -0.135634348, 0.4506539   , -0.009469052, -0.009271319, 2.623326    , 1.39        , 3           , 12          , 0.03845825  , 0
-0.09957568 , 0.08679598  , -9.7994175  , 4.879472E-05, -0.00230511557, -7.282171E-05, -0.226708919, -0.135432109, 0.4505865   , -0.009474873, -0.009162591, 2.62332559  , 1.4         , 3           , 50          , 0           , 0
-0.102774367, 0.08770224  , -9.78949451 , -0.000169954656, -0.000898722734, -1.00548618E-06, -0.2266415  , -0.1353647  , 0.450923562 , -0.009476572, -0.009171577, 2.62332559  , 1.41        , 3           , 11          , 0.008346058 , 0.008346045
-0.0998659655, 0.099877134 , -9.797106   , -0.00193368748, -0.001192225, 6.096404E-05, -0.2266415  , -0.135499522, 0.4506539   , -0.009495918, -0.009183493, 2.62332654  , 1.42        , 3           , 12          , 0.03907328  , 0
-0.07782048 , 0.0878973156, -9.800152   , -0.00313244783, -0.00134112069, 0.00153847213, -0.2266415  , -0.135499522, 0.4506539   , -0.00952738151, -0.009196758, 2.6233418   , 1.43        , 3           , 50          , 0           , 0
-0.0833611041, 0.08162533  , -9.794343   , -0.0012386092, 0.00106507144, 0.00035026556, -0.226708919, -0.135634348, 0.4506539   , -0.009539802, -0.009186075, 2.62334514  , 1.44        , 3           , 11          , 0.008346058 , 0.008346045
-0.09276252 , 0.09298247  , -9.784425   , 0.0009512664, 0.000798307 , -0.000205037082, -0.226843745, -0.135634348, 0.450788736 , -0.009530268, -0.00917811 , 2.62334323  , 1.45        , 3           , 12          , 0.03907328  , 0
-0.08674466 , 0.104625165 , -9.778906   , -0.000464964542, 0.0014926669, -0.00127005251, -0.226708919, -0.135634348, 0.450721323 , -0.009534801, -0.009163306, 2.62333035  , 1.46        , 3           , 50          , 0           , 0
-0.09145804 , 0.09069112  , -9.778549   , -0.00109222764, -6.02359032E-05, -0.000357155572, -0.226708919, -0.135634348, 0.450721323 , -0.009545689, -0.009163942, 2.62332654  , 1.47        , 3           , 11          , 0.008346058 , 0.008346045
-0.103274547, 0.08409835  , -9.789515   , -0.0006688322, -5.737212E-05, -0.0007789863, -0.226911157, -0.1353647  , 0.450519085 , -0.009552307, -0.00916459 , 2.623319    , 1.48        , 3           , 12          , 0.03907328  , 0
-0.08991712 , 0.06545528  , -9.793556   , -0.00157925277, -0.00175297412, -0.0023398262, -0.226776332, -0.1353647  , 0.450788736 , -0.009567887, -0.009182342, 2.623296    , 1.49        , 3           , 50          , 0           , 0
-0.107357837, 0.08056872  , -9.799051   , -0.000571862, -0.000703312049, -0.00212296983, -0.2265741  , -0.135836586, 0.4506539   , -0.009463963, -0.009203935, 2.623274    , 1.5         , 3           , 11          , 0.008329784 , 0.008329771
-0.09395936 , 0.104734406 , -9.786194   , -0.00141793734, -0.0007794292, -0.000643707346, -0.2265741  , -0.135836586, 0.4506539   , -0.009478082, -0.00921179 , 2.62326741  , 1.51        , 3           , 12          , 0.0397243761, 0
-0.09405426 , 0.0948378   , -9.794823   , -0.00226035737, -0.00184102973, -0.00128499477, -0.226708919, -0.1353647  , 0.4505865   , -0.00950057 , -0.009230321, 2.623255    , 1.52        , 3           , 50          , 0           , 0
-0.08091855 , 0.09379495  , -9.798794   , 0.0003396225, 0.000851509336, 7.336212E-05, -0.226776332, -0.135229871, 0.450788736 , -0.009497178, -0.009221799, 2.62325549  , 1.53        , 3           , 11          , 0.008329784 , 0.008329771
-0.06645927 , 0.09360066  , -9.791452   , -0.00107103586, 0.000560394838, 0.000207612218, -0.2265741  , -0.135499522, 0.450788736 , -0.009507908, -0.009216175, 2.6232574   , 1.54        , 3           , 12          , 0.0397243761, 0
-0.0645971  , 0.0945134461, -9.800925   , -0.002050569, -0.00134685659, -0.000576904, -0.2265741  , -0.135499522, 0.450788736 , -0.00952836 , -0.009229699, 2.62325215  , 1.55        , 3           , 50          , 0           , 0
-0.0927903354, 0.08046212  , -9.817923   , -0.00212046015, -0.0014177236, 5.836747E-05, -0.226439267, -0.135634348, 0.450519085 , -0.009549571, -0.00924387 , 2.62325215  , 1.56        , 3           , 11          , 0.008329784 , 0.008329771
-0.1018613  , 0.08010972  , -9.815735   , -0.0012807874, 0.000207007528, 0.0007711569, -0.226911157, -0.1353647  , 0.450721323 , -0.00956245 , -0.009241726, 2.62326026  , 1.57        , 3           , 12          , 0.0397243761, 0
-0.0973606855, 0.0836053044, -9.797606   , -0.0009965921, -0.00035421754, -0.000994253, -0.2265741  , -0.135499522, 0.4505865   , -0.009572324, -0.009245363, 2.62325025  , 1.58        , 3           , 50          , 0           , 0
-0.107234105, 0.09673759  , -9.777288   , -0.00015021619, -6.692025E-05, -0.000142255914, -0.2265741  , -0.135499522, 0.4505865   , -0.00957381353, -0.009246047, 2.62324882  , 1.59        , 3           , 11          , 0.008329784 , 0.008329771
-0.1005455  , 0.115693174 , -9.801565   , -0.0010675271, -0.0007307721, 0.0009814863, -0.226843745, -0.1353647  , 0.4505865   , -0.009504518, -0.009281349, 2.62325788  , 1.6         , 3           , 12          , 0.04040944  , 0
-0.08330886 , 0.08166766  , -9.806999   , 0.00105182372, -0.0009980135, 0.000567122945, -0.226708919, -0.135499522, 0.450788736 , -0.009494051, -0.009291277, 2.6232636   , 1.61        , 3           , 50          , 0           , 0
-0.0800618157, 0.0932984054, -9.788394   , -0.00169821177, -0.00165015482, 0.00140091893, -0.2266415  , -0.135297284, 0.450721323 , -0.009511166, -0.009307643, 2.623278    , 1.62        , 3           , 11          , 0.00830911752, 0.008309106
-0.08028653 , 0.07927945  , -9.778511   , -0.00119551958, -0.003336202, 0.00154188881, -0.227045968, -0.135634348, 0.450519085 , -0.009523267, -0.009340857, 2.62329364  , 1.63        , 3           , 12          , 0.04040944  , 0
-0.08336209 , 0.0802854747, -9.798416   , -0.000218151908, -0.00128817558, -0.00021621518, -0.227045968, -0.135634348, 0.450519085 , -0.009525429, -0.009353757, 2.62329173  , 1.64        , 3           , 50          , 0           , 0
-0.08864136 , 0.0519819   , -9.816653   , 0.0009777762, -0.000435363938, -0.0005624882, -0.226708919, -0.135499522, 0.450519085 , -0.009515599, -0.009358167, 2.623286    , 1.65        , 3           , 11          , 0.00830911752, 0.008309106
-0.07670868 , 0.07205932  , -9.790716   , 0.00132316491, 0.00104523858, -0.00112363871, -0.2265741  , -0.135499522, 0.450788736 , -0.009502261, -0.00934782 , 2.623275    , 1.66        , 3           , 12          , 0.04040944  , 0
-0.08174097 , 0.105478056 , -9.781578   , 0.000188760285, 0.00209347042, -0.000209032441, -0.22650668 , -0.135566935, 0.450519085 , -0.009500353, -0.009326906, 2.62327266  , 1.67        , 3           , 50          , 0           , 0
-0.0760891  , 0.0833479   , -9.795185   , 0.00301860482, 0.0009863096, -0.000197598842, -0.22650668 , -0.135566935, 0.450519085 , -0.009470148, -0.009317062, 2.62327027  , 1.68        , 3           , 11          , 0.00830911752, 0.008309106
-0.09046006 , 0.09209442  , -9.796615   , -0.000366261, 0.0004002669, 0.00232856744, -0.226978555, -0.135162458, 0.4506539   , -0.009474028, -0.009312839, 2.623294    , 1.69        , 3           , 12          , 0.04040944  , 0
-0.118018746, 0.0996098742, -9.788658   , -0.000269023527, -7.82964344E-05, 0.000349915354, -0.226843745, -0.135566935, 0.4506539   , -0.009359536, -0.00920988247, 2.6232965   , 1.7         , 3           , 50          , 0           , 0
-0.08554526 , 0.08618006  , -9.799313   , 0.0002964084, -0.000356045435, -0.001060572, -0.2266415  , -0.135297284, 0.450519085 , -0.009356474, -0.009213544, 2.623286    , 1.71        , 3           , 11          , 0.008276431 , 0.008276421
-0.08726434 , 0.094756566 , -9.794319   , -0.00110449945, -0.00233654375, 0.00147264311, -0.2266415  , -0.135297284, 0.450519085 , -0.009367657, -0.009236771, 2.62330079  , 1.72        , 3           , 12          , 0.0411264151, 0
-0.07328562 , 0.09231335  , -9.787443   , -0.00195046014, -0.002905411, -0.00107501284, -0.226708919, -0.135634348, 0.4506539   , -0.009387065, -0.009265924, 2.6232903   , 1.73        , 3           , 50          , 0           , 0
-0.09485989 , 0.06375904  , -9.808517   , 0.00171558675, -0.00147274882, 0.00148711423, -0.226708919, -0.135769174, 0.450721323 , -0.009370048, -0.009280512, 2.62330556  , 1.74        , 3           , 11          , 0.008276431 , 0.008276421
-0.1255174  , 0.0736007243, -9.810519   , -0.00111744611, -8.403184E-05, -0.00163179764, -0.2266415  , -0.135432109, 0.450451672 , -0.00938107353, -0.009281505, 2.62328935  , 1.75        , 3           , 12          , 0.0411264151, 0
-0.108302727, 0.0854573548, -9.773727   , -0.004218076, -0.00123129948, -0.0008004072, -0.2266415  , -0.135432109, 0.450451672 , -0.00942318048, -0.009293893, 2.62328076  , 1.76        , 3           , 50          , 0           , 0
-0.07225533 , 0.06703594  , -9.788443   , 0.00028943838, 0.00105177984, -0.00105840235, -0.226776332, -0.1353647  , 0.450721323 , -0.009420185, -0.009283475, 2.62327027  , 1.77        , 3           , 11          , 0.008276431 , 0.008276421
-0.08536588 , 0.101947673 , -9.792466   , -0.0005566258, 0.00132762757, 0.00345868035, -0.226708919, -0.135229871, 0.450856149 , -0.00942607 , -0.009269874, 2.62330461  , 1.78        , 3           , 12          , 0.0411264151, 0
-0.0873675  , 0.08887042  , -9.788016   , 0.00029476246, 0.000207090125, 0.0009180581, -0.226776332, -0.135297284, 0.4505865   , -0.009423208, -0.009267715, 2.62331414  , 1.79        , 3           , 50          , 0           , 0
-0.0992375538, 0.08044885  , -9.791758   , 0.0009395885, 0.0024649296, -0.00105439755, -0.226776332, -0.135297284, 0.4505865   , -0.009296512, -0.00924126 , 2.6233027   , 1.8         , 3           , 11          , 0.008232652 , 0.008232637
-0.07435689 , 0.0850480944, -9.770306   , 0.00150952872, 0.00134248671, -0.001901112, -0.2266415  , -0.135499522, 0.450451672 , -0.00928124 , -0.009228011, 2.62328362  , 1.81        , 3           , 12          , 0.0418733172, 0
-0.09323913 , 0.09609294  , -9.768595   , 0.00264660688, 0.000223874944, 0.00121033227, -0.226843745, -0.135297284, 0.450788736 , -0.009254885, -0.009225661, 2.62329555  , 1.82        , 3           , 50          , 0           , 0
-0.07119188 , 0.08143645  , -9.780692   , 0.00123086886, 0.000777451263, -0.000208071768, -0.226776332, -0.135095045, 0.450721323 , -0.009242556, -0.009217907, 2.62329316  , 1.83        , 3           , 11          , 0.008232652 , 0.008232637
-0.0732945  , 0.08784264  , -9.7996645  , -0.000178314163, 0.000204772121, 6.701294E-05, -0.226776332, -0.135095045, 0.450721323 , -0.009244344, -0.009215852, 2.623294    , 1.84        , 3           , 12          , 0.0418733172, 0
-0.111883156, 0.08151662  , -9.796822   , -0.00103059236, 0.00104373344, -0.00134832319, -0.226708919, -0.1353647  , 0.4505865   , -0.009254526, -0.009205541, 2.62328029  , 1.85        , 3           , 50          , 0           , 0
-0.103231   , 0.0850263461, -9.797193   , 0.0006579774, 0.00246302364, 0.000356972683, -0.226911157, -0.135229871, 0.4505865   , -0.009247977, -0.009180878, 2.62328362  , 1.86        , 3           , 11          , 0.008232652 , 0.008232637
-0.0619045049, 0.08955216  , -9.810869   , -0.00159323611, 0.000758352457, 6.129613E-05, -0.226708919, -0.135229871, 0.4505865   , -0.009263914, -0.009173291, 2.62328458  , 1.87        , 3           , 12          , 0.0418733172, 0
-0.06701717 , 0.08504016  , -9.7933     , -0.000464759854, 0.00104755815, 0.000349535316, -0.226708919, -0.135229871, 0.4505865   , -0.009268593, -0.009162782, 2.62328744  , 1.88        , 3           , 50          , 0           , 0
-0.0810137  , 0.09371784  , -9.77574348 , -0.00439322833, -0.00432892237, -0.00137237122, -0.22650668 , -0.135499522, 0.450519085 , -0.009312404, -0.009206197, 2.623274    , 1.89        , 3           , 11          , 0.008232652 , 0.008232637
-0.0861018449, 0.07940601  , -9.795731   , -0.004367939, 0.00110573822, 0.00061398535, -0.226843745, -0.135297284, 0.4506539   , -0.009289388, -0.009083124, 2.62327981  , 1.9         , 3           , 12          , 0.0426482335, 0
-0.08068148 , 0.07933163  , -9.792524   , 0.002124111 , 0.001712793 , -0.001050082, -0.2265741  , -0.135701761, 0.450519085 , -0.009268051, -0.009066093, 2.62326932  , 1.91        , 3           , 50          , 0           , 0
-0.07861777 , 0.09826174  , -9.793334   , 0.000136623654, 0.00395194674, 7.432065E-05, -0.2265741  , -0.135701761, 0.450519085 , -0.009266688, -0.009026569, 2.62326932  , 1.92        , 3           , 11          , 0.008176546 , 0.00817653
-0.0957471356, 0.10611365  , -9.787557   , 0.0001626946, -0.00111621968, 0.00176173472, -0.226708919, -0.135499522, 0.450721323 , -0.009265221, -0.009037567, 2.62328744  , 1.93        , 3           , 12          , 0.0426482335, 0
-0.0565177724, 0.09703851  , -9.775091   , 0.00101113156, -0.00167362741, -0.001060557, -0.226911157, -0.135297284, 0.4506539   , -0.009255014, -0.009054401, 2.623277    , 1.94        , 3           , 50          , 0           , 0
-0.0823505148, 0.08750234  , -9.801091   , 0.00154761563, 0.0039614914, -0.00189685693, -0.226776332, -0.135499522, 0.4506539   , -0.009239364, -0.009014963, 2.62325788  , 1.95        , 3           , 11          , 0.008176546 , 0.00817653
-0.09713413 , 0.105213694 , -9.78350449 , -0.00154039334, 0.0005617102, 0.00147389935, -0.226776332, -0.135499522, 0.4506539   , -0.0092549  , -0.00900921 , 2.62327218  , 1.96        , 3           , 12          , 0.0426482335, 0
-0.0533165522, 0.097027    , -9.782751   , -0.000132352579, 0.001134384 , -0.00077894784, -0.226843745, -0.135769174, 0.4506539   , -0.009256152, -0.008997939, 2.62326455  , 1.97        , 3           , 50          , 0           , 0
-0.08441663 , 0.105543226 , -9.79154    , 0.00155261357, 0.00311680068, -0.000485471217, -0.2265741  , -0.1353647  , 0.4505865   , -0.009240581, -0.008966817, 2.62325883  , 1.98        , 3           , 11          , 0.008176546 , 0.00817653
-0.09503235 , 0.08496997  , -9.808883   , 0.00101145788, -0.001673626, -0.000495482, -0.226843745, -0.135229871, 0.450923562 , -0.009230423, -0.008983601, 2.62325454  , 1.99        , 3           , 12          , 0.0426482335, 0
-0.0604880527, 0.105205551 , -9.774635   , -0.00354578812, -0.00163323537, 4.95851564E-05, -0.2265741  , -0.135229871, 0.4505865   , -0.009318982, -0.008902711, 2.623256    , 2           , 3           , 50          , 0           , 0
-0.0879676044, 0.116355926 , -9.774347   , -0.0009983706, -0.00274230633, 5.970182E-05, -0.2265741  , -0.135229871, 0.4505865   , -0.009328974, -0.008930127, 2.623257    , 2.01        , 3           , 11          , 0.008114513 , 0.008114503
-0.0721382052, 0.106781878 , -9.800029   , -0.003527503, -0.0052935807, 0.0003264815, -0.226911157, -0.135229871, 0.450721323 , -0.009364283, -0.008983032, 2.62326074  , 2.02        , 3           , 12          , 0.04344933  , 0
-0.07273024 , 0.09997911  , -9.787859   , -0.000169212086, 0.0009237699, 6.92937756E-05, -0.2266415  , -0.1353647  , 0.450923562 , -0.00936598 , -0.008973786, 2.62326121  , 2.03        , 3           , 50          , 0           , 0
-0.0880759954, 0.103323929 , -9.789769   , 0.0006770006, 0.00121106626, 0.0006387535, -0.226776332, -0.135566935, 0.450721323 , -0.009359267, -0.008961619, 2.62326741  , 2.04        , 3           , 11          , 0.008114513 , 0.008114503
-0.07685402 , 0.09463127  , -9.793336   , -0.00128251757, -0.00246265251, -0.0005062559, -0.226776332, -0.135566935, 0.450721323 , -0.009372047, -0.008986291, 2.62326264  , 2.05        , 3           , 12          , 0.04344933  , 0
-0.0691123456, 0.09904032  , -9.789643   , 0.00152936776, 9.05336055E-05, -0.000206643686, -0.226843745, -0.135566935, 0.450721323 , -0.009356737, -0.008985404, 2.62326074  , 2.06        , 3           , 50          , 0           , 0
-0.09010165 , 0.08799548  , -9.786685   , -0.000158312032, -0.00104718038, 0.00204401859, -0.226708919, -0.135499522, 0.450788736 , -0.009358504, -0.008995684, 2.62328076  , 2.07        , 3           , 11          , 0.008114513 , 0.008114503
-0.08022925 , 0.0811112747, -9.786638   , -0.0018592648, 6.761632E-05, 0.0006251654, -0.2266415  , -0.135499522, 0.450519085 , -0.009377152, -0.008994948, 2.62328744  , 2.08        , 3           , 12          , 0.04344933  , 0
-0.07694221 , 0.06383579  , -9.760017   , 0.0009595907, 0.00121297711, 0.00092260784, -0.2266415  , -0.135499522, 0.450519085 , -0.009367638, -0.008982733, 2.6232965   , 2.09        , 3           , 50          , 0           , 0
-0.08188114 , 0.06482076  , -9.76728249 , -0.000720024458, 0.00129651232, -0.00134483317, -0.226978555, -0.135769174, 0.4505865   , -0.009351572, -0.008834544, 2.62328267  , 2.1         , 3           , 11          , 0.0080386335, 0.008038629
-0.085219875, 0.08026895  , -9.787131   , 0.00012340027, 0.002146939 , -0.0007745055, -0.2266415  , -0.135297284, 0.450721323 , -0.009350268, -0.008813149, 2.623275    , 2.11        , 3           , 12          , 0.0442748629, 0
-0.07710011 , 0.0743460953, -9.798393   , -0.00128373608, 0.00129269785, 0.0006302952, -0.226776332, -0.135566935, 0.450519085 , -0.00936316 , -0.008800164, 2.62328076  , 2.12        , 3           , 50          , 0           , 0
-0.09710042 , 0.100331165 , -9.807478   , 0.000127745443, 0.00130224461, -0.0004932699, -0.226776332, -0.135566935, 0.450519085 , -0.009361836, -0.008787187, 2.623276    , 2.13        , 3           , 11          , 0.0080386335, 0.008038629
-0.08265443 , 0.102357849 , -9.789733   , 0.000687186141, 0.00243232585, -0.000206362791, -0.2266415  , -0.135432109, 0.450519085 , -0.009354943, -0.008762885, 2.62327361  , 2.14        , 3           , 12          , 0.0442748629, 0
-0.0657509938, 0.08137871  , -9.782458   , 0.0023953612, -0.0003718668, -0.000767875463, -0.227113381, -0.135297284, 0.4506539   , -0.009330923, -0.008766674, 2.623266    , 2.15        , 3           , 50          , 0           , 0
-0.06756793 , 0.07603907  , -9.798314   , -0.000430627639, -0.000109402929, -0.00134568592, -0.226708919, -0.1353647  , 0.450788736 , -0.009335113, -0.00876789447, 2.62325263  , 2.16        , 3           , 11          , 0.0080386335, 0.008038629
-0.08247957 , 0.07936347  , -9.795702   , 0.000144058344, -0.00179496629, 0.00119718153, -0.226708919, -0.1353647  , 0.450788736 , -0.009333778, -0.00878573 , 2.62326455  , 2.17        , 3           , 12          , 0.0442748629, 0
-0.101080969, 0.08222936  , -9.778205   , 0.00126212428, 0.000465191726, 0.000358308258, -0.2266415  , -0.1353647  , 0.4506539   , -0.009321189, -0.008781045, 2.62326837  , 2.18        , 3           , 50          , 0           , 0
-0.08701121 , 0.111922987 , -9.801025   , -0.000158373965, 0.0021450324, 0.0003543272, -0.226843745, -0.135634348, 0.450856149 , -0.009322801, -0.008759565, 2.6232717   , 2.19        , 3           , 11          , 0.0080386335, 0.008038629
-0.08340429 , 0.108743563 , -9.80734    , -0.0026868952, 0.00469010137, -0.0005011909, -0.2266415  , -0.135432109, 0.450788736 , -0.009310581, -0.00867097 , 2.623266    , 2.2         , 3           , 12          , 0.0451231636, 0
-0.09851101 , 0.100304767 , -9.794833   , 0.000432924 , 0.00189545634, -0.00190373138, -0.2266415  , -0.135432109, 0.450788736 , -0.009306085, -0.00865219347, 2.62324643  , 2.21        , 3           , 50          , 0           , 0
-0.0772796  , 0.09867578  , -9.786994   , 0.000149918866, 0.00217511528, -0.0004919269, -0.226708919, -0.135432109, 0.4505865   , -0.009304541, -0.008630489, 2.62324166  , 2.22        , 3           , 11          , 0.007955874 , 0.007955867
-0.09282541 , 0.09114613  , -9.774941   , -0.0015283291, -0.00093355577, 0.00119062292, -0.226843745, -0.135566935, 0.4506539   , -0.009319928, -0.008639713, 2.62325358  , 2.23        , 3           , 12          , 0.0451231636, 0
-0.09347211 , 0.103417963 , -9.79885    , 0.00158173207, -0.00175724516, -0.000208879836, -0.226776332, -0.135566935, 0.4505865   , -0.009304093, -0.008657305, 2.62325168  , 2.24        , 3           , 50          , 0           , 0
-0.08319422 , 0.0955974   , -9.790216   , -0.00152742455, -0.00121512311, 0.000342576473, -0.226776332, -0.135566935, 0.4505865   , -0.009319398, -0.008669424, 2.623255    , 2.25        , 3           , 11          , 0.007955874 , 0.007955867
-0.08402463 , 0.1014715   , -9.789746   , 0.000733873458, -0.00148140569, 0.00120029051, -0.22650668 , -0.135432109, 0.4506539   , -0.009312165, -0.008684125, 2.62326741  , 2.26        , 3           , 12          , 0.0451231636, 0
-0.113750137, 0.111770339 , -9.796711   , 0.00129988359, -0.002040724, -0.00162331818, -0.226843745, -0.135432109, 0.450788736 , -0.009299025, -0.008704682, 2.6232512   , 2.27        , 3           , 50          , 0           , 0
-0.0857294649, 0.109166861 , -9.791083   , 0.000718301861, 0.00133423693, -0.00162074482, -0.226843745, -0.135499522, 0.450721323 , -0.009291701, -0.008691491, 2.623235    , 2.28        , 3           , 11          , 0.007955874 , 0.007955867
-0.08331855 , 0.0888014138, -9.781658   , -0.00124393008, -0.00149477948, -0.000221615235, -0.226843745, -0.135499522, 0.450721323 , -0.009304121, -0.008706458, 2.623233    , 2.29        , 3           , 12          , 0.0451231636, 0
-0.106369779, 0.09133734  , -9.784535   , 0.000640787242, 0.00270996988, -0.000488070422, -0.2265741  , -0.135701761, 0.450519085 , -0.00940732 , -0.008728838, 2.62322879  , 2.3         , 3           , 50          , 0           , 0
-0.09176074 , 0.104654908 , -9.770357   , 0.000368281675, 0.0007371049, -0.00020988741, -0.226776332, -0.135297284, 0.450788736 , -0.009403619, -0.008721488, 2.6232264   , 2.31        , 3           , 11          , 0.007867611 , 0.007867604
-0.0864377  , 0.09646737  , -9.769446   , -0.000192063686, -0.000111408648, 0.000351251627, -0.226776332, -0.1353647  , 0.450788736 , -0.00940557 , -0.008722569, 2.62323022  , 2.32        , 3           , 12          , 0.0459926575, 0
-0.0903648362, 0.10243763  , -9.786627   , -0.00160222535, -0.000684092753, -0.00106888812, -0.226776332, -0.1353647  , 0.450788736 , -0.0094215  , -0.008729509, 2.62321973  , 2.33        , 3           , 50          , 0           , 0
-0.09484331 , 0.101191759 , -9.802938   , -0.00132160785, -0.000119047763, 0.000628521433, -0.2265741  , -0.1353647  , 0.4505865   , -0.009434771, -0.008730641, 2.62322545  , 2.34        , 3           , 11          , 0.007867611 , 0.007867604
-0.101556227, 0.07195043  , -9.805823   , 0.002071207 , -0.0009408258, -0.000204589422, -0.2266415  , -0.135229871, 0.450788736 , -0.00941404048, -0.00874006748, 2.62322354  , 2.35        , 3           , 12          , 0.0459926575, 0
-0.0814583451, 0.087034516 , -9.799278   , 0.0029250423, -0.0020613512, 0.00149285037, -0.226708919, -0.135499522, 0.450788736 , -0.009384923, -0.00876054 , 2.6232388   , 2.36        , 3           , 50          , 0           , 0
-0.08113977 , 0.0820106   , -9.782574   , 0.0006598139, -0.00123194384, -0.001341758, -0.22650668 , -0.135701761, 0.4506539   , -0.009378209, -0.008772986, 2.62322545  , 2.37        , 3           , 11          , 0.007867611 , 0.007867604
-0.089223   , 0.09198019  , -9.767226   , -0.00357553526, -0.0009790167, 0.00287698372, -0.22650668 , -0.135701761, 0.4506539   , -0.0094142165, -0.008782505, 2.623254    , 2.38        , 3           , 12          , 0.0459926575, 0
-0.0800945461, 0.09952077  , -9.76034451 , -0.00272898166, -0.00125486194, -0.000792486244, -0.226776332, -0.1353647  , 0.4506539   , -0.009441438, -0.008795128, 2.62324643  , 2.39        , 3           , 50          , 0           , 0
-0.0832005739, 0.0920214653, -9.800175   , -0.00669350056, -0.000454472523, -0.0008096887, -0.226708919, -0.135432109, 0.450721323 , -0.00951848 , -0.00882786047, 2.6232388   , 2.4         , 3           , 11          , 0.0077753705, 0.007775363
-0.0888581648, 0.0762813538, -9.796216   , -0.0007681134, 0.0007118972, -0.000780297269, -0.226708919, -0.135701761, 0.450856149 , -0.009526092, -0.008820817, 2.62323117  , 2.41        , 3           , 12          , 0.0468818657, 0
-0.0930473059, 0.103389971 , -9.792067   , -0.0004751128, -0.0012571445, 0.000630669354, -0.226708919, -0.135701761, 0.450856149 , -0.009530899, -0.008833327, 2.62323737  , 2.42        , 3           , 50          , 0           , 0
-0.09608964 , 0.111564532 , -9.797029   , 0.000359873637, 0.00100110064, -0.0013396705, -0.226776332, -0.135297284, 0.450721323 , -0.009527181, -0.008823445, 2.623224    , 2.43        , 3           , 11          , 0.0077753705, 0.007775363
-0.07462299 , 0.08788277  , -9.806906   , 0.00206024828, 0.000167873019, 0.001492304 , -0.226708919, -0.1353647  , 0.450856149 , -0.009506711, -0.008821624, 2.6232388   , 2.44        , 3           , 12          , 0.0468818657, 0
-0.105599865, 0.106764905 , -9.812489   , 0.00149130123, 0.000727176957, -0.0007697618, -0.226776332, -0.1353647  , 0.450519085 , -0.00949173 , -0.008814426, 2.62323117  , 2.45        , 3           , 50          , 0           , 0
-0.113253705, 0.080183655 , -9.798194   , -0.0013227195, -0.001262876, 6.164356E-05, -0.226776332, -0.1353647  , 0.450519085 , -0.009504964, -0.008827048, 2.62323165  , 2.46        , 3           , 11          , 0.0077753705, 0.007775363
-0.0882511  , 0.08577441  , -9.803403   , -0.000751548447, -0.00266688457, -0.001068042, -0.226708919, -0.135432109, 0.4506539   , -0.009512386, -0.008853816, 2.62322164  , 2.47        , 3           , 12          , 0.0468818657, 0
-0.0664865151, 0.09714939  , -9.773359   , 9.41747858E-05, -0.00237959041, -0.00134619465, -0.226708919, -0.135229871, 0.4506539   , -0.009511327, -0.008877742, 2.62320828  , 2.48        , 3           , 50          , 0           , 0
-0.08056484 , 0.08835314  , -9.792034   , -0.00302950013, 0.00125975139, 0.0006227224, -0.2266415  , -0.135499522, 0.4506539   , -0.009541678, -0.0088650845, 2.623214    , 2.49        , 3           , 11          , 0.0077753705, 0.007775363
-0.085058   , 0.08486361  , -9.81197    , 0.0006558026, 0.000153064786, -0.000492137042, -0.2266415  , -0.135499522, 0.4506539   , -0.009520398, -0.00887233 , 2.62320924  , 2.5         , 3           , 12          , 0.0477893762, 0
-0.0901950151, 0.07765378  , -9.797124   , -0.00386244827, -0.000159063668, -0.00192632945, -0.226776332, -0.135499522, 0.450788736 , -0.009558853, -0.008874103, 2.62319016  , 2.51        , 3           , 50          , 0           , 0
-0.10311088 , 0.1038704   , -9.765928   , -0.00103490253, -0.000703091966, -0.00106641545, -0.22650668 , -0.135432109, 0.450721323 , -0.009569108, -0.0088812355, 2.62317967  , 2.52        , 3           , 11          , 0.00768145127, 0.00768144056
-0.06296649 , 0.0898824   , -9.771554   , 0.000102590508, -0.00210327329, 0.00034936986, -0.226776332, -0.135566935, 0.4506539   , -0.009568115, -0.008902234, 2.62318349  , 2.53        , 3           , 12          , 0.0477893762, 0
-0.0682990253, 0.0851180851, -9.811841   , 0.00235594  , -0.0009617357, -0.0004859712, -0.226776332, -0.135566935, 0.4506539   , -0.009544512, -0.008911897, 2.62317872  , 2.54        , 3           , 50          , 0           , 0
-0.09465197 , 0.120539874 , -9.787488   , 0.003474821 , 0.0012984263, 8.784278E-05, -0.2265741  , -0.135566935, 0.450721323 , -0.009509771, -0.008898907, 2.6231792   , 2.55        , 3           , 11          , 0.00768145127, 0.00768144056
-0.08520658 , 0.120823435 , -9.770692   , 0.00205367059, 0.00297826412, -0.00104628806, -0.226776332, -0.135229871, 0.450519085 , -0.009489137, -0.008869225, 2.62316823  , 2.56        , 3           , 12          , 0.0477893762, 0
-0.09689245 , 0.08941506  , -9.782663   , 0.00264877733, -0.00293077785, 0.000642458 , -0.226439267, -0.135566935, 0.4505865   , -0.00946271 , -0.008898471, 2.623175    , 2.57        , 3           , 50          , 0           , 0
-0.10278707 , 0.08055034  , -9.809412   , 0.0006611267, -0.000691625057, 0.00148432353, -0.226439267, -0.135566935, 0.4505865   , -0.009456231, -0.008905246, 2.62319016  , 2.58        , 3           , 11          , 0.00768145127, 0.00768144056
-0.110723257, 0.09778069  , -9.806688   , 0.001228279 , -0.00125093758, 0.0006384769, -0.226843745, -0.135499522, 0.450519085 , -0.009444007, -0.008917695, 2.62319684  , 2.59        , 3           , 12          , 0.0477893762, 0
-0.099827826, 0.07096941  , -9.788638   , 0.00147894584, 0.000397743948, -0.0007704553, -0.226776332, -0.135297284, 0.4505865   , -0.00946808 , -0.00898728 , 2.62318921  , 2.6         , 3           , 50          , 0           , 0
-0.08645063 , 0.09154704  , -9.782123   , -0.00106273242, 0.000380555 , -0.0004997701, -0.226776332, -0.1353647  , 0.450788736 , -0.009478663, -0.008983522, 2.62318444  , 2.61        , 3           , 11          , 0.00758567033, 0.007585659
-0.07392571 , 0.08100812  , -9.778002   , 0.00118413614, 0.00292992056, -0.000485329248, -0.226776332, -0.1353647  , 0.450788736 , -0.009466776, -0.00895427 , 2.6231792   , 2.62        , 3           , 12          , 0.04871388  , 0
-0.08196382 , 0.09146062  , -9.772144   , 0.000626415538, 0.00151827582, -0.00020759528, -0.226708919, -0.135634348, 0.4506539   , -0.009460492, -0.008939108, 2.62317681  , 2.63        , 3           , 50          , 0           , 0
-0.08909905 , 0.08806346  , -9.81018    , -0.0010620798, 0.000380558136, 0.0006303796, -0.226776332, -0.135432109, 0.4506539   , -0.009471168, -0.008935243, 2.62318349  , 2.64        , 3           , 11          , 0.00758567033, 0.007585659
-0.09653129 , 0.0839793   , -9.777711   , -0.000496899942, 0.000384379673, 0.00119808852, -0.226776332, -0.135432109, 0.450721323 , -0.009476244, -0.008931285, 2.62319541  , 2.65        , 3           , 12          , 0.04871388  , 0
-0.08756422 , 0.0748741552, -9.784912   , -0.000492139661, -0.000741884636, -0.0002163345, -0.226776332, -0.135432109, 0.450721323 , -0.009481147, -0.008938725, 2.623193    , 2.66        , 3           , 50          , 0           , 0
-0.07994103 , 0.105447747 , -9.778851   , -0.00218456518, -0.00131647778, -0.00135525386, -0.226708919, -0.135701761, 0.4506539   , -0.009502874, -0.008952018, 2.62317967  , 2.67        , 3           , 11          , 0.00758567033, 0.007585659
-0.07418732 , 0.08741724  , -9.804193   , 0.000623301254, 0.00208140444, -0.0007718024, -0.2265741  , -0.135297284, 0.450519085 , -0.00949657 , -0.008931277, 2.623172    , 2.68        , 3           , 12          , 0.04871388  , 0
-0.06968746 , 0.0873414055, -9.797379   , -0.000217335444, 0.000667847635, -0.00134299777, -0.226911157, -0.135566935, 0.450721323 , -0.009498623, -0.008924727, 2.62315822  , 2.69        , 3           , 50          , 0           , 0
-0.08554606 , 0.0550090075, -9.788594   , -0.002453497, 0.00237288023, 0.00119198288, -0.226911157, -0.135566935, 0.450721323 , -0.009469358, -0.008845606, 2.62317014  , 2.7         , 3           , 11          , 0.00748852873, 0.00748850731
-0.07880311 , 0.08963091  , -9.775744   , -0.0007425343, -0.0009944425, 0.000629602233, -0.2266415  , -0.135769174, 0.4505865   , -0.00947684 , -0.00885549 , 2.62317634  , 2.71        , 3           , 12          , 0.0496541336, 0
-0.07500933 , 0.102225155 , -9.7770195  , 0.001243307 , -0.00267046085, 0.00148382969, -0.226708919, -0.135769174, 0.4506539   , -0.009464541, -0.008882052, 2.623191    , 2.72        , 3           , 50          , 0           , 0
-0.08444835 , 0.105517514 , -9.783857   , -0.0010200378, -0.002122616, -0.000503600168, -0.226708919, -0.135634348, 0.450788736 , -0.00947469752, -0.008903325, 2.62318635  , 2.73        , 3           , 11          , 0.00748852873, 0.00748850731
-0.07855181 , 0.0992078856, -9.806437   , -0.00103471917, 0.000974603056, 0.000631322851, -0.2265741  , -0.135634348, 0.4505865   , -0.009485102, -0.00889352 , 2.623193    , 2.74        , 3           , 12          , 0.0496541336, 0
-0.0676086247, 0.0688644946, -9.811451   , 0.00291270157, 0.00212759827, -0.00104372913, -0.2265741  , -0.135634348, 0.4505865   , -0.009455879, -0.008872343, 2.623182    , 2.75        , 3           , 50          , 0           , 0
-0.0702503  , 0.0796696   , -9.795156   , 0.00122666778, 0.000426748738, -0.0007716968, -0.226843745, -0.135229871, 0.450788736 , -0.009443545, -0.00886814948, 2.62317443  , 2.76        , 3           , 11          , 0.00748852873, 0.00748850731
-0.0809298754, 0.09869563  , -9.780242   , 0.004600292 , 0.00354688382, -0.00103365781, -0.226911157, -0.135499522, 0.450721323 , -0.009397447, -0.00883278 , 2.62316346  , 2.77        , 3           , 12          , 0.0496541336, 0
-0.0436426923, 0.103744611 , -9.801179   , -0.000205234435, 0.00464068027, 0.00120598974, -0.226776332, -0.135634348, 0.4506539   , -0.009399603, -0.008786261, 2.62317538  , 2.78        , 3           , 50          , 0           , 0
-0.06679334 , 0.100397423 , -9.798659   , -0.000179890427, -0.000709061453, -0.0007800171, -0.226776332, -0.135634348, 0.4506539   , -0.00940133352, -0.008793425, 2.62316775  , 2.79        , 3           , 11          , 0.00748852873, 0.00748850731
-0.0770550743, 0.107338354 , -9.814075   , 0.0009364442, 0.001651003 , 0.000359850936, -0.226776332, -0.135566935, 0.450788736 , -0.009397342, -0.008591809, 2.623171    , 2.8         , 3           , 12          , 0.0506089665, 0
-0.09043804 , 0.09925388  , -9.778956   , 0.00291933445, 0.000538114051, 0.00093240873, -0.226708919, -0.135432109, 0.450923562 , -0.009368228, -0.008586339, 2.62318063  , 2.81        , 3           , 50          , 0           , 0
-0.105383217, 0.09496313  , -9.792648   , 0.002359078 , -0.0005919709, -0.0007671855, -0.226708919, -0.135634348, 0.450721323 , -0.00934457 , -0.008592333, 2.623173    , 2.82        , 3           , 11          , 0.00739152171, 0.00739150448
-0.09791441 , 0.07817261  , -9.790401   , -0.000751636, 0.000231715443, -0.000497832545, -0.226708919, -0.135634348, 0.450721323 , -0.009352044, -0.008590059, 2.62316823  , 2.83        , 3           , 12          , 0.0506089665, 0
-0.105457827, 0.08731473  , -9.799009   , -0.000197934423, 0.002488056 , -0.0004917272, -0.226708919, -0.135432109, 0.450788736 , -0.009353979, -0.008565226, 2.62316251  , 2.84        , 3           , 50          , 0           , 0
-0.0815223  , 0.0811801255, -9.802466   , 0.001781515 , 0.00193829427, -0.00104845152, -0.226776332, -0.135566935, 0.4506539   , -0.009336074, -0.008545942, 2.623152    , 2.85        , 3           , 11          , 0.00739152171, 0.00739150448
-0.08921583 , 0.0839517   , -9.79483    , -0.00216130842, -0.000340966217, -0.00107036019, -0.226776332, -0.135701761, 0.450856149 , -0.009357595, -0.008549452, 2.62314153  , 2.86        , 3           , 12          , 0.0506089665, 0
-0.0843079239, 0.0762463361, -9.801604   , -0.00244438788, -0.000342879153, -0.002201827, -0.226776332, -0.135701761, 0.450856149 , -0.00938185 , -0.008553086, 2.62311959  , 2.87        , 3           , 50          , 0           , 0
-0.06951322 , 0.09864137  , -9.803659   , 0.0006657478, -0.0008849967, -0.00105805858, -0.2266415  , -0.1353647  , 0.450721323 , -0.009375103, -0.008562035, 2.623109    , 2.88        , 3           , 11          , 0.00739152171, 0.00739150448
-0.07559596 , 0.0900705457, -9.783402   , -0.00188027555, -5.749101E-05, -0.0010686093, -0.2266415  , -0.135769174, 0.450856149 , -0.009393815, -0.00856271 , 2.62309813  , 2.89        , 3           , 12          , 0.0506089665, 0
-0.07112635 , 0.0792578   , -9.803752   , 0.000961073 , 0.0005360746, 0.000358065357, -0.2266415  , -0.135432109, 0.450519085 , -0.009347699, -0.008535581, 2.62310147  , 2.9         , 3           , 50          , 0           , 0
-0.0778014958, 0.08835904  , -9.803312   , 0.0009491052, 0.00278859166, -0.0010511505, -0.2266415  , -0.135432109, 0.450519085 , -0.009338116, -0.008507795, 2.623091    , 2.91        , 3           , 11          , 0.00729513168, 0.00729511632
-0.08509402 , 0.08661984  , -9.7975     , -0.00102518324, 0.00249366276, 0.00119949679, -0.226776332, -0.135634348, 0.450721323 , -0.009348468, -0.008482748, 2.62310243  , 2.92        , 3           , 12          , 0.0515773   , 0
-0.07054314 , 0.09944393  , -9.770669   , 0.000675695 , 0.001097294 , 7.507877E-05, -0.2266415  , -0.135566935, 0.450788736 , -0.009341716, -0.008471768, 2.623103    , 2.93        , 3           , 50          , 0           , 0
-0.06539105 , 0.07683467  , -9.774338   , 0.00294035953, -1.36880544E-05, -0.000481196184, -0.226708919, -0.135566935, 0.4506539   , -0.009312272, -0.008471951, 2.62309813  , 2.94        , 3           , 11          , 0.00729513168, 0.00729511632
-0.0694183558, 0.0733504   , -9.797435   , -0.00270276424, -0.00117814867, -0.0007918081, -0.226708919, -0.135566935, 0.4506539   , -0.009339232, -0.008483806, 2.62309     , 2.95        , 3           , 12          , 0.0515773   , 0
-0.09144037 , 0.08936639  , -9.787142   , -0.00326827029, -0.00118197175, -0.00192459219, -0.226843745, -0.135701761, 0.450519085 , -0.009371752, -0.008495804, 2.623071    , 2.96        , 3           , 50          , 0           , 0
-0.09111297 , 0.07854705  , -9.791251   , -0.000446627062, -0.0005997411, -0.00162801717, -0.2266415  , -0.135701761, 0.450721323 , -0.009376082, -0.008501953, 2.62305474  , 2.97        , 3           , 11          , 0.00729513168, 0.00729511632
-0.09342356 , 0.078535825 , -9.779969   , -0.000736439, 0.00108774425, 6.849412E-05, -0.226708919, -0.135769174, 0.450923562 , -0.009383451, -0.008491071, 2.6230557   , 2.98        , 3           , 12          , 0.0515773   , 0
-0.0797827244, 0.08020818  , -9.787993   , -0.003004959, 0.00304342341, 0.00119114621, -0.226708919, -0.135769174, 0.450923562 , -0.009413599, -0.00846052449, 2.62306714  , 2.99        , 3           , 50          , 0           , 0
-0.0893939659, 0.102479912 , -9.802439   , 0.002429474 , 0.0005509358, 0.00121188012, -0.22650668 , -0.135566935, 0.450721323 , -0.009278762, -0.008444359, 2.62307858  , 3           , 3           , 11          , 0.00720019452, 0.00720017729
-0.09268239 , 0.09036931  , -9.812459   , 0.00242496561, 0.00139562937, 0.0006481069, -0.226708919, -0.135634348, 0.450721323 , -0.009254566, -0.008430342, 2.62308526  , 3.01        , 3           , 12          , 0.05255811  , 0
-0.09669424 , 0.09270011  , -9.820615   , -0.00293605751, 0.0002330774, -0.0002262628, -0.226776332, -0.135701761, 0.450856149 , -0.009283908, -0.008428032, 2.62308288  , 3.02        , 3           , 50          , 0           , 0
-0.100643143, 0.107133389 , -9.805217   , -0.000959233148, 0.000246446376, -0.000499581743, -0.226776332, -0.135701761, 0.450856149 , -0.009293458, -0.008425614, 2.62307763  , 3.03        , 3           , 11          , 0.00720019452, 0.00720017729
-0.0851038843, 0.0883972347, -9.789357   , 0.000160716139, 0.00222504186, -0.0004912765, -0.226776332, -0.135499522, 0.450519085 , -0.009291808, -0.008403411, 2.62307286  , 3.04        , 3           , 12          , 0.05255811  , 0
-0.0933263451, 0.08397082  , -9.786275   , 0.00129952887, 0.000261723035, -0.00161919615, -0.226776332, -0.1353647  , 0.450856149 , -0.00927867647, -0.008400945, 2.62305665  , 3.05        , 3           , 50          , 0           , 0
-0.09424029 , 0.11023517  , -9.810579   , -0.000671067159, -0.000877903134, -0.000217463079, -0.226911157, -0.135432109, 0.450923562 , -0.009285369, -0.008409743, 2.62305474  , 3.06        , 3           , 11          , 0.00720019452, 0.00720017729
-0.132471874, 0.09802375  , -9.803239   , 0.001022426 , -0.000584876747, 0.000355947181, -0.226911157, -0.135432109, 0.450923562 , -0.009275176, -0.008415558, 2.623058    , 3.07        , 3           , 12          , 0.05255811  , 0
-0.0882336944, 0.09426916  , -9.780317   , 0.00214623148, 0.000549021934, -0.000202124065, -0.2265741  , -0.135701761, 0.4505865   , -0.009253695, -0.008410087, 2.6230557   , 3.08        , 3           , 50          , 0           , 0
-0.0655405447, 0.09627879  , -9.786011   , 0.00158736855, -0.000862628163, -0.00190215278, -0.226843745, -0.135432109, 0.450856149 , -0.009237664, -0.008418889, 2.623037    , 3.09        , 3           , 11          , 0.00720019452, 0.00720017729
-0.06998159 , 0.09774134  , -9.802762   , 0.0007134213, 0.000491957762, 0.0006386597, -0.226843745, -0.135634348, 0.450788736 , -0.00927395653, -0.008511327, 2.62304425  , 3.1         , 3           , 12          , 0.0535504371, 0
-0.08140129 , 0.09109789  , -9.800164   , 0.000427553867, 0.00105317484, -0.000491939136, -0.226708919, -0.135634348, 0.450721323 , -0.009269636, -0.008500844, 2.623039    , 3.11        , 3           , 50          , 0           , 0
-0.08414038 , 0.0911116451, -9.794762   , -0.0006928848, -0.000925423, -0.00134785683, -0.226708919, -0.135634348, 0.450721323 , -0.00927645247, -0.008510222, 2.62302566  , 3.12        , 3           , 11          , 0.0071080206, 0.00710800942
-0.09200409 , 0.08303291  , -9.780392   , 0.000716372451, -7.11715547E-05, 0.0009203292, -0.226843745, -0.1353647  , 0.450721323 , -0.009269366, -0.008510848, 2.62303472  , 3.13        , 3           , 12          , 0.0535504371, 0
-0.124120548, 0.0803112239, -9.798277   , 0.00156176963, 0.000216121029, 7.710153E-05, -0.226776332, -0.135566935, 0.450721323 , -0.009253755, -0.00850867853, 2.62303567  , 3.14        , 3           , 50          , 0           , 0
-0.0998839661, 0.100755237 , -9.789871   , 0.000438290881, -0.000917776139, 0.00120024814, -0.2266415  , -0.135904   , 0.450721323 , -0.009249476, -0.008517746, 2.62304759  , 3.15        , 3           , 11          , 0.0071080206, 0.00710800942
-0.09703857 , 0.07322804  , -9.799003   , -0.0004207943, 0.00132901152, 6.96187344E-05, -0.2266415  , -0.135904   , 0.450721323 , -0.009253686, -0.008504449, 2.623048    , 3.16        , 3           , 12          , 0.0535504371, 0
-0.10952837 , 0.08334908  , -9.813068   , 0.00156209571, 0.0002161226, 0.000642176543, -0.226776332, -0.135634348, 0.450788736 , -0.00923812 , -0.008502228, 2.62305474  , 3.17        , 3           , 50          , 0           , 0
-0.0779434  , 0.08556597  , -9.777562   , 0.00267925719, 0.00275784847, 0.0006513497, -0.226978555, -0.135499522, 0.4506539   , -0.009211381, -0.008474591, 2.623061    , 3.18        , 3           , 11          , 0.0071080206, 0.00710800942
-0.07647221 , 0.08430239  , -9.809195   , 0.001558077 , 0.00106081867, 0.000926015666, -0.2266415  , -0.135566935, 0.450856149 , -0.009195878, -0.008463899, 2.62307     , 3.19        , 3           , 12          , 0.0535504371, 0
-0.09254342 , 0.071809344 , -9.795358   , -0.000393563474, -0.000687239051, 0.00147874886, -0.2266415  , -0.135566935, 0.450856149 , -0.009164663, -0.008566533, 2.62308478  , 3.2         , 3           , 50          , 0           , 0
-0.0981556252, 0.0895081162, -9.805724   , 0.00187700323, -0.00292447954, 0.00148581283, -0.226776332, -0.135499522, 0.4505865   , -0.009146023, -0.008595641, 2.6231      , 3.21        , 3           , 11          , 0.007016305 , 0.007016287
-0.09530761 , 0.100741386 , -9.801587   , 0.000731146 , 0.000165092235, 7.263092E-05, -0.2266415  , -0.135634348, 0.450721323 , -0.009138718, -0.008593984, 2.62310052  , 3.22        , 3           , 12          , 0.054553397 , 0
-0.07290852 , 0.08064159  , -9.806471   , -0.0012478882, 0.000433284382, -0.00106630346, -0.2266415  , -0.135634348, 0.4505865   , -0.009151105, -0.008589747, 2.62309     , 3.23        , 3           , 50          , 0           , 0
-0.09440887 , 0.06643039  , -9.799462   , -0.0009615315, -0.000127930252, 0.0009119078, -0.2266415  , -0.135634348, 0.4505865   , -0.009160798, -0.008590942, 2.623099    , 3.24        , 3           , 11          , 0.007016305 , 0.007016287
-0.07214243 , 0.07605444  , -9.787049   , 0.001847566 , 0.00298838643, 0.00121238793, -0.226911157, -0.135769174, 0.450788736 , -0.009142423, -0.008560949, 2.623111    , 3.25        , 3           , 12          , 0.054553397 , 0
-0.0883716941, 0.07898143  , -9.795749   , -0.00125469523, 0.00184111076, -0.000781596231, -0.226776332, -0.135634348, 0.4506539   , -0.009154901, -0.008542612, 2.623103    , 3.26        , 3           , 50          , 0           , 0
-0.09318218 , 0.09747813  , -9.778083   , 0.00156711147, 0.002423342 , -0.000202484065, -0.2266415  , -0.135769174, 0.450788736 , -0.009139213, -0.008518398, 2.62310052  , 3.27        , 3           , 11          , 0.007016305 , 0.007016287
-0.07932463 , 0.11494834  , -9.788299   , 0.000169406732, -0.00040185632, 0.000634204247, -0.2266415  , -0.135769174, 0.450788736 , -0.009137573, -0.008522359, 2.62310719  , 3.28        , 3           , 12          , 0.054553397 , 0
-0.07945337 , 0.0720685348, -9.783958   , 0.00128131825, 0.00326613151, 0.001210188 , -0.2265741  , -0.135634348, 0.450721323 , -0.00912486 , -0.008489587, 2.62311864  , 3.29        , 3           , 50          , 0           , 0
-0.072085835, 0.08458096  , -9.773454   , -0.000953551265, 0.0012654895, 0.00034876354, -0.226708919, -0.135769174, 0.450856149 , -0.009101047, -0.00850836653, 2.62312245  , 3.3         , 3           , 11          , 0.006926292 , 0.006926269
-0.07446371 , 0.06398308  , -9.81197548 , -0.00207399 , -0.00071310834, -0.0005071539, -0.2265741  , -0.135634348, 0.450788736 , -0.009121745, -0.008515544, 2.62311721  , 3.31        , 3           , 12          , 0.05556614  , 0
-0.09125385 , 0.0619179532, -9.810305   , -0.00207127631, -0.00155781035, -0.003051293, -0.2265741  , -0.135634348, 0.450788736 , -0.0091422  , -0.008531399, 2.62308717  , 3.32        , 3           , 50          , 0           , 0
-0.110458   , 0.08869641  , -9.790002   , -0.00122966059, -0.000144248945, -0.00078487274, -0.2266415  , -0.135769174, 0.450788736 , -0.009154429, -0.008532913, 2.623079    , 3.33        , 3           , 11          , 0.006926292 , 0.006926269
-0.0920982137, 0.111895263 , -9.775301   , 0.00101720775, 0.00240511633, -0.0007704319, -0.226708919, -0.135904   , 0.450990975 , -0.00914419 , -0.008508934, 2.623071    , 3.34        , 3           , 12          , 0.05556614  , 0
-0.09700456 , 0.07638005  , -9.797181   , -0.0009456767, -0.000423903315, -0.000501452247, -0.226776332, -0.135566935, 0.450856149 , -0.00915360451, -0.008513218, 2.62306619  , 3.35        , 3           , 50          , 0           , 0
-0.09272461 , 0.08363983  , -9.823786   , 0.00272324751, 0.000164057215, -0.000200926777, -0.226776332, -0.135566935, 0.450856149 , -0.009126355, -0.008511596, 2.62306428  , 3.36        , 3           , 11          , 0.006926292 , 0.006926269
-0.0986322463, 0.08503064  , -9.814333   , 0.00133776246, -0.005195228, 6.678104E-05, -0.226708919, -0.135634348, 0.450856149 , -0.009112987, -0.00856354 , 2.62306523  , 3.37        , 3           , 12          , 0.05556614  , 0
-0.100139961, 0.08224746  , -9.786786   , -0.000667594955, 0.000422701123, -0.000781371, -0.226911157, -0.135432109, 0.450990975 , -0.009119596, -0.008559383, 2.6230576   , 3.38        , 3           , 50          , 0           , 0
-0.07146102 , 0.103015393 , -9.756197   , -0.000107827931, 0.00155278365, 7.061081E-05, -0.226978555, -0.135769174, 0.450990975 , -0.009120679, -0.008543851, 2.623058    , 3.39        , 3           , 11          , 0.006926292 , 0.006926269
-0.114673987, 0.08729102  , -9.760208   , 0.0024484545, 0.0009774563, 0.000363809464, -0.226978555, -0.135769174, 0.450990975 , -0.009070337, -0.008600233, 2.62306142  , 3.4         , 3           , 12          , 0.0565878972, 0
-0.102350652, 0.08365621  , -9.795383   , 0.00160781736, -0.000436100527, -0.000207385732, -0.226708919, -0.135566935, 0.450856149 , -0.009054242, -0.008604612, 2.62305951  , 3.41        , 3           , 50          , 0           , 0
-0.09623203 , 0.09538054  , -9.814272   , 0.000747086247, 0.00237382273, 0.000640615064, -0.226843745, -0.135634348, 0.4510584   , -0.009046825, -0.008580818, 2.62306571  , 3.42        , 3           , 11          , 0.006839018 , 0.006838995
-0.114702776, 0.108618371 , -9.795375   , 0.00132088223, 0.0004066832, -0.0007724759, -0.227045968, -0.135566935, 0.450923562 , -0.009033549, -0.008576821, 2.623058    , 3.43        , 3           , 12          , 0.0565878972, 0
-0.08568961 , 0.110091843 , -9.797859   , 0.000752751133, 0.000965991057, -0.00162185449, -0.227045968, -0.135566935, 0.450923562 , -0.009025882, -0.008567308, 2.62304139  , 3.44        , 3           , 50          , 0           , 0
-0.07501181 , 0.0937424749, -9.803721   , 0.00384139782, 0.004928919 , 0.000941544247, -0.226843745, -0.135769174, 0.4505865   , -0.008987545, -0.008517937, 2.623051    , 3.45        , 3           , 11          , 0.006839018 , 0.006838995
-0.07264766 , 0.07066105  , -9.791595   , -8.625414E-05, -0.000447557977, 0.000632324954, -0.226776332, -0.135432109, 0.450923562 , -0.008988461, -0.008522355, 2.62305665  , 3.46        , 3           , 12          , 0.0565878972, 0
-0.06809594 , 0.102690309 , -9.804987   , -0.000647993467, -0.00101450668, 0.00119389815, -0.226911157, -0.135634348, 0.450856149 , -0.008995045, -0.008532394, 2.623069    , 3.47        , 3           , 50          , 0           , 0
-0.0865498558, 0.108353809 , -9.814596   , 0.00103566726, 0.000967903354, -0.0007729249, -0.2265741  , -0.135701761, 0.4505865   , -0.008984622, -0.008522783, 2.62306142  , 3.48        , 3           , 11          , 0.006839018 , 0.006838995
-0.096495606, 0.081776455 , -9.793539   , 0.00356635661, 0.003237614 , -0.000757601, -0.2265741  , -0.135701761, 0.4505865   , -0.008948891, -0.008490477, 2.62305331  , 3.49        , 3           , 12          , 0.0565878972, 0
-0.09976783 , 0.07905234  , -9.777305   , -0.00181234581, 0.0009266664, -0.0005036104, -0.226708919, -0.135701761, 0.450923562 , -0.009022446, -0.008532635, 2.62304854  , 3.5         , 3           , 50          , 0           , 0
-0.096298635, 0.09354116  , -9.80388451 , -0.000407018437, 0.00234404253, -0.000212318613, -0.2266415  , -0.135769174, 0.450856149 , -0.009026496, -0.008509214, 2.62304616  , 3.51        , 3           , 11          , 0.006752987 , 0.00675296271
-0.102525391, 0.101740837 , -9.805255   , -0.00039430926, -0.000190042425, 6.631324E-05, -0.22650668 , -0.135701761, 0.450788736 , -0.009030444, -0.008511108, 2.623047    , 3.52        , 3           , 12          , 0.0576179326, 0
-0.07587748 , 0.104944214 , -9.777467   , -0.001240522, -0.000477339025, -0.000503146264, -0.22650668 , -0.135701761, 0.450788736 , -0.009042806, -0.00851593 , 2.62304187  , 3.53        , 3           , 50          , 0           , 0
-0.06837388 , 0.0872891843, -9.786522   , 0.000450346415, 0.000378818339, 0.0003536694, -0.2265741  , -0.135769174, 0.450923562 , -0.009038331, -0.008512108, 2.62304521  , 3.54        , 3           , 11          , 0.006752987 , 0.00675296271
-0.06869161 , 0.0985626951, -9.783314   , 0.002694516 , 0.00320974318, -0.00189175562, -0.226776332, -0.135769174, 0.4510584   , -0.009011224, -0.008480184, 2.62302613  , 3.55        , 3           , 12          , 0.0576179326, 0
-0.09707102 , 0.104818486 , -9.800228   , 0.000161038333, 0.00150316232, -0.00190621149, -0.22650668 , -0.135432109, 0.450856149 , -0.009009451, -0.00846532453, 2.623007    , 3.56        , 3           , 50          , 0           , 0
-0.08610962 , 0.07895333  , -9.7952795  , -0.002381218, 0.00176754256, -0.000222405026, -0.22650668 , -0.135432109, 0.450856149 , -0.009033243, -0.008447669, 2.6230042   , 3.57        , 3           , 11          , 0.006752987 , 0.00675296271
-0.09008627 , 0.08354443  , -9.804783   , -0.00180676964, -0.000199593851, -0.000505346165, -0.2266415  , -0.135566935, 0.450788736 , -0.00905127 , -0.008449712, 2.62299943  , 3.58        , 3           , 12          , 0.0576179326, 0
-0.07481049 , 0.113991372 , -9.787817   , -0.0009459643, -0.00272794487, 0.001189924 , -0.226776332, -0.135769174, 0.4510584   , -0.009060831, -0.008476882, 2.62301183  , 3.59        , 3           , 50          , 0           , 0
-0.07701917 , 0.0855704546, -9.782075   , 0.00013766218, 0.000369427376, -0.00190783967, -0.2265741  , -0.135836586, 0.4506539   , -0.009128465, -0.00849123 , 2.62299275  , 3.6         , 3           , 11          , 0.0066704927, 0.00667046662
-0.09530009 , 0.0758260041, -9.772763   , 0.00267334958, 0.00179444649, -0.000481129973, -0.2265741  , -0.135836586, 0.4506539   , -0.00910169 , -0.00847333 , 2.622988    , 3.61        , 3           , 12          , 0.05865556  , 0
-0.071699   , 0.08362949  , -9.760347   , -0.000433835172, 0.00177343446, -0.00134322874, -0.2266415  , -0.135904   , 0.450856149 , -0.009105912, -0.00845572 , 2.62297416  , 3.62        , 3           , 50          , 0           , 0
-0.0592044964, 0.0921848342, -9.79818249 , 0.00125071581, 0.00403742027, 0.000645906548, -0.2266415  , -0.135634348, 0.4510584   , -0.009093457, -0.008415289, 2.62298036  , 3.63        , 3           , 11          , 0.0066704927, 0.00667046662
-0.09034231 , 0.0975460261, -9.807891   , -0.00268530077, 0.000350333925, 0.000339290826, -0.2266415  , -0.135634348, 0.450788736 , -0.009120339, -0.008411755, 2.62298369  , 3.64        , 3           , 12          , 0.05865556  , 0
-0.0711034238, 0.0850789249, -9.79062    , 0.000415002432, 0.0014976   , -0.00105717441, -0.2266415  , -0.135634348, 0.450788736 , -0.009116099, -0.008396875, 2.62297273  , 3.65        , 3           , 50          , 0           , 0
-0.104853481, 0.07322316  , -9.770587   , 0.00154708268, 0.0012236794, 0.0006428842, -0.2265741  , -0.135701761, 0.450788736 , -0.009100681, -0.00838458 , 2.6229794   , 3.66        , 3           , 11          , 0.0066704927, 0.00667046662
-0.111496024, 0.08101177  , -9.782357   , -0.001559034, 0.0009211009, -0.0007847232, -0.226708919, -0.135634348, 0.450923562 , -0.009116206, -0.00837544 , 2.62297177  , 3.67        , 3           , 12          , 0.05865556  , 0
-0.0949908942, 0.09571596  , -9.7844305  , 0.005777004 , 0.002660157 , 0.00151242036, -0.2266415  , -0.135499522, 0.450788736 , -0.009058559, -0.00834870152, 2.622986    , 3.68        , 3           , 50          , 0           , 0
-0.0879667  , 0.107429653 , -9.803311   , 0.00238936557, 0.00207410078, -0.000764550467, -0.2266415  , -0.135499522, 0.450788736 , -0.009034601, -0.00832803 , 2.62297845  , 3.69        , 3           , 11          , 0.0066704927, 0.00667046662
-0.0767124742, 0.10456568  , -9.796006   , -0.000146418519, -0.0013529252, 6.58304052E-05, -0.226776332, -0.135836586, 0.4505865   , -0.009063494, -0.008417903, 2.6229794   , 3.7         , 3           , 12          , 0.05970015  , 0
-0.08496899 , 0.06938762  , -9.772712   , 0.000130684246, -0.0005063254, -0.00190931314, -0.226843745, -0.135566935, 0.4511932   , -0.009062028, -0.00842314 , 2.62296033  , 3.71        , 3           , 50          , 0           , 0
-0.062296208, 0.101658411 , -9.786868   , 0.0004151577, -0.0007859774, -0.0007782801, -0.226843745, -0.136173651, 0.450923562 , -0.00905781053, -0.00843107 , 2.6229527   , 3.72        , 3           , 11          , 0.006589103 , 0.00658908673
-0.0499451533, 0.107865795 , -9.797143   , 0.00464975042, -0.00019419301, 0.000937566569, -0.226843745, -0.136173651, 0.450923562 , -0.009011392, -0.008432927, 2.62296224  , 3.73        , 3           , 12          , 0.05970015  , 0
-0.08506821 , 0.08619438  , -9.805185   , -0.00100443594, 0.000612295757, -0.00163030752, -0.2265741  , -0.135769174, 0.450788736 , -0.009021296, -0.008426951, 2.622946    , 3.74        , 3           , 50          , 0           , 0
-0.107698366, 0.0886993   , -9.800376   , -0.004101951, -0.00109810045, -0.00023470998, -0.2265741  , -0.135499522, 0.4510584   , -0.009062299, -0.008437954, 2.62294364  , 3.75        , 3           , 11          , 0.006589103 , 0.00658908673
-0.08603736 , 0.09106336  , -9.773985   , -0.000455820875, 0.003994899 , -0.0007748539, -0.2265741  , -0.135701761, 0.450990975 , -0.009066789, -0.00839807652, 2.62293553  , 3.76        , 3           , 12          , 0.05970015  , 0
-0.0644296259, 0.08177915  , -9.77205    , 0.00465574162, -0.00160202314, -0.000759827846, -0.2265741  , -0.135701761, 0.450990975 , -0.009020169, -0.008414165, 2.622928    , 3.77        , 3           , 50          , 0           , 0
-0.07971965 , 0.08740089  , -9.780281   , -0.00015052619, -0.00022665775, 0.00261040335, -0.226708919, -0.135566935, 0.4506539   , -0.009021893, -0.008416196, 2.62295413  , 3.78        , 3           , 11          , 0.006589103 , 0.00658908673
-0.0938839838, 0.108366296 , -9.792957   , -0.000442948542, 0.00146081485, -0.000213684427, -0.226776332, -0.135566935, 0.450788736 , -0.009026304, -0.008401608, 2.62295175  , 3.79        , 3           , 12          , 0.05970015  , 0
-0.09620384 , 0.100759596 , -9.803854   , 0.0015219351, 0.000346172135, 7.6430515E-05, -0.2266415  , -0.135701761, 0.450990975 , -0.009056191, -0.008402577, 2.6229527   , 3.8         , 3           , 50          , 0           , 0
-0.08727829 , 0.0960843   , -9.78663    , 0.000949132431, 0.00175017293, -0.00161925843, -0.2266415  , -0.135701761, 0.450990975 , -0.009046563, -0.008385224, 2.62293649  , 3.81        , 3           , 11          , 0.00650999928, 0.00650998624
-0.09508174 , 0.0862690061, -9.792605   , 0.00575038837, 0.00178264244, -0.00159687048, -0.226776332, -0.135634348, 0.450856149 , -0.008988923, -0.008367542, 2.62292027  , 3.82        , 3           , 12          , 0.0607510842, 0
-0.08293444 , 0.08159885  , -9.7880125  , 0.000407309766, -0.00247711316, 0.00204458577, -0.226708919, -0.135701761, 0.450923562 , -0.008985023, -0.008392129, 2.62294126  , 3.83        , 3           , 50          , 0           , 0
-0.07228119 , 0.0999707654, -9.78695    , -0.0018571025, -0.00164770137, 0.0006226648, -0.2265741  , -0.135836586, 0.450990975 , -0.009003649, -0.008408549, 2.622947    , 3.84        , 3           , 11          , 0.00650999928, 0.00650998624
-0.0913199  , 0.101069108 , -9.778955   , 0.00407992629, -0.00273385015, 0.00149619719, -0.2265741  , -0.135634348, 0.450990975 , -0.008962977, -0.008435752, 2.62296224  , 3.85        , 3           , 12          , 0.0607510842, 0
-0.08696145 , 0.08614913  , -9.785313   , 0.00152414478, 6.461097E-05, 0.00148868409, -0.2265741  , -0.135634348, 0.450990975 , -0.00894785952, -0.008434973, 2.6229775   , 3.86        , 3           , 50          , 0           , 0
-0.08584285 , 0.06942395  , -9.780401   , 0.000111194822, 5.50572E-05 , 6.941192E-05, -0.226843745, -0.135566935, 0.4510584   , -0.008946754, -0.008434415, 2.622978    , 3.87        , 3           , 11          , 0.00650999928, 0.00650998624
-0.08831083 , 0.09331395  , -9.764502   , 0.00265491963, -0.000209315782, 0.000928442751, -0.227113381, -0.135499522, 0.450856149 , -0.008920284, -0.008436426, 2.622987    , 3.88        , 3           , 12          , 0.0607510842, 0
-0.0902923048, 0.104728155 , -9.797013   , 0.00210015057, -0.00218408974, 0.00148784649, -0.226843745, -0.135432109, 0.450721323 , -0.008899408, -0.008458136, 2.62300229  , 3.89        , 3           , 50          , 0           , 0
-0.0784041956, 0.10468369  , -9.8249445  , -0.00159580284, -0.00137886836, -0.000505715, -0.226843745, -0.135432109, 0.450721323 , -0.008964873, -0.008509988, 2.62299752  , 3.9         , 3           , 11          , 0.00643253326, 0.00643251464
-0.07854656 , 0.106353737 , -9.784712   , 0.0015073627, -0.000513160252, 0.0006402228, -0.226978555, -0.135566935, 0.450923562 , -0.008949854, -0.008515062, 2.6230042   , 3.91        , 3           , 12          , 0.0618078262, 0
-0.101033248, 0.08628519  , -9.776833   , 0.00261796918, 0.00315482146, -0.00104409317, -0.2266415  , -0.135566935, 0.450990975 , -0.008923583, -0.008483608, 2.62299371  , 3.92        , 3           , 50          , 0           , 0
-0.0982807651, 0.08672863  , -9.784041   , 0.00150104531, 0.000894668337, 0.00177254248, -0.226708919, -0.135971412, 0.450923562 , -0.008908723, -0.008474505, 2.62301087  , 3.93        , 3           , 11          , 0.00643253326, 0.00643251464
-0.08568831 , 0.111878291 , -9.792427   , -0.000191380226, 0.000320075167, 0.000633623044, -0.226708919, -0.135971412, 0.450923562 , -0.0089106895, -0.008471248, 2.62301755  , 3.94        , 3           , 12          , 0.0618078262, 0
-0.0913122  , 0.0988435745, -9.788005   , 0.001506295 , -0.000231593571, 0.00120573177, -0.226843745, -0.135499522, 0.450990975 , -0.008895728, -0.008473454, 2.62303     , 3.95        , 3           , 50          , 0           , 0
-0.102659047, 0.09493728  , -9.7944355  , -0.00244217878, -0.00166616554, -0.0013577122, -0.226708919, -0.135701761, 0.4510584   , -0.008920037, -0.00849023648, 2.6230166   , 3.96        , 3           , 11          , 0.00643253326, 0.00643251464
-0.0845043957, 0.09520606  , -9.803336   , -0.00443278 , 0.0011361168, -0.000797516434, -0.226439267, -0.135701761, 0.450856149 , -0.008964296, -0.008478946, 2.623008    , 3.97        , 3           , 12          , 0.0618078262, 0
-0.08153075 , 0.07983423  , -9.804732   , 0.00233250228, 0.00399761135, 0.000933653966, -0.226439267, -0.135701761, 0.450856149 , -0.008941046, -0.008438891, 2.62301755  , 3.98        , 3           , 50          , 0           , 0
-0.0867380351, 0.09838162  , -9.800629   , -0.000178344751, -0.002214008, 0.00147733011, -0.226776332, -0.135769174, 0.4510584   , -0.008942955, -0.008460896, 2.62303185  , 3.99        , 3           , 11          , 0.00643253326, 0.00643251464
-0.094936654, 0.0908500552, -9.813376   , 0.00287454412, 0.00341870054, -0.00104237651, -0.227045968, -0.135634348, 0.450990975 , -0.008979337, -0.008479067, 2.62302136  , 4           , 3           , 12          , 0.06286985  , 0
-0.08270258 , 0.0951772258, -9.801062   , 0.001485856 , -0.00109588588, 0.000921858 , -0.226708919, -0.135836586, 0.450923562 , -0.008964557, -0.008489944, 2.623031    , 4.01        , 3           , 50          , 0           , 0
-0.08645783 , 0.08172151  , -9.811994   , 0.00232428312, 0.000599232269, 8.080005E-05, -0.226708919, -0.135836586, 0.450923562 , -0.008941322, -0.00848394353, 2.62303185  , 4.02        , 3           , 11          , 0.00635777  , 0.006357731
-0.0944307446, 0.07221523  , -9.775484   , 0.001204497 , -0.00137936254, 0.000355032273, -0.2266415  , -0.135836586, 0.450788736 , -0.008929306, -0.008497706, 2.62303567  , 4.03        , 3           , 12          , 0.06286985  , 0
-0.09679264 , 0.06323542  , -9.780512   , 0.0006194745, 0.002558726 , -0.000771676248, -0.226708919, -0.135634348, 0.4510584   , -0.0089230435, -0.008472188, 2.623027    , 4.04        , 3           , 50          , 0           , 0
-0.0939404443, 0.0775965154, -9.767323   , -0.000496870955, 1.70039712E-05, 0.0006318379, -0.226776332, -0.135701761, 0.4510584   , -0.008928067, -0.008471962, 2.62303376  , 4.05        , 3           , 11          , 0.00635777  , 0.006357731
-0.103231765, 0.08904287  , -9.784069   , 0.00119982543, -0.0005346695, -0.0004912782, -0.226776332, -0.135701761, 0.4510584   , -0.008916027, -0.008477352, 2.623029    , 4.06        , 3           , 12          , 0.06286985  , 0
-0.07341911 , 0.115787588 , -9.790058   , 0.0006335777, -0.0002569243, -0.0004934781, -0.2266415  , -0.135836586, 0.4510584   , -0.00890965 , -0.008479966, 2.62302423  , 4.07        , 3           , 50          , 0           , 0
-0.09309769 , 0.103349149 , -9.779864   , -0.00302690757, -0.0022527033, 0.00174666382, -0.2266415  , -0.135634348, 0.4511932   , -0.008940068, -0.008502335, 2.62304139  , 4.08        , 3           , 11          , 0.00635777  , 0.006357731
-0.08049771 , 0.0959955   , -9.783866   , 0.0006379229, -0.00110161887, -0.000212242419, -0.226911157, -0.135701761, 0.4511258   , -0.008933672, -0.008513371, 2.62303948  , 4.09        , 3           , 12          , 0.06286985  , 0
-0.08752945 , 0.0815975741, -9.771776   , -0.00191659608, -0.00198211474, 5.70985576E-05, -0.226911157, -0.135701761, 0.4511258   , -0.008999426, -0.008584123, 2.62304044  , 4.1         , 3           , 50          , 0           , 0
-0.09895054 , 0.105677038 , -9.780804   , -0.001915039, -0.00226367917, 0.000339202117, -0.226978555, -0.135836586, 0.450856149 , -0.009018609, -0.008606728, 2.62304425  , 4.11        , 3           , 11          , 0.00628461456, 0.006284579
-0.09993807 , 0.100711413 , -9.776764   , 0.001458015 , 0.0008564529, -0.0009116398, -0.226776332, -0.135769174, 0.450923562 , -0.00900395 , -0.008598247, 2.62303472  , 4.12        , 3           , 12          , 0.06393663  , 0
-0.09450967 , 0.09127019  , -9.805689   , 0.000475957146, -0.000417274074, -0.0006356643, -0.226843745, -0.135499522, 0.450788736 , -0.008999135, -0.008602476, 2.623029    , 4.13        , 3           , 50          , 0           , 0
-0.10190244 , 0.07739828  , -9.81439    , -0.0017753382, -0.00212194538, -0.00107260956, -0.226843745, -0.135499522, 0.450788736 , -0.009016798, -0.008623792, 2.623018    , 4.14        , 3           , 11          , 0.00628461456, 0.006284579
-0.09730334 , 0.05292775  , -9.799541   , -0.00206424552, -0.0007160276, -0.000224144518, -0.226708919, -0.135701761, 0.4510584   , -0.009037421, -0.008630971, 2.62301564  , 4.15        , 3           , 12          , 0.06393663  , 0
-0.0910239145, 0.09067068  , -9.774025   , -0.001788959, 0.0009752787, 0.00189880689, -0.226911157, -0.135769174, 0.450788736 , -0.009055472, -0.008621047, 2.62303472  , 4.16        , 3           , 50          , 0           , 0
-0.0956104  , 0.112027012 , -9.801994   , -0.0003734589, 0.000140129268, 0.0004914024, -0.226776332, -0.135566935, 0.450990975 , -0.00905925 , -0.008619604, 2.62303948  , 4.17        , 3           , 11          , 0.00628461456, 0.006284579
-0.0863855258, 0.08624359  , -9.815138   , 5.494162E-05, -0.00098327 , -0.0009210452, -0.226776332, -0.135566935, 0.450990975 , -0.009058623, -0.008629517, 2.623031    , 4.18        , 3           , 12          , 0.06393663  , 0
-0.09054488 , 0.08577679  , -9.796189   , -0.00178600079, 0.000130577479, -0.000221525726, -0.226843745, -0.135769174, 0.450721323 , -0.009076461, -0.008628231, 2.62302852  , 4.19        , 3           , 50          , 0           , 0
-0.0826656  , 0.09476085  , -9.811459   , -0.00122152339, 0.000108220142, -0.000784133037, -0.226776332, -0.135701761, 0.450923562 , -0.00908874348, -0.008700691, 2.62302136  , 4.2         , 3           , 11          , 0.00621329946, 0.006213258
-0.0873646438, 0.0902117938, -9.784394   , -0.000935693446, -0.0005937831, -0.0009251697, -0.226843745, -0.135904   , 0.4511258   , -0.009098021, -0.008706713, 2.62301183  , 4.21        , 3           , 12          , 0.0650077462, 0
-0.0868232846, 0.08893919  , -9.810159   , -0.00121181016, -0.00172194967, 0.000343196181, -0.226708919, -0.135904   , 0.450788736 , -0.00911017 , -0.008723901, 2.62301564  , 4.22        , 3           , 50          , 0           , 0
-0.0493550375, 0.08706743  , -9.786829   , 0.000483692653, -0.001851271, 0.000774686865, -0.226708919, -0.135904   , 0.450788736 , -0.009105402, -0.008742341, 2.62302327  , 4.23        , 3           , 11          , 0.00621329946, 0.006213258
-0.08280134 , 0.0901873559, -9.792948   , 0.00104018219, -0.00015806088, 0.0007799244, -0.226776332, -0.135836586, 0.450923562 , -0.00909507 , -0.00874385051, 2.623031    , 4.24        , 3           , 12          , 0.0650077462, 0
-0.108068645, 0.09189594  , -9.81031    , 0.0006111735, 0.000824549468, -6.81445745E-05, -0.2266415  , -0.135769174, 0.4511258   , -0.009088952, -0.008735611, 2.62303042  , 4.25        , 3           , 50          , 0           , 0
-0.0903684348, 0.09752487  , -9.801563   , 0.002160628 , 0.00153896492, -0.0007661602, -0.2266415  , -0.135836586, 0.450856149 , -0.009067277, -0.008720293, 2.62302232  , 4.26        , 3           , 11          , 0.00621329946, 0.006213258
-0.0773701146, 0.08967544  , -9.793812   , 0.00273499521, -0.0004281716, -0.00119037018, -0.2266415  , -0.135836586, 0.450856149 , -0.009039824, -0.008724683, 2.62301087  , 4.27        , 3           , 12          , 0.0650077462, 0
-0.08394862 , 0.07080907  , -9.796201   , -0.00121491717, -0.00144039292, -0.00262301345, -0.226843745, -0.135566935, 0.450990975 , -0.009051746, -0.008739322, 2.62298465  , 4.28        , 3           , 50          , 0           , 0
-0.0980894938, 0.09581063  , -9.801629   , -0.00178223255, -0.0008810812, -0.00205970462, -0.226843745, -0.135904   , 0.451395452 , -0.009069386, -0.008748319, 2.62296414  , 4.29        , 3           , 11          , 0.00621329946, 0.006213258
-0.09553082 , 0.11119879  , -9.824145   , 4.68794278E-05, 0.0006737486, 0.000211493723, -0.226978555, -0.135836586, 0.450990975 , -0.00906979851, -0.008759398, 2.622966    , 4.3         , 3           , 12          , 0.0660827458, 0
-0.06908391 , 0.0945998654, -9.8109045  , 0.00117465889, 0.00110373693, 0.000499949849, -0.226978555, -0.135836586, 0.450990975 , -0.009058094, -0.008748316, 2.62297082  , 4.31        , 3           , 50          , 0           , 0
-0.07684053 , 0.0977666453, -9.786543   , 0.00202960637, -0.00043914112, 0.000501514 , -0.226843745, -0.135769174, 0.4511258   , -0.009037841, -0.008752662, 2.62297654  , 4.32        , 3           , 11          , 0.006143925 , 0.00614388753
-0.105884068, 0.09046601  , -9.795383   , 0.001462862 , 0.000120173354, 0.00205370388, -0.226708919, -0.135566935, 0.4510584   , -0.009023393, -0.008751275, 2.62299657  , 4.33        , 3           , 12          , 0.0660827458, 0
-0.09217749 , 0.09531607  , -9.80927    , 0.000750566367, 0.00124165567, 0.000921997533, -0.226911157, -0.135904   , 0.450990975 , -0.009015968, -0.008738775, 2.623006    , 4.34        , 3           , 50          , 0           , 0
-0.08846237 , 0.09981226  , -9.817358   , -0.000937224831, -0.000318416365, -0.0006422467, -0.226911157, -0.135904   , 0.450990975 , -0.009025285, -0.008742018, 2.62299943  , 4.35        , 3           , 11          , 0.006143925 , 0.00614388753
-0.09735198 , 0.117907189 , -9.800176   , 0.000343943335, -0.00228077476, 0.000208254278, -0.226708919, -0.135701761, 0.450923562 , -0.009021865, -0.008764805, 2.62300181  , 4.36        , 3           , 12          , 0.0660827458, 0
-0.0890129954, 0.06856794  , -9.783142   , 0.000342675339, -0.00213999487, -0.000780409959, -0.226978555, -0.135566935, 0.4510584   , -0.009018371, -0.008786275, 2.62299418  , 4.37        , 3           , 50          , 0           , 0
-0.09081349 , 0.07038322  , -9.77998352 , -0.000519894762, 0.000810705649, -0.00190995424, -0.226776332, -0.135769174, 0.4510584   , -0.009023403, -0.008778341, 2.62297463  , 4.38        , 3           , 11          , 0.006143925 , 0.00614388753
-0.08725511 , 0.09208593  , -9.805178   , -0.000247352029, 0.00292435638, -0.0009165016, -0.226776332, -0.135769174, 0.4510584   , -0.00902579352, -0.008749182, 2.62296557  , 4.39        , 3           , 12          , 0.0660827458, 0
-0.06224309 , 0.100362428 , -9.804049   , 0.000321026455, 0.00122753  , -0.0002101719, -0.2266415  , -0.135432109, 0.4510584   , -0.009038027, -0.008770114, 2.62296319  , 4.4         , 3           , 50          , 0           , 0
-0.08286688 , 0.092366    , -9.769888   , 0.0007526156, -0.0001774258, 0.00148485857, -0.226776332, -0.135701761, 0.4511258   , -0.009030631, -0.008771754, 2.62297845  , 4.41        , 3           , 11          , 0.00607673032, 0.00607668841
-0.07769785 , 0.0648606047, -9.793465   , -0.0007972025, -0.00103262882, 0.000346163753, -0.226978555, -0.135971412, 0.4510584   , -0.009038634, -0.008782048, 2.62298226  , 4.42        , 3           , 12          , 0.06716124  , 0
-0.0879879147, 0.0713322461, -9.803461   , 0.00131801015, -0.0005959609, -0.00119726418, -0.226978555, -0.135971412, 0.4510584   , -0.009025348, -0.008788115, 2.62296987  , 4.43        , 3           , 50          , 0           , 0
-0.08821437 , 0.09517752  , -9.782121   , 0.00370784965, 0.00181358214, 0.0006541117, -0.226708919, -0.135836586, 0.450923562 , -0.008988326, -0.008769922, 2.62297654  , 4.44        , 3           , 11          , 0.00607673032, 0.00607668841
-0.06440792 , 0.08849199  , -9.755752   , 0.00215495448, 0.00166229368, 0.000222845352, -0.226843745, -0.135634348, 0.450990975 , -0.008966793, -0.008753279, 2.62297845  , 4.45        , 3           , 12          , 0.06716124  , 0
-0.06147264 , 0.104259461 , -9.758375   , 0.0006100526, -3.76013777E-05, 0.0003542673, -0.226843745, -0.135769174, 0.4510584   , -0.008960724, -0.008753624, 2.62298226  , 4.46        , 3           , 50          , 0           , 0
-0.0901103  , 0.1240687   , -9.779304   , -0.000366881373, -0.002296805, 0.00105253025, -0.226843745, -0.135769174, 0.4510584   , -0.008964487, -0.008776496, 2.62299275  , 4.47        , 3           , 11          , 0.00607673032, 0.00607668841
-0.06864706 , 0.10083054  , -9.786921   , 0.0003411135, -0.00271437853, 0.0007726341, -0.226776332, -0.135634348, 0.450990975 , -0.008961146, -0.00880357 , 2.62300038  , 4.48        , 3           , 12          , 0.06716124  , 0
-0.08815293 , 0.100137159 , -9.781196   , 0.00033320178, -0.00116577174, 0.000351214665, -0.226708919, -0.1353647  , 0.4510584   , -0.008957846, -0.008815196, 2.6230042   , 4.49        , 3           , 50          , 0           , 0
-0.06456721 , 0.0696162   , -9.777526   , -0.000538566732, -0.00143525528, 0.0003470981, -0.2266415  , -0.135971412, 0.4510584   , -0.009041397, -0.008775756, 2.623008    , 4.5         , 3           , 11          , 0.00601144135, 0.00601139758
-0.07553141 , 0.08655205  , -9.81053448 , 0.000311909651, -0.00199265359, 0.00105652469, -0.2266415  , -0.135971412, 0.4510584   , -0.009038373, -0.00879558548, 2.6230185   , 4.51        , 3           , 12          , 0.06824283  , 0
-0.0842495561, 0.0820961744, -9.797059   , 0.000171311665, -0.00213439157, 0.0009143804, -0.226843745, -0.135701761, 0.450990975 , -0.009036741, -0.008816848, 2.623028    , 4.52        , 3           , 50          , 0           , 0
-0.08973872 , 0.07988305  , -9.790783   , 0.00016401532, -0.000726567756, 0.0003514753, -0.226843745, -0.135836586, 0.451260626 , -0.009035133, -0.00882408 , 2.62303185  , 4.53        , 3           , 11          , 0.00601144135, 0.00601139758
-0.09232067 , 0.08314859  , -9.813389   , -0.00139195693, -0.000173941735, 0.0006276375, -0.226911157, -0.135904   , 0.4511932   , -0.009049107, -0.008825762, 2.623038    , 4.54        , 3           , 12          , 0.06824283  , 0
-0.0582375936, 0.09445566  , -9.80585    , -0.00125045434, -0.000313771219, -7.82647039E-05, -0.226911157, -0.135904   , 0.4511932   , -0.009061607, -0.008828907, 2.623037    , 4.55        , 3           , 50          , 0           , 0
-0.09264651 , 0.0935228243, -9.811089   , 0.000859590131, 0.00124915922, -0.0009136135, -0.226843745, -0.135634348, 0.450990975 , -0.009052929, -0.0088165  , 2.623028    , 4.56        , 3           , 11          , 0.00601144135, 0.00601139758
-0.0958762541, 0.0952966139, -9.790767   , -0.00083534146, 0.00137848337, -0.000356223085, -0.226911157, -0.135836586, 0.4511932   , -0.00906125 , -0.008802746, 2.62302423  , 4.57        , 3           , 12          , 0.06824283  , 0
-0.102601759, 0.0967691   , -9.802563   , -0.000271429424, 0.00152308494, -0.0007771785, -0.226776332, -0.135769174, 0.4511932   , -0.009063894, -0.008787586, 2.6230166   , 4.58        , 3           , 50          , 0           , 0
-0.07954539 , 0.0987008438, -9.786559   , 0.0010038364, 0.000686985266, -0.00049001677, -0.226708919, -0.135701761, 0.4510584   , -0.009053812, -0.008780762, 2.62301135  , 4.59        , 3           , 11          , 0.00601144135, 0.00601139758
-0.0819747  , 0.09189817  , -9.768074   , -0.0005475689, -0.00185497594, -0.00064236566, -0.226708919, -0.135701761, 0.4510584   , -0.009091744, -0.00879124552, 2.62300515  , 4.6         , 3           , 12          , 0.0693271756, 0
-0.07554152 , 0.09056102  , -9.795151   , -0.000413036352, -0.0005869801, -0.00134609814, -0.226911157, -0.135701761, 0.4511932   , -0.009095758, -0.008797238, 2.6229918   , 4.61        , 3           , 50          , 0           , 0
-0.0839426741, 0.106447771 , -9.793794   , -0.00112521322, 0.000675288669, -0.00106490031, -0.226708919, -0.135971412, 0.4511258   , -0.009106915, -0.008790582, 2.62298131  , 4.62        , 3           , 11          , 0.00594775658, 0.005947704
-0.09012657 , 0.0870825946, -9.783525   , -0.0021088724, -0.0001760883, 5.93385266E-05, -0.226843745, -0.135769174, 0.450788736 , -0.009128011, -0.008792338, 2.62298179  , 4.63        , 3           , 12          , 0.0693271756, 0
-0.0742987245, 0.0855415761, -9.782959   , -0.000138076124, 0.00110432482, 0.000211778533, -0.226843745, -0.135769174, 0.450788736 , -0.009129408, -0.008781276, 2.62298417  , 4.64        , 3           , 50          , 0           , 0
-0.089297   , 0.07495892  , -9.803907   , 0.0007054745, 0.00181396608, -0.000206992045, -0.226978555, -0.135634348, 0.4511258   , -0.009122333, -0.008763156, 2.62298131  , 4.65        , 3           , 11          , 0.00594775658, 0.005947704
-0.0838977247, 0.07665286  , -9.789848   , 0.0002982732, -0.00142689538, 0.0004923858, -0.226911157, -0.135769174, 0.4511932   , -0.009119395, -0.008777379, 2.62298656  , 4.66        , 3           , 12          , 0.0693271756, 0
-0.08034897 , 0.07297996  , -9.783509   , -0.000117166157, -0.00311915134, 0.000205269462, -0.226911157, -0.135701761, 0.450923562 , -0.009120585, -0.008808551, 2.622989    , 4.67        , 3           , 50          , 0           , 0
-0.08388883 , 0.07353562  , -9.802065   , 0.000865507 , -0.00198620744, -0.000212191691, -0.226911157, -0.135701761, 0.450923562 , -0.009111915, -0.008828432, 2.622987    , 4.68        , 3           , 11          , 0.00594775658, 0.005947704
-0.06491099 , 0.108468182 , -9.790024   , 0.00157259731, -0.00212221313, 0.0003559585, -0.226776332, -0.136106238, 0.4510584   , -0.009096223, -0.008849622, 2.62299085  , 4.69        , 3           , 12          , 0.0693271756, 0
-0.06992573 , 0.08536294  , -9.745412   , 0.00212905928, 0.0005727804, 0.000362734019, -0.2271808  , -0.135769174, 0.4511932   , -0.009059634, -0.008792331, 2.62299371  , 4.7         , 3           , 50          , 0           , 0
-0.1135004  , 0.06927135  , -9.77293    , 6.965274E-06, 0.00126236631, -0.0003524018, -0.226708919, -0.135836586, 0.4510584   , -0.009059531, -0.008779739, 2.62299     , 4.71        , 3           , 11          , 0.00588561874, 0.00588556752
-0.1130753  , 0.0946114138, -9.79542    , -0.00252224854, -0.00128890888, -0.000226890872, -0.226708919, -0.135836586, 0.4510584   , -0.009084735, -0.008792647, 2.622988    , 4.72        , 3           , 12          , 0.0704139248, 0
-0.08844915 , 0.06999167  , -9.80573    , -0.000117482843, -0.00197658362, 0.0009133681, -0.226843745, -0.135634348, 0.4511258   , -0.00908599049, -0.008812329, 2.62299752  , 4.73        , 3           , 50          , 0           , 0
-0.08676777 , 0.0934476852, -9.809236   , 0.0005897707, -0.00211258861, 0.00176405581, -0.226911157, -0.135566935, 0.451260626 , -0.009080249, -0.008833295, 2.62301469  , 4.74        , 3           , 11          , 0.00588561874, 0.00588556752
-0.09686993 , 0.0845234543, -9.803926   , -0.000539973844, -0.00226101466, 0.0004871525, -0.226708919, -0.135566935, 0.4510584   , -0.009085693, -0.00885586 , 2.62302041  , 4.75        , 3           , 12          , 0.0704139248, 0
-0.09873749 , 0.08137457  , -9.800338   , -0.0006815135, -0.00226197112, -7.85808443E-05, -0.226708919, -0.135566935, 0.4510584   , -0.009092504, -0.008878485, 2.62301946  , 4.76        , 3           , 50          , 0           , 0
-0.08725329 , 0.09967537  , -9.78119    , 2.32411148E-05, -0.001975631, 6.641421E-05, -0.226776332, -0.136038825, 0.450923562 , -0.009092279, -0.008898234, 2.62302041  , 4.77        , 3           , 11          , 0.00588561874, 0.00588556752
-0.09036628 , 0.105560914 , -9.776218   , 0.00115589972, -0.00253112055, 0.0003533516, -0.227045968, -0.135701761, 0.451260626 , -0.009080755, -0.008923513, 2.62302423  , 4.78        , 3           , 12          , 0.0704139248, 0
-0.08851474 , 0.104679696 , -9.788863   , 0.0008670367, -0.00126598822, 7.144986E-05, -0.226776332, -0.135566935, 0.4510584   , -0.009072091, -0.008936166, 2.62302518  , 4.79        , 3           , 50          , 0           , 0
-0.08735299 , 0.08575772  , -9.801588   , 0.0002895671, -0.000431991881, -0.00035364434, -0.226776332, -0.135566935, 0.4510584   , -0.009095628, -0.008962742, 2.62302184  , 4.8         , 3           , 11          , 0.005825438 , 0.00582538173
-0.07037309 , 0.0724284947, -9.788407   , 0.0007098855, 0.0002747865, -6.804662E-05, -0.226978555, -0.135566935, 0.4510584   , -0.009088523, -0.00896    , 2.62302136  , 4.81        , 3           , 12          , 0.07150276  , 0
-0.101141959, 0.115582079 , -9.7667675  , -0.000560175, 0.00012540989, 0.000208347687, -0.226911157, -0.135769174, 0.450990975 , -0.009094144, -0.008958728, 2.62302327  , 4.82        , 3           , 50          , 0           , 0
-0.07931465 , 0.11584913  , -9.787843   , -0.00125607615, -0.00185031863, 0.0009083615, -0.226776332, -0.135904   , 0.451260626 , -0.009106788, -0.008977149, 2.62303281  , 4.83        , 3           , 11          , 0.005825438 , 0.00582538173
-0.0704177  , 0.102670014 , -9.790994   , 0.00113832345, -0.000707826635, -0.0002088587, -0.226776332, -0.135904   , 0.451260626 , -0.009095387, -0.008984245, 2.623031    , 4.84        , 3           , 12          , 0.07150276  , 0
-0.09915098 , 0.0840898156, -9.801233   , 0.0009949374, -0.0002864344, -0.000350135029, -0.226978555, -0.135836586, 0.450990975 , -0.009085407, -0.008987141, 2.623027    , 4.85        , 3           , 50          , 0           , 0
-0.101981305, 0.10671936  , -9.811557   , -0.00210499531, -0.00157448452, 0.000481038354, -0.226776332, -0.135971412, 0.4510584   , -0.009106501, -0.009002842, 2.62303185  , 4.86        , 3           , 11          , 0.005825438 , 0.00582538173
-0.07513945 , 0.09006826  , -9.784302   , -0.00168430642, -0.0010084901, 0.000201344243, -0.226776332, -0.135769174, 0.450990975 , -0.009123362, -0.009012907, 2.62303424  , 4.87        , 3           , 12          , 0.07150276  , 0
-0.08343506 , 0.0748701543, -9.797988   , 0.0015540889, 0.0009844312, 0.0006433328, -0.226776332, -0.135769174, 0.450990975 , -0.009107878, -0.009003005, 2.62304044  , 4.88        , 3           , 50          , 0           , 0
-0.07438632 , 0.105482228 , -9.80818748 , 0.0009827174, 0.002247653 , 0.000218845351, -0.2265741  , -0.135769174, 0.450990975 , -0.009098068, -0.008980511, 2.62304235  , 4.89        , 3           , 11          , 0.005825438 , 0.00582538173
-0.08370316 , 0.08261308  , -9.818297   , -0.0007236898, 0.00182189967, -0.0010610196, -0.226776332, -0.135634348, 0.4510584   , -0.009148819, -0.00893577747, 2.62303185  , 4.9         , 3           , 12          , 0.07259339  , 0
-0.06772868 , 0.0678745   , -9.78524    , -0.0008631827, 0.00153938134, -0.000497037, -0.2266415  , -0.135769174, 0.4511932   , -0.009157405, -0.008920427, 2.62302661  , 4.91        , 3           , 50          , 0           , 0
-0.08441055 , 0.07616318  , -9.776747   , -0.00269633252, 0.00096383557, -0.0007890024, -0.2266415  , -0.135769174, 0.4511932   , -0.009184298, -0.008910862, 2.6230185   , 4.92        , 3           , 11          , 0.00576668326, 0.005766615
-0.08539185 , 0.09701675  , -9.801979   , -0.00198415527, -0.0002984331, -0.00107020023, -0.226843745, -0.135836586, 0.450990975 , -0.009204043, -0.00891394448, 2.623008    , 4.93        , 3           , 12          , 0.07259339  , 0
-0.110286281, 0.0991016   , -9.798544   , 0.0009832913, -0.00055994076, -6.792529E-05, -0.226911157, -0.135701761, 0.4511932   , -0.00919420552, -0.008919549, 2.623007    , 4.94        , 3           , 50          , 0           , 0
-0.106374919, 0.08686967  , -9.797662   , 0.00224842853, 0.000715699338, 0.00078756595, -0.226843745, -0.135701761, 0.4511932   , -0.00917178951, -0.00891232 , 2.62301517  , 4.95        , 3           , 11          , 0.00576668326, 0.005766615
-0.08419792 , 0.05632385  , -9.781799   , 0.0009801325, 0.000143973462, 0.0004982345, -0.226708919, -0.135634348, 0.4511258   , -0.009162034, -0.008910835, 2.62302041  , 4.96        , 3           , 12          , 0.07259339  , 0
-0.080362156, 0.07787913  , -9.764505   , 0.0009859977, -0.0011230713, -0.000210061771, -0.226708919, -0.135634348, 0.4511258   , -0.009152156, -0.008922084, 2.623018    , 4.97        , 3           , 50          , 0           , 0
-0.0894322  , 0.06860047  , -9.791281   , 0.001410172 , -0.00126098946, -0.0004908408, -0.2271808  , -0.135566935, 0.4511932   , -0.009138011, -0.008934739, 2.62301326  , 4.98        , 3           , 11          , 0.00576668326, 0.005766615
-0.0734927654, 0.07429148  , -9.79475    , 0.000842122245, -0.0007016813, -0.00119895057, -0.2266415  , -0.135701761, 0.4511932   , -0.009129482, -0.008941864, 2.62300134  , 4.99        , 3           , 12          , 0.07259339  , 0
-0.09012449 , 0.08485253  , -9.791219   , 0.00185241143, -0.000550068, -0.000205343633, -0.226708919, -0.135904   , 0.4510584   , -0.009036972, -0.008933401, 2.62299943  , 5           , 3           , 50          , 0           , 0
-0.0923148841, 0.08850949  , -9.797547   , 0.0005841526, -0.0009810077, 0.0007769604, -0.226708919, -0.135904   , 0.4510584   , -0.0090312  , -0.00894314051, 2.623007    , 5.01        , 3           , 11          , 0.00570961  , 0.00570954243
-0.0763153061, 0.09737369  , -9.805525   , -0.0005542822, 0.000559955253, -0.00106241426, -0.226776332, -0.135769174, 0.4510584   , -0.009036648, -0.008937636, 2.62299657  , 5.02        , 3           , 12          , 0.0736855343, 0
-0.08553134 , 0.09244023  , -9.782564   , -0.00111495389, -0.000288559851, -0.00106634991, -0.226776332, -0.135769174, 0.4511932   , -0.009047701, -0.008940618, 2.6229856   , 5.03        , 3           , 50          , 0           , 0
-0.07181381 , 0.09953092  , -9.791921   , -0.00181634957, -0.00113802764, -0.000223331561, -0.22650668 , -0.135904   , 0.4510584   , -0.009065846, -0.008952017, 2.62298322  , 5.04        , 3           , 11          , 0.00570961  , 0.00570954243
-0.0989234  , 0.0994501337, -9.807496   , -0.000125192033, -0.0004226548, -7.307636E-05, -0.22650668 , -0.135904   , 0.4510584   , -0.009067091, -0.008956251, 2.62298274  , 5.05        , 3           , 12          , 0.0736855343, 0
-0.110062391, 0.08194953  , -9.79771    , 0.00170701568, 0.000293672259, -0.000204700249, -0.226911157, -0.135971412, 0.4511258   , -0.009050002, -0.008953334, 2.62298036  , 5.06        , 3           , 50          , 0           , 0
-0.08071288 , 0.07975254  , -9.78348351 , 0.00199300935, -0.00040833003, -6.319947E-05, -0.2266415  , -0.135634348, 0.451260626 , -0.0090300655, -0.008957421, 2.62298036  , 5.07        , 3           , 11          , 0.00570961  , 0.00570954243
-0.0590409525, 0.07409114  , -9.785601   , 0.00213500112, -0.000548157142, 7.851086E-05, -0.226708919, -0.135836586, 0.450990975 , -0.009008724, -0.008962897, 2.62298131  , 5.08        , 3           , 12          , 0.0736855343, 0
-0.09438422 , 0.07716278  , -9.770944   , 0.000580015068, -0.000277098123, -0.000352104573, -0.226708919, -0.135836586, 0.450990975 , -0.009002892, -0.008965699, 2.6229775   , 5.09        , 3           , 50          , 0           , 0
-0.100455053, 0.09709389  , -9.772715   , -0.0039216  , -0.00171010743, 0.0006134882, -0.226776332, -0.135634348, 0.4511258   , -0.009008833, -0.008964231, 2.62298322  , 5.1         , 3           , 11          , 0.005653947 , 0.0056538824
