Acc X       , Acc Y       , Acc Z       , Gyro X      , Gyro Y      , Gyro Z      , Magn X      , Magn Y      , Magn Z      , Euler X     , Euler Y     , Euler Z     , Time        , Status      , LowRate X   , LowRate Y   , LowRate Z    
0.0102261426, -0.0437173  , 9.798896    , 0.00115149026, 0.002427216 , 0.0003949932, -0.5332345  , 0.00566266663, -0.380409867, 3.137375    , -0.0007738291, 3.13399053  , 0           , 3           , 11          , 0.0346410163, 0.0346410163
-0.0134241292, -0.0524533279, 9.795515    , 0.00214027357, 0.002293116 , -0.0003069581, -0.533099651, 0.006067143 , -0.380409867, 3.13739657  , -0.000796747161, 3.13399339  , 0.01        , 3           , 12          , 0.0346410163, 0
-0.02787663 , -0.0455583  , 9.80809     , 0.0019344372, 0.00116542494, 0.00039666213, -0.533099651, 0.006067143 , -0.380409867, 3.137416    , -0.0008084179, 3.13398957  , 0.02        , 3           , 14          , 4.14281421E-05, 0.0004886086
-0.0104556242, -0.0295173321, 9.807837    , 0.0019481543, -0.00172061962, -0.0005966668, -0.5332345  , 0.00573007949, -0.3794661  , 3.13743544  , -0.0007911872, 3.13399529  , 0.03        , 3           , 15          , 0           , 0.000162265453
0.00764776627, -0.0279510524, 9.815665    , -0.0009507801, -0.000895501056, -0.000396960444, -0.5333019  , 0.00586490473, -0.380477279, 3.137426    , -0.0007822156, 3.13399959  , 0.04        , 3           , 50          , 0           , 0
-0.009579027, -0.0308904853, 9.810549    , -0.00343839475, 0.00239617634, -0.000403384882, -0.533167064, 0.00579749234, -0.380140215, 3.13739157  , -0.0008061604, 3.13400388  , 0.05        , 3           , 11          , 0.0346410163, 0.0346410163
-0.001997753, -0.04178732 , 9.8042345   , 0.00029789962, 0.0035477425, -0.0008786404, -0.533167064, 0.00579749234, -0.380140215, 3.13739443  , -0.0008416007, 3.13401246  , 0.06        , 3           , 12          , 0.0346410163, 0
-0.0136787761, -0.0339871049, 9.80643749  , -0.0006111969, 0.00192253944, 0.000456637441, -0.5333019  , 0.00579749234, -0.379331261, 3.13738847  , -0.0008608451, 3.13400817  , 0.07        , 3           , 14          , 4.14281421E-05, 0.0004886086
-0.0225397758, -0.0501638278, 9.81715     , 9.081407E-05, 0.00263122423, -0.00052786665, -0.5334367  , 0.00613455568, -0.380409867, 3.13738918  , -0.0008871348, 3.13401341  , 0.08        , 3           , 15          , 0           , 0.000162265453
0.0196050312, -0.050182838, 9.810241    , -4.601347E-05, 0.00178557518, -0.000176655114, -0.533099651, 0.00579749234, -0.3800728  , 3.13738871  , -0.000904982968, 3.13401532  , 0.09        , 3           , 50          , 0           , 0
0.000458522729, -0.02871388 , 9.79933548  , -0.00153375207, 0.00262023881, -0.00159495429, -0.533099651, 0.00579749234, -0.3800728  , 3.13737345  , -0.0009311082, 3.13403153  , 0.1         , 3           , 11          , 0.0346410163, 0.0346410163
-0.0111713028, -0.0498108044, 9.806844    , 0.000588483 , 0.00200104644, -3.209757E-05, -0.5333019  , 0.00552784139, -0.3794661  , 3.13737941  , -0.0009511171, 3.13403153  , 0.11        , 3           , 12          , 0.0346410163, 0
0.0121432766, -0.0365110673, 9.796229    , 0.00100364035, 0.00355251553, -0.001440423, -0.533706367, 0.00593231758, -0.380409867, 3.13738942  , -0.0009865813, 3.13404632  , 0.12        , 3           , 14          , 4.142815E-05, 0.0004886088
-0.02112446 , -0.04879459 , 9.807675    , 0.00128743914, 0.00334325316, -0.000874356367, -0.533167064, 0.00566266663, -0.380207628, 3.1374023   , -0.00101997692, 3.13405538  , 0.13        , 3           , 15          , 0           , 0.000162265263
-0.0241698585, -0.0397298038, 9.806334    , -0.0002559057, 0.001361794 , -0.000460830779, -0.533167064, 0.00566266663, -0.380207628, 3.13739967  , -0.00103357539, 3.13406014  , 0.14        , 3           , 50          , 0           , 0
-0.0120956292, -0.0524934754, 9.802757    , -0.00230655167, 0.00184068293, -0.00152913493, -0.533167064, 0.00552784139, -0.379668325, 3.13737655  , -0.00105191779, 3.1340754   , 0.15        , 3           , 11          , 0.0346410163, 0.0346410163
-0.000788631849, -0.04951214 , 9.815964    , -0.0006747671, 0.000303057925, -0.00124141155, -0.5334367  , 0.00586490473, -0.380746931, 3.13736987  , -0.001054896, 3.1340878   , 0.16        , 3           , 12          , 0.0346410163, 0
0.009136992 , -0.0550141819, 9.807429    , 0.00108836521, 0.0009485219, 0.0006749235, -0.533167064, 0.00552784139, -0.380140215, 3.13738084  , -0.00106440962, 3.13408113  , 0.17        , 3           , 14          , 4.142815E-05, 0.0004886088
-0.01311996 , -0.03435286 , 9.779322    , 0.000171916516, 0.0005199638, -0.000460157316, -0.533167064, 0.00552784139, -0.380140215, 3.13738251  , -0.00106958987, 3.134086    , 0.18        , 3           , 15          , 0           , 0.000162265263
0.0149636529, -0.0248538535, 9.808502    , -0.00151960819, -0.0001954109, -0.00124612171, -0.533099651, 0.00593231758, -0.379668325, 3.13736725  , -0.00106758322, 3.13409829  , 0.19        , 3           , 50          , 0           , 0
0.019301191 , -0.06783671 , 9.827793    , 0.00100898684, 0.00263743219, -2.91450087E-05, -0.533571541, 0.006067143 , -0.3805447  , 3.13737726  , -0.00109393417, 3.13409829  , 0.2         , 3           , 11          , 0.03466943  , 0.0346694365
-0.0211048182, -0.0474396124, 9.80723     , -0.000950557471, -0.000825108145, 0.000592030061, -0.5332345  , 0.00593231758, -0.380140215, 3.13736773  , -0.001085708, 3.13409257  , 0.21        , 3           , 12          , 0.0346692465, 0
-0.0112590976, -0.05256004 , 9.819487    , -0.00024690773, -0.000397987082, 3.089848E-05, -0.5332345  , 0.00593231758, -0.380140215, 3.13736534  , -0.00108172954, 3.134092    , 0.22        , 3           , 14          , 4.142811E-05, 0.0004886095
-0.006140186, -0.04715027 , 9.803277    , 0.00178629474, 0.00257229456, 0.00046880875, -0.5333693  , 0.00586490473, -0.379668325, 3.13738322  , -0.001107472, 3.1340878   , 0.23        , 3           , 15          , 0           , 0.000162264478
-0.00195748918, -0.0377375335, 9.807415    , -0.00110072421, 0.0007929317, -0.00103072368, -0.533638954, 0.00579749234, -0.380477279, 3.13737226  , -0.00111535774, 3.13409829  , 0.24        , 3           , 50          , 0           , 0
-0.00341895875, -0.008420175, 9.816113    , 0.00115557574, 0.00137134013, -0.0015843953, -0.533167064, 0.00573007949, -0.380140215, 3.1373837   , -0.00112900417, 3.13411355  , 0.25        , 3           , 11          , 0.03466943  , 0.0346694365
-0.006924507, -0.0394534357, 9.79833     , 0.000600969652, -0.000603433058, -0.0007424542, -0.533167064, 0.00573007949, -0.380140215, 3.13738966  , -0.00112293893, 3.13412118  , 0.26        , 3           , 12          , 0.0346692465, 0
-0.028009763, -0.02922536 , 9.782393    , 3.13557466E-05, 0.0005190112, 0.0006693349, -0.533099651, 0.00573007949, -0.379735738, 3.13739014  , -0.001128157, 3.1341145   , 0.27        , 3           , 14          , 4.142811E-05, 0.0004886095
0.0188449379, -0.03487843 , 9.823857    , -0.00251130131, 0.0005018175, -0.0007552048, -0.533571541, 0.00620196853, -0.3806121  , 3.13736486  , -0.0011331432, 3.13412213  , 0.28        , 3           , 15          , 0           , 0.000162264478
-0.009051211, -0.0201225989, 9.82687     , 0.00173223414, -0.000877357437, -0.000455082976, -0.5333693  , 0.00573007949, -0.380207628, 3.13738227  , -0.00112435047, 3.134127    , 0.29        , 3           , 50          , 0           , 0
-0.0192271937, -0.0407117456, 9.8126955   , -0.000246072363, -0.000327591, 0.00207940419, -0.5333693  , 0.00573007949, -0.380207628, 3.13738     , -0.00112114334, 3.134106    , 0.3         , 3           , 11          , 0.03475512  , 0.0347551331
3.608875E-06, -0.06166607 , 9.80462     , -0.0008159238, 0.000513280334, 0.0006653846, -0.5332345  , 0.00552784139, -0.3796009  , 3.13737178  , -0.00112630427, 3.13409925  , 0.31        , 3           , 12          , 0.0347547457, 0
0.00675941352, -0.0675775  , 9.794703    , -0.00307615427, 0.000497996632, -0.000757838134, -0.5333693  , 0.00566266663, -0.3806121  , 3.137341    , -0.001131252, 3.13410687  , 0.32        , 3           , 14          , 4.142715E-05, 0.0004886104
0.000512338243, -0.05403809 , 9.815502    , 0.00143930875, 0.00137325539, 0.000677221862, -0.533099651, 0.00566266663, -0.380207628, 3.13735533  , -0.00114501326, 3.1341002   , 0.33        , 3           , 15          , 0           , 0.000162263968
0.0163591672, -0.0551173724, 9.812907    , 0.00143480068, 0.00221794914, 0.00011344863, -0.533099651, 0.00566266663, -0.380207628, 3.13736963  , -0.00116719736, 3.13409925  , 0.34        , 3           , 50          , 0           , 0
0.0222509671, -0.0551819354, 9.811597    , 0.001997934 , 0.00250333268, -0.0004485583, -0.5335041  , 0.00559525425, -0.379803151, 3.13738966  , -0.00119221187, 3.134104    , 0.35        , 3           , 11          , 0.03475512  , 0.0347551331
-0.0123535441, -0.0384933949, 9.800101    , 3.783727E-05, -0.0008888175, -0.000180446543, -0.5335041  , 0.00593231758, -0.380679518, 3.13739014  , -0.001183316, 3.13410544  , 0.36        , 3           , 12          , 0.0347547457, 0
-0.005384544, -0.0308415722, 9.781654    , 0.00342359324, -2.1198648E-05, 0.00124934572, -0.533099651, 0.00552784139, -0.380275041, 3.13742423  , -0.00118315627, 3.134093    , 0.37        , 3           , 14          , 4.142715E-05, 0.0004886104
-0.009770917, -0.04845364 , 9.800983    , 0.00228052423, 0.00250524352, -0.000164703859, -0.533099651, 0.00552784139, -0.380275041, 3.137447    , -0.00120820175, 3.13409448  , 0.38        , 3           , 15          , 0           , 0.000162263968
0.004705251 , -0.0459561422, 9.812857    , 0.00367855467, 0.00533044338, -0.00043631735, -0.533167064, 0.00586490473, -0.379735738, 3.13748384  , -0.00126148749, 3.13409925  , 0.39        , 3           , 50          , 0           , 0
0.007947026 , -0.0338833258, 9.834174    , 0.002002115 , 0.00165863521, -0.0004498586, -0.5334367  , 0.006067143 , -0.380949169, 3.13750386  , -0.00127801986, 3.134104    , 0.4         , 3           , 11          , 0.0348972343, 0.03489725
0.0283699222, -0.0430109948, 9.794066    , -0.000225400741, -0.004832642, -0.0007529121, -0.533167064, 0.00552784139, -0.3800728  , 3.13750148  , -0.00122966338, 3.13411117  , 0.41        , 3           , 12          , 0.03489667  , 0
0.000869275071, -0.0300923027, 9.805209    , 0.002309219 , -0.0031260564, 0.00123930618, -0.533167064, 0.00552784139, -0.3800728  , 3.1375246   , -0.00119845313, 3.13409829  , 0.42        , 3           , 14          , 4.14280839E-05, 0.0004886127
-0.004158333, -0.0305182487, 9.815113    , 4.58740578E-05, -0.00257821148, -0.0007481237, -0.5332345  , 0.00593231758, -0.3796009  , 3.137525    , -0.001172641, 3.134106    , 0.43        , 3           , 15          , 0           , 0.000162262513
-0.008688251, -0.0358229652, 9.798332    , -0.000235158746, -0.00286168652, -0.000749874569, -0.533706367, 0.00573007949, -0.380477279, 3.1375227   , -0.00114399393, 3.13411355  , 0.44        , 3           , 50          , 0           , 0
-0.0135710118, -0.0294362716, 9.794705    , 0.00144832442, -0.000316134247, 0.00180476962, -0.533099651, 0.00573007949, -0.380207628, 3.13753724  , -0.00114090589, 3.13409543  , 0.45        , 3           , 11          , 0.0348972343, 0.03489725
-0.0163723379, -0.0303656533, 9.812308    , 0.00314683025, -0.00143094256, -0.00101443916, -0.533099651, 0.00573007949, -0.380207628, 3.13756871  , -0.00112655561, 3.13410544  , 0.46        , 3           , 12          , 0.03489667  , 0
-0.0177942328, -0.03307929 , 9.819065    , -0.0002494251, -4.6037545E-05, -0.0013106101, -0.533167064, 0.00593231758, -0.379803151, 3.13756633  , -0.00112604233, 3.13411832  , 0.47        , 3           , 14          , 4.14280839E-05, 0.0004886127
0.000149409287, -0.0459256619, 9.819601    , 0.0008863476, -0.00116465567, -0.000459465722, -0.533706367, 0.00593231758, -0.3806121  , 3.13757515  , -0.0011143774, 3.134123    , 0.48        , 3           , 15          , 0           , 0.000162262513
-0.0145221129, -0.0330333523, 9.794231    , 0.00341998856, 0.0005419253, -0.0001624722, -0.533032238, 0.00573007949, -0.380140215, 3.13760924  , -0.00111979025, 3.134125    , 0.49        , 3           , 50          , 0           , 0
0.0106702475, -0.04283695 , 9.803875    , 0.00116606127, -0.0003180445, 0.00208599167, -0.533032238, 0.00573007949, -0.380140215, 3.137621    , -0.0011166787, 3.134104    , 0.5         , 3           , 11          , 0.0350946561, 0.03509468
0.01660471  , -0.033047244, 9.823849    , -0.00251966482, 0.002191204 , -0.0007525978, -0.5332345  , 0.00559525425, -0.379803151, 3.137596    , -0.00113856036, 3.13411164  , 0.51        , 3           , 12          , 0.0350939035, 0
-0.0155693609, -0.0380473658, 9.812735    , 0.00143956032, 0.00109168142, -0.00130097137, -0.533571541, 0.00586490473, -0.380679518, 3.1376102   , -0.00114942528, 3.13412452  , 0.52        , 3           , 14          , 4.142752E-05, 0.0004886138
-0.00298781041, -0.0476477  , 9.80601     , -0.00277971313, -0.00203417544, 0.00178241334, -0.5333019  , 0.00546042854, -0.3800728  , 3.1375823   , -0.00112915481, 3.13410687  , 0.53        , 3           , 15          , 0           , 0.000162261116
-0.0011840025, -0.05258476 , 9.791992    , -0.00221739546, -0.001748796, -0.000192280961, -0.5333019  , 0.00546042854, -0.3800728  , 3.13756013  , -0.00111165945, 3.13410878  , 0.54        , 3           , 50          , 0           , 0
0.0007050419, -0.0480793938, 9.787506    , 0.00143832958, 0.00137324724, -0.00101800007, -0.533099651, 0.00579749234, -0.3795335  , 3.13757467  , -0.00112535071, 3.13411832  , 0.55        , 3           , 11          , 0.0350946561, 0.03509468
-0.00491316151, -0.05843139 , 9.799172    , -0.00193685235, -0.00146532315, -0.0010381426, -0.5333693  , 0.00586490473, -0.380275041, 3.13755512  , -0.001110656, 3.13412881  , 0.56        , 3           , 12          , 0.0350939035, 0
0.00556486  , -0.0526992679, 9.802439    , 0.0025700836, 0.00109932525, 0.000116983494, -0.533167064, 0.00593231758, -0.380207628, 3.13758087  , -0.00112165359, 3.13412786  , 0.57        , 3           , 14          , 4.142752E-05, 0.0004886138
0.0147734005, -0.04018393 , 9.805726    , 0.00286275777, -0.0008697181, 0.0009628753, -0.533167064, 0.00593231758, -0.380207628, 3.13760948  , -0.00111299485, 3.13411832  , 0.58        , 3           , 15          , 0           , 0.000162261116
-0.00268681813, -0.0313352  , 9.784837    , 0.00228970335, 0.0008158533, 0.00124538271, -0.533167064, 0.00546042854, -0.379735738, 3.13763237  , -0.00112120283, 3.134106    , 0.59        , 3           , 50          , 0           , 0
-0.0125540113, -0.05249268 , 9.80411     , 4.31597946E-05, -0.0017335139, 0.00179601647, -0.5334367  , 0.00566266663, -0.380746931, 3.13763285  , -0.00110390282, 3.1340878   , 0.6         , 3           , 11          , 0.03534605  , 0.03534606
-0.0259908829, -0.03793115 , 9.814463    , 0.00230135815, -0.00199981174, -0.00271448167, -0.5333693  , 0.00559525425, -0.380207628, 3.137656    , -0.00108379766, 3.1341145   , 0.61        , 3           , 12          , 0.0353450924, 0
0.00312718  , -0.0332482122, 9.796625    , 0.0006115429, -0.00257439213, 0.0006671986, -0.5333693  , 0.00559525425, -0.380207628, 3.137662    , -0.00105808012, 3.13410783  , 0.62        , 3           , 14          , 4.14286842E-05, 0.0004886171
0.00133875478, -0.0327621922, 9.792546    , 0.00116835861, -0.000881180342, 0.00123751094, -0.5332345  , 0.00559525425, -0.379668325, 3.13767362  , -0.00104931707, 3.13409543  , 0.63        , 3           , 15          , 0           , 0.000162261364
-0.0121473521, -0.0293993112, 9.778897    , 0.00229028054, 0.000534281 , -0.000167738792, -0.5335041  , 0.00599973043, -0.380679518, 3.1376965   , -0.00105465343, 3.13409734  , 0.64        , 3           , 50          , 0           , 0
0.00254525524, -0.0440599471, 9.793412    , -0.0002460739, -0.0003275977, 0.00207940675, -0.533032238, 0.00593231758, -0.380409867, 3.13769412  , -0.00105145865, 3.13407636  , 0.65        , 3           , 11          , 0.03534605  , 0.03534606
0.001227064 , -0.0426724032, 9.787984    , -0.00137348264, -0.000898370054, 0.00122565869, -0.533032238, 0.00593231758, -0.380409867, 3.13768053  , -0.00104252249, 3.134064    , 0.66        , 3           , 12          , 0.0353450924, 0
-0.01710956 , -0.0270941556, 9.781581    , -0.0008126479, -4.98541049E-05, 0.00151213189, -0.5333693  , 0.00573007949, -0.379735738, 3.13767242  , -0.00104208314, 3.13404918  , 0.67        , 3           , 14          , 4.14286842E-05, 0.0004886171
-0.01636059 , -0.0321415327, 9.803713    , -0.000520211, -0.00230047014, -0.000467784965, -0.533638954, 0.00599973043, -0.3806121  , 3.13766718  , -0.00101906026, 3.13405347  , 0.68        , 3           , 15          , 0           , 0.000162261364
0.0338383429, -0.03858293 , 9.800002    , -0.00307738641, 0.0007795558, -0.000474864122, -0.533099651, 0.00579749234, -0.379937977, 3.13763642  , -0.001026837, 3.13405824  , 0.69        , 3           , 50          , 0           , 0
0.006487092 , -0.04778655 , 9.81421852  , 0.0008817504, -3.83983133E-05, 0.00123749813, -0.533099651, 0.00579749234, -0.379937977, 3.13764524  , -0.001026471, 3.13404584  , 0.7         , 3           , 11          , 0.0356498435, 0.0356498547
-0.0257106069, -0.0443251543, 9.836134    , 0.000320589344, -0.0008869159, 0.000385949941, -0.5334367  , 0.00559525425, -0.379735738, 3.13764834  , -0.00101761706, 3.134042    , 0.71        , 3           , 12          , 0.03564869  , 0
-0.002179036, -0.0499685258, 9.822279    , 0.00173256057, -0.0008773668, 0.000109997171, -0.5333019  , 0.00559525425, -0.3805447  , 3.13766575  , -0.00100884761, 3.134041    , 0.72        , 3           , 14          , 4.14281931E-05, 0.000488620368
-0.0108435  , -0.05750534 , 9.81269     , 0.00115917949, 0.000808203 , -0.000172570319, -0.5329648  , 0.00559525425, -0.380140215, 3.13767719  , -0.00101692311, 3.134043    , 0.73        , 3           , 15          , 0           , 0.0001622591
0.006374224 , -0.06439296 , 9.788385    , -0.00194349675, -5.7502737E-05, -0.0004708959, -0.5329648  , 0.00559525425, -0.380140215, 3.13765788  , -0.00101632962, 3.13404775  , 0.74        , 3           , 50          , 0           , 0
-0.00120554119, -0.0463533178, 9.817329    , -0.0025136  , 0.00106493908, 9.32807161E-05, -0.5333019  , 0.00586490473, -0.3795335  , 3.13763285  , -0.00102698256, 3.13404679  , 0.75        , 3           , 11          , 0.0356498435, 0.0356498547
-0.02213458 , -0.0591347255, 9.799941    , -0.00222969055, 0.0005037128, -0.0021665697, -0.533571541, 0.00593231758, -0.3805447  , 3.13761044  , -0.00103193347, 3.13406825  , 0.76        , 3           , 12          , 0.03564869  , 0
-0.0141282557, -0.0371035635, 9.795574    , -0.00110179221, 0.00107448746, -0.000465209363, -0.533167064, 0.00552784139, -0.380207628, 3.13759947  , -0.00104265974, 3.134073    , 0.77        , 3           , 14          , 4.14281931E-05, 0.000488620368
-0.004705392, -0.0319283679, 9.833633    , -0.0008047728, -0.00173925026, 0.000661918 , -0.533167064, 0.00552784139, -0.380207628, 3.13759136  , -0.00102529372, 3.13406634  , 0.78        , 3           , 15          , 0           , 0.0001622591
0.0115444586, -0.0500145964, 9.788485    , -0.002233472, 0.00162998168, 0.000943078 , -0.5332345  , 0.00559525425, -0.379668325, 3.137569    , -0.00104163133, 3.13405728  , 0.79        , 3           , 50          , 0           , 0
0.00185347442, -0.0571924374, 9.809624    , -0.00251392857, 0.00106493512, -0.000471793523, -0.5335041  , 0.00586490473, -0.380477279, 3.137544    , -0.00105224014, 3.134062    , 0.8         , 3           , 11          , 0.0360043049, 0.0360043161
-0.0049785357, -0.0259749368, 9.808798    , 0.00285817217, -0.000306605478, -0.00214416627, -0.533167064, 0.00599973043, -0.3800728  , 3.13757253  , -0.00104908762, 3.134083    , 0.81        , 3           , 12          , 0.0360029452, 0
-0.011449514, -0.03805892 , 9.801918    , 0.0034109694, 0.00223130267, -0.00129001471, -0.533167064, 0.00599973043, -0.3800728  , 3.13760662  , -0.00107134879, 3.13409638  , 0.82        , 3           , 14          , 4.14305032E-05, 0.0004886228
0.009867267 , -0.035155233, 9.80345     , -0.000811819453, -0.000612999371, -0.00187918311, -0.5333019  , 0.00552784139, -0.379668325, 3.13759828  , -0.001065144, 3.134115    , 0.83        , 3           , 15          , 0           , 0.000162258613
-0.007455987, -0.0399582349, 9.815952    , -0.00251696864, 0.00190963619, 0.0015072705, -0.533571541, 0.00566266663, -0.3805447  , 3.13757324  , -0.00108430057, 3.1341002   , 0.84        , 3           , 50          , 0           , 0
-0.0115764877, -0.0408399068, 9.824053    , -0.00363543513, -0.000632095966, -0.00076220237, -0.5332345  , 0.00552784139, -0.380140215, 3.13753676  , -0.00107794884, 3.13410783  , 0.85        , 3           , 11          , 0.0360043049, 0.0360043161
0.010249936 , -0.03923452 , 9.807503    , -0.00504322443, -0.00148634019, -0.000487551384, -0.5332345  , 0.00552784139, -0.380140215, 3.13748646  , -0.0010630656, 3.1341126   , 0.86        , 3           , 12          , 0.0360029452, 0
0.0145395119, -0.0239326321, 9.804436    , 0.00087068486, 0.00193254882, -0.00101976353, -0.533099651, 0.00573007949, -0.3796009  , 3.137495    , -0.00108234934, 3.13412261  , 0.87        , 3           , 14          , 4.14305032E-05, 0.0004886228
-0.0226098243, -0.0266381744, 9.799168    , 0.00144193042, 0.000810111931, 0.0003938218, -0.533571541, 0.00573007949, -0.380275041, 3.13750958  , -0.00109046628, 3.1341188   , 0.88        , 3           , 15          , 0           , 0.000162258613
-0.015567271, -0.0402774177, 9.805041    , 0.004552318 , -1.357586E-05, -0.0004406059, -0.533167064, 0.00579749234, -0.380207628, 3.13755512  , -0.00109031273, 3.134123    , 0.89        , 3           , 50          , 0           , 0
-0.0007041441, -0.04364113 , 9.814181    , 0.0028593156, -0.0003066024, -0.000166401049, -0.533167064, 0.00579749234, -0.380207628, 3.13758373  , -0.00108722132, 3.134125    , 0.9         , 3           , 11          , 0.0364075564, 0.0364075676
-0.0142877009, -0.0434816629, 9.814078    , 0.00172386889, 0.000812017242, -0.0004524706, -0.5333019  , 0.00579749234, -0.379937977, 3.137601    , -0.00109532359, 3.13412929  , 0.91        , 3           , 12          , 0.03640598  , 0
-0.0041956217, -0.0381364077, 9.799713    , 0.000582520035, 0.00305689545, -0.0013018793, -0.533638954, 0.006067143 , -0.3806121  , 3.13760662  , -0.00112584047, 3.13414216  , 0.92        , 3           , 14          , 4.142944E-05, 0.0004886252
-0.0153485658, -0.0293877963, 9.786556    , -0.00108908431, -0.00145960227, -0.00018657386, -0.533099651, 0.00579749234, -0.380207628, 3.137596    , -0.00111123675, 3.134144    , 0.93        , 3           , 15          , 0           , 0.000162255688
-0.0220168047, -0.0612710379, 9.764227    , 0.000607686467, -0.00172970386, 0.001233581 , -0.533099651, 0.00579749234, -0.380207628, 3.13760185  , -0.00109398912, 3.13413167  , 0.94        , 3           , 50          , 0           , 0
-0.01763986 , -0.0636782348, 9.793629    , 3.16807127E-05, 0.000518997 , 0.0012344186, -0.533167064, 0.00566266663, -0.379668325, 3.13760233  , -0.00109922828, 3.13411927  , 0.95        , 3           , 11          , 0.0364075564, 0.0364075676
-0.00406216 , -0.05402273 , 9.826767    , 0.0008691289, 0.00221411069, -0.00130186416, -0.533638954, 0.00559525425, -0.3806121  , 3.137611    , -0.00112131739, 3.13413262  , 0.96        , 3           , 12          , 0.03640598  , 0
0.0114527037, -0.05053529 , 9.809274    , -0.0002623876, 0.00276960572, 0.000388960645, -0.5333019  , 0.00579749234, -0.3800054  , 3.13760829  , -0.00114902877, 3.13412881  , 0.97        , 3           , 14          , 4.142944E-05, 0.0004886252
0.01069166  , -0.04415865 , 9.794378    , -0.00138373079, 0.00107257487, 0.0003810893, -0.5333019  , 0.00579749234, -0.3800054  , 3.13759446  , -0.0011597696, 3.134125    , 0.98        , 3           , 15          , 0           , 0.000162255688
0.006410559 , -0.02292709 , 9.802117    , -0.0005328466, 0.0005151787, 0.00179685978, -0.533167064, 0.00579749234, -0.379331261, 3.13758922  , -0.00116499315, 3.13410687  , 0.99        , 3           , 50          , 0           , 0
-0.006240942, -0.0472319052, 9.8276825   , 0.000597110949, 0.000241243572, -0.0001760652, -0.5334367  , 0.00586490473, -0.380477279, 3.13759518  , -0.00116736686, 3.13410878  , 1           , 3           , 11          , 0.0368576   , 0.0368576124
-0.0110924123, -0.04394433 , 9.806416    , 0.00483277161, 0.000551461359, 0.0009742725, -0.5332345  , 0.00552784139, -0.380140215, 3.13764334  , -0.00117292011, 3.13409925  , 1.01        , 3           , 12          , 0.0368558019, 0
-0.00247557927, -0.0377851464, 9.823231    , 0.00341415778, 0.00194973953, 0.00181746983, -0.5332345  , 0.00552784139, -0.380140215, 3.13767767  , -0.00119248871, 3.13408113  , 1.02        , 3           , 14          , 4.14310853E-05, 0.000488629565
-0.016093703, -0.03899273 , 9.827189    , 0.00286349584, -0.0011513019, -0.000167699385, -0.5332345  , 0.00573007949, -0.379668325, 3.13770628  , -0.00118096953, 3.13408256  , 1.03        , 3           , 15          , 0           , 0.000162252225
0.00480312854, -0.03962793 , 9.809267    , 0.00117483689, -0.00228902046, 0.000387737964, -0.533638954, 0.00593231758, -0.3806121  , 3.137718    , -0.00115809427, 3.13407874  , 1.04        , 3           , 50          , 0           , 0
0.00236475375, -0.0562576577, 9.798332    , 0.0003194444, -0.0008869305, -0.00159180525, -0.533032238, 0.00579749234, -0.380207628, 3.137721    , -0.00114916358, 3.13409448  , 1.05        , 3           , 11          , 0.0368576   , 0.0368576124
-0.0130660133, -0.02181133 , 9.806493    , 0.00201793551, -0.00143859535, 0.000392990565, -0.533032238, 0.00579749234, -0.380207628, 3.13774133  , -0.00113479281, 3.13409066  , 1.06        , 3           , 12          , 0.0368558019, 0
-0.0131808789, -0.03350952 , 9.796951    , -0.000237712287, -0.00201700069, 0.002076812 , -0.5333019  , 0.00559525425, -0.379668325, 3.137739    , -0.001114703, 3.13406968  , 1.07        , 3           , 14          , 4.14310853E-05, 0.000488629565
-0.00737916 , -0.0394496359, 9.79877949  , -0.003070493, -0.0009098541, -0.003020296, -0.5334367  , 0.00566266663, -0.380342454, 3.13770819  , -0.00110548781, 3.1341002   , 1.08        , 3           , 15          , 0           , 0.000162252225
0.007938155 , -0.03835401 , 9.821953    , 3.67656321E-05, -0.000607269933, 0.0003850739, -0.533032238, 0.00586490473, -0.380140215, 3.13770866  , -0.00109943 , 3.13409638  , 1.09        , 3           , 50          , 0           , 0
-0.02357101 , -0.0338142179, 9.789639    , 0.00258573983, -0.00199790834, 0.0006772992, -0.533032238, 0.00586490473, -0.380140215, 3.13773441  , -0.0010794535, 3.13408923  , 1.1         , 3           , 11          , 0.0373523533, 0.037352372
-0.01474186 , -0.07286243 , 9.830676    , -0.00080305594, -0.00202082656, 0.001226571 , -0.5333019  , 0.00566266663, -0.3796009  , 3.13772655  , -0.0010592927, 3.13407683  , 1.11        , 3           , 12          , 0.03735032  , 0
0.0144119477, -0.06011622 , 9.830048    , -0.0010839256, -0.00230430067, 0.00150735769, -0.5334367  , 0.006067143 , -0.380679518, 3.13771558  , -0.00103630812, 3.13406157  , 1.12        , 3           , 14          , 4.143167E-05, 0.000488633057
0.000321917236, -0.0395369753, 9.797934    , -0.00137987721, 0.0002278703, -0.000185278652, -0.533032238, 0.00566266663, -0.3800728  , 3.13770175  , -0.00103857974, 3.13406348  , 1.13        , 3           , 15          , 0           , 0.000162247146
0.008772882 , -0.05359796 , 9.7902565   , 3.11890362E-05, 0.000518986839, 0.000386814645, -0.533032238, 0.00566266663, -0.3800728  , 3.13770223  , -0.00104378455, 3.13405967  , 1.14        , 3           , 50          , 0           , 0
-0.009606781, -0.0331447348, 9.810089    , 0.000317634724, -0.0003237992, 0.0001042923, -0.5333019  , 0.0053256033, -0.3795335  , 3.13770533  , -0.00104055076, 3.13405871  , 1.15        , 3           , 11          , 0.0373523533, 0.037352372
-0.026333943, -0.0306953266, 9.810874    , 0.000304599234, 0.00221028435, -0.0007394145, -0.533571541, 0.006067143 , -0.3806121  , 3.13770843  , -0.00106262462, 3.13406587  , 1.16        , 3           , 12          , 0.03735032  , 0
-0.015682986, -0.0582251959, 9.775588    , 2.85641763E-05, 0.00108211779, 0.000670220063, -0.5333693  , 0.00586490473, -0.3800728  , 3.13770866  , -0.00107347162, 3.13405919  , 1.17        , 3           , 14          , 4.143167E-05, 0.000488633057
-0.0222432278, -0.06234721 , 9.816198    , 3.381389E-05, -4.414405E-05, 0.000103409337, -0.5333693  , 0.00586490473, -0.3800728  , 3.137709    , -0.00107303413, 3.13405824  , 1.18        , 3           , 15          , 0           , 0.000162247146
-0.007991165, -0.04805399 , 9.81003952  , 0.0005955532, 0.000522804447, -0.0004581637, -0.5333019  , 0.00579749234, -0.379668325, 3.13771486  , -0.00107824442, 3.134063    , 1.19        , 3           , 50          , 0           , 0
-0.00652065873, -0.0426228531, 9.800129    , -0.003348996, -0.00147489249, -0.001044709, -0.5334367  , 0.00586490473, -0.380409867, 3.13768148  , -0.00106345292, 3.1340735   , 1.2         , 3           , 11          , 0.03788969  , 0.0378897041
0.0237010531, -0.04708926 , 9.815256    , 0.000605632144, -0.00144814979, 0.000103877828, -0.533099651, 0.00586490473, -0.379870564, 3.13768744  , -0.001048976, 3.13407254  , 1.21        , 3           , 12          , 0.03788741  , 0
0.0216591284, -0.0392948426, 9.785895    , 0.00171935279, 0.00165670319, -0.0010162309, -0.533099651, 0.00586490473, -0.379870564, 3.13770461  , -0.001065503, 3.13408256  , 1.22        , 3           , 14          , 4.14370952E-05, 0.000488633348
-0.03184161 , -0.0454212539, 9.781392    , 0.00256359344, 0.00250713364, 0.0009667839, -0.533167064, 0.00586490473, -0.379870564, 3.13773036  , -0.00109061156, 3.134073    , 1.23        , 3           , 15          , 0           , 0.000162242854
-0.0188434441, -0.040773   , 9.829421    , 4.68439466E-05, -0.00257822755, 0.0009471207, -0.5333019  , 0.00579749234, -0.380477279, 3.13773084  , -0.001064866, 3.134063    , 1.24        , 3           , 50          , 0           , 0
-0.00239865482, -0.034598358, 9.814657    , 0.00172713865, 0.000248881232, 0.000394286646, -0.5333693  , 0.00593231758, -0.379937977, 3.137748    , -0.00106737 , 3.13405919  , 1.25        , 3           , 11          , 0.03788969  , 0.0378897041
-0.0161084682, -0.051502496, 9.790526    , 0.0006009607, -0.0006034569, -0.0007424326, -0.5333693  , 0.00593231758, -0.379937977, 3.137754    , -0.0010613068, 3.13406682  , 1.26        , 3           , 12          , 0.03788741  , 0
-0.0184281413, -0.05375285 , 9.796828    , -0.00135618472, -0.004558736, -0.000192651234, -0.533167064, 0.00579749234, -0.379668325, 3.13774061  , -0.00101571239, 3.13406873  , 1.27        , 3           , 14          , 4.14370952E-05, 0.000488633348
0.00265530962, -0.036382813, 9.791185    , 0.0031471476, -0.00143096165, -0.000449344516, -0.533571541, 0.00579749234, -0.3805447  , 3.137772    , -0.00100138551, 3.134073    , 1.28        , 3           , 15          , 0           , 0.000162242854
0.0320616327, -0.03228486 , 9.811766    , -0.004198323, -0.00119906047, -0.00217837584, -0.533032238, 0.00573007949, -0.3800054  , 3.13773     , -0.0009893113, 3.13409448  , 1.29        , 3           , 50          , 0           , 0
-0.0110693648, -0.0430329479, 9.803708    , 0.00145414064, -0.00172399078, -0.000175138746, -0.533032238, 0.00573007949, -0.3800054  , 3.13774443  , -0.000972034235, 3.13409638  , 1.3         , 3           , 11          , 0.03846745  , 0.03846746
-0.005888132, -0.0340018757, 9.783898    , -0.00165845675, -0.0006187417, -0.0007529643, -0.5334367  , 0.00546042854, -0.379668325, 3.137728    , -0.0009658177, 3.134104    , 1.31        , 3           , 12          , 0.0384649076, 0
0.01612662  , -0.044667542, 9.792611    , -0.0008145426, 0.000231687271, 0.0006649756, -0.5334367  , 0.00579749234, -0.380477279, 3.13771987  , -0.000968160341, 3.13409734  , 1.32        , 3           , 14          , 4.143995E-05, 0.000488638354
0.018748071 , -0.04745473 , 9.807082    , 0.0006019368, -0.0006034572, 0.000952795846, -0.5332345  , 0.00566266663, -0.3800054  , 3.13772583  , -0.0009621626, 3.1340878   , 1.33        , 3           , 15          , 0           , 0.000162239041
0.0301598869, -0.0439421162, 9.796336    , 0.000321067026, -0.00088693155, 0.0012335825, -0.5332345  , 0.00566266663, -0.3800054  , 3.137729    , -0.000953340961, 3.1340754   , 1.34        , 3           , 50          , 0           , 0
-0.0117604248, -0.0276725944, 9.800603    , 0.00117884693, -0.00313372561, 0.000103911872, -0.5333693  , 0.00566266663, -0.3796009  , 3.13774085  , -0.000922007952, 3.13407445  , 1.35        , 3           , 11          , 0.03846745  , 0.03846746
-0.0197980851, -0.0216832142, 9.791979    , 0.000608995557, -0.002292854, -0.00131010741, -0.5335041  , 0.00599973043, -0.3806121  , 3.13774681  , -0.000899029139, 3.13408685  , 1.36        , 3           , 12          , 0.0384649076, 0
-0.00241574086, -0.0426465049, 9.792928    , 0.0008779717, 0.000524709059, -0.000456838665, -0.533099651, 0.00552784139, -0.380275041, 3.13775563  , -0.000904258632, 3.13409162  , 1.37        , 3           , 14          , 4.143995E-05, 0.000488638354
-0.004688574, -0.0395026878, 9.805128    , -0.00137849152, -5.37E-05   , -0.000185704484, -0.533099651, 0.00552784139, -0.380275041, 3.1377418   , -0.0009037145, 3.13409352  , 1.38        , 3           , 15          , 0           , 0.000162239041
-0.00604902 , -0.0372566953, 9.812811    , -0.00052522 , -0.00145580014, -0.0018791483, -0.533099651, 0.00579749234, -0.379668325, 3.13773656  , -0.00088908436, 3.1341126   , 1.39        , 3           , 50          , 0           , 0
-0.00932746 , -0.04846652 , 9.803247    , -0.0013796339, -5.37100677E-05, -0.00216346141, -0.5335041  , 0.00599973043, -0.3805447  , 3.13772273  , -0.0008884364, 3.134134    , 1.4         , 3           , 11          , 0.0390834659, 0.0390834771
-0.0115145631, -0.04793133 , 9.786057    , -0.00108983647, -0.00117805181, 0.000944031868, -0.5332345  , 0.00573007949, -0.380477279, 3.137712    , -0.000876692648, 3.13412452  , 1.41        , 3           , 12          , 0.0390806533, 0
-0.00249597337, -0.042711515, 9.812363    , 0.00341916038, 0.0005418911, -0.00157513085, -0.5332345  , 0.00573007949, -0.380477279, 3.137746    , -0.0008820506, 3.13414025  , 1.42        , 3           , 14          , 4.14403E-05 , 0.000488642952
-0.0102761732, -0.0462590866, 9.820876    , -0.0008115029, -0.000613017939, -0.001314083, -0.5333019  , 0.00573007949, -0.379668325, 3.137738    , -0.000875869766, 3.1341536   , 1.43        , 3           , 15          , 0           , 0.000162233613
-0.009082867, -0.0353241637, 9.785676    , -0.000814542931, 0.000231682658, 0.000664981 , -0.533571541, 0.00620196853, -0.3806121  , 3.13773     , -0.000878212159, 3.134147    , 1.44        , 3           , 50          , 0           , 0
-0.006886992, -0.0340668373, 9.80649     , 0.000861080247, 0.00390348467, -0.000734163448, -0.533099651, 0.00566266663, -0.380207628, 3.13773847  , -0.0009172184, 3.13415456  , 1.45        , 3           , 11          , 0.0390834659, 0.0390834771
-0.0160887633, -0.0398814268, 9.823118    , 0.00341398478, 0.00194972532, 0.00153495115, -0.533099651, 0.00566266663, -0.380207628, 3.13777256  , -0.000936774362, 3.1341393   , 1.46        , 3           , 12          , 0.0390806533, 0
-0.01644606 , -0.03935239 , 9.801422    , 0.000878549647, 0.0002431355, -0.00186995463, -0.533099651, 0.00586490473, -0.379870564, 3.13778138  , -0.00093913445, 3.13415742  , 1.47        , 3           , 14          , 4.14403E-05 , 0.000488642952
-0.007792037, -0.0282532256, 9.825038    , -0.0008082256, -0.00117614563, -0.0004673384, -0.5334367  , 0.00573007949, -0.3805447  , 3.13777328  , -0.0009273553, 3.13416219  , 1.48        , 3           , 15          , 0           , 0.000162233613
-0.00651332829, -0.0377070643, 9.814161    , -0.00335269142, -0.000630204566, -0.000195785455, -0.5329648  , 0.00566266663, -0.3800728  , 3.13773966  , -0.000921045837, 3.134164    , 1.49        , 3           , 50          , 0           , 0
0.00588356424, -0.06263293 , 9.803305    , -0.003626918, -0.00232150638, -0.000482239382, -0.5329648  , 0.00566266663, -0.3800728  , 3.13770342  , -0.000897809456, 3.13416886  , 1.5         , 3           , 11          , 0.0397356078, 0.0397356153
-0.00749844732, -0.04445614 , 9.811865    , -0.000243623945, -0.0008907557, 0.00151349569, -0.533032238, 0.005393016 , -0.3796009  , 3.137701    , -0.00088896096, 3.1341536   , 1.51        , 3           , 12          , 0.03973251  , 0
0.004595098 , -0.0563114472, 9.806484    , 0.00201973529, -0.00200174423, -0.00130307919, -0.5334367  , 0.00566266663, -0.380477279, 3.1377213   , -0.0008688932, 3.134167    , 1.52        , 3           , 14          , 4.144044E-05, 0.0004886434
-0.03944147 , -0.06704891 , 9.79842     , 0.00202940428, -0.00369112822, 0.0009546169, -0.533099651, 0.00586490473, -0.380207628, 3.13774157  , -0.000832019, 3.134157    , 1.53        , 3           , 15          , 0           , 0.0001622295
-0.0206148122, -0.05009287 , 9.789595    , -0.00136373634, -0.00286935177, 0.001222653 , -0.533099651, 0.00586490473, -0.380207628, 3.137728    , -0.000803373, 3.134145    , 1.54        , 3           , 50          , 0           , 0
-0.00158392184, -0.0440559536, 9.806488    , -0.0005335102, 0.000515157357, 0.000666736043, -0.533032238, 0.00579749234, -0.3796009  , 3.13772249  , -0.000808550452, 3.13413835  , 1.55        , 3           , 11          , 0.0397356078, 0.0397356153
0.0154202674, -0.06495345 , 9.789356    , 0.0005953813, 0.000522793271, -0.0007406835, -0.5333693  , 0.00579749234, -0.3805447  , 3.13772845  , -0.0008137496, 3.1341455   , 1.56        , 3           , 12          , 0.03973251  , 0
0.0176497269, -0.0636689  , 9.802034    , -0.000250593963, 0.0005170696, 0.00151566544, -0.5332345  , 0.00593231758, -0.380207628, 3.137726    , -0.000818978762, 3.13413024  , 1.57        , 3           , 14          , 4.144044E-05, 0.0004886434
-0.00801444147, -0.0467337966, 9.819988    , -0.000796420965, -0.00342866383, 0.000659344 , -0.5332345  , 0.00593231758, -0.380207628, 3.137718    , -0.000784717849, 3.13412356  , 1.58        , 3           , 15          , 0           , 0.0001622295
-0.021867305, -0.0379396826, 9.802743    , -0.00109524967, -5.17911722E-05, 0.00122830924, -0.5332345  , 0.00579749234, -0.3795335  , 3.137707    , -0.0007842476, 3.13411164  , 1.59        , 3           , 50          , 0           , 0
0.00181524269, -0.0309629086, 9.792557    , -0.000257483567, 0.00164332287, -0.0007428923, -0.533638954, 0.00573007949, -0.3805447  , 3.13770437  , -0.000800645561, 3.1341188   , 1.6         , 3           , 11          , 0.0404217765, 0.0404217839
0.00118316989, -0.04404702 , 9.794306    , 0.000311626442, 0.00108401943, 0.00180171081, -0.5333019  , 0.00566266663, -0.380207628, 3.13770771  , -0.0008115557, 3.13410115  , 1.61        , 3           , 12          , 0.04041837  , 0
-0.00128989853, -0.0571340732, 9.803272    , -0.00278915162, -0.00062639243, -0.00245344127, -0.5333019  , 0.00566266663, -0.380207628, 3.13767958  , -0.000805196236, 3.134125    , 1.62        , 3           , 14          , 4.14488277E-05, 0.0004886445
-0.0197108146, -0.0420704745, 9.815849    , 4.24870559E-05, -0.00173354463, 0.000665904663, -0.533167064, 0.00546042854, -0.3796009  , 3.13768     , -0.000787886849, 3.13411832  , 1.63        , 3           , 15          , 0           , 0.000162223252
-0.0156853367, -0.04617565 , 9.81496     , 0.00116547616, -0.000599649735, -0.001304854, -0.533706367, 0.00566266663, -0.3806121  , 3.13769174  , -0.0007818396, 3.13413167  , 1.64        , 3           , 50          , 0           , 0
-0.0134091061, -0.0497630574, 9.800499    , 0.004842349 , -0.00141951 , 0.0006887265, -0.5332345  , 0.00559525425, -0.380477279, 3.13774014  , -0.0007676712, 3.134125    , 1.65        , 3           , 11          , 0.0404217765, 0.0404217839
-0.0009021256, -0.03182424 , 9.78982     , 0.00285453582, 0.000819642446, 0.00124805432, -0.5332345  , 0.00559525425, -0.380477279, 3.13776875  , -0.000775915454, 3.13411212  , 1.66        , 3           , 12          , 0.04041837  , 0
-0.017765   , -0.0415362641, 9.78468     , -0.00165739807, -0.000900314539, -0.0013184573, -0.5333019  , 0.00552784139, -0.3795335  , 3.137752    , -0.0007668619, 3.13412547  , 1.67        , 3           , 14          , 4.14488277E-05, 0.0004886445
0.000517739 , -0.05938992 , 9.796949    , -0.00559440861, -0.004024262, 0.001483707 , -0.5333019  , 0.006067143 , -0.380342454, 3.13769627  , -0.00072667707, 3.13411069  , 1.68        , 3           , 15          , 0           , 0.000162223252
0.004426053 , -0.0355441123, 9.803858    , -0.00222635921, 0.000222132832, 0.00122348173, -0.533167064, 0.00559525425, -0.380207628, 3.137674    , -0.0007289461, 3.13409829  , 1.69        , 3           , 50          , 0           , 0
-0.0006546546, -0.04226198 , 9.806503    , 0.0005911858, 0.0013674862, -0.0007393732, -0.533167064, 0.00559525425, -0.380207628, 3.13767982  , -0.0007425853, 3.134106    , 1.7         , 3           , 11          , 0.041139923 , 0.0411399268
0.00345992739, -0.04183145 , 9.798401    , 4.429105E-05, -0.00229668058, -0.00103018573, -0.533167064, 0.00566266663, -0.379735738, 3.13768029  , -0.000719578355, 3.13411546  , 1.71        , 3           , 12          , 0.0411361977, 0
0.00254031271, -0.04317125 , 9.797484    , -0.00278046657, -0.00231578248, -0.0018909676, -0.5335041  , 0.00586490473, -0.3806121  , 3.1376524   , -0.000696346455, 3.13413453  , 1.72        , 3           , 14          , 4.14539427E-05, 0.000488645746
-0.0244955663, -0.0342653245, 9.792795    , -0.00137941015, 0.000227859942, 0.000662359758, -0.5329648  , 0.00593231758, -0.380409867, 3.13763857  , -0.0006986511, 3.13412786  , 1.73        , 3           , 15          , 0           , 0.000162221011
-0.0173128732, -0.0424348079, 9.781967    , 0.0011560393, 0.00137130613, -0.00073673937, -0.5329648  , 0.00593231758, -0.380409867, 3.13765025  , -0.000712334935, 3.13413548  , 1.74        , 3           , 50          , 0           , 0
-0.004678165, -0.0782525837, 9.788695    , -0.00193852466, -0.0009022194, 0.0009405275, -0.533032238, 0.00586490473, -0.379735738, 3.137631    , -0.000703350059, 3.134126    , 1.75        , 3           , 11          , 0.041139923 , 0.0411399268
-0.0193185862, -0.04837376 , 9.810403    , -0.00335328351, -0.000348638336, 0.00121734827, -0.5335041  , 0.00579749234, -0.380477279, 3.13759732  , -0.0006999121, 3.13411355  , 1.76        , 3           , 12          , 0.0411361977, 0
-0.0135420719, -0.0204858258, 9.816439    , 0.000602011569, -0.000885035959, -0.00130791962, -0.5333693  , 0.00573007949, -0.380409867, 3.13760328  , -0.0006910096, 3.134127    , 1.77        , 3           , 14          , 4.14539427E-05, 0.000488645746
0.0129924417, -0.039691858, 9.799838    , 0.00201856531, -0.00143860839, 0.0015231719, -0.5333693  , 0.00573007949, -0.380409867, 3.13762355  , -0.000676684256, 3.13411164  , 1.78        , 3           , 15          , 0           , 0.000162221011
-0.0137940664, -0.04881008 , 9.786941    , -0.00221447088, -0.002311957, 8.942852E-05, -0.533167064, 0.00546042854, -0.379668325, 3.13760138  , -0.0006535685, 3.13411069  , 1.79        , 3           , 50          , 0           , 0
-0.00406137528, -0.05803925 , 9.813643    , 0.0039868583, 0.000264151022, 0.000969918 , -0.5335041  , 0.00586490473, -0.3805447  , 3.13764119  , -0.000656253251, 3.13410115  , 1.8         , 3           , 11          , 0.04188807  , 0.0418880731
-0.0132097835, -0.06738141 , 9.805851    , 0.003143434 , -0.0005862756, 0.0003995904, -0.5329648  , 0.00579749234, -0.380275041, 3.13767266  , -0.000650406233, 3.13409686  , 1.81        , 3           , 12          , 0.041884    , 0
-0.0236771367, -0.03613196 , 9.808161    , 0.002853874 , 0.000819639 , 0.000117905671, -0.5329648  , 0.00579749234, -0.380275041, 3.13770127  , -0.0006586071, 3.13409543  , 1.82        , 3           , 14          , 4.145799E-05, 0.0004886449
-0.00306139933, -0.018768711, 9.806129    , 4.436134E-05, -0.00201510754, 0.00151308451, -0.5332345  , 0.00579749234, -0.3795335  , 3.13770175  , -0.000638515165, 3.13408017  , 1.83        , 3           , 15          , 0           , 0.000162221957
-0.0046304334, -0.03142128 , 9.816914    , -0.0013812976, 0.0005094236, -0.000184819524, -0.5334367  , 0.00599973043, -0.3806121  , 3.137688    , -0.000643602165, 3.134082    , 1.84        , 3           , 50          , 0           , 0
-0.0233103782, -0.04156318 , 9.811756    , -0.005324285, -0.00176983746, -0.000489265542, -0.5332345  , 0.00559525425, -0.380275041, 3.13763452  , -0.000625884742, 3.13408685  , 1.85        , 3           , 11          , 0.04188807  , 0.0418880731
0.00170243625, -0.0373032168, 9.799763    , -0.0033514786, -0.000911772368, -0.000478745234, -0.5332345  , 0.00559525425, -0.380275041, 3.13760114  , -0.000616748, 3.13409162  , 1.86        , 3           , 12          , 0.041884    , 0
-0.0002450077, -0.0400704965, 9.824142    , 0.0008649182, 0.00305878581, -0.00130052865, -0.533167064, 0.00552784139, -0.379803151, 3.13760972  , -0.000647283858, 3.134105    , 1.87        , 3           , 14          , 4.145799E-05, 0.0004886449
-0.025850974, -0.0302298348, 9.805004    , -0.00305929361, -0.002880818, -0.000480465824, -0.533571541, 0.00573007949, -0.380477279, 3.1375792   , -0.000618456746, 3.13410974  , 1.88        , 3           , 15          , 0           , 0.000162221957
-0.019553883, -0.0365871079, 9.795082    , 0.002869371 , -0.00227757613, 0.0003956699, -0.5329648  , 0.00573007949, -0.380140215, 3.13760781  , -0.000595697, 3.134106    , 1.89        , 3           , 50          , 0           , 0
0.00703742728, -0.04191026 , 9.809275    , -0.000514500658, -0.00342675229, -0.00018693888, -0.5329648  , 0.00573007949, -0.380140215, 3.13760281  , -0.0005614501, 3.13410735  , 1.9         , 3           , 11          , 0.0426643044, 0.0426643081
0.004270466 , -0.04682894 , 9.805617    , -0.00165519677, -0.0011818707, 9.38021E-05 , -0.533099651, 0.00546042854, -0.3796009  , 3.137586    , -0.0005496352, 3.1341064   , 1.91        , 3           , 12          , 0.042659875 , 0
-0.001563956, -0.042254366, 9.8074      , 3.27203525E-05, 0.0002374159, 0.0006689484, -0.533638954, 0.00579749234, -0.380814344, 3.13758659  , -0.0005520361, 3.13409972  , 1.92        , 3           , 14          , 4.14575043E-05, 0.000488639635
-0.0170590486, -0.04929659 , 9.808609    , 0.000866638962, 0.002777228 , -0.0007358826, -0.5333019  , 0.00579749234, -0.380409867, 3.13759518  , -0.0005797788, 3.13410735  , 1.93        , 3           , 15          , 0           , 0.000162217024
-0.01084448 , -0.0588451922, 9.808617    , -0.000812261656, -0.0003314464, -0.000183482538, -0.5333019  , 0.00579749234, -0.380409867, 3.137587    , -0.000576457067, 3.13410878  , 1.94        , 3           , 50          , 0           , 0
0.0187861137, -0.036265146, 9.833795    , -0.00221758871, -0.00174882251, -0.000474774337, -0.5333019  , 0.00579749234, -0.379735738, 3.137565    , -0.000558949832, 3.13411355  , 1.95        , 3           , 11          , 0.0426643044, 0.0426643081
0.003320248 , -0.05176433 , 9.800618    , -0.0008133292, -4.98797781E-05, 0.0003820261, -0.533571541, 0.00593231758, -0.380679518, 3.13755679  , -0.00055846636, 3.13410974  , 1.96        , 3           , 12          , 0.042659875 , 0
0.0107602356, -0.0396395773, 9.792138    , 0.003423978 , -0.000302797649, -0.000446266058, -0.5332345  , 0.00579749234, -0.380409867, 3.137591    , -0.0005554204, 3.1341145   , 1.97        , 3           , 14          , 4.14575043E-05, 0.000488639635
0.005255256 , -0.040526472, 9.806555    , 0.00370508432, 0.000262249436, 0.002098756 , -0.5332345  , 0.00579749234, -0.380409867, 3.137628    , -0.0005581265, 3.13409352  , 1.98        , 3           , 15          , 0           , 0.000162217024
-0.0250550341, -0.0347927958, 9.817195    , 0.0008835303, -0.0006015525, -0.000458552327, -0.533099651, 0.00559525425, -0.379870564, 3.137637    , -0.0005520928, 3.13409829  , 1.99        , 3           , 50          , 0           , 0
-0.0229213256, -0.0496544465, 9.80133     , 0.00172400114, 0.000812002167, -0.000169892257, -0.5335041  , 0.00579749234, -0.380814344, 3.137654    , -0.0005601982, 3.13409972  , 2           , 3           , 11          , 0.04346681  , 0.0434668176
-0.000826474337, -0.05534536 , 9.806448    , 0.0006087232, -0.00201128633, 0.0006681129, -0.5329648  , 0.00566266663, -0.380342454, 3.13766026  , -0.0005401117, 3.13409257  , 2.01        , 3           , 12          , 0.0434619933, 0
-0.01365727 , -0.03263063 , 9.80554     , 0.0008899191, -0.0017278106, 0.0009524012, -0.5329648  , 0.00566266663, -0.380342454, 3.137669    , -0.000522871036, 3.134083    , 2.02        , 3           , 14          , 4.14604E-05 , 0.000488641148
-0.0292237252, -0.01793366 , 9.783335    , -0.0005290219, -0.000329534058, 0.00123052381, -0.533032238, 0.00552784139, -0.379803151, 3.13766384  , -0.000519624, 3.134071    , 2.03        , 3           , 15          , 0           , 0.0001622149
0.00185462  , -0.025574794, 9.800263    , 0.00117234583, -0.00172590045, 0.000953718147, -0.533638954, 0.00599973043, -0.3805447  , 3.13767552  , -0.000502402545, 3.134061    , 2.04        , 3           , 50          , 0           , 0
0.0121908709, -0.0275455  , 9.813442    , -0.00192951446, -0.002591602, 0.00206808  , -0.5334367  , 0.006067143 , -0.3805447  , 3.13765621  , -0.000476567948, 3.13404059  , 2.05        , 3           , 11          , 0.04346681  , 0.0434668176
-0.00156516489, -0.0413626432, 9.810568    , 0.00115726376, 0.00108974474, -0.00101970474, -0.5334367  , 0.006067143 , -0.3805447  , 3.137668    , -0.000487425248, 3.13405061  , 2.06        , 3           , 12          , 0.0434619933, 0
-0.0109988563, -0.0282462519, 9.834053    , 0.0037009886, 0.000825372 , -0.000160673721, -0.533099651, 0.00546042854, -0.379870564, 3.13770485  , -0.000495672633, 3.13405252  , 2.07        , 3           , 14          , 4.14604E-05 , 0.000488641148
-0.01880426 , -0.04074125 , 9.81993     , -0.000817099062, 0.000513244129, -0.0013123285, -0.533638954, 0.00559525425, -0.3805447  , 3.1376965   , -0.000500753929, 3.13406587  , 2.08        , 3           , 15          , 0           , 0.0001622149
-0.0158349331, -0.0294097029, 9.794688    , 0.001721213 , 0.00137513224, -0.0001690244, -0.533167064, 0.00559525425, -0.380342454, 3.137714    , -0.0005144987, 3.1340673   , 2.09        , 3           , 50          , 0           , 0
-0.009366543, -0.04582008 , 9.821337    , 0.000605285459, -0.00144815538, -0.000461166434, -0.533167064, 0.00559525425, -0.380342454, 3.13771987  , -0.0005000193, 3.13407159  , 2.1         , 3           , 11          , 0.0442938432, 0.0442938469
-0.0175887626, -0.0524780676, 9.817179    , 0.00200601551, 0.00109548564, 0.00152708578, -0.533167064, 0.00559525425, -0.379870564, 3.13774     , -0.000511033169, 3.13405681  , 2.11        , 3           , 12          , 0.0442886129, 0
0.00403736252, -0.03459416 , 9.791203    , 0.00200101756, 0.00194017729, 0.000115700168, -0.5335041  , 0.00579749234, -0.380477279, 3.13776     , -0.0005304391, 3.13405538  , 2.12        , 3           , 14          , 4.145749E-05, 0.0004886373
0.000888918468, -0.028737342, 9.804763    , -0.0002460139, -0.0006091892, -0.000181277937, -0.533099651, 0.00546042854, -0.380342454, 3.13775754  , -0.000524340256, 3.13405728  , 2.13        , 3           , 15          , 0           , 0.000162212367
-0.03221246 , -0.03285174 , 9.801781    , -0.00166495482, 0.0007890871, 9.684429E-05, -0.533099651, 0.00546042854, -0.380342454, 3.13774085  , -0.000532234844, 3.13405633  , 2.14        , 3           , 50          , 0           , 0
-0.03349965 , -0.0599313527, 9.807986    , -0.00138564222, 0.00135412556, -0.000466045662, -0.5333019  , 0.00573007949, -0.379937977, 3.137727    , -0.000545758056, 3.134061    , 2.15        , 3           , 11          , 0.0442938432, 0.0442938469
-0.0135535309, -0.05345088 , 9.823985    , -0.00560852 , -0.0012086049, 0.00120551966, -0.5335041  , 0.00579749234, -0.380746931, 3.137671    , -0.000533719, 3.13404918  , 2.16        , 3           , 12          , 0.0442886129, 0
0.00190031808, -0.0517982878, 9.815523    , -0.0025115828, 0.0007833603, 0.00122304342, -0.533099651, 0.00552784139, -0.380477279, 3.13764572  , -0.0005416006, 3.13403678  , 2.17        , 3           , 14          , 4.145749E-05, 0.0004886373
-0.0195786953, -0.0348218158, 9.806841    , -0.00304986164, -0.00485176733, -0.00104856887, -0.533099651, 0.00552784139, -0.380477279, 3.1376152   , -0.000493041764, 3.13404727  , 2.18        , 3           , 15          , 0           , 0.000162212367
-0.00304454 , -0.0512644723, 9.808255    , -0.001088623, -0.001459612, 0.000661081751, -0.533167064, 0.00566266663, -0.379668325, 3.13760448  , -0.000478472124, 3.13404059  , 2.19        , 3           , 50          , 0           , 0
-0.03207559 , -0.04918165 , 9.826573    , -0.000525167736, -0.00117422035, 0.000664152671, -0.533571541, 0.00552784139, -0.380679518, 3.13759923  , -0.000466791156, 3.13403344  , 2.2         , 3           , 11          , 0.04514375  , 0.04514375
-0.00645264145, -0.03631884 , 9.803772    , 0.00200421643, 0.00109548378, -0.0015808231, -0.5333693  , 0.00573007949, -0.3805447  , 3.13761926  , -0.000477683, 3.13404965  , 2.21        , 3           , 12          , 0.0451380722, 0
0.0147652812, -0.0410832  , 9.804818    , 0.000319739775, -0.0008869301, -0.00102668745, -0.5333693  , 0.00573007949, -0.3805447  , 3.13762236  , -0.000468772923, 3.13406014  , 2.22        , 3           , 14          , 4.14620263E-05, 0.000488630671
0.006378803 , -0.0581403449, 9.807396    , 0.0008890129, -0.00144623243, 0.00180045341, -0.533099651, 0.00573007949, -0.379668325, 3.13763118  , -0.000454382243, 3.134042    , 2.23        , 3           , 15          , 0           , 0.000162209239
0.0131420754, -0.06404573 , 9.79567051  , 0.00285198656, 0.00110121584, -0.0007292599, -0.533571541, 0.00586490473, -0.3806121  , 3.13765979  , -0.000465365476, 3.13404918  , 2.24        , 3           , 50          , 0           , 0
-0.0126616126, -0.0267657042, 9.802407    , -0.002234974, 0.00162996445, -0.00159970939, -0.533032238, 0.00559525425, -0.3805447  , 3.13763738  , -0.0004816019, 3.134065    , 2.25        , 3           , 11          , 0.04514375  , 0.04514375
-0.00214398187, -0.017877033, 9.806141    , 0.000582235458, 0.00333846034, 0.000676363357, -0.533032238, 0.00559525425, -0.3805447  , 3.13764334  , -0.000515012944, 3.13405824  , 2.26        , 3           , 12          , 0.0451380722, 0
0.0235247687, -0.028559532, 9.807197    , -0.00136301643, -0.00315090735, 9.208929E-05, -0.533032238, 0.00566266663, -0.379870564, 3.13762975  , -0.000483507756, 3.13405728  , 2.27        , 3           , 14          , 4.14620263E-05, 0.000488630671
-0.00280200969, -0.0434799977, 9.773938    , -0.00110026891, 0.000792912964, -0.000183055949, -0.5334367  , 0.00579749234, -0.380409867, 3.13761854  , -0.0004914295, 3.13405919  , 2.28        , 3           , 15          , 0           , 0.000162209239
0.00764118554, -0.029295437, 9.812947    , 0.00285821524, -2.50411977E-05, 0.000399154029, -0.533099651, 0.00566266663, -0.3805447  , 3.13764715  , -0.000491194951, 3.13405538  , 2.29        , 3           , 50          , 0           , 0
-0.006874162, -0.03182469 , 9.810566    , 3.09963725E-05, 0.0005189826, 0.000104318831, -0.533099651, 0.00566266663, -0.3805447  , 3.13764763  , -0.000496358436, 3.13405442  , 2.3         , 3           , 11          , 0.046014946 , 0.0460149534
-0.00431258231, -0.04760454 , 9.797865    , -0.00192828453, -0.00287316344, 0.001785118 , -0.533032238, 0.00546042854, -0.379803151, 3.13762832  , -0.000467697653, 3.1340363   , 2.31        , 3           , 12          , 0.04600881  , 0
0.00290137436, -0.0512852  , 9.793837    , -0.004466018, -0.00401662 , -0.0007713074, -0.533706367, 0.00599973043, -0.3805447  , 3.13758349  , -0.0004275011, 3.134044    , 2.32        , 3           , 14          , 4.146118E-05, 0.0004886365
-0.00171034411, -0.0486218929, 9.82274     , -0.00194624334, 0.000787183351, 0.00207329658, -0.5333693  , 0.00559525425, -0.380409867, 3.13756418  , -0.000435456168, 3.134023    , 2.33        , 3           , 15          , 0           , 0.000162205528
0.00225391518, -0.0599182732, 9.81368351  , -0.00223604077, 0.00191152538, -0.0010341967, -0.5333693  , 0.00559525425, -0.380409867, 3.13754177  , -0.000454529538, 3.13403344  , 2.34        , 3           , 50          , 0           , 0
0.004271351 , -0.04816728 , 9.801092    , -0.00448184134, -0.000919406943, -0.00161414652, -0.533167064, 0.00546042854, -0.379870564, 3.137497    , -0.000445269776, 3.13404965  , 2.35        , 3           , 11          , 0.046014946 , 0.0460149534
-0.0164064523, -0.0361958444, 9.80188751  , -0.003071353, -0.00034672147, 0.0003710682, -0.5333019  , 0.00559525425, -0.380679518, 3.13746619  , -0.0004418178, 3.13404584  , 2.36        , 3           , 12          , 0.04600881  , 0
-0.0261391085, -0.0518881157, 9.805816    , -0.00222972338, 0.0005036967, -0.00216651615, -0.5332345  , 0.00559525425, -0.380207628, 3.137444    , -0.000446765131, 3.13406777  , 2.37        , 3           , 14          , 4.146118E-05, 0.0004886365
-0.0225862879, -0.0551113822, 9.81261     , -0.0008061998, -0.0014577012, 0.000662405451, -0.5332345  , 0.00559525425, -0.380207628, 3.137436    , -0.0004322157, 3.134061    , 2.38        , 3           , 15          , 0           , 0.000162205528
-0.003226514, -0.03541746 , 9.792952    , 0.000314327772, 0.0002393251, -0.0007424104, -0.5332345  , 0.00573007949, -0.379735738, 3.137439    , -0.000434578076, 3.13406873  , 2.39        , 3           , 50          , 0           , 0
0.00273210648, -0.0282862745, 9.798451    , 0.00199436583, 0.00334800826, 0.0006829554, -0.5337738  , 0.00599973043, -0.3806121  , 3.137459    , -0.000468105543, 3.134062    , 2.4         , 3           , 11          , 0.0469059721, 0.0469059832
-0.002707244, -0.0286736451, 9.798408    , -0.000816614949, 0.000513254839, -0.000464703044, -0.533099651, 0.00573007949, -0.380342454, 3.1374507   , -0.000473218824, 3.13406634  , 2.41        , 3           , 12          , 0.0468993336, 0
-0.00695085945, -0.03724304 , 9.811899    , 0.00031473834, -4.22408339E-05, -0.0024380656, -0.533099651, 0.00573007949, -0.380342454, 3.13745379  , -0.00047269545, 3.13409066  , 2.42        , 3           , 14          , 4.146568E-05, 0.000488632766
-0.0175716076, -0.05960577 , 9.79003048  , -0.0008098081, -0.0008945713, -0.000749410246, -0.5332345  , 0.00559525425, -0.379735738, 3.137446    , -0.000463718781, 3.13409829  , 2.43        , 3           , 15          , 0           , 0.000162201861
-0.0171639957, -0.02758461 , 9.79333     , -0.0008089923, -0.000894567347, 0.000663277 , -0.533571541, 0.00613455568, -0.3805447  , 3.13743782  , -0.000454800756, 3.13409162  , 2.44        , 3           , 50          , 0           , 0
0.00360762421, -0.0336774662, 9.788491    , 4.591081E-05, -0.00229665963, 0.0017952082, -0.5332345  , 0.00593231758, -0.380409867, 3.1374383   , -0.000431908877, 3.1340735   , 2.45        , 3           , 11          , 0.0469059721, 0.0469059832
0.000475996145, -0.0353949741, 9.773545    , 0.00228704046, 0.00137896533, 0.00152884738, -0.5332345  , 0.00593231758, -0.380409867, 3.137461    , -0.000445761863, 3.13405824  , 2.46        , 3           , 12          , 0.0468993336, 0
-0.00730645144, -0.02421481 , 9.83002949  , 3.935589E-05, -0.001170404, 0.00010171887, -0.533099651, 0.00579749234, -0.379735738, 3.13746142  , -0.0004340621, 3.13405728  , 2.47        , 3           , 14          , 4.146568E-05, 0.000488632766
-0.0156384967, -0.0407814868, 9.820858    , -0.000527959433, -0.0006110923, 0.0006650279, -0.533571541, 0.006067143 , -0.380679518, 3.13745618  , -0.000427978637, 3.13405061  , 2.48        , 3           , 15          , 0           , 0.000162201861
-0.0111153256, -0.0497654453, 9.793284    , -0.00195329217, 0.00191344041, -0.000467801117, -0.5332345  , 0.00599973043, -0.3805447  , 3.13743663  , -0.0004470935, 3.13405538  , 2.49        , 3           , 50          , 0           , 0
-0.006559717, -0.0475643538, 9.79378     , -0.00193393754, -0.00202846737, -0.000756402558, -0.5332345  , 0.00599973043, -0.3805447  , 3.13741732  , -0.000426799641, 3.134063    , 2.5         , 3           , 11          , 0.04781542  , 0.04781544
0.0160690062, -0.04694598 , 9.799379    , -0.00306922081, -0.000909846858, -0.0007599346, -0.5333693  , 0.00579749234, -0.379870564, 3.13738656  , -0.0004176694, 3.13407063  , 2.51        , 3           , 12          , 0.0478082523, 0
-0.00232863426, -0.0332025737, 9.802008    , -0.00307430746, 0.000216415792, 8.94133555E-05, -0.533571541, 0.00559525425, -0.3806121  , 3.1373558   , -0.000419837423, 3.13406968  , 2.52        , 3           , 14          , 4.146388E-05, 0.0004886286
-0.012734253, -0.0317344181, 9.804194    , 0.00172645925, 0.000248882861, -0.000735810958, -0.5332345  , 0.00593231758, -0.380342454, 3.13737321  , -0.0004222951, 3.13407683  , 2.53        , 3           , 15          , 0           , 0.000162190772
-0.009513557, -0.0606687628, 9.809523    , 0.000601838459, -0.0008850196, -0.00159042689, -0.5332345  , 0.00593231758, -0.380342454, 3.13737917  , -0.0004133779, 3.13409257  , 2.54        , 3           , 50          , 0           , 0
0.0056282673, -0.0450599343, 9.811511    , 0.00172162463, 0.001093575 , -0.00186465913, -0.533167064, 0.00566266663, -0.379668325, 3.13739634  , -0.000424235128, 3.13411164  , 2.55        , 3           , 11          , 0.04781542  , 0.04781544
0.0100818444, -0.05231488 , 9.806543    , 3.00891152E-05, 0.000800558 , 0.00095238  , -0.533638954, 0.00599973043, -0.380477279, 3.13739657  , -0.000432280649, 3.134102    , 2.56        , 3           , 12          , 0.0478082523, 0
-0.00202714838, -0.04627464 , 9.796984    , 0.00257341354, 0.0002546112, -0.00129693514, -0.5332345  , 0.00593231758, -0.3806121  , 3.13742232  , -0.000434772461, 3.1341145   , 2.57        , 3           , 14          , 4.146388E-05, 0.0004886286
-0.002972031, -0.041386012, 9.82230949  , 0.000167698759, 0.00136463938, -0.000458781025, -0.5332345  , 0.00593231758, -0.3806121  , 3.137424    , -0.000448399631, 3.13411927  , 2.58        , 3           , 15          , 0           , 0.000162190772
-0.00676126033, -0.0228061937, 9.81196     , -0.00138396549, 0.0009317848, -0.00117301859, -0.5332345  , 0.00559525425, -0.379803151, 3.13741016  , -0.000457668561, 3.13413119  , 2.59        , 3           , 50          , 0           , 0
-0.009565635, -0.0304332916, 9.80874348  , 0.000169382576, 0.000942287734, -0.001165775, -0.5335041  , 0.00573007949, -0.3805447  , 3.13741183  , -0.000467032252, 3.134143    , 2.6         , 3           , 11          , 0.0487419963, 0.0487420149
0.008467405 , -0.0734849  , 9.80102     , 0.0022984466, -0.00115512346, -0.000452808861, -0.533099651, 0.00573007949, -0.380477279, 3.137435    , -0.000455462316, 3.13414741  , 2.61        , 3           , 12          , 0.0487342551, 0
0.008470578 , -0.07169692 , 9.805999    , 0.00103289424, -0.00214919378, 0.000387358567, -0.533099651, 0.00573007949, -0.380477279, 3.13744521  , -0.000433986541, 3.13414359  , 2.62        , 3           , 14          , 4.14635142E-05, 0.0004886305
-0.00854424853, -0.05259344 , 9.81996     , -0.000245612, -0.0006091804, 0.0005250877, -0.5332345  , 0.00552784139, -0.379668325, 3.13744283  , -0.0004279166, 3.13413835  , 2.63        , 3           , 15          , 0           , 0.00016219019
0.0190707371, -0.0596169271, 9.799802    , -0.000111450208, 0.000799599569, 0.000386647123, -0.5335041  , 0.00586490473, -0.3806121  , 3.13744164  , -0.000435928552, 3.13413453  , 2.64        , 3           , 50          , 0           , 0
-0.0009560697, -0.06169928 , 9.817719    , 0.000308623421, 0.00150637678, 0.00024843862, -0.533167064, 0.00586490473, -0.380342454, 3.13744473  , -0.000451002532, 3.13413167  , 2.65        , 3           , 11          , 0.0487419963, 0.0487420149
0.0179239064, -0.0406828672, 9.808911    , 0.00116287393, 0.0001042813, 0.000250219746, -0.533167064, 0.00586490473, -0.380342454, 3.13745642  , -0.000452055654, 3.13412976  , 2.66        , 3           , 12          , 0.0487342551, 0
0.0177025273, -0.02263604 , 9.810341    , 0.00258521829, -0.00199790788, -0.000170256229, -0.5329648  , 0.00599973043, -0.3794661  , 3.13748217  , -0.000432069734, 3.13413072  , 2.67        , 3           , 14          , 4.14635142E-05, 0.0004886305
-0.0268885661, -0.03478968 , 9.822604    , 0.00244392338, -0.00199886342, -0.00031218346, -0.533571541, 0.00613455568, -0.3805447  , 3.13750672  , -0.000412068417, 3.134134    , 2.68        , 3           , 15          , 0           , 0.00016219019
-0.0265030172, -0.0451155379, 9.805841    , 0.00187119516, -0.000313290657, 0.000535398663, -0.5333019  , 0.00586490473, -0.380477279, 3.13752532  , -0.00040895745, 3.13412881  , 2.69        , 3           , 50          , 0           , 0
0.00330803823, -0.0455253273, 9.823695    , 0.002295156 , -0.000310424861, 0.00110245927, -0.5333019  , 0.00586490473, -0.380477279, 3.13754821  , -0.0004058944, 3.13411736  , 2.7         , 3           , 11          , 0.0496844575, 0.0496844724
0.0183979757, -0.03710014 , 9.815258    , 0.00173604151, -0.00144050433, 0.00138062716, -0.533167064, 0.00573007949, -0.379668325, 3.13756561  , -0.000391545182, 3.134104    , 2.71        , 3           , 12          , 0.0496761054, 0
-0.00643070741, -0.03183756 , 9.812829    , 3.86110078E-05, -0.000888834358, 0.00123232463, -0.5333693  , 0.00559525425, -0.3806121  , 3.137566    , -0.000382706552, 3.13409162  , 2.72        , 3           , 14          , 4.14691676E-05, 0.0004886312
-0.0146692581, -0.04297228 , 9.798257    , -0.00165446708, -0.00146343047, -0.00103674468, -0.533032238, 0.00566266663, -0.3806121  , 3.1375494   , -0.00036803048, 3.13410163  , 2.73        , 3           , 15          , 0           , 0.000162180018
-0.0104214177, -0.06378445 , 9.800012    , -0.000380884419, -0.00187718053, -4.258827E-05, -0.533032238, 0.00566266663, -0.3806121  , 3.13754582  , -0.000349257141, 3.134102    , 2.74        , 3           , 50          , 0           , 0
-7.757917E-07, -0.06256232 , 9.802808    , 0.0008795741, 0.0005247242, 0.002368595 , -0.5332345  , 0.00573007949, -0.379803151, 3.13755441  , -0.000354600052, 3.13407826  , 2.75        , 3           , 11          , 0.0496844575, 0.0496844724
-0.0129048992, -0.0207880754, 9.77034     , 0.00045249323, 0.00108498614, 0.00123733759, -0.533638954, 0.00579749234, -0.380477279, 3.137559    , -0.000365499785, 3.13406587  , 2.76        , 3           , 12          , 0.0496761054, 0
-0.006991879, -0.04486423 , 9.797404    , 0.00172354  , 0.0009527958, 0.0002541657, -0.533167064, 0.00593231758, -0.380207628, 3.13757634  , -0.0003750379, 3.13406348  , 2.77        , 3           , 14          , 4.14691676E-05, 0.0004886312
-0.008825311, -0.04218293 , 9.811413    , 0.00271334639, 0.0006779153, 0.0001170723, -0.533167064, 0.00593231758, -0.380207628, 3.13760352  , -0.000381821679, 3.13406253  , 2.78        , 3           , 15          , 0           , 0.000162180018
-0.0140561722, -0.0303498935, 9.79967     , 0.00159528048, -0.0015822429, 0.000955945463, -0.533167064, 0.00573007949, -0.3794661  , 3.13761926  , -0.000366037362, 3.13405252  , 2.79        , 3           , 50          , 0           , 0
0.0008587018, -0.0643956959, 9.80823     , 0.0001860126, -0.00215491839, 0.001089768 , -0.5333693  , 0.00573007949, -0.3806121  , 3.13762116  , -0.0003445539, 3.134042    , 2.8         , 3           , 11          , 0.05064165  , 0.05064166
0.007114255 , -0.04140166 , 9.792102    , -0.00108260952, -0.002726646, 0.000235361687, -0.533167064, 0.00573007949, -0.380275041, 3.13761044  , -0.000317297, 3.13403916  , 2.81        , 3           , 12          , 0.05063265  , 0
-0.004893261, -0.02412044 , 9.79389     , -0.00291530672, -0.00344297523, -0.000480626855, -0.533167064, 0.00573007949, -0.380275041, 3.13758135  , -0.0002828483, 3.134044    , 2.82        , 3           , 14          , 4.14723945E-05, 0.000488627
-0.00677628955, -0.0254964754, 9.806977    , -0.00376939424, -0.00204087887, -0.000199870658, -0.533167064, 0.00552784139, -0.379668325, 3.13754344  , -0.000262431684, 3.13404584  , 2.83        , 3           , 15          , 0           , 0.0001621736
-0.0118487459, -0.0362248048, 9.794691    , -0.00122985127, -0.00146055687, 0.000660461956, -0.533571541, 0.00593231758, -0.380477279, 3.13753128  , -0.000247853051, 3.13403916  , 2.84        , 3           , 50          , 0           , 0
-0.0120343193, -0.0426240824, 9.819523    , -0.000388717774, -0.0003285694, -0.0003227327, -0.5333693  , 0.00593231758, -0.380342454, 3.13752747  , -0.000244554278, 3.1340425   , 2.85        , 3           , 11          , 0.05064165  , 0.05064166
-0.0268272217, -0.03250822 , 9.814931    , -0.00420521 , 0.000349557668, -0.0007632326, -0.5333693  , 0.00593231758, -0.380342454, 3.13748527  , -0.000248018769, 3.13405013  , 2.86        , 3           , 12          , 0.05063265  , 0
-0.0123761622, -0.03627997 , 9.812766    , -0.0020786894, -0.00118472241, 0.000374407653, -0.533032238, 0.00559525425, -0.379735738, 3.13746452  , -0.000236187145, 3.13404632  , 2.87        , 3           , 14          , 4.14723945E-05, 0.000488627
-0.004176437, -0.0323183164, 9.813748    , 0.00230273814, -0.001859029, 0.000958810269, -0.533571541, 0.00599973043, -0.380477279, 3.13748765  , -0.000217636465, 3.13403678  , 2.88        , 3           , 15          , 0           , 0.0001621736
0.000137036666, -0.0526309423, 9.801042    , 0.0027256   , -0.001715382, 0.0008197339, -0.5332345  , 0.00566266663, -0.380342454, 3.13751483  , -0.000200516355, 3.13402867  , 2.89        , 3           , 50          , 0           , 0
-0.0357106738, -0.0589692034, 9.79803     , 0.00102874846, -0.0014452734, -0.000741687254, -0.5332345  , 0.00566266663, -0.380342454, 3.137525    , -0.000186072808, 3.13403583  , 2.9         , 3           , 11          , 0.05161249  , 0.0516125
-0.0280537177, -0.0581995957, 9.810747    , -0.0008062474, -0.0015984705, -0.0006091955, -0.5333019  , 0.00573007949, -0.379668325, 3.137517    , -0.000170063446, 3.134042    , 2.91        , 3           , 12          , 0.0516027957, 0
0.00577312056, -0.0382473059, 9.797981    , -0.00109478412, -0.00033333688, -0.000326022215, -0.533706367, 0.00586490473, -0.380746931, 3.137506    , -0.000166716767, 3.134045    , 2.92        , 3           , 14          , 4.14716342E-05, 0.0004886196
0.0016826978, -0.04133636 , 9.791609    , -0.00208405638, -0.0001992396, -0.000471683277, -0.5334367  , 0.00566266663, -0.380342454, 3.13748527  , -0.00016470511, 3.13404965  , 2.93        , 3           , 15          , 0           , 0.000162170953
-0.01686935 , -0.0321815722, 9.817269    , -0.00108461815, -0.00230429042, 0.000377283781, -0.5334367  , 0.00566266663, -0.380342454, 3.1374743   , -0.000141677971, 3.13404584  , 2.94        , 3           , 50          , 0           , 0
0.00319618266, -0.0256043449, 9.804342    , 0.00187139458, -0.00045406443, -0.00031241143, -0.5332345  , 0.00593231758, -0.379668325, 3.13749313  , -0.00013712456, 3.1340487   , 2.95        , 3           , 11          , 0.05161249  , 0.0516125
0.0116839074, -0.0378501453, 9.793508    , 0.00256791129, 0.00138088106, -0.00115391088, -0.533706367, 0.00579749234, -0.380679518, 3.137519    , -0.000150886131, 3.13406062  , 2.96        , 3           , 12          , 0.0516027957, 0
-0.0169720054, -0.050118763, 9.78465     , 0.00214459724, 0.00137801771, -0.0005908114, -0.533167064, 0.00593231758, -0.380140215, 3.13754034  , -0.00016464213, 3.13406682  , 2.97        , 3           , 14          , 4.14716342E-05, 0.0004886196
-0.0003240942, -0.0512933433, 9.807371    , 0.00101390388, 0.00165194471, 0.0001106984, -0.533167064, 0.00593231758, -0.380140215, 3.13755035  , -0.000181165917, 3.13406539  , 2.98        , 3           , 15          , 0           , 0.000162170953
-0.00464195758, -0.0318769626, 9.818267    , 0.00270592119, 0.0022265357, 0.0005432741, -0.5333019  , 0.00566266663, -0.379735738, 3.13757753  , -0.00020345299, 3.13406014  , 2.99        , 3           , 50          , 0           , 0
-0.0074341544, -0.03815514 , 9.816412    , 0.004398145 , 0.00266034738, 0.000128024534, -0.5335041  , 0.00613455568, -0.3805447  , 3.1376214   , -0.000230088161, 3.13405919  , 3           , 3           , 11          , 0.0525959581, 0.05259597
0.02515807  , -0.0447935  , 9.798553    , 0.00115860044, 0.0009489921, 0.000110276211, -0.533167064, 0.00586490473, -0.380477279, 3.137633    , -0.000239582339, 3.13405824  , 3.01        , 3           , 12          , 0.05258554  , 0
0.0118357325, -0.0189804062, 9.81709     , -0.00194661925, 0.000646417669, 0.000236624735, -0.533167064, 0.00586490473, -0.380477279, 3.13761353  , -0.000246055832, 3.13405538  , 3.02        , 3           , 14          , 4.147343E-05, 0.0004886146
-0.00317531521, -0.0215391126, 9.825101    , -0.00124760356, 0.00205901754, 0.000100818033, -0.533167064, 0.00566266663, -0.379803151, 3.13760114  , -0.000266649819, 3.13405442  , 3.03        , 3           , 15          , 0           , 0.000162166878
-0.006940124, -0.0327708349, 9.823669    , 0.00171262864, 0.00320533453, 0.000681456469, -0.5334367  , 0.00599973043, -0.3806121  , 3.137618    , -0.000298730069, 3.13404775  , 3.04        , 3           , 50          , 0           , 0
-0.005069504, -0.03051215 , 9.816461    , 0.00411883229, 0.00209530862, 0.0006909147, -0.5332345  , 0.00586490473, -0.3805447  , 3.13765931  , -0.000319710321, 3.134041    , 3.05        , 3           , 11          , 0.0525959581, 0.05259597
0.0179088879, -0.04337315 , 9.803929    , 0.005258794 , -0.000149576532, -0.000861245033, -0.5332345  , 0.00586490473, -0.3805447  , 3.137712    , -0.000318181119, 3.13404965  , 3.06        , 3           , 12          , 0.05258554  , 0
0.0232580211, -0.0439515859, 9.82295     , 0.00201592757, -0.00115701812, -0.000595371064, -0.533167064, 0.00579749234, -0.379668325, 3.137732    , -0.000306587957, 3.13405538  , 3.07        , 3           , 14          , 4.147343E-05, 0.0004886146
-0.0136958919, -0.0344473235, 9.809148    , -0.0005213236, -0.002018901, 9.781834E-05, -0.5333019  , 0.00586490473, -0.3806121  , 3.13772678  , -0.000286402879, 3.13405442  , 3.08        , 3           , 15          , 0           , 0.000162166878
-0.014601334, -0.0393464379, 9.793301    , 3.64785628E-05, -0.0006072562, -3.86468855E-05, -0.533167064, 0.00579749234, -0.380409867, 3.13772726  , -0.000280328852, 3.134055    , 3.09        , 3           , 50          , 0           , 0
-0.0241316538, -0.041037906, 9.79276848  , 0.0003152958, 0.000239348767, 0.000952863251, -0.533167064, 0.00579749234, -0.380409867, 3.13773036  , -0.000282743451, 3.13404536  , 3.1         , 3           , 11          , 0.0535911247, 0.0535911359
0.0215711072, -0.03981251 , 9.805779    , -9.973571E-05, -0.00145290548, 0.00137209054, -0.5334367  , 0.00573007949, -0.379735738, 3.13772941  , -0.0002682675, 3.13403153  , 3.11        , 3           , 12          , 0.05357992  , 0
-0.01386903 , -0.04931718 , 9.803661    , -0.0006680744, -0.0007528127, 0.0013705414, -0.533706367, 0.00579749234, -0.380949169, 3.13772273  , -0.000260792382, 3.13401818  , 3.12        , 3           , 14          , 4.147207E-05, 0.0004886176
-0.03797935 , -0.05269757 , 9.819282    , 0.0007361924, 0.000664558262, -0.000174660134, -0.533167064, 0.00573007949, -0.3805447  , 3.13773012  , -0.000267431169, 3.13401961  , 3.13        , 3           , 15          , 0           , 0.000162156459
0.005015838 , -0.05678908 , 9.812814    , -0.000102271682, -0.00117134571, -0.0006052378, -0.533167064, 0.00573007949, -0.3805447  , 3.13772917  , -0.000255694467, 3.13402581  , 3.14        , 3           , 50          , 0           , 0
0.00194948353, -0.0508657433, 9.806487    , -0.00122562435, -0.00244602817, -0.000471189473, -0.5332345  , 0.00566266663, -0.379735738, 3.13771677  , -0.0002312161, 3.13403058  , 3.15        , 3           , 11          , 0.0535911247, 0.0535911359
-0.00730740745, -0.03314258 , 9.801518    , -0.001377167, -0.000476030458, -0.00145769143, -0.533571541, 0.00593231758, -0.380342454, 3.137703    , -0.000226399236, 3.134045    , 3.16        , 3           , 12          , 0.05357992  , 0
-0.00753559731, -0.014208572, 9.80747     , -0.00152371149, 0.0006492761, -0.001032808, -0.5333019  , 0.00586490473, -0.3806121  , 3.137688    , -0.0002328517, 3.13405538  , 3.17        , 3           , 14          , 4.147207E-05, 0.0004886176
-0.035407424, -0.0319424644, 9.8108      , 0.000172035754, 0.000519955764, -0.000177510883, -0.5333019  , 0.00586490473, -0.3806121  , 3.13768959  , -0.000238044289, 3.13405728  , 3.18        , 3           , 15          , 0           , 0.000162156459
-0.0316804573, -0.02654396 , 9.802714    , 0.00144467666, 0.000246987125, 0.0003930562, -0.5332345  , 0.00546042854, -0.3795335  , 3.137704    , -0.000240529436, 3.134053    , 3.19        , 3           , 50          , 0           , 0
0.00758569734, -0.041391857, 9.787586    , 0.00229474832, -0.000310397474, 0.000396138028, -0.5333019  , 0.00552784139, -0.3806121  , 3.137727    , -0.000237526168, 3.1340487   , 3.2         , 3           , 11          , 0.0545971   , 0.0545971058
-0.03812466 , -0.03771355 , 9.792223    , 0.0028504224, 0.001382809 , -0.00101131189, -0.5332345  , 0.00593231758, -0.380409867, 3.13775539  , -0.000251315243, 3.13405919  , 3.21        , 3           , 12          , 0.05458506  , 0
-0.0250382088, -0.0423671231, 9.788689    , 0.002000272 , 0.001940209 , -0.00115566351, -0.5332345  , 0.00593231758, -0.380409867, 3.13777542  , -0.000270672957, 3.13407063  , 3.22        , 3           , 14          , 4.14689348E-05, 0.0004886019
-0.012000829, -0.0452750437, 9.802788    , 0.001587658 , -0.000174391389, -0.000172012325, -0.5333019  , 0.00559525425, -0.379937977, 3.1377914   , -0.0002689225, 3.13407254  , 3.23        , 3           , 15          , 0           , 0.000162157608
0.000761318 , -0.0399994925, 9.799744    , -0.0001064951, -0.0001858493, 0.0005264296, -0.5334367  , 0.00579749234, -0.380746931, 3.1377902   , -0.000267084, 3.1340673   , 3.24        , 3           , 50          , 0           , 0
-0.0110990908, -0.0479668863, 9.795099    , -0.00151809526, -0.000336182537, 0.00023709063, -0.5332345  , 0.00566266663, -0.380342454, 3.13777518  , -0.0002637312, 3.134065    , 3.25        , 3           , 11          , 0.0545971   , 0.0545971058
0.00585341826, -0.0279161818, 9.81158352  , 0.00017913492, -0.00102863926, -0.00116877991, -0.5332345  , 0.00566266663, -0.380342454, 3.13777685  , -0.000253400271, 3.13407636  , 3.26        , 3           , 12          , 0.05458506  , 0
-0.00731114158, -0.0331456065, 9.802422    , 3.86184656E-05, -0.00117037678, -0.00116965547, -0.5329648  , 0.00573007949, -0.3794661  , 3.13777733  , -0.000241652044, 3.13408828  , 3.27        , 3           , 14          , 4.14689348E-05, 0.0004886019
-0.00295422785, -0.0476204865, 9.797875    , -0.000241806178, -0.00131306308, 0.0010891105, -0.5337738  , 0.00586490473, -0.3805447  , 3.137775    , -0.000228563076, 3.13407731  , 3.28        , 3           , 15          , 0           , 0.000162157608
-0.00675680861, -0.0544193164, 9.819966    , 0.00116462586, -3.646751E-05, 0.002086529 , -0.5332345  , 0.00573007949, -0.380409867, 3.13778639  , -0.000228278019, 3.13405633  , 3.29        , 3           , 50          , 0           , 0
-0.02001007 , -0.036138203, 9.79734     , 0.000871619151, 0.00193258259, 0.0006755722, -0.5332345  , 0.00573007949, -0.380409867, 3.13779521  , -0.000247675634, 3.13404965  , 3.3         , 3           , 11          , 0.05561304  , 0.0556130558
0.0100899618, -0.0514156073, 9.807451    , 0.000305742258, 0.00206954358, 0.000108080283, -0.5328974  , 0.005393016 , -0.379803151, 3.13779831  , -0.000268375, 3.1340487   , 3.31        , 3           , 12          , 0.0556001253, 0
-0.014125796, -0.06380844 , 9.81987     , 0.00242841453, 0.00109838846, -0.000589905248, -0.5335041  , 0.00599973043, -0.380679518, 3.13782263  , -0.000279336557, 3.13405442  , 3.32        , 3           , 14          , 4.147513E-05, 0.000488593534
0.00998688  , -0.0297021121, 9.791721    , 0.00356185157, 0.000402116857, -0.00016191609, -0.533032238, 0.00593231758, -0.3806121  , 3.13785815  , -0.0002833515, 3.13405633  , 3.33        , 3           , 15          , 0           , 0.000162147742
-0.00362672959, -0.0349231921, 9.781651    , 0.002015882 , -0.00101621135, 0.000535014842, -0.533032238, 0.00593231758, -0.3806121  , 3.13787818  , -0.000273209356, 3.13405061  , 3.34        , 3           , 50          , 0           , 0
-0.0319583751, -0.04953302 , 9.796742    , -0.0003890913, -0.0001877516, 0.000242585273, -0.5329648  , 0.00586490473, -0.379803151, 3.13787436  , -0.000271340861, 3.1340487   , 3.35        , 3           , 11          , 0.05561304  , 0.0556130558
-0.0210214369, -0.0379987  , 9.817213    , -0.001382301, 0.000791042054, 0.0005220321, -0.533571541, 0.00586490473, -0.380477279, 3.13786054  , -0.0002792707, 3.134043    , 3.36        , 3           , 12          , 0.0556001253, 0
-0.00187048118, -0.0309717841, 9.807896    , -0.00265038921, 7.85313E-05 , -0.00061512884, -0.5333019  , 0.00566266663, -0.380477279, 3.137834    , -0.0002800329, 3.13404965  , 3.37        , 3           , 14          , 4.147513E-05, 0.000488593534
0.00386530883, -0.04544598 , 9.79838848  , -0.00264264084, -0.00147007615, -0.000476246729, -0.5333019  , 0.00566266663, -0.380477279, 3.13780761  , -0.0002653143, 3.13405442  , 3.38        , 3           , 15          , 0           , 0.000162147742
-0.0163160041, -0.05479512 , 9.830739    , 0.000614736869, -0.00327828247, 0.000242421229, -0.533099651, 0.00559525425, -0.379803151, 3.13781381  , -0.0002325409, 3.13405156  , 3.39        , 3           , 50          , 0           , 0
-0.0232277587, -0.0356936827, 9.810426    , 0.00244398415, -0.00199881638, -0.000170866886, -0.533571541, 0.00579749234, -0.3805447  , 3.13783813  , -0.000212600091, 3.13405347  , 3.4         , 3           , 11          , 0.0566382   , 0.05663821
0.006939582 , -0.0558264032, 9.788425    , 0.00300125219, -0.0004463882, -2.4577761E-05, -0.5333019  , 0.00566266663, -0.380679518, 3.13786817  , -0.0002081353, 3.13405347  , 3.41        , 3           , 12          , 0.05662434  , 0
-0.00248923246, -0.05386481 , 9.774801    , 0.00299879047, 0.00011674354, 0.0005413649, -0.5333019  , 0.00566266663, -0.380679518, 3.13789821  , -0.000209322767, 3.13404775  , 3.42        , 3           , 14          , 4.14845053E-05, 0.0004885839
-0.020660447, -0.05637875 , 9.780529    , 0.000176531743, -0.000324704131, 0.0003862761, -0.533167064, 0.00573007949, -0.379870564, 3.13789988  , -0.00020609 , 3.134044    , 3.43        , 3           , 15          , 0           , 0.000162142518
-0.0146643147, -0.0438609719, 9.794186    , -0.000103433376, -0.0008897459, -0.000180983567, -0.5333019  , 0.006067143 , -0.380746931, 3.137899    , -0.0001971859, 3.13404584  , 3.44        , 3           , 50          , 0           , 0
0.010120145 , -0.05094479 , 9.801578    , -0.000386965257, -0.0007508753, -0.000888427254, -0.533032238, 0.00579749234, -0.380477279, 3.137895    , -0.000189644459, 3.13405442  , 3.45        , 3           , 11          , 0.0566382   , 0.05663821
0.00243716314, -0.0490573756, 9.803787    , -0.001802829, -5.65136834E-05, -0.00131773343, -0.533032238, 0.00579749234, -0.380477279, 3.137877    , -0.000189030427, 3.13406777  , 3.46        , 3           , 12          , 0.05662434  , 0
0.006347778 , -0.0220852587, 9.8202      , -0.00180426729, 0.000365837041, -0.0001869326, -0.5332345  , 0.00559525425, -0.379870564, 3.13785887  , -0.000192681851, 3.13406968  , 3.47        , 3           , 14          , 4.14845053E-05, 0.0004885839
0.00569586642, -0.0418807045, 9.805197    , -0.000807943346, -0.00117608509, 9.782757E-05, -0.533706367, 0.00593231758, -0.3805447  , 3.137851    , -0.000180924748, 3.13406873  , 3.48        , 3           , 15          , 0           , 0.000162142518
-0.005039652, -0.0304879546, 9.80923     , 0.0007412665, -0.000461670716, -0.00102399453, -0.533167064, 0.00566266663, -0.380746931, 3.13785839  , -0.000176269823, 3.13407922  , 3.49        , 3           , 50          , 0           , 0
-0.01412452 , -0.03710053 , 9.794669    , 0.000308721152, 0.00136563939, -0.000740603253, -0.533167064, 0.00566266663, -0.380746931, 3.13786125  , -0.000189906248, 3.13408637  , 3.5         , 3           , 11          , 0.0576718338, 0.05767185
0.003814935 , -0.0454867929, 9.810593    , 0.00017877853, -0.0007470495, 0.000668171269, -0.5329648  , 0.00559525425, -0.379803151, 3.13786316  , -0.000182460732, 3.13407969  , 3.51        , 3           , 12          , 0.0576569848, 0
0.0057426095, -0.03916473 , 9.802498    , -9.147295E-05, -0.003142261, 0.0012282409, -0.533638954, 0.00613455568, -0.380342454, 3.13786221  , -0.000151084168, 3.1340673   , 3.52        , 3           , 14          , 4.14917267E-05, 0.000488582533
0.00719236  , -0.0315186679, 9.804799    , -0.000237847285, -0.00229852553, -0.0004663406, -0.5333019  , 0.00586490473, -0.3806121  , 3.13785982  , -0.00012808165, 3.13407159  , 3.53        , 3           , 15          , 0           , 0.000162133874
0.0267139766, -0.05975114 , 9.812967    , 0.000311346055, 0.000802508555, -0.00102400861, -0.5333019  , 0.00586490473, -0.3806121  , 3.137863    , -0.00013606844, 3.134082    , 3.54        , 3           , 50          , 0           , 0
-0.005547557, -0.06705389 , 9.815855    , -0.00181153382, 0.00191444834, 0.0005218063, -0.5333693  , 0.00546042854, -0.379803151, 3.1378448   , -0.0001552323, 3.13407731  , 3.55        , 3           , 11          , 0.0576718338, 0.05767185
0.000386307918, -0.0305577852, 9.811079    , -0.00208862941, 0.000786276942, 9.494755E-05, -0.5335041  , 0.00579749234, -0.3806121  , 3.137824    , -0.000163098535, 3.13407636  , 3.56        , 3           , 12          , 0.0576569848, 0
-0.0201636981, -0.0447433367, 9.807248    , 3.09658171E-05, 0.000519036548, 0.00010439055, -0.533167064, 0.00559525425, -0.3806121  , 3.1378243   , -0.0001682928, 3.134075    , 3.57        , 3           , 14          , 4.14917267E-05, 0.000488582533
-0.0179729015, -0.0203540474, 9.792902    , -0.00109595351, -5.173346E-05, 9.82549464E-05, -0.533167064, 0.00559525425, -0.3806121  , 3.13781333  , -0.000167779115, 3.134074    , 3.58        , 3           , 15          , 0           , 0.000162133874
-0.0122280447, -0.0250011869, 9.812814    , 0.00200180663, 0.00165866408, -0.0008735363, -0.533099651, 0.00579749234, -0.379803151, 3.13783336  , -0.00018433269, 3.134083    , 3.59        , 3           , 50          , 0           , 0
-0.004212968, -0.03636507 , 9.809664    , 0.00411381433, 0.00294003752, -0.000720423763, -0.5335041  , 0.006067143 , -0.380477279, 3.13787436  , -0.00021373661, 3.13409019  , 3.6         , 3           , 11          , 0.0587132834, 0.0587132946
-0.00290836627, -0.04356617 , 9.799701    , 0.00186260114, 0.00123536645, -0.00101610029, -0.5329648  , 0.00566266663, -0.380746931, 3.137893    , -0.000226052536, 3.1341002   , 3.61        , 3           , 12          , 0.0586973839, 0
0.0189948268, -0.0262763239, 9.814856    , 0.000315363228, -4.218217E-05, -0.00130783382, -0.5329648  , 0.00566266663, -0.380746931, 3.1378963   , -0.000225582364, 3.13411355  , 3.62        , 3           , 14          , 4.149346E-05, 0.0004885772
-0.0150929764, -0.0389262624, 9.804147    , 0.00115817261, 0.0009490277, -0.0005960204, -0.533099651, 0.00573007949, -0.379735738, 3.13790774  , -0.000235050611, 3.13411927  , 3.63        , 3           , 15          , 0           , 0.000162119875
-0.01284715 , -0.0407529064, 9.8028      , 0.0012908146, 0.002780158 , 0.000255071034, -0.5333019  , 0.00566266663, -0.380814344, 3.13792062  , -0.000262861344, 3.134117    , 3.64        , 3           , 50          , 0           , 0
0.0112220878, -0.0298178419, 9.821561    , -0.000960644, 0.00107548549, -0.000464411831, -0.5333019  , 0.00586490473, -0.380409867, 3.137911    , -0.000273599, 3.13412166  , 3.65        , 3           , 11          , 0.0587132834, 0.0587132946
0.01522881  , -0.0366163179, 9.816592    , -0.0012372873, -0.000193469561, -0.00131529383, -0.5333019  , 0.00586490473, -0.380409867, 3.13789868  , -0.000271615834, 3.13413453  , 3.66        , 3           , 12          , 0.0586973839, 0
0.0120356428, -0.0459716432, 9.792121    , -0.0006728044, -4.88655132E-05, -0.000747368, -0.533032238, 0.00579749234, -0.379668325, 3.137892    , -0.000271099561, 3.13414216  , 3.67        , 3           , 14          , 4.149346E-05, 0.0004885772
-0.02068755 , -0.0577397645, 9.782782    , -0.00137190148, -0.00146146584, -0.00075283 , -0.5334367  , 0.00566266663, -0.380409867, 3.13787818  , -0.0002564571, 3.13414979  , 3.68        , 3           , 15          , 0           , 0.000162119875
-0.008427812, -0.0489282943, 9.803252    , -0.00165662682, -0.000900243234, 9.43333362E-05, -0.533032238, 0.00579749234, -0.3805447  , 3.13786173  , -0.0002474583, 3.13414884  , 3.69        , 3           , 50          , 0           , 0
0.00683123525, -0.0510043427, 9.83048     , -0.0001103399, 0.0005180865, -3.75064265E-05, -0.533032238, 0.00579749234, -0.3805447  , 3.13786054  , -0.000252637721, 3.13414884  , 3.7         , 3           , 11          , 0.0597619154, 0.05976193
0.0118374685, -0.05684463 , 9.8056345   , 0.000448159117, 0.001788949 , -0.000174188608, -0.5332345  , 0.00566266663, -0.3795335  , 3.137865    , -0.00027052057, 3.13415074  , 3.71        , 3           , 12          , 0.0597448945, 0
-0.0211132634, -0.04878551 , 9.804964    , 0.00115450809, 0.00193451112, 0.00152454549, -0.533571541, 0.00586490473, -0.380342454, 3.13787651  , -0.0002899223, 3.13413548  , 3.72        , 3           , 14          , 4.150252E-05, 0.000488577236
-0.0287984367, -0.0473462269, 9.806268    , 0.0008808159, 0.000102426566, 0.0009553332, -0.5333019  , 0.00593231758, -0.3805447  , 3.13788533  , -0.000290982018, 3.134126    , 3.73        , 3           , 15          , 0           , 0.000162103635
-0.00072693266, -0.0543719977, 9.78521     , -0.00123151985, -0.001178943, 0.0002371598, -0.5333019  , 0.00593231758, -0.3805447  , 3.13787317  , -0.0002792015, 3.13412356  , 3.74        , 3           , 50          , 0           , 0
-0.0306625739, -0.0509387  , 9.807593    , -0.0007465231, 0.0008657506, 0.00172593212, -0.5332345  , 0.00566266663, -0.379735738, 3.13786554  , -0.000287923234, 3.1341064   , 3.75        , 3           , 11          , 0.0597619154, 0.05976193
-0.0127500286, -0.03799611 , 9.787897    , -0.00193902187, -0.0009021531, 0.000163667079, -0.5338412  , 0.00559525425, -0.380409867, 3.13784623  , -0.0002789078, 3.134105    , 3.76        , 3           , 12          , 0.0597448945, 0
-0.009929907, -0.0592948757, 9.805006    , 0.00172674342, 0.0003897216, 0.0010303522, -0.533099651, 0.00566266663, -0.380679518, 3.1378634   , -0.0002828435, 3.13409448  , 3.77        , 3           , 14          , 4.150252E-05, 0.000488577236
-0.0184101369, -0.054630965, 9.789593    , 0.0018671595, 0.000461065763, 0.0002541412, -0.533099651, 0.00566266663, -0.380679518, 3.13788223  , -0.000287463656, 3.13409162  , 3.78        , 3           , 15          , 0           , 0.000162103635
-0.009711341, -0.043495506, 9.802361    , 0.00145360723, -0.00165353913, -0.000386798, -0.533167064, 0.00552784139, -0.379668325, 3.13789678  , -0.000270914024, 3.13409543  , 3.79        , 3           , 50          , 0           , 0
-0.00725506246, -0.030422071, 9.79746151  , 0.0014489973, -0.000808832, -0.00109183474, -0.5334367  , 0.00599973043, -0.380409867, 3.137911    , -0.000262864982, 3.13410687  , 3.8         , 3           , 11          , 0.06081714  , 0.060817156
0.004407757 , -0.042700544, 9.785296    , -0.0008814392, -0.0005430195, 0.0005929592, -0.5334367  , 0.00566266663, -0.380679518, 3.13790226  , -0.000257456675, 3.13410068  , 3.81        , 3           , 12          , 0.06079894  , 0
0.013035452 , -0.03697891 , 9.798042    , 0.000874789839, 0.00129909138, 0.0008159136, -0.5334367  , 0.00566266663, -0.380679518, 3.137911    , -0.0002704776, 3.13409257  , 3.82        , 3           , 14          , 4.15224931E-05, 0.000488563557
0.004786006 , -0.0400881469, 9.811978    , -0.00208757026, 0.000434336485, -0.0010357094, -0.533099651, 0.00566266663, -0.379870564, 3.13789     , -0.0002747827, 3.134103    , 3.83        , 3           , 15          , 0           , 0.000162098542
-0.006043524, -0.03993034 , 9.802856    , -0.004621337, -0.00113145937, -0.0003436049, -0.5333693  , 0.00593231758, -0.3806121  , 3.13784385  , -0.000263455469, 3.1341064   , 3.84        , 3           , 50          , 0           , 0
0.009981741 , -0.03416978 , 9.778595    , -0.00165214413, -0.00188570924, -0.000542873458, -0.5332345  , 0.00566266663, -0.3806121  , 3.1378274   , -0.000244578085, 3.13411164  , 3.85        , 3           , 11          , 0.06081714  , 0.060817156
-0.009464491, -0.062414404, 9.791889    , 0.000311515643, 0.0009433143, 0.000530199846, -0.5332345  , 0.00566266663, -0.3806121  , 3.1378305   , -0.000254031125, 3.1341064   , 3.86        , 3           , 12          , 0.06079894  , 0
0.00528399833, -0.0369323865, 9.81109     , 0.00228073262, 0.00257568457, 0.000965719752, -0.533099651, 0.00546042854, -0.3796009  , 3.13785338  , -0.000279824, 3.13409686  , 3.87        , 3           , 14          , 4.15224931E-05, 0.000488563557
0.00419553835, -0.05492395 , 9.7979      , 0.0005201806, 0.00150787528, -0.000103653729, -0.533706367, 0.00573007949, -0.380477279, 3.13785863  , -0.000294898782, 3.13409829  , 3.88        , 3           , 15          , 0           , 0.000162098542
0.018573625 , -0.06411103 , 9.796164    , -0.0004611429, 0.000234151783, 0.00144374033, -0.533099651, 0.00559525425, -0.380275041, 3.13785386  , -0.0002972942, 3.13408351  , 3.89        , 3           , 50          , 0           , 0
0.0124249607, -0.03844043 , 9.831929    , -0.002013605, -5.792926E-05, 0.0005884581, -0.533099651, 0.00559525425, -0.380275041, 3.1378336   , -0.000296685321, 3.13407731  , 3.9         , 3           , 11          , 0.06187841  , 0.0618784241
0.00659891451, -0.04278608 , 9.80294     , -0.0001696299, -0.00173490576, 0.000311877026, -0.5333019  , 0.00559525425, -0.379735738, 3.137832    , -0.00027934814, 3.13407445  , 3.91        , 3           , 12          , 0.0618589558, 0
-0.0132236  , -0.0709634051, 9.7977      , 0.00124416524, -0.002077313, 0.000176650545, -0.5333019  , 0.00566266663, -0.380409867, 3.13784432  , -0.000258581771, 3.13407254  , 3.92        , 3           , 14          , 4.15417344E-05, 0.000488572347
-0.0189607  , -0.0582756773, 9.801777    , 0.00102721772, -0.0009524827, 0.000954376766, -0.533099651, 0.00546042854, -0.380814344, 3.13785481  , -0.0002490927, 3.134063    , 3.93        , 3           , 15          , 0           , 0.000162091237
-0.0120966109, -0.053833317, 9.798683    , 0.00174062559, -0.0024963168, 0.000390207424, -0.533099651, 0.00546042854, -0.380814344, 3.13787222  , -0.000224144285, 3.13405919  , 3.94        , 3           , 50          , 0           , 0
-0.0108767264, -0.06467387 , 9.797744    , 0.0007431708, -0.0006024356, 0.00116550527, -0.533167064, 0.00552784139, -0.3796009  , 3.13787961  , -0.000218163244, 3.13404727  , 3.95        , 3           , 11          , 0.06187841  , 0.0618784241
-0.004352644, -0.0462979563, 9.811882    , -0.000324512832, 0.0008686125, -0.00102682051, -0.533638954, 0.00593231758, -0.380409867, 3.13787627  , -0.000226811171, 3.13405728  , 3.96        , 3           , 12          , 0.0618589558, 0
0.011308901 , -0.0284084454, 9.804844    , -0.00137266889, -0.00125028566, -0.000187401136, -0.533032238, 0.00586490473, -0.3805447  , 3.13786244  , -0.000214301472, 3.13405919  , 3.97        , 3           , 14          , 4.15417344E-05, 0.000488572347
0.00343177281, -0.05479842 , 9.763543    , -0.000180863513, 0.0005176143, 0.000174079774, -0.533032238, 0.00586490473, -0.3805447  , 3.13786077  , -0.000219484064, 3.13405776  , 3.98        , 3           , 15          , 0           , 0.000162091237
-0.028107278, -0.0426948853, 9.762899    , -0.00222923281, 0.0005037635, -0.001177521, -0.5332345  , 0.00573007949, -0.379870564, 3.13783836  , -0.0002244776, 3.13406968  , 3.99        , 3           , 50          , 0           , 0
-0.0113158915, -0.0236674361, 9.815537    , -0.00264517 , -0.0008365249, 0.0007255826, -0.5335041  , 0.006067143 , -0.3806121  , 3.137812    , -0.000216171786, 3.134062    , 4           , 3           , 11          , 0.0629452   , 0.06294522
-0.005317338, -0.0557085872, 9.796016    , -0.0031418975, -0.00034712872, 0.0006534028, -0.533032238, 0.00566266663, -0.380679518, 3.13778043  , -0.000212725266, 3.13405538  , 4.01        , 3           , 12          , 0.06292443  , 0
0.0107284188, -0.0423434637, 9.791222    , -0.00103595329, 0.00206049741, -3.9375238E-05, -0.533032238, 0.00566266663, -0.380679518, 3.13777018  , -0.000233328567, 3.13405633  , 4.02        , 3           , 14          , 4.156174E-05, 0.00048856705
-0.008149376, -0.06291175 , 9.800936    , 0.0008116256, -0.00017960534, 0.00109586329, -0.533099651, 0.00546042854, -0.379803151, 3.13777828  , -0.000231574391, 3.134045    , 4.03        , 3           , 15          , 0           , 0.000162079145
0.00144789275, -0.0589342862, 9.792438    , -0.00180282828, 8.42895E-05 , 2.46000363E-05, -0.5332345  , 0.00552784139, -0.380477279, 3.13776016  , -0.00023241817, 3.134045    , 4.04        , 3           , 50          , 0           , 0
0.009844812 , -0.04543948 , 9.775835    , -3.64111656E-05, -0.000114946037, 0.000385677238, -0.533032238, 0.00559525425, -0.3805447  , 3.13776     , -0.000231283484, 3.134041    , 4.05        , 3           , 11          , 0.0629452   , 0.06294522
-0.0024140086, -0.03773525 , 9.808316    , -0.000598454732, -0.000752288965, -0.0001830079, -0.533032238, 0.00559525425, -0.3805447  , 3.137754    , -0.000223753625, 3.134043    , 4.06        , 3           , 12          , 0.06292443  , 0
-0.0047554113, -0.0391105041, 9.822757    , 0.00017352539, 0.00016804917, -0.000460513518, -0.533167064, 0.00552784139, -0.379870564, 3.13775563  , -0.000225416414, 3.13404775  , 4.07        , 3           , 14          , 4.156174E-05, 0.00048856705
-0.008995234, -0.0628527254, 9.786467    , -3.597753E-05, -0.0003261228, -0.000674163632, -0.5333019  , 0.00599973043, -0.3806121  , 3.13775516  , -0.000222129354, 3.13405442  , 4.08        , 3           , 15          , 0           , 0.000162079145
-0.0209225528, -0.0379185677, 9.793259    , -0.00109778449, 0.000229845318, -0.000536965556, -0.533032238, 0.00566266663, -0.3806121  , 3.13774419  , -0.000224407166, 3.13405919  , 4.09        , 3           , 50          , 0           , 0
0.005111092 , -0.0540338  , 9.798363    , -0.000755708, 0.00220318884, -0.00258067087, -0.533032238, 0.00566266663, -0.3806121  , 3.13773656  , -0.000246377778, 3.13408542  , 4.1         , 3           , 11          , 0.0640170351, 0.06401706
-0.0161096789, -0.05061079 , 9.7936945   , 0.0007293648, 0.0019316558, -0.000949600246, -0.533032238, 0.00573007949, -0.379668325, 3.137744    , -0.000265657553, 3.134095    , 4.11        , 3           , 12          , 0.06399489  , 0
-0.0259554014, -0.04549036 , 9.781436    , 0.0009475767, 0.000806831755, 0.0004623389, -0.5335041  , 0.00579749234, -0.380477279, 3.13775325  , -0.000273743557, 3.13409066  , 4.12        , 3           , 14          , 4.1577965E-05, 0.000488560763
-0.0114743281, -0.0362936258, 9.813677    , 0.00130938925, -0.00116174109, -0.0012342775, -0.5333019  , 0.005393016 , -0.3806121  , 3.13776636  , -0.000262079033, 3.13410258  , 4.13        , 3           , 15          , 0           , 0.000162071388
-0.0257039964, -0.0505687  , 9.814412    , 0.000168511426, 0.00101274706, -0.00187189167, -0.5333019  , 0.005393016 , -0.3806121  , 3.137768    , -0.0002721348, 3.13412118  , 4.14        , 3           , 50          , 0           , 0
-0.01039634 , -0.04992727 , 9.838488    , 0.000808350451, 0.000453921733, 0.000884944166, -0.5329648  , 0.005393016 , -0.379735738, 3.13777614  , -0.000276707782, 3.1341126   , 4.15        , 3           , 11          , 0.0640170351, 0.06401706
0.00938607  , -0.0382973924, 9.800268    , 0.000747909653, -0.00151750958, 0.00158792117, -0.5334367  , 0.00559525425, -0.3805447  , 3.13778377  , -0.000261593319, 3.13409638  , 4.16        , 3           , 12          , 0.06399489  , 0
-0.00375173986, -0.0350244939, 9.811933    , 0.0003881767, -0.000323249085, 0.000246066251, -0.5333019  , 0.00566266663, -0.380679518, 3.13778758  , -0.000258370244, 3.13409448  , 4.17        , 3           , 14          , 4.1577965E-05, 0.000488560763
-0.00648841774, -0.03679418 , 9.811001    , 0.00158453477, 0.000459171744, 4.09532877E-05, -0.5333019  , 0.00566266663, -0.380679518, 3.13780332  , -0.0002629635, 3.13409352  , 4.18        , 3           , 15          , 0           , 0.000162071388
-0.0141999107, -0.0407324247, 9.80143452  , 0.00158164662, 0.000951908354, -0.0007352653, -0.5328974  , 0.00573007949, -0.379735738, 3.13781929  , -0.000272454723, 3.13410115  , 4.19        , 3           , 50          , 0           , 0
-0.0220561177, -0.05639304 , 9.789557    , 0.000807361561, 0.000453927234, -0.0008102672, -0.533638954, 0.00566266663, -0.380409867, 3.13782716  , -0.000277026847, 3.13410926  , 4.2         , 3           , 11          , 0.06509347  , 0.065093495
-0.0200093538, -0.0677543357, 9.80625     , 0.000169606312, 0.000871976546, -0.00116575125, -0.5334367  , 0.00552784139, -0.380679518, 3.13782883  , -0.000285702758, 3.13412118  , 4.21        , 3           , 12          , 0.0650698543, 0
-0.0121835545, -0.050332956, 9.831241    , 1.78563059E-05, 0.00298275915, -0.001304424, -0.5334367  , 0.00552784139, -0.380679518, 3.137829    , -0.000315480953, 3.134134    , 4.22        , 3           , 14          , 4.15879658E-05, 0.0004885504
-0.0200907979, -0.049594108, 9.773781    , 0.00319847278, 0.00258190488, 0.0008287718, -0.5328974  , 0.005393016 , -0.379803151, 3.137861    , -0.00034133083, 3.134126    , 4.23        , 3           , 15          , 0           , 0.000162058088
-0.015608741, -0.0434354767, 9.805029    , 0.004062173 , -0.0007207549, 0.000898258 , -0.5335041  , 0.00599973043, -0.380342454, 3.13790178  , -0.000334156677, 3.134117    , 4.24        , 3           , 50          , 0           , 0
-0.000557231251, -0.031470634, 9.817396    , 0.000395503885, -0.00173106242, 0.0008796189, -0.533099651, 0.00579749234, -0.380275041, 3.1379056   , -0.000316878577, 3.13410783  , 4.25        , 3           , 11          , 0.06509347  , 0.065093495
0.02127067  , -0.0579099581, 9.82107     , -0.00187376887, 0.000154220092, 9.503467E-05, -0.533099651, 0.00579749234, -0.380275041, 3.137887    , -0.000318424165, 3.13410687  , 4.26        , 3           , 12          , 0.0650698543, 0
0.0115015144, -0.0424614325, 9.82331848  , 0.00116142223, 0.000174747969, -0.00144476444, -0.533032238, 0.00573007949, -0.3795335  , 3.13789845  , -0.0003201182, 3.13412118  , 4.27        , 3           , 14          , 4.15879658E-05, 0.0004885504
-0.00295599643, -0.044943817, 9.806927    , -0.000465423916, 0.0007972882, -0.00102755416, -0.5334367  , 0.00573007949, -0.380275041, 3.137894    , -0.00032805308, 3.13413167  , 4.28        , 3           , 15          , 0           , 0.000162058088
-0.0273549389, -0.0405979231, 9.807209    , -0.0005376953, 0.00128955324, 0.000314928882, -0.5334367  , 0.00579749234, -0.380409867, 3.13788843  , -0.0003409602, 3.13412881  , 4.29        , 3           , 50          , 0           , 0
-0.0374028943, -0.0468001179, 9.808011    , -0.000462756, 0.000304557529, -0.000604489, -0.5334367  , 0.00579749234, -0.380409867, 3.137884    , -0.000344027154, 3.13413453  , 4.3         , 3           , 11          , 0.06617409  , 0.06617412
0.008742671 , -0.04648084 , 9.820568    , -0.00243627722, -0.000483117969, -0.00125061022, -0.533099651, 0.00552784139, -0.379668325, 3.13785934  , -0.0003391495, 3.134147    , 4.31        , 3           , 12          , 0.06614892  , 0
-0.00380954426, -0.0426592864, 9.801505    , -0.00243574358, -0.000623901258, -0.00153336476, -0.533571541, 0.00613455568, -0.3806121  , 3.137835    , -0.000332853058, 3.13416219  , 4.32        , 3           , 14          , 4.16043E-05 , 0.000488543359
-0.0280421376, -0.030144291, 9.78736     , -0.00158869277, -0.0004069936, -0.000116401134, -0.5333019  , 0.00573007949, -0.380679518, 3.13781929  , -0.000328778784, 3.13416362  , 4.33        , 3           , 15          , 0           , 0.000162039738
-0.0102451732, -0.0146172494, 9.804284    , -0.000532914069, 0.000304082147, 0.000172159664, -0.5333019  , 0.00573007949, -0.380679518, 3.13781381  , -0.0003318261, 3.13416219  , 4.34        , 3           , 50          , 0           , 0
-0.00373549922, -0.03322593 , 9.813749    , -0.00110272469, 0.00114495377, -0.00117122533, -0.533167064, 0.00546042854, -0.3796009  , 3.13780284  , -0.000343231222, 3.13417363  , 4.35        , 3           , 11          , 0.06617409  , 0.06617412
0.00318325288, -0.0305246767, 9.791666    , 0.000310944364, 0.0009433321, -0.000317353755, -0.5334367  , 0.00579749234, -0.380679518, 3.137806    , -0.0003526524, 3.134177    , 4.36        , 3           , 12          , 0.06614892  , 0
0.005041009 , -0.0229202136, 9.804819    , 0.00193153613, 0.00165822788, -9.679328E-05, -0.5333019  , 0.00599973043, -0.380679518, 3.13782525  , -0.0003692309, 3.134178    , 4.37        , 3           , 14          , 4.16043E-05 , 0.000488543359
-0.011998537, -0.04214874 , 9.812293    , 0.00060241  , -0.000814538042, 0.0002463261, -0.5333019  , 0.00599973043, -0.380679518, 3.13783121  , -0.0003610948, 3.13417554  , 4.38        , 3           , 15          , 0           , 0.000162039738
-0.0226478931, -0.0302398317, 9.796893    , 0.0008893265, -0.00172771479, 0.00017559831, -0.5333019  , 0.00546042854, -0.379937977, 3.13784027  , -0.0003438244, 3.13417363  , 4.39        , 3           , 50          , 0           , 0
-0.00131091429, -0.0277661253, 9.792094    , -0.0005142917, -0.00363782234, -0.00138786784, -0.5335041  , 0.00586490473, -0.380477279, 3.137835    , -0.0003074618, 3.134187    , 4.4         , 3           , 11          , 0.0672584847, 0.06725851
0.0121474313, -0.0333832577, 9.805282    , 0.00124911137, -0.003203536, -0.000813911, -0.5332345  , 0.00573007949, -0.380409867, 3.13784742  , -0.000275396073, 3.13419557  , 4.41        , 3           , 12          , 0.0672316849, 0
-0.009654741, -0.0349689946, 9.815956    , 0.00433815131, 0.0005482151, 0.0006190121, -0.5332345  , 0.00573007949, -0.380409867, 3.13789082  , -0.000280901149, 3.134189    , 4.42        , 3           , 14          , 4.1600546E-05, 0.0004885326
0.00140815228, -0.0571810827, 9.807814    , 0.004049796 , 0.00188374275, 0.00182054064, -0.533099651, 0.005393016 , -0.379803151, 3.13793135  , -0.0002998054, 3.13417077  , 4.43        , 3           , 15          , 0           , 0.000162036114
0.0157389734, -0.03211163 , 9.817066    , 0.00114539324, 0.00362394284, 0.000397066935, -0.5334367  , 0.00593231758, -0.380679518, 3.13794279  , -0.000336059078, 3.134167    , 4.44        , 3           , 50          , 0           , 0
0.0124266269, -0.0437952876, 9.81428051  , 0.0005189977, 0.00164868671, -0.000809718, -0.5334367  , 0.005393016 , -0.380679518, 3.137948    , -0.0003525163, 3.13417554  , 4.45        , 3           , 11          , 0.0672584847, 0.06725851
-0.0208035279, -0.0230925642, 9.811852    , 0.00186741  , 0.000390719128, 0.00025410016, -0.5334367  , 0.005393016 , -0.380679518, 3.13796663  , -0.0003564327, 3.13417268  , 4.46        , 3           , 12          , 0.0672316849, 0
-0.0106571428, -0.01234711 , 9.80157852  , 0.000182588483, -0.00166208926, -0.000392656715, -0.5333693  , 0.00552784139, -0.3794661  , 3.13796854  , -0.000339797669, 3.13417649  , 4.47        , 3           , 14          , 4.1600546E-05, 0.0004885326
0.00337638776, -0.0387746841, 9.828695    , -0.00200525532, -0.00188806572, -0.0005444571, -0.5335041  , 0.00599973043, -0.380275041, 3.13794851  , -0.000320897379, 3.13418221  , 4.48        , 3           , 15          , 0           , 0.000162036114
-0.0105857439, -0.0416742265, 9.800553    , -0.003779076, -6.98280637E-05, 0.000156476177, -0.533167064, 0.00566266663, -0.380409867, 3.1379106   , -0.000320204941, 3.13418031  , 4.49        , 3           , 50          , 0           , 0
0.003488765 , -0.03555919 , 9.811534    , -0.0020829956, -0.0003399312, 0.000375861418, -0.533167064, 0.00566266663, -0.380409867, 3.13788986  , -0.000316828926, 3.13417649  , 4.5         , 3           , 11          , 0.06834628  , 0.0683463141
-0.0145657817, -0.03663953 , 9.793312    , 0.0007389184, 3.11218573E-05, -0.000669942354, -0.5329648  , 0.00559525425, -0.3796009  , 3.13789725  , -0.000317115366, 3.13418317  , 4.51        , 3           , 12          , 0.06831777  , 0
-0.0127905514, -0.0322263837, 9.816396    , 0.00207993085, 0.000251370482, 0.000254885352, -0.533638954, 0.00566266663, -0.380207628, 3.137918    , -0.0003196384, 3.13418078  , 4.52        , 3           , 14          , 4.15971554E-05, 0.000488531135
-0.022008324, -0.042071104, 9.823968    , -0.0017173934, -0.00294202217, -0.0001915811, -0.533032238, 0.00559525425, -0.380477279, 3.13790083  , -0.0002902113, 3.13418269  , 4.53        , 3           , 15          , 0           , 0.000162021621
-0.0171991847, -0.054766342, 9.825308    , -0.000958901364, 0.000653183262, -0.0008887706, -0.533032238, 0.00559525425, -0.380477279, 3.13789129  , -0.0002967102, 3.13419175  , 4.54        , 3           , 50          , 0           , 0
-0.00650200341, -0.04260774 , 9.795609    , 0.00164794514, 0.00200828956, 0.0008913314, -0.53283    , 0.00566266663, -0.3795335  , 3.13790774  , -0.00031682587, 3.13418269  , 4.55        , 3           , 11          , 0.06834628  , 0.0683463141
-0.03611181 , -0.0495486781, 9.815693    , 0.00207451428, 0.00151841785, 0.00174015993, -0.5335041  , 0.00559525425, -0.3806121  , 3.13792849  , -0.000332073832, 3.134165    , 4.56        , 3           , 12          , 0.06831777  , 0
-0.0269114487, -0.04819873 , 9.785034    , 0.000320850551, -0.000957217533, 0.0005273477, -0.5332345  , 0.00573007949, -0.380746931, 3.13793182  , -0.000322521024, 3.13416028  , 4.57        , 3           , 14          , 4.15971554E-05, 0.000488531135
-0.0165278  , -0.0465602279, 9.798228    , -0.0008771649, -0.0015284674, -0.00032672938, -0.5332345  , 0.00573007949, -0.380746931, 3.137923    , -0.0003072245, 3.13416314  , 4.58        , 3           , 15          , 0           , 0.000162021621
0.00292199943, -0.048590377, 9.797464    , 0.000184330755, -0.00187325827, 0.0008078167, -0.533167064, 0.00546042854, -0.379870564, 3.137925    , -0.000288521638, 3.134155    , 4.59        , 3           , 50          , 0           , 0
-0.0134507762, -0.0155019984, 9.810132    , -0.0006608548, -0.00223092362, 0.00143903773, -0.533571541, 0.00593231758, -0.380409867, 3.13791823  , -0.000266387331, 3.13414025  , 4.6         , 3           , 11          , 0.06943714  , 0.06943717
-0.009343073, -0.04178391 , 9.828586    , -0.00277730939, -0.00273799058, 0.000227617158, -0.5333693  , 0.00573007949, -0.3805447  , 3.13789034  , -0.000239015935, 3.13413835  , 4.61        , 3           , 12          , 0.0694068447, 0
0.0106430454, -0.0468761437, 9.797531    , -0.00208616164, 8.243037E-05, -0.00145997608, -0.5333693  , 0.00573007949, -0.3805447  , 3.1378696   , -0.000239785964, 3.13415265  , 4.62        , 3           , 14          , 4.161181E-05, 0.00048851216
-0.004998699, -0.03313288 , 9.790688    , 0.00130287523, 0.000246135431, -0.0003844405, -0.5329648  , 0.0053256033, -0.379803151, 3.13788247  , -0.000242232971, 3.13415647  , 4.63        , 3           , 15          , 0           , 0.000162016557
0.00203299057, -0.04633458 , 9.800631    , 0.0008230983, -0.00257285521, 0.000527162338, -0.533571541, 0.006067143 , -0.380342454, 3.13789082  , -0.000216524117, 3.13415122  , 4.64        , 3           , 50          , 0           , 0
1.67638063E-06, -0.0291582067, 9.798879    , 0.00137351884, 0.00038739905, 0.000887524337, -0.533032238, 0.00579749234, -0.3805447  , 3.13790441  , -0.000220430869, 3.13414216  , 4.65        , 3           , 11          , 0.06943714  , 0.06943717
-0.0103611872, -0.0579330847, 9.804104    , 0.0006611638, 0.0014384879, -0.000950634247, -0.533032238, 0.00579749234, -0.3805447  , 3.137911    , -0.000234780659, 3.1341517   , 4.66        , 3           , 12          , 0.0694068447, 0
0.0005456954, -0.05177931 , 9.814609    , -0.000331163639, 0.00220610737, -0.000954050047, -0.5329648  , 0.00566266663, -0.379937977, 3.13790774  , -0.000256806437, 3.13416123  , 4.67        , 3           , 14          , 4.161181E-05, 0.00048851216
-0.0148234367, -0.0497924574, 9.814047    , 9.42191255E-05, 0.00185701577, -0.000952617149, -0.5333693  , 0.00586490473, -0.380207628, 3.1379087   , -0.000275341357, 3.13417125  , 4.68        , 3           , 15          , 0           , 0.000162016557
-0.01261218 , -0.0529861748, 9.816763    , -0.00180205889, -5.64375368E-05, 0.000236348715, -0.5329648  , 0.00579749234, -0.380342454, 3.13789082  , -0.000274785736, 3.13416886  , 4.69        , 3           , 50          , 0           , 0
-0.00032498315, -0.04995501 , 9.811897    , -0.00376822427, -0.002111141, 0.00149542373, -0.5329648  , 0.00579749234, -0.380342454, 3.137853    , -0.0002537924, 3.1341536   , 4.7         , 3           , 11          , 0.070530735 , 0.0705307648
-0.00159040291, -0.04272215 , 9.81237     , -0.00313427672, -0.001966065, 8.591658E-05, -0.533167064, 0.00559525425, -0.379803151, 3.13782167  , -0.000234135019, 3.13415265  , 4.71        , 3           , 12          , 0.0704985559, 0
-0.016979171, -0.04209027 , 9.812254    , -0.00152343954, 0.00057900016, -0.0008914868, -0.5334367  , 0.00599973043, -0.380275041, 3.13780642  , -0.000239891277, 3.13416171  , 4.72        , 3           , 14          , 4.163009E-05, 0.0004885027
-0.0100702085, -0.03493344 , 9.806913    , 0.00122649583, 0.001160748 , -0.00250236946, -0.533167064, 0.00566266663, -0.3806121  , 3.13781857  , -0.000251404039, 3.134187    , 4.73        , 3           , 15          , 0           , 0.000161995515
0.019522544 , -0.0609621  , 9.795732    , 0.0005285444, -0.0003926327, -0.00173107022, -0.533167064, 0.00566266663, -0.3806121  , 3.13782382  , -0.000247412478, 3.13420415  , 4.74        , 3           , 50          , 0           , 0
0.0207997151, -0.0271953512, 9.813509    , 0.000656325836, 0.00249436847, -0.000242642316, -0.533099651, 0.00566266663, -0.379735738, 3.1378305   , -0.000272346864, 3.13420653  , 4.75        , 3           , 11          , 0.070530735 , 0.0705307648
0.00567753147, -0.0414492153, 9.811075    , 0.00108621677, 0.00130058348, 0.000322563748, -0.5337738  , 0.00573007949, -0.380409867, 3.13784122  , -0.000285364717, 3.1342032   , 4.76        , 3           , 12          , 0.0704985559, 0
-0.0141410157, -0.07185508 , 9.797689    , 0.000741239637, -0.000320803054, 0.000389056833, -0.5333019  , 0.00573007949, -0.380477279, 3.13784862  , -0.0002821713, 3.13419938  , 4.77        , 3           , 14          , 4.163009E-05, 0.0004885027
-0.028085608, -0.0283941161, 9.803638    , 0.00187117339, -0.000383555016, 0.000182312986, -0.5333019  , 0.00573007949, -0.380477279, 3.13786745  , -0.000278342573, 3.13419747  , 4.78        , 3           , 15          , 0           , 0.000161995515
-0.00213543512, -0.0138529595, 9.817005    , 0.003353769 , -0.0003031354, 0.0005425072, -0.5328974  , 0.00559525425, -0.379668325, 3.137901    , -0.000275331317, 3.13419223  , 4.79        , 3           , 50          , 0           , 0
-0.0006531151, -0.04270708 , 9.804693    , -0.000108464839, 9.581747E-05, -0.000179305411, -0.5335041  , 0.00586490473, -0.3805447  , 3.13789988  , -0.0002763124, 3.13419366  , 4.8         , 3           , 11          , 0.071626775 , 0.0716268048
-0.001960014, -0.03863229 , 9.805152    , 0.000939998834, 0.00214432413, -0.00108946767, -0.533167064, 0.00579749234, -0.3805447  , 3.13790917  , -0.000297715276, 3.134205    , 4.81        , 3           , 12          , 0.07159261  , 0
0.00259252079, -0.03554099 , 9.809268    , -0.00103256211, 0.00128626032, -0.000676181749, -0.533167064, 0.00579749234, -0.3805447  , 3.137899    , -0.000310552859, 3.13421178  , 4.82        , 3           , 14          , 4.16369658E-05, 0.000488498248
-0.004839871, -0.0525694452, 9.8001      , -0.00152436958, 0.00079017895, -0.0006792458, -0.533099651, 0.00566266663, -0.3795335  , 3.13788366  , -0.000318429462, 3.13421845  , 4.83        , 3           , 15          , 0           , 0.000161983073
-0.005479833, -0.02600893 , 9.820546    , 0.0005301912, -0.0004630133, 0.000529133365, -0.5335041  , 0.00566266663, -0.3800054  , 3.137889    , -0.000313818979, 3.13421321  , 4.84        , 3           , 50          , 0           , 0
-0.01136326 , -0.0348645821, 9.791084    , 0.00285498542, 0.000608613 , 0.0005416253, -0.5333019  , 0.00559525425, -0.380679518, 3.13791752  , -0.000319925166, 3.134208    , 4.85        , 3           , 11          , 0.071626775 , 0.0716268048
-0.02394579 , -0.0266040862, 9.793735    , 0.00213342812, 0.00341948145, -0.00214143377, -0.5333019  , 0.00559525425, -0.380679518, 3.13793874  , -0.000354041375, 3.13422942  , 4.86        , 3           , 12          , 0.07159261  , 0
-0.0130685382, -0.0227060765, 9.804229    , -0.000181429627, 0.0005880793, -3.76066964E-05, -0.533032238, 0.00573007949, -0.3796009  , 3.137937    , -0.000359920727, 3.13423     , 4.87        , 3           , 14          , 4.16369658E-05, 0.000488498248
0.0133959642, -0.0433078967, 9.800279    , -0.00355987414, -0.00147618446, 0.000932325143, -0.5334367  , 0.00586490473, -0.380409867, 3.13790154  , -0.0003451932, 3.13422036  , 4.88        , 3           , 15          , 0           , 0.000161983073
-0.00672574528, -0.0552868433, 9.8095665   , -0.0008775162, -0.00131725718, 0.0009450531, -0.533167064, 0.00566266663, -0.380477279, 3.13789272  , -0.0003320557, 3.13421082  , 4.89        , 3           , 50          , 0           , 0
-0.0132570527, -0.03312489 , 9.81684     , 0.00159184879, -0.000948585, 0.0007452318, -0.533167064, 0.00566266663, -0.380477279, 3.13790846  , -0.0003226263, 3.1342032   , 4.9         , 3           , 11          , 0.0727249458, 0.07272498
-0.0221645012, -0.0266495347, 9.80098     , 0.00370289758, 0.0004031715, -0.000161076649, -0.5328974  , 0.00586490473, -0.379668325, 3.13794565  , -0.000326652051, 3.134205    , 4.91        , 3           , 12          , 0.0726887062, 0
-0.004623821, -0.03766483 , 9.795192    , 0.000883816567, -0.000671797432, -0.000246507552, -0.5333693  , 0.00579749234, -0.380207628, 3.13795447  , -0.0003199251, 3.134207    , 4.92        , 3           , 14          , 4.16419971E-05, 0.000488494
0.0041915765, -0.0526954159, 9.806046    , 5.172561E-05, -0.00370435137, 9.804849E-05, -0.5332345  , 0.00566266663, -0.380342454, 3.137955    , -0.000282885419, 3.134206    , 4.93        , 3           , 15          , 0           , 0.000161966847
-0.00487096328, -0.0441139862, 9.834938    , 0.00369474129, 0.00195177714, -0.00100630242, -0.5332345  , 0.00566266663, -0.380342454, 3.137992    , -0.00030236665, 3.13421655  , 4.94        , 3           , 50          , 0           , 0
