Acc X       , Acc Y       , Acc Z       , Gyro X      , Gyro Y      , Gyro Z      , Magn X      , Magn Y      , Magn Z      , Euler X     , Euler Y     , Euler Z     , Time        , Status      , LowRate X   , LowRate Y   , LowRate Z    
-0.110124566, 0.116193958 , -9.783105   , -0.001992066, -0.000894095458, -0.0006590882, -0.1803964  , -0.164958879, 0.450721323 , -0.009369901, -0.0122654736, 2.42871928  , 0           , 3           , 11          , 0.0346410163, 0.0346410163
-0.123467065, 0.0920736343, -9.809522   , -0.001016526, 0.00164667331, -0.0013569172, -0.1803964  , -0.1645544  , 0.4506539   , -0.009379899, -0.0122491335, 2.42870545  , 0.01        , 3           , 12          , 0.0346410163, 0
-0.128822759, 0.06638626  , -9.800631   , 0.00025295635, 0.002077619 , -0.000220190152, -0.180261567, -0.164217338, 0.450788736 , -0.009377341, -0.01222838 , 2.42870355  , 0.02        , 3           , 50          , 0           , 0
-0.107095838, 0.102205835 , -9.793535   , -0.000301931752, -3.794162E-05, -0.001073691, -0.18032898 , -0.164486989, 0.450519085 , -0.009380229, -0.0122288624, 2.42869258  , 0.03        , 3           , 11          , 0.0346410163, 0.0346410163
-0.120088138, 0.1131846   , -9.79268551 , 0.0001232212, -0.000175855268, 0.000340755 , -0.18032898 , -0.164486989, 0.450519085 , -0.009379039, -0.0122305863, 2.428696    , 0.04        , 3           , 12          , 0.0346410163, 0
-0.122105673, 0.0987554   , -9.788693   , 0.0002693952, -0.00116037764, 0.0004811635, -0.1803964  , -0.164824054, 0.4506539   , -0.009376404, -0.012242144, 2.42870069  , 0.05        , 3           , 50          , 0           , 0
-0.1278137  , 0.07270837  , -9.805569   , -0.000298246421, -0.000601067441, 0.0004793974, -0.18032898 , -0.164352164, 0.450721323 , -0.00937944651, -0.0122481091, 2.42870545  , 0.06        , 3           , 11          , 0.0346410163, 0.0346410163
-0.124359049, 0.0978978351, -9.794137   , -0.000167450853, 0.00165241165, 0.001754946 , -0.1803964  , -0.164352164, 0.4506539   , -0.009381332, -0.0122314189, 2.428723    , 0.07        , 3           , 12          , 0.0346410163, 0
-0.1301994  , 0.102021247 , -9.79235649 , 0.0006818835, 0.00109500787, 0.000486610283, -0.1803964  , -0.164352164, 0.4506539   , -0.009374574, -0.0122204246, 2.42872834  , 0.08        , 3           , 50          , 0           , 0
-0.1262741  , 0.08846156  , -9.799163   , 0.000826174 , 0.000392048241, -0.000220159753, -0.180194154, -0.1645544  , 0.4505865   , -0.009366284, -0.0122165233, 2.42872548  , 0.09        , 3           , 11          , 0.0346410163, 0.0346410163
-0.121389039, 0.085201174 , -9.786032   , 0.00012375506, -0.000316638645, 5.80011729E-05, -0.180261567, -0.164486989, 0.450721323 , -0.009365055, -0.012219687, 2.42872643  , 0.1         , 3           , 12          , 0.0346410163, 0
-0.113080435, 0.0901437551, -9.808547   , 0.000273043377, -0.00186428975, 0.0007626166, -0.1804638  , -0.1645544  , 0.450923562 , -0.00936242 , -0.0122382585, 2.428734    , 0.11        , 3           , 50          , 0           , 0
-0.143776223, 0.09102743  , -9.830021   , 0.000690944435, -0.0007351652, 0.000483790383, -0.180261567, -0.164689228, 0.4505865   , -0.00935557 , -0.0122455647, 2.42873883  , 0.12        , 3           , 11          , 0.0346410163, 0.0346410163
-0.1300389  , 0.0772298351, -9.800594   , -0.000163506367, 0.0005261435, -0.00107216381, -0.180261567, -0.164689228, 0.4505865   , -0.009357074, -0.0122404024, 2.42872834  , 0.13        , 3           , 12          , 0.0346410163, 0
-0.09603119 , 0.08490501  , -9.786291   , -0.00171771413, 0.0006564205, -0.00136172748, -0.1804638  , -0.164621815, 0.450788736 , -0.009374083, -0.012233967, 2.42871451  , 0.14        , 3           , 50          , 0           , 0
-0.09501316 , 0.0907880738, -9.794847   , -0.00256817159, 0.00128421187, -0.00143533642, -0.18032898 , -0.164284751, 0.450923562 , -0.009399589, -0.01222126 , 2.42869973  , 0.15        , 3           , 11          , 0.0346410163, 0.0346410163
-0.101949245, 0.0822702348, -9.787251   , -0.001078687, -4.31943954E-05, -0.00121858052, -0.180733457, -0.164352164, 0.450519085 , -0.009410226, -0.0122218067, 2.42868781  , 0.16        , 3           , 12          , 0.0346410163, 0
-0.0987122357, 0.08273406  , -9.80214    , 0.0009064351, -0.00150803721, 0.00020104718, -0.180733457, -0.164352164, 0.450519085 , -0.009401189, -0.0122368671, 2.4286902   , 0.17        , 3           , 50          , 0           , 0
-0.119962953, 0.08345471  , -9.808175   , -0.00135529693, -0.00103057758, 0.000403174141, -0.180531219, -0.164284751, 0.4505865   , -0.009414789, -0.0122471349, 2.428694    , 0.18        , 3           , 11          , 0.0346410163, 0.0346410163
-0.141368583, 0.1089713   , -9.807329   , -0.00185601716, 9.233593E-05, -0.00115135079, -0.1804638  , -0.1645544  , 0.450856149 , -0.009433209, -0.012246321, 2.42868257  , 0.19        , 3           , 12          , 0.0346410163, 0
-0.126581833, 0.100635856 , -9.795499   , -0.00128282025, -0.00152284058, -0.000586133567, -0.180531219, -0.164486989, 0.450990975 , -0.009445932, -0.0122615676, 2.42867684  , 0.2         , 3           , 50          , 0           , 0
-0.09645054 , 0.0898473   , -9.77859    , 0.000138248724, -0.0032026784, 0.000406728534, -0.180531219, -0.164486989, 0.450990975 , -0.009444604, -0.012293553, 2.42868161  , 0.21        , 3           , 11          , 0.0346699134, 0.0346699134
-0.112589367, 0.09909644  , -9.78907    , 0.000126032668, -0.0008093772, -0.000225292286, -0.1803964  , -0.164486989, 0.4505865   , -0.009443318, -0.0123016676, 2.4286797   , 0.22        , 3           , 12          , 0.0346688144, 0
-0.124836624, 0.0920805   , -9.806821   , -0.001504517, 0.000305895956, -0.0019969882, -0.180261567, -0.164284751, 0.450923562 , -0.009458117, -0.0122987973, 2.42865968  , 0.23        , 3           , 50          , 0           , 0
-0.118167512, 0.08743786  , -9.791422   , 0.00201490684, 0.00272307848, -0.0003522477, -0.180261567, -0.164419577, 0.450519085 , -0.009437922, -0.0122716008, 2.42865586  , 0.24        , 3           , 11          , 0.0346699134, 0.0346699134
-0.101282157, 0.0998462141, -9.783106   , -0.0002332296, 0.0003144926, -0.00135535281, -0.180261567, -0.164419577, 0.450519085 , -0.00944009 , -0.0122685842, 2.428642    , 0.25        , 3           , 12          , 0.0346688144, 0
-0.126702   , 0.09696768  , -9.777887   , -0.00184349564, -0.00223057 , 0.0006109319, -0.18032898 , -0.164419577, 0.4505865   , -0.009458601, -0.0122908317, 2.42864823  , 0.26        , 3           , 50          , 0           , 0
-0.127042308, 0.102866687 , -9.786454   , -0.0004994062, -0.002714236, 0.000828331045, -0.180598632, -0.164284751, 0.4506539   , -0.0094637  , -0.0123178978, 2.42865682  , 0.27        , 3           , 11          , 0.0346699134, 0.0346699134
-0.135014176, 0.0795244053, -9.794747   , 0.0023144735, -0.0007945766, -0.000850795361, -0.180261567, -0.1645544  , 0.450721323 , -0.009440452, -0.012325922, 2.42864823  , 0.28        , 3           , 12          , 0.0346688144, 0
-0.120087177, 0.0793369   , -9.791017   , 0.0005526463, -0.00144003425, -0.0005068307, -0.180261567, -0.1645544  , 0.450721323 , -0.009434863, -0.0123403706, 2.42864347  , 0.29        , 3           , 50          , 0           , 0
-0.1351605  , 0.100756511 , -9.801439   , 0.000135917318, -0.00144209352, -0.000226340038, -0.18032898 , -0.164621815, 0.450788736 , -0.009294468, -0.0123382378, 2.42863965  , 0.3         , 3           , 11          , 0.03475341  , 0.03475341
-0.123348542, 0.10109666  , -9.809484   , 0.0002707168, -0.0002444893, -0.00107145 , -0.180868283, -0.164149925, 0.450721323 , -0.009291629, -0.0123407813, 2.42862916  , 0.31        , 3           , 12          , 0.0347538777, 0
-0.115509778, 0.108262524 , -9.820694   , -0.000159811883, 0.00116047147, -0.0009299869, -0.1804638  , -0.164486989, 0.450788736 , -0.009293112, -0.0123292627, 2.42861962  , 0.32        , 3           , 50          , 0           , 0
-0.143915042, 0.0873441249, -9.80789    , 0.00118903071, -0.00016788693, 0.0002749916, -0.1804638  , -0.164486989, 0.450788736 , -0.009281254, -0.0123309148, 2.42862248  , 0.33        , 3           , 11          , 0.03475341  , 0.03475341
-0.13143824 , 0.10481213  , -9.812695   , 0.002106039 , -9.129075E-05, -0.000638866564, -0.18032898 , -0.164486989, 0.4506539   , -0.009260116, -0.0123318881, 2.42861629  , 0.34        , 3           , 12          , 0.0347538777, 0
-0.137926936, 0.101640821 , -9.786542   , 0.000552013 , 0.000109379973, -1.00750758E-05, -0.180261567, -0.164217338, 0.450856149 , -0.009254594, -0.0123307956, 2.42861581  , 0.35        , 3           , 50          , 0           , 0
-0.140785813, 0.0832571462, -9.811048   , -1.26367668E-05, 0.000105561019, 0.000340462837, -0.180261567, -0.164621815, 0.450923562 , -0.009254763, -0.0123297079, 2.42861962  , 0.36        , 3           , 11          , 0.03475341  , 0.03475341
-0.114064366, 0.0900908858, -9.789572   , 0.000190696941, 0.00179638341, 0.000132151064, -0.180194154, -0.164419577, 0.4506539   , -0.00925286952, -0.0123117343, 2.42862058  , 0.37        , 3           , 12          , 0.0347538777, 0
-0.1257996  , 0.09516908  , -9.782861   , -0.00290375622, -0.0008291063, -0.00101649889, -0.180194154, -0.164419577, 0.4506539   , -0.009281783, -0.012320119, 2.42861056  , 0.38        , 3           , 50          , 0           , 0
-0.118047491, 0.09601578  , -9.793193   , 0.000271617871, -0.000385270774, -0.000718494935, -0.180531219, -0.164419577, 0.450788736 , -0.009278978, -0.012324038, 2.42860341  , 0.39        , 3           , 11          , 0.03475341  , 0.03475341
-0.11890392 , 0.0617714077, -9.804641   , 0.00187734864, -0.000328373018, -0.00134652772, -0.18032898 , -0.164689228, 0.450856149 , -0.009421112, -0.0125525855, 2.428592    , 0.4         , 3           , 12          , 0.0348953567, 0
-0.10643471 , 0.0841431   , -9.791798   , -0.0008021025, -0.000909644063, 5.27809352E-05, -0.180261567, -0.164352164, 0.450519085 , -0.00942914 , -0.012561678, 2.428593    , 0.41        , 3           , 50          , 0           , 0
-0.126178965, 0.09612658  , -9.797775   , 0.00103211484, -0.0006156649, -0.00022076242, -0.180261567, -0.164352164, 0.450519085 , -0.009418792, -0.0125678545, 2.42859054  , 0.42        , 3           , 11          , 0.0177063327, 0.0177063011
-0.134903133, 0.08854137  , -9.7929     , 0.00152027409, 0.0005843284, -0.000499151, -0.180126742, -0.164352164, 0.450788736 , -0.009403524, -0.0125620579, 2.42858529  , 0.43        , 3           , 12          , 0.0348953567, 0
-0.133417279, 0.09710941  , -9.79647    , 0.000116418676, -0.0009738264, 0.000551393 , -0.1803964  , -0.164352164, 0.450990975 , -0.00940243248, -0.0125717446, 2.428591    , 0.44        , 3           , 50          , 0           , 0
-0.12950471 , 0.08398573  , -9.798754   , 0.003287284 , 0.000314702775, 0.0002856237, -0.180194154, -0.164486989, 0.450923562 , -0.009369596, -0.01256857 , 2.42859387  , 0.45        , 3           , 11          , 0.0177063327, 0.0177063011
-0.111677229, 0.1004302   , -9.786346   , 0.00132388785, -0.00244392664, 0.0002721743, -0.180194154, -0.164486989, 0.450923562 , -0.00935639348, -0.0125929834, 2.42859674  , 0.46        , 3           , 12          , 0.0348953567, 0
-0.09906432 , 0.09799687  , -9.777672   , 0.0013134554, -0.000402581325, -0.000289754418, -0.18032898 , -0.164621815, 0.450788736 , -0.009343222, -0.0125970356, 2.42859387  , 0.47        , 3           , 50          , 0           , 0
-0.105637372, 0.08404479  , -9.765577   , 0.000177597278, 0.000856822357, -8.116649E-05, -0.1803964  , -0.164149925, 0.450788736 , -0.009341435, -0.0125884758, 2.428593    , 0.48        , 3           , 11          , 0.0177063327, 0.0177063011
-0.121888228, 0.08293713  , -9.781978   , -0.000323868066, 0.00240209  , 0.000695893541, -0.1804638  , -0.164352164, 0.450788736 , -0.00934475847, -0.0125643918, 2.4285996   , 0.49        , 3           , 12          , 0.0348953567, 0
-0.114995174, 0.08874201  , -9.787777   , -0.0015735419, 0.0001702879, -0.00058477 , -0.1804638  , -0.164352164, 0.450788736 , -0.009308328, -0.01242173 , 2.4285934   , 0.5         , 3           , 50          , 0           , 0
-0.109307215, 0.067533806 , -9.807256   , -0.00220217672, -0.00117144268, -0.000236622538, -0.1803964  , -0.1645544  , 0.4506539   , -0.009330321, -0.0124334665, 2.428591    , 0.51        , 3           , 11          , 0.0134381587, 0.0134381549
-0.114624649, 0.07572588  , -9.809523   , -0.00226927642, -0.00194622553, -0.000803219969, -0.180531219, -0.164689228, 0.450990975 , -0.009352917, -0.0124530038, 2.42858338  , 0.52        , 3           , 12          , 0.0350921378, 0
-0.122602552, 0.09202975  , -9.799572   , -0.000580417342, -0.00066772016, 0.000195515415, -0.180261567, -0.164621815, 0.4506539   , -0.009358748, -0.0124596609, 2.42858529  , 0.53        , 3           , 50          , 0           , 0
-0.125320137, 0.09339997  , -9.795067   , -0.00150609389, 0.000874679652, -1.82809454E-05, -0.180261567, -0.164621815, 0.4506539   , -0.009373805, -0.0124509158, 2.42858529  , 0.54        , 3           , 11          , 0.0134381587, 0.0134381549
-0.120863609, 0.0901645645, -9.787815   , 0.000123803446, -0.000240596666, 0.0006232648, -0.180261567, -0.164419577, 0.450721323 , -0.009372643, -0.0124532636, 2.428591    , 0.55        , 3           , 12          , 0.0350921378, 0
-0.139606848, 0.110249057 , -9.79103851 , 0.00103279285, 0.00159578468, 0.0009129029, -0.18032898 , -0.164284751, 0.450788736 , -0.00936242752, -0.0124372207, 2.42860055  , 0.56        , 3           , 50          , 0           , 0
-0.116997853, 0.106834307 , -9.793592   , 0.000258069049, 0.001097791 , 6.09097042E-05, -0.180126742, -0.1645544  , 0.450721323 , -0.009359854, -0.0124262357, 2.42860055  , 0.57        , 3           , 11          , 0.0134381587, 0.0134381549
-0.128666073, 0.08168911  , -9.789718   , -0.0017072144, -0.00123848964, 0.000401283032, -0.180126742, -0.1645544  , 0.450721323 , -0.009376976, -0.0124385841, 2.42860484  , 0.58        , 3           , 12          , 0.0350921378, 0
-0.14074339 , 0.0953429937, -9.782522   , -0.00142361957, -0.00144775293, 0.0006141775, -0.1804638  , -0.164486989, 0.4506539   , -0.00939129 , -0.0124530029, 2.428611    , 0.59        , 3           , 50          , 0           , 0
-0.109396711, 0.09506087  , -9.807594   , 0.000106639942, 0.00268676085, 0.000415688643, -0.180261567, -0.164486989, 0.450856149 , -0.009397457, -0.0125129782, 2.42861533  , 0.6         , 3           , 11          , 0.0113538774, 0.0113538718
-0.115527079, 0.08511241  , -9.780111   , -0.000101509817, 0.00191102375, 0.000130970133, -0.18032898 , -0.164486989, 0.450856149 , -0.009398487, -0.012493859, 2.42861676  , 0.61        , 3           , 12          , 0.03534287  , 0
-0.131958619, 0.101638228 , -9.806384   , 0.0003342499, -0.0006905921, -0.00121312111, -0.18032898 , -0.164486989, 0.450856149 , -0.009394994, -0.01250088 , 2.42860436  , 0.62        , 3           , 50          , 0           , 0
-0.124363765, 0.0965549648, -9.797307   , -0.000721836463, -0.00133127649, -0.00143093907, -0.1803964  , -0.1645544  , 0.4505865   , -0.009402036, -0.0125143258, 2.42859     , 0.63        , 3           , 11          , 0.0113538774, 0.0113538718
-0.1327965  , 0.107506268 , -9.804106   , -0.0007429505, 0.002892199 , -0.001777602, -0.180194154, -0.164352164, 0.450788736 , -0.009409239, -0.0124855712, 2.428572    , 0.64        , 3           , 12          , 0.03534287  , 0
-0.129999608, 0.1151273   , -9.799081   , -0.000814647065, 0.00324368081, -0.0006472389, -0.1804638  , -0.164419577, 0.450788736 , -0.0094173  , -0.0124531984, 2.42856526  , 0.65        , 3           , 50          , 0           , 0
-0.112783536, 0.113594547 , -9.805736   , -0.00235672016, 0.000980656 , -0.00044605037, -0.180126742, -0.164284751, 0.450721323 , -0.009440811, -0.0124434354, 2.4285605   , 0.66        , 3           , 11          , 0.0113538774, 0.0113538718
-0.123831764, 0.102862738 , -9.796373   , -0.00136187172, -0.0002797017, -0.00030212506, -0.180126742, -0.164284751, 0.450721323 , -0.009454393, -0.0124462591, 2.42855763  , 0.67        , 3           , 12          , 0.03534287  , 0
-0.125816509, 0.0924772844, -9.787392   , -0.0010822959, 0.000355731085, 0.000194608656, -0.180194154, -0.164352164, 0.450788736 , -0.00946524 , -0.0124426838, 2.42855954  , 0.68        , 3           , 50          , 0           , 0
-0.104987592, 0.08821625  , -9.800358   , -0.00115224638, 0.000214470841, 0.000123428 , -0.180531219, -0.164486989, 0.450721323 , -0.009476778, -0.0124405278, 2.428561    , 0.69        , 3           , 11          , 0.0113538774, 0.0113538718
-0.107643723, 0.0869582   , -9.819366   , -0.0009951873, 0.00029487646, -0.000157239861, -0.1803964  , -0.1645544  , 0.4506539   , -0.00960153 , -0.0124194222, 2.428561    , 0.7         , 3           , 12          , 0.0356459841, 0
-0.111165658, 0.0666240454, -9.798686   , 0.0020442598, -0.0002477188, 0.000844930531, -0.1803964  , -0.1645544  , 0.4506539   , -0.00958119053, -0.0124218157, 2.428569    , 0.71        , 3           , 50          , 0           , 0
-0.121285126, 0.09465873  , -9.781019   , 0.000700478442, 0.000165555713, 0.0005567883, -0.180194154, -0.1645544  , 0.4506539   , -0.009574257, -0.0124201067, 2.4285748   , 0.72        , 3           , 11          , 0.0101340292, 0.0101340245
-0.122610666, 0.0911304653, -9.80048    , 0.0009864755, -0.0006772326, -0.000502712035, -0.1803964  , -0.164486989, 0.450721323 , -0.009564331, -0.0124269268, 2.42857     , 0.73        , 3           , 12          , 0.0356459841, 0
-0.123211578, 0.07985701  , -9.800531   , 0.001547125 , 0.000241675531, 6.640704E-05, -0.180598632, -0.164689228, 0.4505865   , -0.009548866, -0.0124245035, 2.42857051  , 0.74        , 3           , 50          , 0           , 0
-0.118514173, 0.08976093  , -9.809946   , -6.33192758E-05, -0.00251456629, -8.666481E-05, -0.180598632, -0.164689228, 0.4505865   , -0.009549492, -0.0124496538, 2.42857     , 0.75        , 3           , 11          , 0.0101340292, 0.0101340245
-0.114944577, 0.0865512639, -9.80722    , 0.000645369 , -0.00293213665, 0.0008342233, -0.18032898 , -0.164217338, 0.4505865   , -0.009543145, -0.0124788955, 2.42857862  , 0.76        , 3           , 12          , 0.0356459841, 0
-0.138590559, 0.07603331  , -9.817389   , -0.000212652056, -0.00082613 , 0.0003390864, -0.180531219, -0.164284751, 0.450856149 , -0.009545314, -0.0124871209, 2.42858243  , 0.77        , 3           , 50          , 0           , 0
-0.135339886, 0.08498891  , -9.808287   , -0.00106661336, 0.000435180933, -0.000369255256, -0.1804638  , -0.164419577, 0.450788736 , -0.009555934, -0.0124828052, 2.42857862  , 0.78        , 3           , 11          , 0.0101340292, 0.0101340245
-0.123860292, 0.104625016 , -9.78371    , 0.00217241561, 0.00235771271, 0.0005670652, -0.1804638  , -0.164419577, 0.450788736 , -0.009534279, -0.0124591738, 2.42858386  , 0.79        , 3           , 12          , 0.0356459841, 0
-0.09937006 , 0.105262943 , -9.7903     , 0.002275132 , 0.004377798 , -0.0009841368, -0.1804638  , -0.164486989, 0.450788736 , -0.009439994, -0.0124514913, 2.428573    , 0.8         , 3           , 50          , 0           , 0
-0.112694658, 0.120361805 , -9.805707   , 0.00130209432, 0.00127389806, -0.0007816162, -0.1804638  , -0.164419577, 0.450856149 , -0.009426875, -0.0124388263, 2.42856526  , 0.81        , 3           , 11          , 0.009379054 , 0.009379055
-0.136882082, 0.100850336 , -9.823149   , -0.00122529548, -0.001629333, -0.000515379, -0.180531219, -0.1645544  , 0.450923562 , -0.009439066, -0.0124551672, 2.42856     , 0.82        , 3           , 12          , 0.03599975  , 0
-0.125157654, 0.106475793 , -9.792752   , -0.000953182636, 0.0005547086, 0.000336913276, -0.180531219, -0.1645544  , 0.450923562 , -0.009448639, -0.0124495877, 2.42856336  , 0.83        , 3           , 50          , 0           , 0
-0.117430784, 0.105963007 , -9.801282   , -0.000177550828, 0.0006303489, -0.0008601409, -0.1803964  , -0.164419577, 0.450451672 , -0.009450307, -0.0124433665, 2.42855477  , 0.84        , 3           , 11          , 0.009379054 , 0.009379055
-0.114937142, 0.0941452459, -9.78459    , -0.00235418323, -0.001777755, -0.000308960734, -0.180059329, -0.164284751, 0.450788736 , -0.009473813, -0.0124611724, 2.428552    , 0.85        , 3           , 12          , 0.03599975  , 0
-0.151505873, 0.10046497  , -9.792074   , -0.00269983569, -0.00332875131, -0.000807434029, -0.180261567, -0.164486989, 0.450788736 , -0.009500714, -0.0124945352, 2.42854428  , 0.86        , 3           , 50          , 0           , 0
-0.130257666, 0.09884959  , -9.788303   , -0.00256360834, -0.00213114056, 0.0008196592, -0.180261567, -0.164486989, 0.450788736 , -0.009526455, -0.0125157684, 2.42855239  , 0.87        , 3           , 11          , 0.009379054 , 0.009379055
-0.112106092, 0.100008562 , -9.793583   , -0.00129476015, -0.001629805, 0.00146205409, -0.1803964  , -0.1645544  , 0.4505865   , -0.009539588, -0.0125319269, 2.42856717  , 0.88        , 3           , 12          , 0.03599975  , 0
-0.132381991, 0.09854294  , -9.823575   , 0.0010170649, 0.00176472624, -0.00106471125, -0.180261567, -0.164217338, 0.4506539   , -0.009529281, -0.0125143826, 2.42855668  , 0.89        , 3           , 50          , 0           , 0
-0.137188122, 0.082748346 , -9.806501   , -0.0005203977, -0.00243242318, -0.0008654801, -0.180261567, -0.164419577, 0.4506539   , -0.009639935, -0.0125864195, 2.42854953  , 0.9         , 3           , 11          , 0.008914222 , 0.008914218
-0.122497328, 0.103273757 , -9.789129   , 0.000464833749, -0.00165143178, 0.000129203618, -0.180261567, -0.164419577, 0.4506539   , -0.009635305, -0.01260292 , 2.428551    , 0.91        , 3           , 12          , 0.03640228  , 0
-0.113807738, 0.109491892 , -9.789941   , 0.0008159653, -0.00143787451, -0.0013521465, -0.180059329, -0.164419577, 0.450519085 , -0.009626977, -0.0126174279, 2.42853761  , 0.92        , 3           , 50          , 0           , 0
-0.120192923, 0.1050654   , -9.793172   , 0.00116393424, -0.000379617239, -0.00106633548, -0.180261567, -0.164284751, 0.4506539   , -0.009615202, -0.0126213264, 2.428527    , 0.93        , 3           , 11          , 0.008914222 , 0.008914218
-0.124126695, 0.0820916444, -9.791038   , -0.0005966434, -0.00123624783, -0.000369524379, -0.18032898 , -0.164486989, 0.450856149 , -0.009621124, -0.0126337269, 2.4285233   , 0.94        , 3           , 12          , 0.03640228  , 0
-0.1254552  , 0.08213178  , -9.798279   , -0.0008077034, -0.0014488555, -0.0008652782, -0.1803964  , -0.1645544  , 0.450519085 , -0.009629094, -0.0126482956, 2.42851472  , 0.95        , 3           , 50          , 0           , 0
-0.121715635, 0.09200399  , -9.795046   , 0.0008143672, -0.00115631043, -0.00170488423, -0.1803964  , -0.1645544  , 0.450519085 , -0.009620735, -0.0126600219, 2.428498    , 0.96        , 3           , 11          , 0.008914222 , 0.008914218
-0.13166441 , 0.0939164758, -9.792401   , 0.000668679 , -3.09998322E-05, 0.000203320844, -0.1803964  , -0.164689228, 0.450923562 , -0.009614075, -0.0126603125, 2.4285      , 0.97        , 3           , 12          , 0.03640228  , 0
-0.123019122, 0.0956352   , -9.796849   , -0.00292885955, -0.000759265036, 4.417649E-05, -0.1804638  , -0.164149925, 0.450856149 , -0.009643369, -0.0126679018, 2.42850041  , 0.98        , 3           , 50          , 0           , 0
-0.1034143  , 0.10667482  , -9.7934885  , -0.00129797589, -0.00215610815, -2.1055308E-05, -0.180194154, -0.164352164, 0.450788736 , -0.009656349, -0.0126894638, 2.42850041  , 0.99        , 3           , 11          , 0.008914222 , 0.008914218
-0.09893831 , 0.09943801  , -9.803881   , -0.00210778578, -0.0009928495, 4.84674638E-05, -0.180194154, -0.164352164, 0.450788736 , -0.009712071, -0.0126463724, 2.42850137  , 1           , 3           , 12          , 0.03685157  , 0
-0.122247174, 0.08123308  , -9.810462   , -0.001605523, -0.002608506, 4.82769756E-05, -0.180261567, -0.1645544  , 0.450721323 , -0.00972813647, -0.0126724523, 2.42850232  , 1.01        , 3           , 50          , 0           , 0
-0.135301352, 0.08412741  , -9.820493   , -0.0008387111, -0.0005619057, 0.000478850881, -0.180194154, -0.164284751, 0.450788736 , -0.0097365845, -0.0126780281, 2.428507    , 1.02        , 3           , 11          , 0.008636879 , 0.008636877
-0.139970049, 0.110326968 , -9.81273651 , 0.00162260246, 0.00142576126, 0.000210874059, -0.18032898 , -0.164284751, 0.4505865   , -0.009720384, -0.0126637463, 2.428509    , 1.03        , 3           , 12          , 0.03685157  , 0
-0.131267041, 0.0920808539, -9.784723   , 0.000705048733, 0.00113798375, -0.00163033372, -0.18032898 , -0.164284751, 0.4505865   , -0.009713126, -0.0126525247, 2.42849278  , 1.04        , 3           , 50          , 0           , 0
-0.113117978, 0.09234508  , -9.792266   , -0.00282383314, 0.00090293726, -0.0009407769, -0.180261567, -0.164352164, 0.450721323 , -0.009741244, -0.0126435878, 2.42848325  , 1.05        , 3           , 11          , 0.008636879 , 0.008636877
-0.144339874, 0.09496005  , -9.790235   , -0.0006266054, -0.000560471963, 0.0009742792, -0.1804638  , -0.164217338, 0.450856149 , -0.009747636, -0.0126490956, 2.42849326  , 1.06        , 3           , 12          , 0.03685157  , 0
-0.119775742, 0.09208706  , -9.826217   , -0.000205768272, -0.000205655626, -0.0008596966, -0.1803964  , -0.164284751, 0.450721323 , -0.009749584, -0.0126512367, 2.42848468  , 1.07        , 3           , 50          , 0           , 0
-0.103682458, 0.08681813  , -9.791765   , -0.0008324381, -0.00182894827, 0.00047689816, -0.1803964  , -0.164284751, 0.450721323 , -0.009757971, -0.0126694776, 2.42849     , 1.08        , 3           , 11          , 0.008636879 , 0.008636877
-0.132224828, 0.08446122  , -9.796513   , 0.0013458333, 0.000297591527, 0.000349090144, -0.180261567, -0.164352164, 0.450519085 , -0.009744558, -0.0126664694, 2.42849278  , 1.09        , 3           , 12          , 0.03685157  , 0
-0.119402125, 0.09603475  , -9.794107   , 0.002392797 , -0.000463514065, -0.000778245, -0.180261567, -0.164352164, 0.450721323 , -0.0096555315, -0.0126635246, 2.42848516  , 1.1         , 3           , 50          , 0           , 0
-0.101986796, 0.109393    , -9.801603   , 0.0009826093, -0.0008250193, -0.000432200031, -0.180261567, -0.164352164, 0.4506539   , -0.009645652, -0.0126718134, 2.42848039  , 1.11        , 3           , 11          , 0.008482191 , 0.008482189
-0.09201515 , 0.07811409  , -9.79352    , -0.000568628544, -0.00118747866, 0.000195723609, -0.180261567, -0.164352164, 0.4506539   , -0.009651364, -0.0126836691, 2.42848277  , 1.12        , 3           , 12          , 0.03734554  , 0
-0.124626748, 0.073578    , -9.806896   , 0.00308777159, 0.001864175 , -6.502881E-05, -0.180126742, -0.164486989, 0.450788736 , -0.009620476, -0.0126650333, 2.42848182  , 1.13        , 3           , 50          , 0           , 0
-0.131927043, 0.106573686 , -9.798227   , 0.00337675679, 0.0005990433, 0.0004287759, -0.18032898 , -0.164419577, 0.450721323 , -0.009586761, -0.0126590012, 2.428486    , 1.14        , 3           , 11          , 0.008482191 , 0.008482189
-0.112614423, 0.120426811 , -9.825141   , -0.00162854849, -0.00105385913, -2.09009158E-05, -0.180126742, -0.164217338, 0.450856149 , -0.009603045, -0.0126695428, 2.428486    , 1.15        , 3           , 12          , 0.03734554  , 0
-0.129280865, 0.09934303  , -9.804112   , -0.0002245521, 0.000574689242, -0.0002237242, -0.180126742, -0.164217338, 0.450856149 , -0.009605262, -0.012663817, 2.42848372  , 1.16        , 3           , 50          , 0           , 0
-0.128949717, 0.0636052638, -9.778496   , 0.00118665874, 0.0007954136, -4.911121E-06, -0.18032898 , -0.164352164, 0.4505865   , -0.009593395, -0.0126558645, 2.42848325  , 1.17        , 3           , 11          , 0.008482191 , 0.008482189
-0.1234794  , 0.103222392 , -9.770605   , -0.0007937733, 0.00148595672, 5.75894774E-05, -0.180531219, -0.164284751, 0.450788736 , -0.009601336, -0.0126410006, 2.4284842   , 1.18        , 3           , 12          , 0.03734554  , 0
-0.1269076  , 0.07850071  , -9.787005   , 0.000204582509, -0.0005487065, -0.000364753359, -0.18032898 , -0.1645544  , 0.4506539   , -0.009599246, -0.0126465224, 2.42848039  , 1.19        , 3           , 50          , 0           , 0
-0.117375836, 0.0770688951, -9.796883   , 0.000167131453, 0.0014423778, 0.000343987049, -0.18032898 , -0.164486989, 0.450721323 , -0.009549254, -0.0126086259, 2.42848325  , 1.2         , 3           , 11          , 0.008402428 , 0.008402424
-0.140309647, 0.08460982  , -9.812394   , -0.00131603936, 0.00150274124, 0.000195912828, -0.18032898 , -0.164486989, 0.450721323 , -0.009562438, -0.0125935795, 2.42848516  , 1.21        , 3           , 12          , 0.0378820561, 0
-0.111462332, 0.08371717  , -9.781895   , -0.00215967163, 0.0007930994, 0.000473414635, -0.18032898 , -0.164149925, 0.450788736 , -0.00958409347, -0.0125856046, 2.42849     , 1.22        , 3           , 50          , 0           , 0
-0.101396173, 0.09439762  , -9.772734   , -0.00102469255, -0.000395915471, -0.0006533116, -0.18032898 , -0.164621815, 0.4506539   , -0.009594258, -0.012589626, 2.42848325  , 1.23        , 3           , 11          , 0.008402428 , 0.008402424
-0.122739322, 0.111037843 , -9.815765   , 0.0010940166, -0.000311195239, 0.00083999557, -0.180194154, -0.164419577, 0.450788736 , -0.009583423, -0.0125926565, 2.42849183  , 1.24        , 3           , 12          , 0.0378820561, 0
-0.125463158, 0.111510314 , -9.812621   , -0.00215157447, -0.000825899537, 0.000612188247, -0.180194154, -0.164419577, 0.450788736 , -0.009605017, -0.0126008568, 2.42849755  , 1.25        , 3           , 50          , 0           , 0
-0.100282736, 0.09812622  , -9.811579   , -0.0002487937, -0.000390666741, -0.00199174322, -0.1803964  , -0.164352164, 0.4506539   , -0.009607253, -0.0126049556, 2.42847753  , 1.26        , 3           , 11          , 0.008402428 , 0.008402424
-0.124547213, 0.08033771  , -9.804607   , -0.0002448823, -0.0010241844, -0.0006506665, -0.180194154, -0.164486989, 0.450990975 , -0.00960962 , -0.0126152588, 2.42847133  , 1.27        , 3           , 12          , 0.0378820561, 0
-0.132034332, 0.09755973  , -9.800978   , -0.000606502348, 0.0005924246, -0.00163869851, -0.1803964  , -0.164689228, 0.450788736 , -0.009615479, -0.0126094921, 2.42845464  , 1.28        , 3           , 50          , 0           , 0
-0.1224666  , 0.101959616 , -9.800885   , -0.00165954488, -0.000259424152, 0.00160424213, -0.1803964  , -0.164689228, 0.450788736 , -0.009632275, -0.0126119321, 2.42847085  , 1.29        , 3           , 11          , 0.008402428 , 0.008402424
-0.121103063, 0.09882338  , -9.812188   , -0.00202111364, -0.00113697327, -9.347737E-05, -0.180531219, -0.164284751, 0.4506539   , -0.009666106, -0.0125783067, 2.42847085  , 1.3         , 3           , 12          , 0.0384589471, 0
-0.140170768, 0.0985592157, -9.801487   , -0.00245496072, 0.0008311152, -0.0008693931, -0.180194154, -0.164284751, 0.450721323 , -0.009690545, -0.01257008 , 2.42846179  , 1.31        , 3           , 50          , 0           , 0
-0.1105506  , 0.08192612  , -9.789126   , -0.002595681, 0.000689376844, -0.00122344051, -0.180194154, -0.164419577, 0.450788736 , -0.009716346, -0.0125633059, 2.42844939  , 1.32        , 3           , 11          , 0.008364372 , 0.008364366
-0.116920114, 0.08108313  , -9.784658   , -0.00174358452, -0.000219978334, -0.000726459257, -0.180194154, -0.164419577, 0.450788736 , -0.009733691, -0.0125655765, 2.42844224  , 1.33        , 3           , 12          , 0.0384589471, 0
-0.144041568, 0.08010001  , -9.800238   , -0.00442873 , 0.000184224555, -0.000738319242, -0.180261567, -0.164419577, 0.4505865   , -0.009777885, -0.012563807, 2.42843461  , 1.34        , 3           , 50          , 0           , 0
-0.161561489, 0.08890036  , -9.806663   , 9.571932E-05, -0.00105226191, -0.0018493511, -0.18032898 , -0.164419577, 0.450721323 , -0.009776697, -0.01257451 , 2.42841649  , 1.35        , 3           , 11          , 0.008364372 , 0.008364366
-0.138113126, 0.08676038  , -9.788864   , 0.002151322 , -0.002375842, 0.000559704 , -0.179991916, -0.164486989, 0.450721323 , -0.00975525752, -0.0125982119, 2.42842221  , 1.36        , 3           , 12          , 0.0384589471, 0
-0.115003437, 0.09275247  , -9.772844   , 0.00114913657, 0.000292339 , -0.000217760782, -0.179991916, -0.164486989, 0.450721323 , -0.009743736, -0.01259531 , 2.42842031  , 1.37        , 3           , 50          , 0           , 0
-0.103558138, 0.09361412  , -9.80032349 , 0.00121410412, 0.00148946955, 0.0002788532, -0.18032898 , -0.164284751, 0.450721323 , -0.009731629, -0.0125803882, 2.42842269  , 1.38        , 3           , 11          , 0.008364372 , 0.008364366
-0.132582113, 0.08499026  , -9.818209   , -0.0003347722, 0.000493484957, -0.000436252332, -0.180261567, -0.164621815, 0.450788736 , -0.009734921, -0.0125755  , 2.4284184   , 1.39        , 3           , 12          , 0.0384589471, 0
-0.123859525, 0.1006085   , -9.796834   , -0.003338867, -0.00274025742, 0.000884937646, -0.180261567, -0.164419577, 0.450788736 , -0.009670616, -0.0126540493, 2.428426    , 1.4         , 3           , 50          , 0           , 0
-0.119485125, 0.122228011 , -9.800326   , 0.000324806781, -0.001026035, 0.001752274 , -0.180261567, -0.164419577, 0.450788736 , -0.009667591, -0.0126641393, 2.42844415  , 1.41        , 3           , 11          , 0.008345449 , 0.008345445
-0.124292769, 0.0992905945, -9.805883   , 0.004266814 , 0.0012532213, 0.000361495 , -0.180261567, -0.164284751, 0.450519085 , -0.009624967, -0.0126515729, 2.42844748  , 1.42        , 3           , 12          , 0.0390740521, 0
-0.130819857, 0.09207101  , -9.783364   , 0.00117020379, -0.000738742354, 0.00090904627, -0.180261567, -0.164352164, 0.450923562 , -0.009613381, -0.0126588726, 2.42845654  , 1.43        , 3           , 50          , 0           , 0
-0.110865809, 0.09409438  , -9.783654   , 0.000305868976, 0.0026343076, 0.0003452276, -0.180261567, -0.164486989, 0.450788736 , -0.009610362, -0.0126324994, 2.42846     , 1.44        , 3           , 11          , 0.008345449 , 0.008345445
-0.113882013, 0.102290109 , -9.794943   , 0.00115372776, 0.002358468 , -0.00106394268, -0.180261567, -0.164486989, 0.450788736 , -0.00959869 , -0.0126090162, 2.428449    , 1.45        , 3           , 12          , 0.0390740521, 0
-0.117767125, 0.09229996  , -9.762924   , -0.00308562559, 0.00289294822, -0.00136536628, -0.180194154, -0.1645544  , 0.450519085 , -0.00962937251, -0.0125802178, 2.428435    , 1.46        , 3           , 50          , 0           , 0
-0.129995465, 0.08306759  , -9.792435   , -0.00279606576, 0.00148703321, -0.00108368159, -0.1804638  , -0.164419577, 0.4506539   , -0.009657194, -0.0125654535, 2.42842412  , 1.47        , 3           , 11          , 0.008345449 , 0.008345445
-0.144755334, 0.09499561  , -9.799277   , -0.00420425553, 0.000351215363, -0.00391737651, -0.180126742, -0.164284751, 0.450788736 , -0.009698743, -0.0125623206, 2.428385    , 1.48        , 3           , 12          , 0.0390740521, 0
-0.130811363, 0.08582896  , -9.805536   , -0.004762643, -0.000497288944, 3.4212062E-05, -0.180126742, -0.1645544  , 0.450451672 , -0.009746376, -0.012567292, 2.428385    , 1.49        , 3           , 50          , 0           , 0
-0.138741568, 0.07100111  , -9.796618   , -0.00132511114, -0.00278159417, -0.00164966611, -0.180126742, -0.1645544  , 0.450451672 , -0.009715182, -0.0126585355, 2.42836881  , 1.5         , 3           , 11          , 0.008329129 , 0.008329123
-0.117677234, 0.0928191543, -9.78326    , -0.00160574331, -0.00278349547, 0.00145692925, -0.1803964  , -0.164149925, 0.450721323 , -0.009731427, -0.0126862274, 2.428383    , 1.51        , 3           , 12          , 0.03972523  , 0
-0.110958323, 0.09000227  , -9.774179   , -0.006967256, -0.0039460496, -0.000265053037, -0.180261567, -0.164352164, 0.450923562 , -0.009801071, -0.0127257127, 2.4283812   , 1.52        , 3           , 50          , 0           , 0
-0.118625455, 0.08297551  , -9.804551   , -0.000486194651, -0.00108647381, -0.0016431117, -0.180194154, -0.164419577, 0.4505865   , -0.009805727, -0.0127367377, 2.428365    , 1.53        , 3           , 11          , 0.008329129 , 0.008329123
-0.150763661, 0.08871684  , -9.789858   , -0.000771498249, -0.000243682152, 0.0006171729, -0.180194154, -0.164419577, 0.4505865   , -0.009813521, -0.0127391126, 2.42837071  , 1.54        , 3           , 12          , 0.03972523  , 0
-0.118222848, 0.0882857442, -9.77514648 , 0.0003664099, -0.00192543329, 0.000337299483, -0.18032898 , -0.1645544  , 0.450788736 , -0.0098099  , -0.0127583332, 2.42837453  , 1.55        , 3           , 50          , 0           , 0
-0.121754378, 0.09509704  , -9.775598   , -0.0027407743, -0.00194644544, -0.000524799, -0.18032898 , -0.164419577, 0.450788736 , -0.009837242, -0.0127778472, 2.42836976  , 1.56        , 3           , 11          , 0.008329129 , 0.008329123
-0.14768745 , 0.0810161158, -9.791675   , -0.00104867527, -0.0013718541, 4.90452367E-05, -0.179991916, -0.164756641, 0.450519085 , -0.009847739, -0.0127915638, 2.42836976  , 1.57        , 3           , 12          , 0.03972523  , 0
-0.111822717, 0.08513641  , -9.799971   , -0.0004802923, -0.00221273233, -0.00107977248, -0.179991916, -0.164756641, 0.450519085 , -0.009852407, -0.0128137926, 2.42835927  , 1.58        , 3           , 50          , 0           , 0
-0.116621114, 0.102303855 , -9.78954    , 0.000642682367, -0.000515694264, 0.00175347365, -0.1804638  , -0.164419577, 0.450721323 , -0.009846203, -0.0128187779, 2.42837739  , 1.59        , 3           , 11          , 0.008329129 , 0.008329123
-0.129648283, 0.103881016 , -9.810425   , 0.00157807034, -0.0005003322, 0.00147392019, -0.18032898 , -0.164284751, 0.450856149 , -0.009725751, -0.0128121963, 2.42839074  , 1.6         , 3           , 12          , 0.0404103771, 0
-0.123855762, 0.09302359  , -9.822176   , 0.000173484354, -0.00219927658, 5.204433E-05, -0.1804638  , -0.164419577, 0.4506539   , -0.009724027, -0.012834182, 2.4283917   , 1.61        , 3           , 50          , 0           , 0
-0.119931825, 0.0928532854, -9.785537   , -0.004332799, -0.00476392126, 2.706799E-05, -0.1804638  , -0.164419577, 0.4506539   , -0.009767363, -0.0128818164, 2.42839265  , 1.62        , 3           , 11          , 0.008309965 , 0.00830996
-0.1336293  , 0.09024235  , -9.766669   , 0.000742267934, -0.00275858119, 0.00203157286, -0.1803964  , -0.164486989, 0.4506539   , -0.009760207, -0.012909201, 2.42841315  , 1.63        , 3           , 12          , 0.0404103771, 0
-0.1484035  , 0.0927854   , -9.800219   , 0.00298209256, 0.000917037542, -0.000495087763, -0.1804638  , -0.164486989, 0.450721323 , -0.00973032 , -0.0129000787, 2.428408    , 1.64        , 3           , 50          , 0           , 0
-0.13574107 , 0.0841433   , -9.823661   , -0.0009633561, -0.0007990917, -0.000233590967, -0.180261567, -0.164486989, 0.450721323 , -0.009739925, -0.0129080927, 2.428406    , 1.65        , 3           , 11          , 0.008309965 , 0.00830996
-0.129486814, 0.08801737  , -9.79015    , 0.00156881614, 0.0009074822, -0.00247943471, -0.180261567, -0.164486989, 0.450721323 , -0.009723915, -0.0128992582, 2.42838073  , 1.66        , 3           , 12          , 0.0404103771, 0
-0.124426052, 0.06801222  , -9.763076   , -0.000404241669, 0.000330987765, -0.000511758844, -0.180126742, -0.164419577, 0.4506539   , -0.009727892, -0.0128959985, 2.42837548  , 1.67        , 3           , 50          , 0           , 0
-0.110192195, 0.0778271854, -9.779198   , -0.000691339956, 0.00117377052, -0.00135938649, -0.180531219, -0.164419577, 0.450923562 , -0.009734629, -0.0128843924, 2.42836213  , 1.68        , 3           , 11          , 0.008309965 , 0.00830996
-0.122030407, 0.06452157  , -9.806461   , 0.00016716696, -0.000791448052, 0.001184364 , -0.180261567, -0.164621815, 0.450721323 , -0.009733111, -0.0128921913, 2.42837358  , 1.69        , 3           , 12          , 0.0404103771, 0
-0.142600819, 0.08818514  , -9.794318   , -0.0013558853, 0.0003313164, 0.0006109787, -0.180261567, -0.164621815, 0.450721323 , -0.009529167, -0.0128790587, 2.42837739  , 1.7         , 3           , 50          , 0           , 0
-0.117336474, 0.082457006 , -9.789176   , -0.000217813911, -0.00135043415, 0.0006136428, -0.180261567, -0.164689228, 0.4506539   , -0.009531426, -0.0128925042, 2.42838359  , 1.71        , 3           , 11          , 0.008277757 , 0.008277751
-0.1376757  , 0.08361817  , -9.795202   , 0.000356708973, -0.00303599844, 0.00287397276, -0.18032898 , -0.164352164, 0.450788736 , -0.009528233, -0.0129225906, 2.42841268  , 1.72        , 3           , 12          , 0.0411274433, 0
-0.118786834, 0.06632978  , -9.818633   , -0.000231338854, 0.00118364673, -0.00107767666, -0.180531219, -0.164486989, 0.450856149 , -0.009530406, -0.0129108569, 2.42840171  , 1.73        , 3           , 50          , 0           , 0
-0.117731571, 0.112340383 , -9.817983   , -0.00163117878, -0.00107841834, 0.0008900294, -0.180531219, -0.164486989, 0.450856149 , -0.009546834, -0.0129215568, 2.42841077  , 1.74        , 3           , 11          , 0.008277757 , 0.008277751
-0.118029065, 0.09826248  , -9.790472   , -0.003326719, -0.0010898828, -0.000813096762, -0.1803964  , -0.1645544  , 0.450721323 , -0.009579997, -0.0129325343, 2.42840266  , 1.75        , 3           , 12          , 0.0411274433, 0
-0.110947549, 0.08688654  , -9.786848   , -0.00220521237, 0.000607148453, -0.000522688, -0.180261567, -0.164486989, 0.450721323 , -0.009601981, -0.0129265124, 2.42839742  , 1.76        , 3           , 50          , 0           , 0
-0.110883586, 0.09274092  , -9.78366    , 0.00202315254, 0.00232519  , 6.474437E-05, -0.18032898 , -0.164419577, 0.450923562 , -0.009581755, -0.0129032545, 2.42839742  , 1.77        , 3           , 11          , 0.008277757 , 0.008277751
-0.10265708 , 0.0976169854, -9.786289   , 0.000628072536, -0.00106313929, 0.0006180275, -0.180194154, -0.164824054, 0.4506539   , -0.009575555, -0.0129138259, 2.428404    , 1.78        , 3           , 12          , 0.0411274433, 0
-0.116079092, 0.1019245   , -9.812588   , -0.00164855947, 0.00230035954, -0.000234913008, -0.180194154, -0.164824054, 0.4506539   , -0.009592007, -0.0128908455, 2.42840123  , 1.79        , 3           , 50          , 0           , 0
-0.126581281, 0.0988509059, -9.801382   , -0.000200125171, 0.001017443 , -0.0007948047, -0.18032898 , -0.164419577, 0.450856149 , -0.00955623947, -0.0127342138, 2.42839313  , 1.8         , 3           , 11          , 0.008233373 , 0.008233361
-0.104601517, 0.08369337  , -9.798566   , 0.00403692946, 0.00104609563, 0.000355099037, -0.1804638  , -0.164621815, 0.450856149 , -0.009515912, -0.0127237188, 2.42839646  , 1.81        , 3           , 12          , 0.0418744422, 0
-0.118949614, 0.08799489  , -9.81990051 , 9.394312E-05, -0.00123316539, 5.065298E-05, -0.180194154, -0.164486989, 0.4505865   , -0.009514982, -0.0127360448, 2.42839742  , 1.82        , 3           , 50          , 0           , 0
-0.130307034, 0.09256068  , -9.796465   , -0.000756377238, -0.000394194532, 0.00202576653, -0.180194154, -0.164486989, 0.4505865   , -0.009522802, -0.0127397943, 2.42841744  , 1.83        , 3           , 11          , 0.008233373 , 0.008233361
-0.141496971, 0.101725668 , -9.799225   , -0.00272958376, -0.00153383287, -0.0010931  , -0.179991916, -0.1645544  , 0.450923562 , -0.009549962, -0.0127552329, 2.428407    , 1.84        , 3           , 12          , 0.0418744422, 0
-0.132022128, 0.0913207158, -9.824055   , -0.003028086, 0.00184304081, 4.093998E-05, -0.18032898 , -0.164486989, 0.450856149 , -0.009580245, -0.0127367992, 2.428407    , 1.85        , 3           , 50          , 0           , 0
-0.119299456, 0.07119647  , -9.788334   , 0.00347716245, -8.39869E-05, -0.0004968828, -0.180059329, -0.164419577, 0.4505865   , -0.009545412, -0.01273769 , 2.42840219  , 1.86        , 3           , 11          , 0.008233373 , 0.008233361
-0.09963402 , 0.08094613  , -9.803963   , -0.00161135476, 0.0007263257, -0.00164943584, -0.180059329, -0.164419577, 0.4505865   , -0.009561314, -0.0127305826, 2.4283855   , 1.87        , 3           , 12          , 0.0418744422, 0
-0.122550979, 0.09876678  , -9.790504   , 0.000365633081, 0.0007396955, -0.00164021738, -0.18032898 , -0.164756641, 0.450721323 , -0.009557448, -0.0127233434, 2.42836881  , 1.88        , 3           , 50          , 0           , 0
-0.102691643, 0.0962499157, -9.78222752 , -0.00442258734, -0.00182685733, -0.000818898, -0.180194154, -0.164689228, 0.450721323 , -0.009601571, -0.0127416886, 2.42836118  , 1.89        , 3           , 11          , 0.008233373 , 0.008233361
-0.105777539, 0.103496484 , -9.779509   , -0.000152734428, -1.71311549E-05, -0.0005136152, -0.180261567, -0.164621815, 0.450721323 , -0.009548119, -0.0126210172, 2.42835546  , 1.9         , 3           , 12          , 0.04264945  , 0
-0.10805276 , 0.100835808 , -9.785414   , 0.00266054529, 0.00225448981, -0.000214436863, -0.180261567, -0.164621815, 0.450721323 , -0.009521483, -0.0125984941, 2.42835259  , 1.91        , 3           , 50          , 0           , 0
-0.135350779, 0.0930143744, -9.779779   , 0.000108129738, 0.004208252 , -0.00163593912, -0.18032898 , -0.164621815, 0.4506539   , -0.009520192, -0.0125565678, 2.42833638  , 1.92        , 3           , 11          , 0.008177912 , 0.008177902
-0.113908984, 0.09601935  , -9.808529   , 0.000405890634, 0.001112946 , -0.00163939549, -0.1804638  , -0.164217338, 0.450923562 , -0.009515925, -0.012545594, 2.42831969  , 1.93        , 3           , 12          , 0.04264945  , 0
-0.135913   , 0.111157209 , -9.80546951 , -0.00325222174, -0.0011643935, 0.00229553762, -0.180261567, -0.164621815, 0.450923562 , -0.009548736, -0.0125570195, 2.428343    , 1.94        , 3           , 50          , 0           , 0
-0.146552637, 0.0910109356, -9.815578   , -0.000450658466, 0.003078174 , -0.0007926963, -0.180261567, -0.164621815, 0.450923562 , -0.00955314 , -0.0125263156, 2.42833447  , 1.95        , 3           , 11          , 0.008177912 , 0.008177902
-0.12149477 , 0.110929668 , -9.788185   , 0.0009724644, 0.0008352024, -0.00107212062, -0.180126742, -0.164352164, 0.4506539   , -0.009543281, -0.0125180678, 2.428324    , 1.96        , 3           , 12          , 0.04264945  , 0
-0.111240581, 0.101304509 , -9.77956    , 0.00040375517, 0.00167607912, -0.0005083777, -0.180261567, -0.164352164, 0.450721323 , -0.009539177, -0.0125013553, 2.42831826  , 1.97        , 3           , 50          , 0           , 0
-0.133570477, 0.09162906  , -9.776606   , 0.00152977  , 0.00252841669, 0.0003458041, -0.18032898 , -0.164419577, 0.450721323 , -0.009523921, -0.01247604 , 2.4283216   , 1.98        , 3           , 11          , 0.008177912 , 0.008177902
-0.126160353, 0.06854208  , -9.780262   , -0.000148552412, -0.0008618266, -0.000514916959, -0.18032898 , -0.164419577, 0.450721323 , -0.009525344, -0.0124847069, 2.42831635  , 1.99        , 3           , 12          , 0.04264945  , 0
-0.115618229, 0.06763091  , -9.814083   , -0.00325171347, -0.000903882436, 0.00144817226, -0.180531219, -0.164419577, 0.4505865   , -0.009554762, -0.0125224525, 2.42833161  , 2           , 3           , 50          , 0           , 0
-0.11607936 , 0.111743987 , -9.78091    , -0.00268300436, -0.001744759, 0.0008844292, -0.180194154, -0.164352164, 0.450788736 , -0.00958170649, -0.0125398161, 2.4283402   , 2.01        , 3           , 11          , 0.008113594 , 0.00811358448
-0.115650125, 0.105024338 , -9.796753   , -0.000697074458, -0.003702349, -0.000522076967, -0.18032898 , -0.164689228, 0.450788736 , -0.009588615, -0.0125768892, 2.42833543  , 2.02        , 3           , 12          , 0.0434506536, 0
-0.112956017, 0.09961793  , -9.808506   , 0.000410076755, 0.00109190284, 0.00146832992, -0.180261567, -0.164419577, 0.450721323 , -0.009584699, -0.01256583 , 2.42835021  , 2.03        , 3           , 50          , 0           , 0
-0.123387523, 0.09883335  , -9.807234   , 0.0009830568, -0.0008752407, -0.00135744852, -0.180261567, -0.164419577, 0.450721323 , -0.0095747  , -0.0125747109, 2.42833638  , 2.04        , 3           , 11          , 0.008113594 , 0.00811358448
-0.127283573, 0.07901464  , -9.804182   , -0.003813854, -0.00175240426, -0.00109860068, -0.180598632, -0.164689228, 0.450856149 , -0.009612702, -0.01259234 , 2.428326    , 2.05        , 3           , 12          , 0.0434506536, 0
-0.117317289, 0.0882751048, -9.775141   , 0.001543966 , 0.0002548475, 0.00147229584, -0.180598632, -0.164689228, 0.450990975 , -0.009597447, -0.0125896512, 2.4283402   , 2.06        , 3           , 50          , 0           , 0
-0.113037363, 0.103122815 , -9.777307   , 0.0007132505, -0.00312966364, 0.00118060026, -0.180531219, -0.164419577, 0.450519085 , -0.009590467, -0.0126208328, 2.42835259  , 2.07        , 3           , 11          , 0.008113594 , 0.00811358448
-0.127962336, 0.0984020755, -9.797327   , 0.00126736728, -0.00115489343, -0.000508953, -0.180531219, -0.164419577, 0.450519085 , -0.00957773253, -0.0126324333, 2.42834783  , 2.08        , 3           , 12          , 0.0434506536, 0
-0.119600728, 0.08203697  , -9.790551   , -0.0007120822, -0.0006051315, 4.77710673E-05, -0.1804638  , -0.1645544  , 0.4506539   , -0.00958486 , -0.0126384785, 2.4283483   , 2.09        , 3           , 50          , 0           , 0
-0.123374484, 0.106431864 , -9.785959   , -0.001005784, 0.00393258  , -0.0007939737, -0.1804638  , -0.164352164, 0.450923562 , -0.009578403, -0.0125499573, 2.4283402   , 2.1         , 3           , 11          , 0.008037517 , 0.008037509
-0.136817828, 0.114739262 , -9.794163   , 0.000140651347, 0.0005614389, -0.000793913146, -0.18032898 , -0.1645544  , 0.450721323 , -0.009576896, -0.0125444178, 2.428332    , 2.11        , 3           , 12          , 0.0442762971, 0
-0.138357431, 0.09898609  , -9.800568   , 0.0006999289, 0.001691519 , -0.000789543439, -0.18032898 , -0.1645544  , 0.450721323 , -0.009569796, -0.01252758 , 2.428324    , 2.12        , 3           , 50          , 0           , 0
-0.114892028, 0.09462814  , -9.794079   , 0.00239637354, 0.00142141618, 6.553637E-05, -0.18032898 , -0.164689228, 0.450721323 , -0.009545838, -0.0125133591, 2.42832446  , 2.13        , 3           , 11          , 0.008037517 , 0.008037509
-0.112365969, 0.111328945 , -9.804386   , -0.0004418349, 0.00421796739, 5.67063835E-05, -0.180126742, -0.1645544  , 0.4506539   , -0.009550258, -0.0124711758, 2.428325    , 2.14        , 3           , 12          , 0.0442762971, 0
-0.129463226, 0.0871437863, -9.798741   , 0.00211820332, 0.0008563831, 0.00260618865, -0.180059329, -0.164621815, 0.4506539   , -0.009529398, -0.0124623645, 2.42835069  , 2.15        , 3           , 50          , 0           , 0
-0.1269813  , 0.104701519 , -9.7954855  , 0.00126076385, 0.00254003517, -0.000503070361, -0.180059329, -0.164621815, 0.4506539   , -0.009516726, -0.012437013, 2.428345    , 2.16        , 3           , 11          , 0.008037517 , 0.008037509
-0.1382666  , 0.108433053 , -9.792392   , 0.00296566123, 0.000298970379, -0.00191132771, -0.180194154, -0.164419577, 0.4505865   , -0.009486832, -0.012434205, 2.428326    , 2.17        , 3           , 12          , 0.0442762971, 0
-0.127172977, 0.09249475  , -9.787854   , 0.00296155363, 0.00142523763, 0.0006332453, -0.180261567, -0.164419577, 0.450856149 , -0.009457293, -0.0124198934, 2.42833257  , 2.18        , 3           , 50          , 0           , 0
-0.108459026, 0.105788663 , -9.780875   , -0.0009927485, 0.00139849656, 4.97331675E-05, -0.180059329, -0.1645544  , 0.450856149 , -0.00946722552, -0.012405904, 2.42833257  , 2.19        , 3           , 11          , 0.008037517 , 0.008037509
-0.1204836  , 0.0901002958, -9.77018452 , -0.004469056, 0.003325489 , -0.00137492653, -0.180059329, -0.1645544  , 0.450856149 , -0.00962526351, -0.01240395 , 2.42832017  , 2.2         , 3           , 12          , 0.0451247171, 0
-0.130837038, 0.0813446641, -9.813691   , -0.0019054  , -0.00116236508, -0.00221762946, -0.180194154, -0.164352164, 0.4505865   , -0.009644043, -0.0124157872, 2.42829823  , 2.21        , 3           , 50          , 0           , 0
-0.09597652 , 0.07557597  , -9.82972    , -0.000790700433, 0.00194249232, -0.00164251367, -0.1803964  , -0.164419577, 0.450856149 , -0.009651744, -0.0123965219, 2.42828155  , 2.22        , 3           , 11          , 0.007954306 , 0.007954297
-0.122776575, 0.07849824  , -9.800533   , -0.00189573073, -0.0028517493, 4.006659E-05, -0.180261567, -0.164419577, 0.450788736 , -0.009670707, -0.0124250334, 2.428282    , 2.23        , 3           , 12          , 0.0451247171, 0
-0.137670547, 0.0880858451, -9.782078   , -0.000207813617, -0.00143246236, 0.0006152129, -0.180261567, -0.164419577, 0.450788736 , -0.009672865, -0.0124392975, 2.4282887   , 2.24        , 3           , 50          , 0           , 0
-0.1263297  , 0.08127488  , -9.808685   , 0.0003554829, -0.00114707835, 0.000335743127, -0.18032898 , -0.164486989, 0.450721323 , -0.009669353, -0.0124507351, 2.428292    , 2.25        , 3           , 11          , 0.007954306 , 0.007954297
-0.110349819, 0.09637202  , -9.791778   , 6.378748E-05, 0.0008219697, 0.00118507619, -0.1803964  , -0.164419577, 0.450721323 , -0.009668862, -0.0124424025, 2.428304    , 2.26        , 3           , 12          , 0.0451247171, 0
-0.115566052, 0.08284911  , -9.777862   , -0.00247050542, -0.0008846145, -0.000242067, -0.180261567, -0.1645544  , 0.450856149 , -0.00969354 , -0.01245127 , 2.428301    , 2.27        , 3           , 50          , 0           , 0
-0.102287509, 0.118448555 , -9.809703   , -0.00106329494, 0.000251198828, 0.000896403159, -0.180261567, -0.1645544  , 0.450856149 , -0.00970428251, -0.0124486713, 2.42831063  , 2.28        , 3           , 11          , 0.007954306 , 0.007954297
-0.117928669, 0.105485424 , -9.791797   , -0.00105943927, -0.000593498058, 0.000330026378, -0.180261567, -0.164958879, 0.450519085 , -0.009714919, -0.012454574, 2.42831349  , 2.29        , 3           , 12          , 0.0451247171, 0
-0.13987422 , 0.08637585  , -9.802439   , -0.00106829451, 0.000855779 , 0.000332638039, -0.180531219, -0.164689228, 0.450721323 , -0.009728551, -0.0123821385, 2.42831731  , 2.3         , 3           , 50          , 0           , 0
-0.123671234, 0.113258883 , -9.802204   , -0.000786683464, 0.000857685 , -0.0010787322, -0.1804638  , -0.164486989, 0.450721323 , -0.009736283, -0.0123736663, 2.42830586  , 2.31        , 3           , 11          , 0.007866015 , 0.00786601
-0.12130288 , 0.0857173353, -9.805464   , 0.0012011301, -0.00138146733, -0.00163806 , -0.1804638  , -0.164621815, 0.4506539   , -0.009724071, -0.0123876426, 2.42828965  , 2.32        , 3           , 12          , 0.04599434  , 0
-0.112418   , 0.0738674849, -9.801377   , 0.00148765  , -0.001942681, 0.0006226887, -0.1804638  , -0.164621815, 0.4506539   , -0.009709274, -0.0124070048, 2.42829633  , 2.33        , 3           , 50          , 0           , 0
-0.14398548 , 0.0828235447, -9.805197   , 0.000903532142, 0.00171383936, -0.00135206617, -0.18032898 , -0.164891466, 0.450519085 , -0.009700069, -0.0123899989, 2.4282825   , 2.34        , 3           , 11          , 0.007866015 , 0.00786601
-0.121356994, 0.0856734961, -9.79235649 , 0.0009074622, 0.00115071458, 0.000624828041, -0.18032898 , -0.164756641, 0.450788736 , -0.00969107 , -0.0123784309, 2.4282887   , 2.35        , 3           , 12          , 0.04599434  , 0
-0.106773168, 0.0900436342, -9.800816   , -0.000772342843, -0.00167639216, 0.00202527456, -0.18032898 , -0.164621815, 0.4506539   , -0.009699046, -0.0123949973, 2.42830873  , 2.36        , 3           , 50          , 0           , 0
-0.122940242, 0.101501681 , -9.797276   , 0.00204422884, -0.000531042344, -0.00163280754, -0.18032898 , -0.164621815, 0.4506539   , -0.009678403, -0.012400466, 2.42829251  , 2.37        , 3           , 11          , 0.007866015 , 0.00786601
-0.1076276  , 0.0936664939, -9.80171    , -0.00247206446, -0.0008431614, 0.000323449785, -0.180261567, -0.164486989, 0.4506539   , -0.009703164, -0.0124088656, 2.42829633  , 2.38        , 3           , 12          , 0.04599434  , 0
-0.128807977, 0.09622954  , -9.819037   , 0.00063439284, -0.0011037247, -0.00248787249, -0.180261567, -0.164486989, 0.450788736 , -0.009696513, -0.0124201439, 2.42827153  , 2.39        , 3           , 50          , 0           , 0
-0.135813981, 0.08899409  , -9.79019451 , -0.00329230842, -0.001964492, -0.0008125083, -0.180261567, -0.164486989, 0.4506539   , -0.009693945, -0.0124227991, 2.428263    , 2.4         , 3           , 11          , 0.00777362147, 0.007773618
-0.120763317, 0.09470934  , -9.797739   , -0.00133639365, 0.002272353 , -0.00107931823, -0.180261567, -0.164486989, 0.4506539   , -0.009707172, -0.012400181, 2.42825246  , 2.41        , 3           , 12          , 0.04688368  , 0
-0.11481566 , 0.09959989  , -9.79677    , -0.000746047241, -0.0025104247, 0.002023851 , -0.18032898 , -0.1645544  , 0.4506539   , -0.009714887, -0.0124250883, 2.42827249  , 2.42        , 3           , 50          , 0           , 0
-0.122713163, 0.08613758  , -9.791462   , 0.003470023 , 0.001460132 , 0.0006369926, -0.180261567, -0.164621815, 0.450721323 , -0.009680263, -0.0124104265, 2.42827916  , 2.43        , 3           , 11          , 0.00777362147, 0.007773618
-0.137663946, 0.0818422958, -9.803797   , -0.001052736, 0.00199269736, -0.00136097276, -0.180126742, -0.164621815, 0.450721323 , -0.00969062 , -0.012390634, 2.42826486  , 2.44        , 3           , 12          , 0.04688368  , 0
-0.126319408, 0.08262228  , -9.806871   , -0.00103691255, -0.00110451633, -0.0005181335, -0.180126742, -0.164621815, 0.450721323 , -0.009700926, -0.012401727, 2.42826     , 2.45        , 3           , 50          , 0           , 0
-0.09499702 , 0.0899084657, -9.80163    , 0.00179047009, -0.001648545, 5.92427059E-05, -0.18032898 , -0.164419577, 0.450721323 , -0.009683032, -0.0124182058, 2.428261    , 2.46        , 3           , 11          , 0.00777362147, 0.007773618
-0.106659383, 0.09772378  , -9.8039465  , -0.0001886531, -0.00109878171, 0.00118104194, -0.18032898 , -0.164284751, 0.450856149 , -0.00968506653, -0.012429079, 2.42827249  , 2.47        , 3           , 12          , 0.04688368  , 0
-0.13747184 , 0.09717387  , -9.801473   , 0.00207584817, -0.00220976444, 0.000342229236, -0.180261567, -0.164621815, 0.4506539   , -0.009664352, -0.0124511421, 2.4282763   , 2.48        , 3           , 50          , 0           , 0
-0.127698079, 0.08797796  , -9.784713   , -0.001598978, -0.00167146628, -0.000521635229, -0.180261567, -0.164621815, 0.4506539   , -0.00968027953, -0.0124679068, 2.428271    , 2.49        , 3           , 11          , 0.00777362147, 0.007773618
-0.112689793, 0.09187349  , -9.787746   , 0.0006861339, -0.0005279269, 0.000337928534, -0.180598632, -0.164486989, 0.450721323 , -0.009622293, -0.0124698346, 2.42827439  , 2.5         , 3           , 12          , 0.0477913432, 0
-0.137035921, 0.0944767743, -9.806001   , -0.002151333, 0.001987056 , -0.000801485148, -0.1803964  , -0.164352164, 0.4505865   , -0.009643703, -0.0124500422, 2.42826581  , 2.51        , 3           , 50          , 0           , 0
-0.1331295  , 0.08313352  , -9.801046   , -0.00101556024, 0.0008684379, 4.96590947E-05, -0.180126742, -0.1645544  , 0.450721323 , -0.009653864, -0.0124413539, 2.42826629  , 2.52        , 3           , 11          , 0.007679352 , 0.00767934648
-0.135236084, 0.09176826  , -9.811874   , -0.00157418533, -0.000261639128, 0.00117543945, -0.180126742, -0.1645544  , 0.450721323 , -0.009669753, -0.0124438582, 2.42827821  , 2.53        , 3           , 12          , 0.0477913432, 0
-0.12461511 , 0.111899436 , -9.797245   , 0.00124401762, 0.000883718545, 0.000342732063, -0.180666044, -0.1645544  , 0.4506539   , -0.009657356, -0.0124349864, 2.42828155  , 2.54        , 3           , 50          , 0           , 0
-0.133110687, 0.0960929245, -9.763929   , 0.0023766763, 0.000328229042, 0.000629669463, -0.180126742, -0.164352164, 0.4506539   , -0.009633666, -0.0124316439, 2.42828774  , 2.55        , 3           , 11          , 0.007679352 , 0.00767934648
-0.1181455  , 0.0945973247, -9.773765   , 0.00151972636, 0.00201188331, -0.0016319775, -0.18032898 , -0.164621815, 0.450923562 , -0.009618265, -0.0124116838, 2.42827153  , 2.56        , 3           , 12          , 0.0477913432, 0
-0.137303889, 0.07997643  , -9.787079   , 0.00125319744, -0.0008056682, 0.00175281591, -0.18032898 , -0.164621815, 0.450923562 , -0.00960595 , -0.0124195712, 2.4282887   , 2.57        , 3           , 50          , 0           , 0
-0.131607041, 0.06323892  , -9.794336   , 0.000409120024, -0.00165609783, 5.23383642E-05, -0.18032898 , -0.164621815, 0.4505865   , -0.009601867, -0.0124361254, 2.42828965  , 2.58        , 3           , 11          , 0.007679352 , 0.00767934648
-0.12256173 , 0.09429458  , -9.802275   , -0.000727231032, -0.0002559108, 0.00061431533, -0.180531219, -0.164419577, 0.450721323 , -0.009609218, -0.0124386251, 2.42829537  , 2.59        , 3           , 12          , 0.0477913432, 0
-0.114679955, 0.111761309 , -9.790842   , 0.002414461 , 0.00141072925, 6.544082E-05, -0.180059329, -0.164486989, 0.450721323 , -0.009509722, -0.0124999806, 2.42829537  , 2.6         , 3           , 50          , 0           , 0
-0.127384692, 0.103407808 , -9.811765   , 0.00184821314, 0.00168847444, 6.324089E-05, -0.1803964  , -0.164689228, 0.450721323 , -0.009491246, -0.0124830911, 2.42829633  , 2.61        , 3           , 11          , 0.00758327637, 0.00758326938
-0.114013016, 0.09147155  , -9.797701   , 0.00268589915, 0.003665161 , 0.0003527667, -0.1803964  , -0.164689228, 0.450721323 , -0.009464427, -0.0124464072, 2.42829919  , 2.62        , 3           , 12          , 0.0487160049, 0
-0.09949528 , 0.09980529  , -9.777216   , -0.00126766157, 0.00335685164, -0.001361329, -0.18032898 , -0.164419577, 0.450721323 , -0.009476928, -0.0124129709, 2.42828536  , 2.63        , 3           , 50          , 0           , 0
-0.103469811, 0.102166347 , -9.794413   , 0.0001588132, 0.000832324033, 0.00174926245, -0.18032898 , -0.1645544  , 0.450923562 , -0.009475555, -0.0124044828, 2.428303    , 2.64        , 3           , 11          , 0.00758327637, 0.00758326938
-0.1240453  , 0.08885287  , -9.789201   , 0.0004515763, -0.00141829043, 0.000334420474, -0.180261567, -0.164621815, 0.450721323 , -0.009471085, -0.0124186324, 2.42830634  , 2.65        , 3           , 12          , 0.0487160049, 0
-0.128904909, 0.09882909  , -9.786937   , -0.00208534184, -0.00256174384, -0.0008093174, -0.180261567, -0.164621815, 0.450721323 , -0.00949184 , -0.0124443257, 2.42829823  , 2.66        , 3           , 50          , 0           , 0
-0.11836642 , 0.108181022 , -9.786817   , -0.002098214, -2.76595256E-05, -0.00137048692, -0.1804638  , -0.164621815, 0.4506539   , -0.009512652, -0.0124447318, 2.428285    , 2.67        , 3           , 11          , 0.00758327637, 0.00758326938
-0.1483773  , 0.09548475  , -9.797947   , 0.00298514264, 6.71838643E-06, -0.00191185717, -0.18032898 , -0.164689228, 0.450923562 , -0.00948256347, -0.0124448454, 2.42826581  , 2.68        , 3           , 12          , 0.0487160049, 0
-0.144030169, 0.08546544  , -9.785752   , 0.000445021462, -0.000292034936, -0.00135906844, -0.180261567, -0.1645544  , 0.4505865   , -0.009477944, -0.0124478927, 2.42825246  , 2.69        , 3           , 50          , 0           , 0
-0.114832923, 0.1040494   , -9.778219   , 0.0012685461, 0.00108010625, 0.00118976168, -0.180261567, -0.1645544  , 0.4505865   , -0.009498046, -0.01251105 , 2.42826486  , 2.7         , 3           , 11          , 0.007486215 , 0.007486206
-0.130759582, 0.09033443  , -9.80371    , 0.00382153969, -0.00115522486, 0.00119814265, -0.18032898 , -0.164419577, 0.4506539   , -0.009459983, -0.01252249 , 2.42827678  , 2.71        , 3           , 12          , 0.04965642  , 0
-0.142206386, 0.0823299661, -9.798859   , -0.00125812436, -0.00203430024, 0.0008905984, -0.180531219, -0.164621815, 0.450923562 , -0.009472677, -0.012542746, 2.42828584  , 2.72        , 3           , 50          , 0           , 0
-0.137385368, 0.105724581 , -9.795109   , -0.0009589695, -0.005411171, 0.000886708032, -0.180531219, -0.164621815, 0.4506539   , -0.009482384, -0.0125967721, 2.42829537  , 2.73        , 3           , 11          , 0.007486215 , 0.007486206
-0.122681439, 0.08616327  , -9.799145   , -0.00183847523, 0.00105909491, 0.0006102004, -0.180531219, -0.164621815, 0.4506539   , -0.00950084347, -0.0125861233, 2.428301    , 2.74        , 3           , 12          , 0.04965642  , 0
-0.111206084, 0.09240547  , -9.816659   , 0.00212952937, -0.00201138761, -0.00163643551, -0.180261567, -0.164824054, 0.450721323 , -0.009479344, -0.0126063917, 2.428285    , 2.75        , 3           , 50          , 0           , 0
-0.130628482, 0.103831179 , -9.792353   , 0.000714770169, -0.00145780644, -0.00135961478, -0.1803964  , -0.164419577, 0.450990975 , -0.00947202649, -0.0126210973, 2.42827153  , 2.76        , 3           , 11          , 0.007486215 , 0.007486206
-0.115778089, 0.100903496 , -9.778692   , 0.00351829128, 0.00278477021, -0.001057399, -0.1803964  , -0.1645544  , 0.450788736 , -0.009436708, -0.0125933485, 2.428261    , 2.77        , 3           , 12          , 0.04965642  , 0
-0.113128945, 0.09010443  , -9.796795   , -0.00128263817, 0.00275230221, -0.0005147119, -0.1803964  , -0.1645544  , 0.450788736 , -0.009449466, -0.0125658764, 2.42825532  , 2.78        , 3           , 50          , 0           , 0
-0.105984882, 0.08011826  , -9.804014   , -0.0004292923, 0.001631774 , 0.000335115416, -0.180531219, -0.164689228, 0.450788736 , -0.0094538  , -0.012549527, 2.42825866  , 2.79        , 3           , 11          , 0.007486215 , 0.007486206
-0.12399523 , 0.0884470642, -9.802762   , 0.00353736687, -0.00113996677, 0.0011970693, -0.18032898 , -0.164419577, 0.4506539   , -0.009421818, -0.0125290044, 2.428271    , 2.8         , 3           , 12          , 0.0506114326, 0
-0.142138809, 0.0855091959, -9.805172   , 0.0009856045, 0.0008137982, 0.00090571685, -0.180194154, -0.1645544  , 0.450856149 , -0.009412074, -0.0125207817, 2.42828     , 2.81        , 3           , 50          , 0           , 0
-0.116781808, 0.121738926 , -9.798501   , 0.000418541254, 0.00109153939, -0.0005091702, -0.180194154, -0.1645544  , 0.450856149 , -0.009407825, -0.0125099141, 2.42827487  , 2.82        , 3           , 11          , 0.00738946954, 0.007389461
-0.129476249, 0.122320786 , -9.793171   , 0.00183206948, 0.0008195242, -0.00050301943, -0.1803964  , -0.1645544  , 0.450788736 , -0.00938944 , -0.0125017669, 2.42826962  , 2.83        , 3           , 12          , 0.0506114326, 0
-0.118185632, 0.08563779  , -9.792786   , -0.0009954763, 0.00136355218, -0.00136293331, -0.18032898 , -0.164419577, 0.450990975 , -0.009399222, -0.01248826 , 2.42825627  , 2.84        , 3           , 50          , 0           , 0
-0.1367236  , 0.08855508  , -9.790655   , 0.000415426941, 0.0016546679, -0.00107337732, -0.1803964  , -0.164621815, 0.450788736 , -0.009394931, -0.0124718156, 2.42824483  , 2.85        , 3           , 11          , 0.00738946954, 0.007389461
-0.128263146, 0.10477946  , -9.814026   , 0.00155595993, -0.000590214331, -0.001636656, -0.1803964  , -0.164621815, 0.450788736 , -0.009379169, -0.012477871, 2.42822862  , 2.86        , 3           , 12          , 0.0506114326, 0
-0.1054339  , 0.08688776  , -9.806242   , -0.0007080517, 0.000520770962, 4.97689325E-05, -0.18032898 , -0.164689228, 0.450788736 , -0.009386255, -0.0124726584, 2.428229    , 2.87        , 3           , 50          , 0           , 0
-0.102460049, 0.07687232  , -9.79044151 , 0.00352835027, 0.0005494205, 6.95229537E-05, -0.18032898 , -0.164486989, 0.4506539   , -0.00935098 , -0.01246716 , 2.42822957  , 2.88        , 3           , 11          , 0.00738946954, 0.007389461
-0.0829375163, 0.08248905  , -9.784393   , 0.0009828166, 0.0013769283, 0.0009065848, -0.18032898 , -0.1645544  , 0.450721323 , -0.009341264, -0.0124533046, 2.428239    , 2.89        , 3           , 12          , 0.0506114326, 0
-0.08961882 , 0.09337072  , -9.776716   , 0.000416668772, 0.00199144054, 0.00118790788, -0.18032898 , -0.164419577, 0.450721323 , -0.009334702, -0.0123274075, 2.42825055  , 2.9         , 3           , 50          , 0           , 0
-0.123283774, 0.0780130848, -9.788788   , 0.00153359259, 0.00425159326, -0.00162872754, -0.18032898 , -0.164419577, 0.450721323 , -0.00931916 , -0.0122850444, 2.42823434  , 2.91        , 3           , 11          , 0.0072934404, 0.00729342969
-0.1421445  , 0.08282648  , -9.812415   , -0.0006966368, -0.00139498163, 0.000612358039, -0.18032898 , -0.164419577, 0.450721323 , -0.009326203, -0.0122989351, 2.42824     , 2.92        , 3           , 12          , 0.0515799522, 0
-0.127480268, 0.100205913 , -9.798672   , 0.00240415614, -0.0002477133, 6.35049946E-05, -0.18032898 , -0.164621815, 0.450923562 , -0.009302171, -0.01230141 , 2.428241    , 2.93        , 3           , 50          , 0           , 0
-0.0935696661, 0.09753637  , -9.793903   , 0.0009756199, 0.00312151946, 0.000627202564, -0.180194154, -0.1645544  , 0.450788736 , -0.009292488, -0.0122701349, 2.42824674  , 2.94        , 3           , 11          , 0.0072934404, 0.00729342969
-0.109906122, 0.0941275954, -9.796755   , -0.00154333911, -0.00168228033, -0.000804714044, -0.180194154, -0.1645544  , 0.450788736 , -0.009307824, -0.0122870328, 2.428239    , 2.95        , 3           , 12          , 0.0515799522, 0
-0.1219807  , 0.106444634 , -9.794536   , -0.00212164316, 0.00112955261, 4.46037157E-05, -0.1804638  , -0.164486989, 0.450856149 , -0.009329044, -0.0122757331, 2.42823958  , 2.96        , 3           , 50          , 0           , 0
-0.135447532, 0.08311625  , -9.787956   , 0.00155778  , -0.0005350107, -0.000788492, -0.18032898 , -0.164419577, 0.450721323 , -0.009313372, -0.0122811543, 2.42823148  , 2.97        , 3           , 11          , 0.0072934404, 0.00729342969
-0.09975387 , 0.07772458  , -9.784993   , -0.00183192024, -0.0002763613, 0.000608826 , -0.179991916, -0.1645544  , 0.450721323 , -0.009331765, -0.0122838616, 2.42823815  , 2.98        , 3           , 12          , 0.0515799522, 0
-0.09514658 , 0.0817529559, -9.791269   , -0.00043872383, 0.00339353061, -0.000791635364, -0.179991916, -0.1645544  , 0.450721323 , -0.009336052, -0.0122500015, 2.42822957  , 2.99        , 3           , 50          , 0           , 0
-0.119011   , 0.09330137  , -9.787788   , 0.00298719713, -0.000476973364, 0.000631046656, -0.1804638  , -0.164486989, 0.450856149 , -0.0092736  , -0.0121585326, 2.42823577  , 3           , 3           , 11          , 0.007198633 , 0.00719862152
-0.128874943, 0.101531476 , -9.785569   , 0.0007269663, -0.0004922572, -0.0007921761, -0.1803964  , -0.164419577, 0.4506539   , -0.009266232, -0.0121635292, 2.42822766  , 3.01        , 3           , 12          , 0.05256096  , 0
-0.118284561, 0.110479109 , -9.799463   , -0.00152580452, -0.00191536371, -0.00136995618, -0.180531219, -0.164621815, 0.450923562 , -0.009281325, -0.0121828085, 2.42821431  , 3.02        , 3           , 50          , 0           , 0
-0.1089055  , 0.0915158838, -9.828396   , -0.00265485886, -0.00192300032, -0.000245073927, -0.180531219, -0.164621815, 0.450923562 , -0.0093078455, -0.0122020608, 2.428212    , 3.03        , 3           , 11          , 0.007198633 , 0.00719862152
-0.121822715, 0.0807584748, -9.805037   , 0.00156095938, 0.0023291267, 0.0003462638, -0.180261567, -0.1645544  , 0.4506539   , -0.009292275, -0.0121787367, 2.42821527  , 3.04        , 3           , 12          , 0.05256096  , 0
-0.113699667, 0.07930179  , -9.80272    , -0.000964153965, -0.001066844, 0.0003292042, -0.1803964  , -0.164486989, 0.4510584   , -0.009301958, -0.0121893743, 2.4282186   , 3.05        , 3           , 50          , 0           , 0
-0.113584764, 0.08341204  , -9.817618   , -0.00237136451, -0.002202657, -0.000809265941, -0.180261567, -0.165026292, 0.450788736 , -0.009325575, -0.0122114755, 2.4282105   , 3.06        , 3           , 11          , 0.007198633 , 0.00719862152
-0.105859682, 0.0855759159, -9.817099   , 0.0007281973, -0.0007738231, -0.00107514753, -0.180261567, -0.165026292, 0.450788736 , -0.009318162, -0.0122193135, 2.4282      , 3.07        , 3           , 12          , 0.05256096  , 0
-0.112653442, 0.0905638859, -9.800858   , 0.001861182 , -0.00132931059, -0.00022313511, -0.1804638  , -0.164419577, 0.450788736 , -0.009299522, -0.0122326259, 2.428198    , 3.08        , 3           , 50          , 0           , 0
-0.114020042, 0.0945903   , -9.785936   , 0.00185634743, -0.0004846187, -0.00135198329, -0.180531219, -0.164352164, 0.450788736 , -0.009280796, -0.0122375973, 2.42818475  , 3.09        , 3           , 11          , 0.007198633 , 0.00719862152
-0.127642989, 0.08936165  , -9.793745   , 0.00100119773, 0.00292500667, 0.000344813219, -0.180531219, -0.164419577, 0.450856149 , -0.009254678, -0.0121333394, 2.42818761  , 3.1         , 3           , 12          , 0.053553503 , 0
-0.129257232, 0.073548004 , -9.782072   , -0.00123033673, -0.00272157462, 0.000325599045, -0.180531219, -0.164419577, 0.450856149 , -0.009267026, -0.0121605247, 2.42819142  , 3.11        , 3           , 50          , 0           , 0
-0.116240233, 0.0657136962, -9.778842   , -0.00292859017, -0.0018883372, 0.00116661179, -0.180194154, -0.1645544  , 0.450721323 , -0.00929645449, -0.0121792974, 2.42820287  , 3.12        , 3           , 11          , 0.00710599  , 0.007105981
-0.133749068, 0.0718449354, -9.796577   , 0.00157810817, 0.000394738163, -0.000504070544, -0.180194154, -0.164486989, 0.4510584   , -0.009280612, -0.012175397, 2.428198    , 3.13        , 3           , 12          , 0.053553503 , 0
-0.139892548, 0.08680734  , -9.796562   , 0.00242866622, -0.000162659737, 0.000346624642, -0.180261567, -0.164689228, 0.450788736 , -0.0092563685, -0.0121769914, 2.428202    , 3.14        , 3           , 50          , 0           , 0
-0.12024723 , 0.09966519  , -9.797262   , 0.0012995369, -0.000451868778, -0.00107176427, -0.1803964  , -0.164352164, 0.450856149 , -0.00924324151, -0.0121816089, 2.428191    , 3.15        , 3           , 11          , 0.00710599  , 0.007105981
-0.119805768, 0.104560539 , -9.7787075  , -0.00265181367, -0.00104173913, -0.00137360662, -0.1803964  , -0.164352164, 0.450856149 , -0.009269594, -0.0121921524, 2.428177    , 3.16        , 3           , 12          , 0.053553503 , 0
-0.109770514, 0.103610836 , -9.799426   , 0.00100537972, 0.002080311 , 0.0003435114, -0.180531219, -0.164621815, 0.450856149 , -0.009259582, -0.0121713215, 2.42818046  , 3.17        , 3           , 50          , 0           , 0
-0.1418105  , 0.108539075 , -9.811402   , 0.00552346744, 0.00239243871, 0.00149516645, -0.180261567, -0.165026292, 0.450923562 , -0.009204526, -0.012147258, 2.42819524  , 3.18        , 3           , 11          , 0.00710599  , 0.007105981
-0.137426749, 0.105244718 , -9.786523   , 0.00298875966, 0.0009674244, 0.00176368176, -0.180194154, -0.164689228, 0.450721323 , -0.009174852, -0.0121374205, 2.428213    , 3.19        , 3           , 12          , 0.053553503 , 0
-0.122743115, 0.0834352   , -9.792829   , -0.00155569823, -0.000509922858, -0.00164998113, -0.180194154, -0.164689228, 0.450721323 , -0.00925508 , -0.0122251408, 2.42819715  , 3.2         , 3           , 50          , 0           , 0
-0.124881066, 0.0924908444, -9.794617   , -0.00322804367, -0.00474485243, 0.000595908 , -0.1803964  , -0.1645544  , 0.450856149 , -0.009287439, -0.012272534, 2.42820382  , 3.21        , 3           , 11          , 0.00701439241, 0.007014381
-0.122122891, 0.0956170037, -9.794582   , -0.000154968118, 0.0020337184, 0.0003382711, -0.1804638  , -0.164486989, 0.450788736 , -0.009289028, -0.012252165, 2.42820668  , 3.22        , 3           , 12          , 0.0545566827, 0
-0.126163572, 0.09167555  , -9.815872   , 0.00181381882, 0.00373647967, 0.0006326308, -0.180598632, -0.164419577, 0.4506539   , -0.009270962, -0.0122147417, 2.428213    , 3.23        , 3           , 50          , 0           , 0
-0.121117771, 0.0965797454, -9.815813   , 0.000418412674, 0.000348148518, 0.0006208389, -0.180598632, -0.164419577, 0.4506539   , -0.009266853, -0.0122112036, 2.428219    , 3.24        , 3           , 11          , 0.00701439241, 0.007014381
-0.1334108  , 0.0957756042, -9.802352   , 0.00352412881, 0.00036915348, -0.00105989969, -0.1804638  , -0.164486989, 0.4505865   , -0.009231481, -0.0122076105, 2.42820859  , 3.25        , 3           , 12          , 0.0545566827, 0
-0.132064849, 0.0966423   , -9.796461   , 0.000690013752, 0.00260258047, 0.00119070231, -0.180261567, -0.164352164, 0.450856149 , -0.009224725, -0.0121814748, 2.42822     , 3.26        , 3           , 50          , 0           , 0
-0.132870242, 0.106107466 , -9.790553   , 0.00183621142, -0.00105013326, -0.00163504574, -0.180194154, -0.1645544  , 0.450990975 , -0.009206163, -0.0121921273, 2.42820382  , 3.27        , 3           , 11          , 0.00701439241, 0.007014381
-0.0960075557, 0.119219    , -9.792477   , -0.0004264061, -0.000220713089, 5.09451929E-05, -0.180194154, -0.1645544  , 0.450990975 , -0.009210434, -0.01219433 , 2.4282043   , 3.28        , 3           , 12          , 0.0545566827, 0
-0.1084896  , 0.0946051255, -9.809397   , -0.00184829824, 0.00174069253, 4.73980472E-05, -0.1803964  , -0.1645544  , 0.450721323 , -0.009228921, -0.0121769188, 2.42820477  , 3.29        , 3           , 50          , 0           , 0
-0.119855121, 0.09827164  , -9.78687    , -0.00187698 , -0.00164418924, 0.0003252436, -0.1803964  , -0.164689228, 0.450990975 , -0.009347305, -0.0122066559, 2.42820954  , 3.3         , 3           , 11          , 0.006925225 , 0.006925213
-0.1445517  , 0.110782869 , -9.798306   , -0.00272704824, -0.0010867893, 0.000322160631, -0.1803964  , -0.164621815, 0.450856149 , -0.009374616, -0.0122174919, 2.428213    , 3.31        , 3           , 12          , 0.0555696674, 0
-0.121592328, 0.105048075 , -9.783239   , 0.00121930451, 0.0003477726, -0.0007873823, -0.1803964  , -0.164621815, 0.450856149 , -0.009362326, -0.0122140888, 2.42820477  , 3.32        , 3           , 50          , 0           , 0
-0.136158243, 0.09712165  , -9.790615   , -0.0024629808, 0.00229389383, -0.00249668979, -0.180059329, -0.164621815, 0.450721323 , -0.009386648, -0.012191385, 2.42818     , 3.33        , 3           , 11          , 0.006925225 , 0.006925213
-0.127175152, 0.0844586939, -9.813198   , -0.00132425711, 0.0006121464, -0.00136387569, -0.1804638  , -0.164486989, 0.450990975 , -0.009399724, -0.0121853929, 2.42816615  , 3.34        , 3           , 12          , 0.0555696674, 0
-0.103546143, 0.08960668  , -9.81616    , -0.000741207041, -0.00276280753, 0.00117638812, -0.180261567, -0.164621815, 0.450788736 , -0.009407283, -0.01221291 , 2.428178    , 3.35        , 3           , 50          , 0           , 0
-0.101021834, 0.08406268  , -9.786785   , 0.0009481928, -0.00190665724, -0.0005096332, -0.180261567, -0.164621815, 0.450788736 , -0.009397741, -0.0122320233, 2.4281733   , 3.36        , 3           , 11          , 0.006925225 , 0.006925213
-0.116403267, 0.08961037  , -9.772868   , -0.00158348959, -0.003613229, 0.0025838227, -0.180261567, -0.1645544  , 0.450721323 , -0.009413896, -0.0122679118, 2.428199    , 3.37        , 3           , 12          , 0.0555696674, 0
-0.1462266  , 0.08599307  , -9.800682   , 0.00179235893, -0.00133779843, -0.00106988964, -0.1803964  , -0.1645544  , 0.450856149 , -0.009395843, -0.01228139 , 2.42818856  , 3.38        , 3           , 50          , 0           , 0
-0.09831388 , 0.08223829  , -9.790387   , -0.00103453407, -0.0007937676, -0.00079965347, -0.180261567, -0.164352164, 0.450856149 , -0.009406092, -0.0122893993, 2.428181    , 3.39        , 3           , 11          , 0.006925225 , 0.006925213
-0.104856625, 0.06384726  , -9.800006   , 0.00150776189, 7.448421E-05, -0.00163404574, -0.180261567, -0.164352164, 0.450856149 , -0.009379269, -0.0122744609, 2.42816472  , 3.4         , 3           , 12          , 0.0565916747, 0
-0.142271236, 0.07781392  , -9.797522   , 0.004039845 , 0.00206262944, -0.00161915575, -0.180126742, -0.164486989, 0.4506539   , -0.009338669, -0.0122539867, 2.42814851  , 3.41        , 3           , 50          , 0           , 0
-0.112482511, 0.104985595 , -9.796278   , 0.00149914587, 0.00204544514, 0.0003467541, -0.18032898 , -0.164756641, 0.4506539   , -0.009323718, -0.0122335041, 2.42815137  , 3.42        , 3           , 11          , 0.006837504 , 0.00683749374
-0.10341046 , 0.109356031 , -9.785795   , 0.0003748514, 0.0009115442, 5.72131139E-05, -0.18032898 , -0.164621815, 0.450856149 , -0.009319975, -0.0122243818, 2.42815232  , 3.43        , 3           , 12          , 0.0565916747, 0
-0.101489864, 0.0836093   , -9.784531   , 9.53757E-05 , 0.000346504879, 0.000337565783, -0.180194154, -0.164689228, 0.4505865   , -0.009319064, -0.0122208865, 2.42815518  , 3.44        , 3           , 50          , 0           , 0
-0.135672912, 0.06820406  , -9.780787   , 0.00150177081, 0.0014823142, 6.334872E-05, -0.180194154, -0.164689228, 0.4505865   , -0.009304052, -0.0122060571, 2.42815614  , 3.45        , 3           , 11          , 0.006837504 , 0.00683749374
-0.132715583, 0.08354307  , -9.790194   , -0.000174668239, -0.00218949164, 4.98059562E-05, -0.1804638  , -0.164419577, 0.450788736 , -0.009305808, -0.0122279469, 2.42815661  , 3.46        , 3           , 12          , 0.0565916747, 0
-0.128806144, 0.10381899  , -9.795051   , -0.00103621511, 0.0006204277, -0.00051488023, -0.18032898 , -0.164419577, 0.450923562 , -0.009316104, -0.01222179 , 2.42815137  , 3.47        , 3           , 50          , 0           , 0
-0.11397627 , 0.09328674  , -9.800858   , -0.000197135465, 0.002315549 , -0.000225788346, -0.180126742, -0.164419577, 0.450721323 , -0.009318044, -0.0121986568, 2.428149    , 3.48        , 3           , 11          , 0.006837504 , 0.00683749374
-0.113347396, 0.06939533  , -9.80999    , 0.00121418294, 0.00232509477, -0.00163189112, -0.180126742, -0.164419577, 0.450721323 , -0.009305702, -0.0121755591, 2.4281323   , 3.49        , 3           , 12          , 0.0565916747, 0
-0.121949881, 0.07262112  , -9.800098   , -0.00128554052, -0.00191552681, -0.00193298131, -0.1804638  , -0.1645544  , 0.450856149 , -0.009268721, -0.0121947844, 2.42811322  , 3.5         , 3           , 50          , 0           , 0
-0.123952031, 0.0965163857, -9.787361   , -0.000439905853, -0.00134666124, 4.95996064E-05, -0.180531219, -0.164689228, 0.450788736 , -0.009273129, -0.0122082457, 2.4281137   , 3.51        , 3           , 11          , 0.0067515783, 0.00675156759
-0.112103768, 0.09554693  , -9.808517   , -0.000169283681, 0.000907765934, -0.00107576174, -0.1803964  , -0.1645544  , 0.450923562 , -0.009274688, -0.0121992687, 2.42810273  , 3.52        , 3           , 12          , 0.0576219857, 0
-0.116196088, 0.100044288 , -9.789997   , -0.00130300992, 0.00174482213, -0.000797190238, -0.1803964  , -0.1645544  , 0.450923562 , -0.00928762 , -0.0121818949, 2.42809463  , 3.53        , 3           , 50          , 0           , 0
-0.112274423, 0.0891597643, -9.787302   , 0.0004013835, 6.689853E-05, 0.001750945 , -0.180261567, -0.164621815, 0.450721323 , -0.009283821, -0.0121810613, 2.42811227  , 3.54        , 3           , 11          , 0.0067515783, 0.00675156759
-0.0960911959, 0.07682209  , -9.797625   , 0.00237478223, 8.02511349E-05, -0.004455661, -0.180531219, -0.164621815, 0.450923562 , -0.009259529, -0.012180672, 2.42806745  , 3.55        , 3           , 12          , 0.0576219857, 0
-0.127144992, 0.09251742  , -9.794633   , -0.00271219248, 0.00117214292, -0.0005221052, -0.18032898 , -0.164621815, 0.4505865   , -0.009286586, -0.0121689988, 2.42806268  , 3.56        , 3           , 50          , 0           , 0
-0.132491633, 0.101578526 , -9.786953   , -0.00185933628, 5.161256E-05, -0.000519890164, -0.18032898 , -0.164621815, 0.4505865   , -0.009305118, -0.0121685294, 2.428057    , 3.57        , 3           , 11          , 0.0067515783, 0.00675156759
-0.139873981, 0.08414428  , -9.80968    , 0.0023854305, -0.00160912843, -0.000502739742, -0.180531219, -0.164621815, 0.4506539   , -0.009281204, -0.0121846665, 2.42805219  , 3.58        , 3           , 12          , 0.0576219857, 0
-0.126729533, 0.109815389 , -9.840661   , 0.000416717521, -0.00303031737, 0.00174617162, -0.180261567, -0.164217338, 0.450923562 , -0.00927725248, -0.0122148069, 2.42807031  , 3.59        , 3           , 50          , 0           , 0
-0.107370935, 0.105479583 , -9.826519   , -0.0007402459, 0.000608577335, -0.0007962386, -0.1803964  , -0.164352164, 0.450856149 , -0.009302872, -0.0122417808, 2.42806268  , 3.6         , 3           , 11          , 0.00666831154, 0.0066683
-0.137361631, 0.09994126  , -9.819539   , -0.00130960788, 0.001449451 , -0.00136264565, -0.1803964  , -0.164352164, 0.450856149 , -0.009315801, -0.0122274132, 2.42804933  , 3.61        , 3           , 12          , 0.0586598925, 0
-0.128090382, 0.0840151459, -9.812304   , 0.000955872063, 0.000338472833, -0.0005062334, -0.180261567, -0.1645544  , 0.450721323 , -0.00930618 , -0.0122240763, 2.428044    , 3.62        , 3           , 50          , 0           , 0
-0.112325512, 0.0779596   , -9.810852   , -0.0004912752, 0.00736804865, -0.000784507254, -0.18032898 , -0.164217338, 0.450923562 , -0.009310988, -0.012150473, 2.4280355   , 3.63        , 3           , 11          , 0.00666831154, 0.0066683
-0.115013286, 0.08694194  , -9.78914    , -0.0007428708, 0.00117170834, -0.000512833241, -0.1804638  , -0.164419577, 0.4506539   , -0.009318353, -0.0121388044, 2.42803025  , 3.64        , 3           , 12          , 0.0586598925, 0
-0.128113776, 0.0902451   , -9.786514   , 0.0009561984, 0.0003384744, 5.884128E-05, -0.1804638  , -0.164419577, 0.4506539   , -0.009308797, -0.0121354144, 2.42803073  , 3.65        , 3           , 50          , 0           , 0
-0.130339071, 0.09208837  , -9.79014    , -0.0004551943, 4.73564141E-05, -0.00107832707, -0.18032898 , -0.1645544  , 0.4506539   , -0.009313218, -0.0121350419, 2.42801976  , 3.66        , 3           , 11          , 0.00666831154, 0.0066683
-0.111667015, 0.09909942  , -9.793131   , -0.00355935353, -0.000255212944, 0.0008845149, -0.18032898 , -0.164352164, 0.4505865   , -0.009348921, -0.0121375108, 2.42802882  , 3.67        , 3           , 12          , 0.0586598925, 0
-0.105280071, 0.100849271 , -9.798951   , 0.004341954 , 0.00120609323, 0.0014886338, -0.180059329, -0.164419577, 0.450856149 , -0.00930568 , -0.0121253142, 2.4280436   , 3.68        , 3           , 50          , 0           , 0
-0.114533924, 0.08249466  , -9.809946   , 0.003775795 , 0.001202267 , -0.0007742998, -0.180059329, -0.164419577, 0.450856149 , -0.009267827, -0.0121133616, 2.428036    , 3.69        , 3           , 11          , 0.00666831154, 0.0066683
-0.147972465, 0.0936551839, -9.792076   , -0.000454238674, -0.000795342, -0.000231920727, -0.180126742, -0.164621815, 0.4506539   , -0.009281482, -0.0121164322, 2.428034    , 3.7         , 3           , 12          , 0.059704788 , 0
-0.125957   , 0.111482367 , -9.802681   , -0.002441889, 0.00144381123, 0.000609944458, -0.180531219, -0.1645544  , 0.4506539   , -0.009305972, -0.012101938, 2.42803979  , 3.71        , 3           , 50          , 0           , 0
-0.123965383, 0.08847125  , -9.809993   , 0.00322107715, -0.00133363763, 0.00147955632, -0.180126742, -0.164217338, 0.450856149 , -0.009273943, -0.0121151377, 2.428055    , 3.72        , 3           , 11          , 0.006587332 , 0.00658732047
-0.140226841, 0.0958356857, -9.796527   , 0.00237330724, -0.00133936992, 0.000627993 , -0.180194154, -0.1645544  , 0.450451672 , -0.009250285, -0.0121284714, 2.42806125  , 3.73        , 3           , 12          , 0.059704788 , 0
-0.10939464 , 0.100418732 , -9.79085    , -0.000198461043, 0.004556304 , -0.0005048965, -0.180194154, -0.1645544  , 0.450451672 , -0.00925220549, -0.0120829549, 2.428056    , 3.74        , 3           , 50          , 0           , 0
-0.1269456  , 0.102498695 , -9.811314   , -0.0010287615, 0.0008902223, -0.00249225087, -0.18032898 , -0.164419577, 0.450788736 , -0.00926219 , -0.0120742843, 2.42803073  , 3.75        , 3           , 11          , 0.006587332 , 0.00658732047
-0.116166987, 0.09649708  , -9.808544   , 0.000104134408, 0.000616305741, 0.000620495062, -0.1803964  , -0.164352164, 0.450923562 , -0.009261222, -0.012068064, 2.428037    , 3.76        , 3           , 12          , 0.059704788 , 0
-0.117019542, 0.100121453 , -9.809892   , 0.002083584 , 6.654387E-05, 6.377071E-05, -0.1803964  , -0.164486989, 0.4506539   , -0.00924039353, -0.0120673925, 2.428038    , 3.77        , 3           , 50          , 0           , 0
-0.128965437, 0.08494319  , -9.816825   , 0.0006665264, 0.00118325744, 0.00118907169, -0.1803964  , -0.164486989, 0.4506539   , -0.009233871, -0.012055452, 2.42804933  , 3.78        , 3           , 11          , 0.006587332 , 0.00658732047
-0.1365342  , 0.09763555  , -9.807791   , 0.00067423773, -0.000506136334, 5.6318182E-05, -0.180531219, -0.164419577, 0.450788736 , -0.009227136, -0.0120605081, 2.4280498   , 3.79        , 3           , 12          , 0.059704788 , 0
-0.138731509, 0.09950151  , -9.818196   , 0.00261558  , 0.002576944 , -0.00021215294, -0.180126742, -0.164217338, 0.450721323 , -0.009251875, -0.0121042812, 2.42804837  , 3.8         , 3           , 50          , 0           , 0
-0.132123932, 0.122408591 , -9.809916   , 0.00317903957, 0.00286232913, -0.000209085134, -0.180261567, -0.164486989, 0.450721323 , -0.009220055, -0.0120756784, 2.42804646  , 3.81        , 3           , 11          , 0.006508666 , 0.006508657
-0.127794355, 0.108804263 , -9.804966   , 0.00374496053, 0.00258458219, -0.0007719601, -0.180261567, -0.164486989, 0.450721323 , -0.00918251 , -0.012049905, 2.42803836  , 3.82        , 3           , 12          , 0.06075606  , 0
-0.114214167, 0.08416696  , -9.77197    , -0.00019532672, 2.376252E-05, 0.00118345954, -0.180059329, -0.164352164, 0.450519085 , -0.009184605, -0.0120495586, 2.42805028  , 3.83        , 3           , 50          , 0           , 0
-0.109839305, 0.101323336 , -9.789944   , -0.0007543523, -0.00138788833, -0.000799106143, -0.18032898 , -0.164284751, 0.450721323 , -0.009192053, -0.0120635089, 2.42804265  , 3.84        , 3           , 11          , 0.006508666 , 0.006508657
-0.142423719, 0.100826442 , -9.796975   , 0.0003710098, -0.0005355541, -0.00107507419, -0.179991916, -0.164621815, 0.4506539   , -0.009188213, -0.0120689627, 2.42803168  , 3.85        , 3           , 12          , 0.06075606  , 0
-0.135155022, 0.105670795 , -9.786957   , 0.000362230639, 0.00143540616, 0.0006231881, -0.179991916, -0.164621815, 0.4506539   , -0.009184665, -0.0120545514, 2.428038    , 3.86        , 3           , 50          , 0           , 0
-0.113760114, 0.110869542 , -9.797167   , 0.00035902753, 0.002280106 , 0.002319715 , -0.18032898 , -0.164419577, 0.450519085 , -0.009181352, -0.0120315384, 2.42806077  , 3.87        , 3           , 11          , 0.006508666 , 0.006508657
-0.123073235, 0.09559135  , -9.783741   , 0.0005140622, -0.000675376, 0.0009031295, -0.18032898 , -0.1645544  , 0.450856149 , -0.00917632 , -0.0120382067, 2.42806983  , 3.88        , 3           , 12          , 0.06075606  , 0
-0.124407   , 0.09607357  , -9.78827    , 0.000942707469, -0.00179877412, -8.551192E-05, -0.180261567, -0.164486989, 0.450788736 , -0.009166887, -0.0120562036, 2.42806935  , 3.89        , 3           , 50          , 0           , 0
-0.109821096, 0.09821366  , -9.80442    , 0.002169268 , -0.000971823931, -0.000360575068, -0.180261567, -0.164486989, 0.450788736 , -0.009249077, -0.0121343657, 2.428067    , 3.9         , 3           , 11          , 0.006431183 , 0.006431173
-0.13628912 , 0.08139334  , -9.809213   , 0.00244161021, 0.0010010401, -0.0009212956, -0.180531219, -0.1645544  , 0.450721323 , -0.00922455 , -0.0121244406, 2.428058    , 3.91        , 3           , 12          , 0.06181314  , 0
-0.137139827, 0.08501923  , -9.811012   , 0.00173189479, 0.00170017709, -0.00120604062, -0.180059329, -0.164352164, 0.450721323 , -0.009207082, -0.0121075511, 2.42804551  , 3.92        , 3           , 50          , 0           , 0
-0.118196271, 0.08384378  , -9.795957   , 0.000743727258, 0.00169349369, -0.0006455748, -0.180126742, -0.164621815, 0.450788736 , -0.009199563, -0.0120906755, 2.42803884  , 3.93        , 3           , 11          , 0.006431183 , 0.006431173
-0.109081633, 0.08780235  , -9.797227   , -0.000527519558, 0.00168489723, -0.0012165762, -0.180126742, -0.164621815, 0.450788736 , -0.009204689, -0.0120739387, 2.42802644  , 3.94        , 3           , 12          , 0.06181314  , 0
-0.103978649, 0.09186019  , -9.813894   , -0.00151011127, 0.0005519536, -0.0006578462, -0.180261567, -0.164486989, 0.4505865   , -0.009219711, -0.0120684812, 2.42801976  , 3.95        , 3           , 50          , 0           , 0
-0.109985486, 0.09272425  , -9.781846   , -0.00164751336, -0.000152912471, -9.451453E-05, -0.180261567, -0.164419577, 0.450923562 , -0.009236174, -0.0120700179, 2.42801881  , 3.96        , 3           , 11          , 0.006431183 , 0.006431173
-0.104933493, 0.08826009  , -9.813464   , 0.0007466787, 0.00113036425, -0.0003639054, -0.180194154, -0.164621815, 0.4505865   , -0.009228664, -0.0120587479, 2.428015    , 3.97        , 3           , 12          , 0.06181314  , 0
-0.125777066, 0.09027747  , -9.804123   , 4.65140147E-05, -6.69297151E-07, 0.000196141409, -0.180194154, -0.164621815, 0.4505865   , -0.009228221, -0.0120587358, 2.42801738  , 3.98        , 3           , 50          , 0           , 0
-0.113260373, 0.118936568 , -9.782666   , -9.75689545E-05, 0.000561505556, 5.508219E-05, -0.180194154, -0.164824054, 0.450451672 , -0.009229205, -0.0120531162, 2.42801785  , 3.99        , 3           , 11          , 0.006431183 , 0.006431173
-0.1134695  , 0.09823501  , -9.7981205  , 0.002979927 , 0.00255755079, 0.0004966373, -0.180194154, -0.164419577, 0.4506539   , -0.009251969, -0.0120166261, 2.42802262  , 4           , 3           , 12          , 0.06287551  , 0
-0.119150594, 0.08604666  , -9.776972   , 0.00242405245, 0.0007235573, 0.000349914131, -0.180531219, -0.164352164, 0.450856149 , -0.009227769, -0.012009358, 2.42802644  , 4.01        , 3           , 50          , 0           , 0
-0.132206172, 0.08447634  , -9.801033   , 0.000311961165, -0.000557811232, 5.55469342E-05, -0.180194154, -0.164486989, 0.450519085 , -0.009224655, -0.0120149292, 2.42802739  , 4.02        , 3           , 11          , 0.00635598833, 0.006355978
-0.134825975, 0.08949661  , -9.808715   , -0.000388982153, -0.00154806266, 0.000474541885, -0.180194154, -0.164486989, 0.450519085 , -0.009228604, -0.0120303659, 2.42803216  , 4.03        , 3           , 12          , 0.06287551  , 0
-0.13679722 , 0.08224653  , -9.792941   , 0.000454487075, -0.000838421634, -8.54973259E-05, -0.180194154, -0.164217338, 0.4506539   , -0.009224051, -0.0120387562, 2.42803121  , 4.04        , 3           , 50          , 0           , 0
-0.100116804, 0.085837014 , -9.780895   , 0.00129811943, -0.000128779866, -0.000362999039, -0.180194154, -0.164621815, 0.450788736 , -0.009211025, -0.0120400768, 2.42802739  , 4.05        , 3           , 11          , 0.00635598833, 0.006355978
-0.106897973, 0.09529869  , -9.753336   , 0.000174232744, -0.00126267876, 5.38036038E-05, -0.180531219, -0.164419577, 0.450721323 , -0.009209292, -0.0120527009, 2.42802835  , 4.06        , 3           , 12          , 0.06287551  , 0
-0.124374673, 0.10458044  , -9.768799   , -0.00193699822, -0.00268482883, 4.17569281E-05, -0.180531219, -0.164419577, 0.450721323 , -0.009228671, -0.0120795425, 2.42802882  , 4.07        , 3           , 50          , 0           , 0
-0.1283558  , 0.105597094 , -9.7887125  , -0.00095137395, -0.00211501424, -9.403468E-05, -0.18032898 , -0.1645544  , 0.450721323 , -0.009238175, -0.0121007012, 2.42802835  , 4.08        , 3           , 11          , 0.00635598833, 0.006355978
-0.139743865, 0.09630118  , -9.802397   , 0.0014451535, -0.00125408394, 5.97296748E-05, -0.180194154, -0.164689228, 0.4506539   , -0.009223732, -0.0121132359, 2.42802882  , 4.09        , 3           , 12          , 0.06287551  , 0
-0.120776147, 0.0924672   , -9.801816   , -0.0006821186, -0.00283450168, 0.00061260123, -0.18032898 , -0.164352164, 0.450721323 , -0.009277331, -0.0121893827, 2.428036    , 4.1         , 3           , 50          , 0           , 0
-0.12340226 , 0.104177617 , -9.78642    , -0.00195725844, -0.00213918742, -0.0006636587, -0.18032898 , -0.164352164, 0.450721323 , -0.009296825, -0.0122108366, 2.4280293   , 4.11        , 3           , 11          , 0.00628263364, 0.006282624
-0.11391174 , 0.09735618  , -9.803553   , 0.0018481256, -0.000705579645, -0.00135005417, -0.180261567, -0.1645544  , 0.450788736 , -0.00927818 , -0.0122180162, 2.428016    , 4.12        , 3           , 12          , 0.06394268  , 0
-0.09950139 , 0.09399778  , -9.794416   , 0.00269536139, -0.000559064, -0.000215736334, -0.1803964  , -0.164689228, 0.450788736 , -0.009251201, -0.0122236274, 2.428014    , 4.13        , 3           , 50          , 0           , 0
-0.09655768 , 0.111111142 , -9.794774   , -0.00013423778, 0.0005480977, 0.000196636189, -0.180126742, -0.164486989, 0.450721323 , -0.009252566, -0.0122181289, 2.428016    , 4.14        , 3           , 11          , 0.00628263364, 0.006282624
-0.09896337 , 0.103434891 , -9.784882   , -0.00155100622, 0.00152402685, 0.0006153764, -0.180126742, -0.164486989, 0.450721323 , -0.00926815 , -0.0122028319, 2.42802167  , 4.15        , 3           , 12          , 0.06394268  , 0
-0.146992266, 0.09370501  , -9.810147   , -0.0008480534, 0.00209193025, 5.44617251E-05, -0.1804638  , -0.164621815, 0.450788736 , -0.009276633, -0.0121819079, 2.42802262  , 4.16        , 3           , 50          , 0           , 0
-0.1356632  , 0.0962578654, -9.803722   , 0.000420613127, 0.002522872 , -0.000221498689, -0.180261567, -0.164419577, 0.450788736 , -0.009272398, -0.0121566989, 2.42801976  , 4.17        , 3           , 11          , 0.00628263364, 0.006282624
-0.122264728, 0.077648066 , -9.817708   , 7.50947038E-06, 0.000408269465, -8.54598256E-05, -0.1804638  , -0.164352164, 0.4506539   , -0.009272314, -0.0121526225, 2.42801881  , 4.18        , 3           , 12          , 0.06394268  , 0
-0.114407495, 0.0870606   , -9.826198   , -0.000410020875, -0.0008616391, -0.000371925271, -0.1804638  , -0.164352164, 0.4506539   , -0.009276368, -0.0121612735, 2.42801547  , 4.19        , 3           , 50          , 0           , 0
-0.119617805, 0.1167643   , -9.785436   , 0.000427806546, -0.0007171577, -0.000508863362, -0.180261567, -0.164419577, 0.4505865   , -0.009296383, -0.012174191, 2.42801118  , 4.2         , 3           , 11          , 0.006211575 , 0.00621156255
-0.133465141, 0.09796333  , -9.782003   , 5.31558726E-06, -0.00100158888, -0.000935078831, -0.180261567, -0.164352164, 0.4506539   , -0.009296216, -0.0121842939, 2.42800164  , 4.21        , 3           , 12          , 0.06501419  , 0
-0.133581534, 0.0867102444, -9.789735   , -0.00112410251, -0.0011500133, -0.00164690719, -0.18032898 , -0.164419577, 0.450721323 , -0.009307258, -0.0121959448, 2.42798543  , 4.22        , 3           , 50          , 0           , 0
-0.108646624, 0.0864435956, -9.797228   , 0.00169413723, 0.000136130533, -0.001207979, -0.18032898 , -0.164419577, 0.450721323 , -0.009290169, -0.0121946968, 2.42797351  , 4.23        , 3           , 11          , 0.006211575 , 0.00621156255
-0.120462291, 0.08610041  , -9.788281   , 0.00309667643, 0.00211663661, -0.0009158194, -0.180261567, -0.164689228, 0.4506539   , -0.009259089, -0.0121736163, 2.42796445  , 4.24        , 3           , 12          , 0.06501419  , 0
-0.125559747, 0.071781    , -9.806006   , -0.000995109, 0.00138502882, -0.00107726851, -0.180531219, -0.164419577, 0.450721323 , -0.009268906, -0.0121598672, 2.427953    , 4.25        , 3           , 50          , 0           , 0
-0.129892081, 0.08672215  , -9.805977   , -0.001413173, 0.000255903666, -0.00108097971, -0.180059329, -0.164352164, 0.450788736 , -0.00928290747, -0.0121574085, 2.42794251  , 4.26        , 3           , 11          , 0.006211575 , 0.00621156255
-0.118327722, 0.07748835  , -9.784232   , 0.0005704955, -0.0009977673, -0.0003673702, -0.180059329, -0.164352164, 0.450788736 , -0.00927715749, -0.01216742 , 2.4279387   , 4.27        , 3           , 12          , 0.06501419  , 0
-0.114684336, 0.110865064 , -9.792654   , 6.338837E-06, -0.00114236993, -0.000370221038, -0.18032898 , -0.164824054, 0.450788736 , -0.009277049, -0.0121788783, 2.427935    , 4.28        , 3           , 50          , 0           , 0
-0.115288422, 0.09780361  , -9.797685   , 0.0009879888, 0.000131355046, -0.00135254022, -0.180126742, -0.164621815, 0.450721323 , -0.009267005, -0.01217769 , 2.42792153  , 4.29        , 3           , 11          , 0.006211575 , 0.00621156255
-0.115878589, 0.09100236  , -9.785965   , 0.00225273869, 0.000700051 , -7.427566E-05, -0.180126742, -0.164419577, 0.450788736 , -0.009256313, -0.01217942 , 2.427921    , 4.3         , 3           , 12          , 0.0660896152, 0
-0.130569071, 0.07851149  , -9.777542   , 0.0022574102, -0.0001446419, 0.000772034866, -0.180126742, -0.164419577, 0.450788736 , -0.009233833, -0.012180795, 2.42792916  , 4.31        , 3           , 50          , 0           , 0
-0.1095391  , 0.0788768753, -9.824838   , 0.00254369271, -0.0009874288, 0.000206974961, -0.180261567, -0.164486989, 0.4506539   , -0.009208425, -0.012190653, 2.427931    , 4.32        , 3           , 11          , 0.00614228565, 0.006142274
-0.1205329  , 0.111411028 , -9.800381   , 0.003383469 , 0.0005669098, 0.0004958499, -0.1803964  , -0.1645544  , 0.450721323 , -0.009174647, -0.0121849366, 2.42793584  , 4.33        , 3           , 12          , 0.0660896152, 0
-0.117309034, 0.08426465  , -9.790072   , 0.00309321238, 0.00211360678, 0.000214382235, -0.1803964  , -0.164419577, 0.4505865   , -0.009143738, -0.0121637825, 2.42793775  , 4.34        , 3           , 50          , 0           , 0
-0.13454631 , 0.109808974 , -9.811793   , 0.000416964322, 0.0006876361, -8.28358243E-05, -0.1803964  , -0.164419577, 0.4505865   , -0.009139558, -0.0121569149, 2.42793679  , 4.35        , 3           , 11          , 0.00614228565, 0.006142274
-0.12236993 , 0.109179527 , -9.801308   , 0.00127465522, -0.00127758633, 0.00104822719, -0.179991916, -0.1645544  , 0.450721323 , -0.00912694 , -0.0121695939, 2.42794728  , 4.36        , 3           , 12          , 0.0660896152, 0
-0.121698707, 0.08710785  , -9.814953   , 0.00226245215, -0.00113011885, 0.00105305342, -0.180261567, -0.1645544  , 0.450721323 , -0.009104444, -0.0121807987, 2.42795825  , 4.37        , 3           , 50          , 0           , 0
-0.11615929 , 0.0942715555, -9.817593   , 0.0008362592, 0.00153519586, -0.000362096122, -0.180261567, -0.164419577, 0.450923562 , -0.009096036, -0.01216548 , 2.427955    , 4.38        , 3           , 11          , 0.00614228565, 0.006142274
-0.120256551, 0.09965763  , -9.795004   , -2.03269337E-05, 0.00335963746, -0.0007870324, -0.18032898 , -0.164486989, 0.450519085 , -0.00909614 , -0.0121319573, 2.42794633  , 4.39        , 3           , 12          , 0.0660896152, 0
-0.123177692, 0.08791876  , -9.782869   , -0.000169191786, 0.00110063655, -0.0010735112, -0.18032898 , -0.164486989, 0.450519085 , -0.009152655, -0.0121373432, 2.42793632  , 4.4         , 3           , 50          , 0           , 0
-0.106157467, 0.106238939 , -9.78854    , 0.000543393 , -0.000161630349, -0.0006483654, -0.18032898 , -0.164689228, 0.450788736 , -0.009147142, -0.0121390186, 2.42793     , 4.41        , 3           , 11          , 0.00607498549, 0.006074973
-0.11453481 , 0.0838329941, -9.80542    , -0.0004465393, 0.000254035578, 0.0004778262, -0.18032898 , -0.164352164, 0.450856149 , -0.00915166549, -0.0121364333, 2.427935    , 4.42        , 3           , 12          , 0.06716855  , 0
-0.131055832, 0.0677768663, -9.803804   , 0.00111024862, -0.000298586616, 0.00161435129, -0.179991916, -0.164689228, 0.4506539   , -0.00914076 , -0.0121392719, 2.427951    , 4.43        , 3           , 50          , 0           , 0
-0.129098982, 0.0808178261, -9.797408   , 0.00279800268, 0.00112069945, 0.00190695992, -0.179991916, -0.164689228, 0.4506539   , -0.009113008, -0.01212789 , 2.42797017  , 4.44        , 3           , 11          , 0.00607498549, 0.006074973
-0.131759226, 0.0866980553, -9.792433   , 0.002088866 , 0.00153826748, 0.000209093909, -0.180261567, -0.1645544  , 0.450721323 , -0.009092145, -0.0121124908, 2.4279716   , 4.45        , 3           , 12          , 0.06716855  , 0
-0.1138769  , 0.07157022  , -9.784223   , 0.000681937148, 0.0005432413, 0.0007660654, -0.1803964  , -0.164284751, 0.450788736 , -0.009085415, -0.01210699 , 2.42797923  , 4.46        , 3           , 50          , 0           , 0
-0.129736215, 0.06326604  , -9.808785   , -0.00142892357, -0.001019693, 0.0001887267, -0.180261567, -0.1645544  , 0.450721323 , -0.009099728, -0.01211717 , 2.42798114  , 4.47        , 3           , 11          , 0.00607498549, 0.006074973
-0.129152223, 0.07943565  , -9.788827   , -0.00199201237, -0.001445862, -0.000379633042, -0.180261567, -0.1645544  , 0.450721323 , -0.009119605, -0.012131663, 2.4279778   , 4.48        , 3           , 12          , 0.06716855  , 0
-0.125445411, 0.07767621  , -9.815021   , -0.00185248209, -0.0010225575, 0.000328020134, -0.1803964  , -0.164352164, 0.4506539   , -0.009138171, -0.0121418564, 2.42798066  , 4.49        , 3           , 50          , 0           , 0
-0.13051109 , 0.07364861  , -9.807392   , -0.000834917068, -0.00215703319, -0.00122327171, -0.180194154, -0.164419577, 0.450788736 , -0.00907273 , -0.0122084925, 2.42796922  , 4.5         , 3           , 11          , 0.006010006 , 0.006009991
-0.120705277, 0.100112572 , -9.794552   , 0.00170487026, -0.00157670991, 6.08671144E-05, -0.180194154, -0.164149925, 0.450856149 , -0.009055691, -0.0122242523, 2.42797017  , 4.51        , 3           , 12          , 0.068250604 , 0
-0.1075023  , 0.101802334 , -9.806196   , 0.00184936111, -0.00213888241, 0.000908270071, -0.180194154, -0.164149925, 0.450856149 , -0.00903731 , -0.0122455591, 2.42797923  , 4.52        , 3           , 50          , 0           , 0
-0.0895675644, 0.09207321  , -9.793445   , -0.000550896, -0.0022959013, 0.000331784278, -0.18032898 , -0.164352164, 0.450451672 , -0.009042864, -0.0122684846, 2.42798257  , 4.53        , 3           , 11          , 0.006010006 , 0.006009991
-0.125291437, 0.0618065149, -9.792938   , -0.00126331777, -0.00103363406, 0.000189175873, -0.1804638  , -0.164486989, 0.450721323 , -0.00905552 , -0.0122788036, 2.427985    , 4.54        , 3           , 12          , 0.068250604 , 0
-0.13860935 , 0.08092794  , -9.797029   , 2.93161975E-06, -0.000180346207, -0.0006512084, -0.180126742, -0.164689228, 0.4505865   , -0.00905541 , -0.0122806663, 2.42797828  , 4.55        , 3           , 50          , 0           , 0
-0.111285135, 0.09903665  , -9.775953   , 0.000559176551, 0.001512863 , -0.00106977718, -0.180126742, -0.164689228, 0.4505865   , -0.009049686, -0.0122656338, 2.42796731  , 4.56        , 3           , 11          , 0.006010006 , 0.006009991
-0.114442222, 0.09819122  , -9.781857   , -0.000425506063, 0.000802267 , -0.0005103965, -0.180194154, -0.164756641, 0.450519085 , -0.009053877, -0.0122576579, 2.42796254  , 4.57        , 3           , 12          , 0.068250604 , 0
-0.122806221, 0.08383041  , -9.776105   , 0.000283059955, 0.0003846962, 0.000198588561, -0.1803964  , -0.164419577, 0.4506539   , -0.00905107148, -0.0122537958, 2.42796445  , 4.58        , 3           , 50          , 0           , 0
-0.131691724, 0.094787024 , -9.78290749 , 0.00126675633, 0.00137685938, 0.000345985376, -0.1804638  , -0.164486989, 0.450788736 , -0.009038444, -0.0122399935, 2.42796779  , 4.59        , 3           , 11          , 0.006010006 , 0.006009991
-0.122521132, 0.09879097  , -9.797735   , 5.201264E-06, -0.000325531844, -8.630528E-05, -0.1804638  , -0.164486989, 0.450788736 , -0.009034532, -0.0122568645, 2.42796731  , 4.6         , 3           , 12          , 0.06933543  , 0
-0.101391092, 0.0885991752, -9.7926445  , -0.000421390141, 0.000234732579, -0.000369950343, -0.180059329, -0.1645544  , 0.450384259 , -0.009038702, -0.0122545483, 2.4279635   , 4.61        , 3           , 50          , 0           , 0
-0.105601653, 0.07425401  , -9.805843   , -0.000711157569, 0.00178143207, 0.000196194262, -0.180126742, -0.164419577, 0.450721323 , -0.009045834, -0.0122367181, 2.4279654   , 4.62        , 3           , 11          , 0.00594639033, 0.005946375
-0.104784541, 0.07060091  , -9.795909   , -0.00197797781, 0.0009281415, 4.769764E-05, -0.18032898 , -0.164419577, 0.450721323 , -0.009065617, -0.0122274337, 2.42796588  , 4.63        , 3           , 12          , 0.06933543  , 0
-0.1154088  , 0.08877908  , -9.797271   , 0.000421011559, 0.00122594018, -0.0003644806, -0.180126742, -0.164689228, 0.4505865   , -0.00906136353, -0.0122152064, 2.42796254  , 4.64        , 3           , 50          , 0           , 0
-0.111984171, 0.108588    , -9.795806   , 0.003102057 , 0.00166643283, -0.000210050188, -0.180126742, -0.164689228, 0.4505865   , -0.009030314, -0.0121985627, 2.42795968  , 4.65        , 3           , 11          , 0.00594639033, 0.005946375
-0.1096255  , 0.0805922747, -9.798163   , 0.00198034267, 0.000110186651, 0.0003473703, -0.1803964  , -0.164419577, 0.4506539   , -0.009010552, -0.0121974284, 2.4279635   , 4.66        , 3           , 12          , 0.06933543  , 0
-0.140694514, 0.0882409662, -9.817353   , 0.000713893154, -0.0008838879, -0.000366418244, -0.179991916, -0.164149925, 0.450721323 , -0.00900337 , -0.0122063039, 2.42795968  , 4.67        , 3           , 50          , 0           , 0
-0.1390843  , 0.0786835551, -9.79885    , 0.0009959937, -0.0008819796, -0.0009301762, -0.180059329, -0.164352164, 0.4506539   , -0.0089933  , -0.0122152045, 2.42795062  , 4.68        , 3           , 11          , 0.00594639033, 0.005946375
-0.103694782, 0.09037896  , -9.77728748 , 0.00128067483, -0.00130241632, -0.0006469727, -0.180059329, -0.164352164, 0.4506539   , -0.008980415, -0.0122282859, 2.42794442  , 4.69        , 3           , 12          , 0.06933543  , 0
-0.114119478, 0.0887071937, -9.780538   , 0.00254957168, -0.0003047433, -0.0004982134, -0.180126742, -0.164419577, 0.450721323 , -0.008946095, -0.0122199981, 2.42793965  , 4.7         , 3           , 50          , 0           , 0
-0.149317652, 0.09635989  , -9.786652   , -0.000408243068, -0.001873406, -0.0005144278, -0.180194154, -0.164486989, 0.4506539   , -0.008950116, -0.0122387782, 2.42793441  , 4.71        , 3           , 11          , 0.0058845114, 0.005884494
-0.120605819, 0.0810742453, -9.769319   , -0.00294582057, -0.00273529068, -0.0003863134, -0.180059329, -0.164621815, 0.450519085 , -0.00897953 , -0.0122661646, 2.427931    , 4.72        , 3           , 12          , 0.07042269  , 0
-0.12686491 , 0.0807670653, -9.79016    , -0.00210604374, -0.001180952, -9.743847E-05, -0.180059329, -0.164621815, 0.450519085 , -0.009000579, -0.0122779822, 2.42793     , 4.73        , 3           , 50          , 0           , 0
-0.123400383, 0.104179129 , -9.786873   , -0.0008377481, -0.000609226059, 0.000191893108, -0.18032898 , -0.164419577, 0.450721323 , -0.009008981, -0.0122840572, 2.427932    , 4.74        , 3           , 11          , 0.0058845114, 0.005884494
-0.115877151, 0.08787907  , -9.796375   , 5.061156E-06, 0.0003819835, 0.000903706357, -0.180261567, -0.164352164, 0.450788736 , -0.009009041, -0.0122801559, 2.427941    , 4.75        , 3           , 12          , 0.07042269  , 0
-0.121412508, 0.08116501  , -9.793281   , -0.000841566769, 0.000376256765, 0.00202990533, -0.180261567, -0.164621815, 0.450519085 , -0.009017707, -0.0122762108, 2.427961    , 4.76        , 3           , 50          , 0           , 0
-0.1157399  , 0.09959539  , -9.792256   , 0.0007156364, -0.000457935181, 0.00147077162, -0.180261567, -0.164621815, 0.450519085 , -0.009010731, -0.0122806551, 2.427976    , 4.77        , 3           , 11          , 0.0058845114, 0.005884494
-0.118521579, 0.100020982 , -9.775101   , 0.00170068967, 0.00011187663, 0.000346099 , -0.18032898 , -0.164486989, 0.450519085 , -0.008993766, -0.0122795058, 2.42797971  , 4.78        , 3           , 12          , 0.07042269  , 0
-0.119615316, 0.0824715   , -9.785578   , 0.00183587475, 0.00137987558, 0.00077251636, -0.180261567, -0.164419577, 0.450788736 , -0.0089755  , -0.0122656384, 2.42798734  , 4.79        , 3           , 50          , 0           , 0
-0.131115943, 0.0997912362, -9.796893   , -0.00014096222, 0.000239389221, 0.000196591471, -0.179991916, -0.164486989, 0.4505865   , -0.008993418, -0.0122659886, 2.42798924  , 4.8         , 3           , 11          , 0.005824262 , 0.005824244
-0.141980588, 0.10036695  , -9.79607    , -0.0008452646, -0.000187734855, -0.000372426584, -0.179991916, -0.164486989, 0.4505865   , -0.009001823, -0.0122679006, 2.42798543  , 4.81        , 3           , 12          , 0.07151206  , 0
-0.124300189, 0.074363105 , -9.773443   , -0.000704132835, -0.000186780249, -0.000513036852, -0.180261567, -0.164621815, 0.450451672 , -0.00900880247, -0.0122698145, 2.42798066  , 4.82        , 3           , 50          , 0           , 0
-0.1064727  , 0.08321964  , -9.785474   , -0.0009808205, -0.00131494971, -0.000233552157, -0.18032898 , -0.164689228, 0.4505865   , -0.009018582, -0.0122829843, 2.42797828  , 4.83        , 3           , 11          , 0.005824262 , 0.005824244
-0.11052832 , 0.122041576 , -9.776304   , 6.81327947E-06, -0.00116748293, -0.0005112634, -0.179991916, -0.164621815, 0.4505865   , -0.009018453, -0.0122947041, 2.427973    , 4.84        , 3           , 12          , 0.07151206  , 0
-0.1323989  , 0.103439078 , -9.803668   , -0.000284467038, 0.00051999517, -0.001357589, -0.179991916, -0.164621815, 0.4505865   , -0.00902113 , -0.0122896247, 2.42795968  , 4.85        , 3           , 50          , 0           , 0
-0.120272562, 0.09562749  , -9.804059   , -0.00127136649, 0.000372532028, 0.000191540719, -0.180194154, -0.164486989, 0.450519085 , -0.009033867, -0.0122858845, 2.42796159  , 4.86        , 3           , 11          , 0.005824262 , 0.005824244
-0.111257471, 0.09861272  , -9.78409    , 0.0002854662, -0.0003208759, 0.000197699046, -0.18032898 , -0.164419577, 0.450721323 , -0.009031037, -0.0122890742, 2.4279635   , 4.87        , 3           , 12          , 0.07151206  , 0
-0.13154842 , 0.102044746 , -9.794627   , 0.003531862 , -0.000158132636, -0.0011996266, -0.180194154, -0.164621815, 0.4505865   , -0.008995569, -0.0122907646, 2.42795157  , 4.88        , 3           , 50          , 0           , 0
-0.141246185, 0.08816616  , -9.793403   , 0.0025421367, 0.000116748313, -0.000921264465, -0.180194154, -0.164621815, 0.4505865   , -0.008970036, -0.0122896787, 2.42794251  , 4.89        , 3           , 11          , 0.005824262 , 0.005824244
-0.110110492, 0.109956466 , -9.806634   , 0.00237290817, 0.00193458912, -0.00120149762, -0.180261567, -0.164689228, 0.4505865   , -0.009008227, -0.0123080211, 2.427931    , 4.9         , 3           , 12          , 0.0726032555, 0
-0.1004695  , 0.0850307345, -9.80802    , 0.00194988353, 0.00179094123, -0.00134495867, -0.18032898 , -0.1645544  , 0.450721323 , -0.00898856 , -0.0122902337, 2.42791772  , 4.91        , 3           , 50          , 0           , 0
-0.11161752 , 0.100478582 , -9.800809   , -0.001147543, -0.0002010263, -0.002210095, -0.180126742, -0.164756641, 0.450856149 , -0.008999763, -0.0122924428, 2.42789578  , 4.92        , 3           , 11          , 0.005765772 , 0.00576575333
-0.112909824, 0.104118854 , -9.805324   , -1.50918822E-05, -0.000615731, -0.00107532833, -0.180126742, -0.164621815, 0.450451672 , -0.008999784, -0.0122986957, 2.42788482  , 4.93        , 3           , 12          , 0.0726032555, 0
-0.127474338, 0.100657068 , -9.79867    , 0.002240015 , 0.000385029416, -7.439285E-05, -0.180126742, -0.164621815, 0.450451672 , -0.008977374, -0.0122948512, 2.42788434  , 4.94        , 3           , 50          , 0           , 0
-0.12873745 , 0.1034283   , -9.813131   , 0.00167499785, 0.000381208665, -0.000359564146, -0.180059329, -0.164824054, 0.450721323 , -0.00896057952, -0.0122910747, 2.42788053  , 4.95        , 3           , 11          , 0.005765772 , 0.00576575333
-0.112154141, 0.09550612  , -9.796314   , 0.000834931969, -0.00103234558, 5.812158E-05, -0.180126742, -0.164689228, 0.450788736 , -0.00895223953, -0.012301391, 2.427881    , 4.96        , 3           , 12          , 0.0726032555, 0
-0.130727574, 0.09839468  , -9.785596   , -0.0002939967, -0.00118076766, 0.000193905566, -0.180126742, -0.164419577, 0.450519085 , -0.008955205, -0.0123131815, 2.42788339  , 4.97        , 3           , 50          , 0           , 0
-0.13413845 , 0.07948958  , -9.787509   , 0.000553654565, -0.00131582166, -0.000367435539, -0.180126742, -0.164419577, 0.450519085 , -0.008949623, -0.0123263719, 2.42787957  , 4.98        , 3           , 11          , 0.005765772 , 0.00576575333
-0.11636287 , 0.0887504   , -9.785527   , 0.00167631032, 9.964324E-05, -0.000501266855, -0.180194154, -0.164621815, 0.450519085 , -0.008932799, -0.01232542 , 2.4278748   , 4.99        , 3           , 12          , 0.0726032555, 0
-0.122147694, 0.09738231  , -9.782824   , 0.000107412612, 8.62971356E-05, 0.000339261984, -0.180261567, -0.164621815, 0.450721323 , -0.008985895, -0.0123341326, 2.42787862  , 5           , 3           , 50          , 0           , 0
-0.120947346, 0.08786498  , -9.774717   , -0.00059077976, -0.0016078708, -0.0005142464, -0.180194154, -0.1645544  , 0.4506539   , -0.008991742, -0.0123502566, 2.42787385  , 5.01        , 3           , 11          , 0.005708848 , 0.0057088295
-0.1045387  , 0.100705586 , -9.759171   , 0.000108606378, -0.000336054916, -0.001215345, -0.180194154, -0.1645544  , 0.4506539   , -0.008990505, -0.0123537248, 2.42786145  , 5.02        , 3           , 12          , 0.0736959949, 0
-0.101153865, 0.104413658 , -9.7998085  , 0.000242441922, 0.00107272353, -0.00191886036, -0.18032898 , -0.164621815, 0.450519085 , -0.008987842, -0.0123431711, 2.42784238  , 5.03        , 3           , 50          , 0           , 0
-0.121692143, 0.0884522349, -9.812236   , -0.000888659444, 0.00134664879, -0.00192369416, -0.18032898 , -0.164284751, 0.450856149 , -0.008996489, -0.0123298774, 2.42782283  , 5.04        , 3           , 11          , 0.005708848 , 0.0057088295
-0.119395733, 0.09202278  , -9.808588   , -0.00102446717, 0.0005010045, 0.0001933764, -0.180598632, -0.164352164, 0.4505865   , -0.009006756, -0.0123248519, 2.42782426  , 5.05        , 3           , 12          , 0.0736959949, 0
-0.140212327, 0.0927229747, -9.8101     , 0.000390699744, -5.25746145E-05, 0.000622899446, -0.180598632, -0.164352164, 0.4505865   , -0.009002927, -0.01232532 , 2.427831    , 5.06        , 3           , 50          , 0           , 0
-0.128114209, 0.08712028  , -9.796472   , 0.0011000071, -0.0007517135, 0.000201300791, -0.179991916, -0.164689228, 0.450519085 , -0.008991952, -0.0123328222, 2.42783284  , 5.07        , 3           , 11          , 0.005708848 , 0.0057088295
-0.112851918, 0.0716563538, -9.813142   , 0.001946509 , -0.0006052015, 6.419982E-05, -0.18032898 , -0.164621815, 0.4506539   , -0.008972495, -0.0123388655, 2.4278338   , 5.08        , 3           , 12          , 0.0736959949, 0
-0.122324429, 0.07759969  , -9.8032465  , 0.00110263191, -0.00131484447, -8.2104576E-05, -0.180531219, -0.1645544  , 0.450519085 , -0.008961461, -0.0123520205, 2.42783284  , 5.09        , 3           , 50          , 0           , 0
