Acc X       , Acc Y       , Acc Z       , Gyro X      , Gyro Y      , Gyro Z      , Magn X      , Magn Y      , Magn Z      , Euler X     , Euler Y     , Euler Z     , Time        , Status      , LowRate X   , LowRate Y   , LowRate Z    
-0.107736677, 0.08732921  , -9.79541    , -0.00392560661, -0.00150340551, -0.000237461791, -0.226776332, -0.135904   , 0.4516651   , -0.009332999, -0.009150467, 2.623244    , 0           , 3           , 11          , 0.0346410163, 0.0346410163
-0.08614092 , 0.08205244  , -9.777639   , -0.00223924662, 0.000197445392, 5.55808656E-05, -0.226776332, -0.136106238, 0.451530278 , -0.009355396, -0.009148487, 2.62324452  , 0.01        , 3           , 12          , 0.0346410163, 0
-0.0834324956, 0.0936189443, -9.738249   , 0.00128907943, 0.000643668056, 0.000213962179, -0.2266415  , -0.135836586, 0.451799929 , -0.009342524, -0.00914203 , 2.62324643  , 0.02        , 3           , 50          , 0           , 0
-0.07799331 , 0.081062004 , -9.779841   , -0.00153416558, 0.000483787473, 0.000765650766, -0.2266415  , -0.135836586, 0.451799929 , -0.009357936, -0.00913712 , 2.623254    , 0.03        , 3           , 11          , 0.0346410163, 0.0346410163
-0.0816789046, 0.09347689  , -9.835412   , -0.00336321467, -0.000936454, 0.000331114861, -0.2266415  , -0.135701761, 0.4516651   , -0.00939159747, -0.009146453, 2.62325788  , 0.04        , 3           , 12          , 0.0346410163, 0
-0.100129485, 0.08843069  , -9.880321   , -0.00264710048, -0.003043419, -0.0003751909, -0.226708919, -0.135701761, 0.451799929 , -0.009418037, -0.009176921, 2.623254    , 0.05        , 3           , 50          , 0           , 0
-0.07472558 , 0.0802117   , -9.806487   , -0.00336136855, -0.00135880278, -9.334226E-05, -0.226776332, -0.135701761, 0.4516651   , -0.009451643, -0.00919051748, 2.623253    , 0.06        , 3           , 11          , 0.0346410163, 0.0346410163
-0.0856598541, 0.07277083  , -9.703548   , 0.00142442784, 0.001911668 , 0.000922917 , -0.226776332, -0.135701761, 0.4516651   , -0.009437482, -0.009171315, 2.62326264  , 0.07        , 3           , 12          , 0.0346410163, 0
-0.103045568, 0.08658978  , -9.726676   , 0.00452628871, 0.00277737  , -0.000191444778, -0.226708919, -0.135836586, 0.451395452 , -0.009392199, -0.00914356 , 2.62326026  , 0.08        , 3           , 50          , 0           , 0
-0.08631001 , 0.127741218 , -9.810898   , -0.00012301025, 0.0004933326, -0.000922989449, -0.226911157, -0.135836586, 0.4516651   , -0.009393345, -0.009138714, 2.6232512   , 0.09        , 3           , 11          , 0.0346410163, 0.0346410163
-0.09417718 , 0.127173483 , -9.882374   , -0.004628352, -0.002212094, -0.0005243758, -0.226776332, -0.135769174, 0.451530278 , -0.009439582, -0.009160883, 2.623246    , 0.1         , 3           , 12          , 0.0346410163, 0
-0.09397046 , 0.08196154  , -9.856796   , -0.002372385, -0.00135211542, 0.000758880051, -0.226776332, -0.135769174, 0.451530278 , -0.009463377, -0.009174331, 2.623254    , 0.11        , 3           , 50          , 0           , 0
-0.07437106 , 0.0886074156, -9.755376   , 0.00537955249, 0.00165684125, 0.000517114531, -0.22650668 , -0.135971412, 0.4515977   , -0.009409627, -0.009157714, 2.62325883  , 0.12        , 3           , 11          , 0.0346410163, 0.0346410163
-0.0672977641, 0.09909599  , -9.679344   , 0.006223518 , 0.00208491273, -0.00159731461, -0.226708919, -0.135769174, 0.4515977   , -0.009347243, -0.009137016, 2.62324262  , 0.13        , 3           , 12          , 0.0346410163, 0
-0.06689353 , 0.0985308439, -9.780136   , 1.643839E-05, 0.0009166366, -0.000356604432, -0.2265741  , -0.135634348, 0.4516651   , -0.009347045, -0.009127883, 2.6232388   , 0.14        , 3           , 50          , 0           , 0
-0.0553573966, 0.08339748  , -9.881355   , -0.00450042635, 0.000604514848, 0.0006107718, -0.226776332, -0.135836586, 0.451530278 , -0.009392104, -0.009121781, 2.62324452  , 0.15        , 3           , 11          , 0.0346410163, 0.0346410163
-0.06189935 , 0.103765391 , -9.877253   , -0.00577285932, 0.0007366987, -0.0008076248, -0.226776332, -0.135836586, 0.451530278 , -0.0094497595, -0.009114491, 2.623237    , 0.16        , 3           , 12          , 0.0346410163, 0
-0.08323073 , 0.08396272  , -9.81874    , -0.000128259853, 0.0016195944, -0.000356178061, -0.2266415  , -0.135634348, 0.451462865 , -0.009451007, -0.00909833 , 2.623233    , 0.17        , 3           , 50          , 0           , 0
-0.09757575 , 0.0954825   , -9.70671    , 0.004675043 , 0.00137050194, 0.000795925735, -0.226708919, -0.135769174, 0.451867342 , -0.009404328, -0.009084551, 2.62324071  , 0.18        , 3           , 11          , 0.0346410163, 0.0346410163
-0.07750481 , 0.0967078954, -9.738191   , 0.001148889 , 0.0005019321, 0.0007781623, -0.226843745, -0.135634348, 0.451732516 , -0.009392909, -0.009079458, 2.62324834  , 0.19        , 3           , 12          , 0.0346410163, 0
-0.0841562  , 0.1097714   , -9.84169    , -0.003220816, -0.0010762742, 0.00117917184, -0.226843745, -0.135634348, 0.451732516 , -0.00942526 , -0.00908996351, 2.62326074  , 0.2         , 3           , 50          , 0           , 0
-0.103765935, 0.09203254  , -9.86541748 , -0.00335477013, -0.002625839, 0.000469783176, -0.2265741  , -0.135769174, 0.4516651   , -0.009458854, -0.00911617652, 2.6232655   , 0.21        , 3           , 11          , 0.0346699134, 0.0346699134
-0.07892464 , 0.07391017  , -9.796601   , -0.00124997529, 6.33530362E-05, 0.000201245144, -0.226776332, -0.135836586, 0.4515977   , -0.009471374, -0.009115524, 2.62326741  , 0.22        , 3           , 12          , 0.0346687622, 0
-0.108293124, 0.1010874   , -9.725752   , 0.00170775747, 0.0016320151, 7.619086E-05, -0.226708919, -0.135904   , 0.451530278 , -0.009454301, -0.009099197, 2.62326837  , 0.23        , 3           , 50          , 0           , 0
-0.108749419, 0.0988581   , -9.732092   , 0.00298302365, 0.000795915548, 0.000363352679, -0.226708919, -0.135904   , 0.451530278 , -0.009424502, -0.009091203, 2.6232717   , 0.24        , 3           , 11          , 0.0346699134, 0.0346699134
-0.105337322, 0.09142952  , -9.815262   , -0.000823873153, -0.000496913737, -0.0003627224, -0.226843745, -0.135701761, 0.451462865 , -0.009432709, -0.009096208, 2.62326837  , 0.25        , 3           , 12          , 0.0346687622, 0
-0.0848188847, 0.09309168  , -9.844025   , -0.00378217734, -0.00206557848, -0.00122654915, -0.226776332, -0.135701761, 0.451732516 , -0.00947042 , -0.009116978, 2.623256    , 0.26        , 3           , 50          , 0           , 0
-0.1163566  , 0.08206023  , -9.808605   , -0.00138421846, -0.00134542736, 0.000198416965, -0.2265741  , -0.135836586, 0.4515977   , -0.009484282, -0.009130413, 2.62325788  , 0.27        , 3           , 11          , 0.0346699134, 0.0346699134
-0.1047736  , 0.097763    , -9.822011   , 0.00354283513, 0.00178521243, 8.49679E-05 , -0.2265741  , -0.135836586, 0.4515977   , -0.009448859, -0.00911255553, 2.62325883  , 0.28        , 3           , 12          , 0.0346687622, 0
-0.10743358 , 0.08407814  , -9.769207   , 0.00227384223, 0.00135426922, -0.000204146709, -0.226708919, -0.135904   , 0.451530278 , -0.009426101, -0.009099032, 2.623257    , 0.29        , 3           , 50          , 0           , 0
-0.110334754, 0.0914743841, -9.811233   , -0.00293285423, -0.00181324978, -0.000233638188, -0.2266415  , -0.135634348, 0.451799929 , -0.00939639 , -0.009837465, 2.623254    , 0.3         , 3           , 11          , 0.034753494 , 0.0347534865
-0.1080187  , 0.08881196  , -9.832469   , -0.00307959924, -0.000828730059, -0.00136292772, -0.226911157, -0.135904   , 0.4515977   , -0.009427055, -0.009845882, 2.62324023  , 0.31        , 3           , 12          , 0.0347537771, 0
-0.08757383 , 0.102019593 , -9.806043   , -0.000404582621, 0.0008788066, -0.0007827383, -0.226911157, -0.135904   , 0.4515977   , -0.009431022, -0.009837167, 2.62323213  , 0.32        , 3           , 50          , 0           , 0
-0.07412549 , 0.103089608 , -9.768872   , 0.00255573075, 0.00202512345, -6.08311238E-05, -0.226708919, -0.135634348, 0.4515977   , -0.00940545648, -0.009816923, 2.62323165  , 0.33        , 3           , 11          , 0.034753494 , 0.0347534865
-0.101493724, 0.08851602  , -9.767786   , 0.00354676787, 0.00146867719, -0.000480895833, -0.226708919, -0.135634348, 0.451867342 , -0.0093699405, -0.009802281, 2.6232264   , 0.34        , 3           , 12          , 0.0347537771, 0
-0.101466551, 0.0747011751, -9.818917   , 0.00129850546, -0.0007991232, -0.0004949028, -0.226708919, -0.135769174, 0.451799929 , -0.009356907, -0.009810317, 2.62322164  , 0.35        , 3           , 50          , 0           , 0
-0.101691   , 0.08605028  , -9.838307   , -0.0009529973, -0.00236300961, -8.401878E-05, -0.226708919, -0.135769174, 0.451799929 , -0.009366431, -0.009833954, 2.62322116  , 0.36        , 3           , 11          , 0.034753494 , 0.0347534865
-0.08425142 , 0.08209467  , -9.796608   , 0.00235565566, -0.000299219624, 0.000358407357, -0.2266415  , -0.135701761, 0.4515977   , -0.00934291 , -0.009836912, 2.6232245   , 0.37        , 3           , 12          , 0.0347537771, 0
-0.0735418648, 0.08362505  , -9.752678   , 0.00079857884, 0.000394187024, -7.155699E-05, -0.2266415  , -0.135634348, 0.451799929 , -0.009334915, -0.009832978, 2.623224    , 0.38        , 3           , 50          , 0           , 0
-0.06876261 , 0.0958270654, -9.774737   , 0.0011500332, 0.00074853166, 0.000213168925, -0.2266415  , -0.135769174, 0.451867342 , -0.009323436, -0.009825474, 2.6232264   , 0.39        , 3           , 11          , 0.034753494 , 0.0347534865
-0.103821576, 0.07510029  , -9.795431   , -0.000525248237, -0.0009857878, 0.00013216924, -0.2266415  , -0.135769174, 0.451867342 , -0.009231153, -0.0094958  , 2.6232264   , 0.4         , 3           , 12          , 0.0348952077, 0
-0.118321978, 0.107770681 , -9.799023   , 4.89740851E-05, -0.00288253231, 6.12397E-05 , -0.226978555, -0.135701761, 0.4515977   , -0.009230671, -0.009524618, 2.62322736  , 0.41        , 3           , 50          , 0           , 0
-0.101606175, 0.09236791  , -9.838733   , 0.00384734385, 9.968667E-05, 0.0005073809, -0.226911157, -0.135634348, 0.451799929 , -0.009192246, -0.009523575, 2.6232326   , 0.42        , 3           , 11          , 0.0176995564, 0.0176994931
-0.07967629 , 0.09056048  , -9.780719   , 0.00348635786, 0.0016459059, 1.3680904E-05, -0.2266415  , -0.135566935, 0.451732516 , -0.009157382, -0.009507116, 2.6232326   , 0.43        , 3           , 12          , 0.0348952077, 0
-0.08474168 , 0.09456743  , -9.747294   , 0.00172043731, 0.00156357209, -0.00190178654, -0.2266415  , -0.135566935, 0.451732516 , -0.009139996, -0.009491653, 2.623213    , 0.44        , 3           , 50          , 0           , 0
-0.0852477  , 0.110524081 , -9.793786   , 0.002564537 , 0.00234360923, -0.000766492332, -0.2266415  , -0.135701761, 0.4515977   , -0.009114277, -0.009468289, 2.62320542  , 0.45        , 3           , 11          , 0.0176995564, 0.0176994931
-0.09121859 , 0.0993658   , -9.809245   , -0.00102935359, 0.000911431853, -0.0006441842, -0.226708919, -0.135769174, 0.451799929 , -0.009124507, -0.009459233, 2.62319875  , 0.46        , 3           , 12          , 0.0348952077, 0
-0.08939033 , 0.09980475  , -9.811941   , 0.00164957857, 0.0018446648, 7.608052E-05, -0.226843745, -0.135634348, 0.451732516 , -0.009108017, -0.009440782, 2.6231997   , 0.47        , 3           , 50          , 0           , 0
-0.05947753 , 0.08348294  , -9.75935    , 0.00321190525, 2.4996416E-05, -6.07655238E-05, -0.226843745, -0.135634348, 0.451732516 , -0.009075891, -0.009440537, 2.62319875  , 0.48        , 3           , 11          , 0.0176995564, 0.0176994931
-0.09823544 , 0.0925679   , -9.776332   , 0.00200513331, 0.00135431392, 0.000218236033, -0.226843745, -0.135836586, 0.4515977   , -0.009055861, -0.009426975, 2.62320065  , 0.49        , 3           , 12          , 0.0348952077, 0
-0.102936432, 0.0777512044, -9.781854   , 0.0004918548, 0.0008101337, -0.000707213359, -0.226776332, -0.135634348, 0.451732516 , -0.009208592, -0.009279572, 2.62319541  , 0.5         , 3           , 50          , 0           , 0
-0.06853936 , 0.07778174  , -9.776619   , -0.00240574847, 0.00142407988, -1.33919975E-05, -0.226843745, -0.135836586, 0.4515977   , -0.009232647, -0.009265333, 2.623195    , 0.51        , 3           , 11          , 0.0134372134, 0.0134371864
-0.0751226246, 0.08249393  , -9.812808   , -0.00347167114, 0.00261356472, -0.00157044234, -0.2265741  , -0.135701761, 0.451462865 , -0.009267216, -0.009239344, 2.6231792   , 0.52        , 3           , 12          , 0.0350919329, 0
-0.107803583, 0.07745529  , -9.81082    , -0.00184468448, 0.00206141826, -0.00113993138, -0.2265741  , -0.135701761, 0.451462865 , -0.009285555, -0.009218836, 2.62316728  , 0.53        , 3           , 50          , 0           , 0
-0.101514   , 0.0786799   , -9.794495   , -0.00106118515, 0.00072923745, -0.0007851993, -0.226911157, -0.135499522, 0.451732516 , -0.009296095, -0.00921161752, 2.62315965  , 0.54        , 3           , 11          , 0.0134372134, 0.0134371864
-0.07156577 , 0.08730825  , -9.781122   , 7.530306E-05, -0.000459770235, 0.0007015459, -0.226911157, -0.135769174, 0.451934755 , -0.009295405, -0.00921615 , 2.62316632  , 0.55        , 3           , 12          , 0.0350919329, 0
-0.07603073 , 0.0891977549, -9.79064    , 4.142862E-07, 0.000314054167, -7.45680154E-05, -0.226843745, -0.135701761, 0.4516651   , -0.009295396, -0.009213018, 2.62316585  , 0.56        , 3           , 50          , 0           , 0
-0.100264117, 0.105729274 , -9.79166    , -0.001408969, -0.000399411918, -0.00135365629, -0.226843745, -0.135701761, 0.4516651   , -0.009309359, -0.00921713747, 2.623152    , 0.57        , 3           , 11          , 0.0134372134, 0.0134371864
-0.09860495 , 0.09174803  , -9.79939    , -0.00267314934, -0.00160465424, 5.1260693E-05, -0.2266415  , -0.135836586, 0.451867342 , -0.009336098, -0.009233178, 2.623153    , 0.58        , 3           , 12          , 0.0350919329, 0
-0.08516904 , 0.0758466348, -9.813817   , -0.00189986045, -0.000825095864, 0.000833053666, -0.2266415  , -0.135836586, 0.451732516 , -0.009355174, -0.009241351, 2.62316155  , 0.59        , 3           , 50          , 0           , 0
-0.09085293 , 0.09750448  , -9.793883   , 0.002290931 , 0.0012572268, -0.00013347088, -0.226776332, -0.135701761, 0.4515977   , -0.009225671, -0.009190536, 2.62315869  , 0.6         , 3           , 11          , 0.0113531211, 0.011353109
-0.110599786, 0.08099358  , -9.78009    , 0.0005931336, 0.0018088948, -0.000917482655, -0.226776332, -0.135701761, 0.4515977   , -0.009219654, -0.009172533, 2.62314963  , 0.61        , 3           , 12          , 0.03534261  , 0
-0.09862733 , 0.09172987  , -9.793966   , -0.000805001066, -0.0009459125, -0.000221954615, -0.226911157, -0.135769174, 0.451732516 , -0.009227685, -0.009182013, 2.62314725  , 0.62        , 3           , 50          , 0           , 0
-0.0985378549, 0.08912427  , -9.824259   , -0.002217113, -0.00102585542, -0.0007937226, -0.226776332, -0.135701761, 0.4515977   , -0.009249783, -0.009192344, 2.62313962  , 0.63        , 3           , 11          , 0.0113531211, 0.011353109
-0.090521276, 0.08490321  , -9.80478    , -0.00264636986, 9.753985E-05, -0.00086459663, -0.226843745, -0.135701761, 0.4516651   , -0.009276168, -0.009191448, 2.623131    , 0.64        , 3           , 12          , 0.03534261  , 0
-0.0871391445, 0.100214213 , -9.807404   , -0.0005349942, 0.00144929788, -0.00120583014, -0.226843745, -0.135701761, 0.4516651   , -0.009281406, -0.009177067, 2.62311864  , 0.65        , 3           , 50          , 0           , 0
-0.102249928, 0.0913257748, -9.795351   , -0.002999689, 9.515103E-05, -0.00136068347, -0.226708919, -0.135634348, 0.451732516 , -0.009311278, -0.009176243, 2.62310529  , 0.66        , 3           , 11          , 0.0113531211, 0.011353109
-0.100593612, 0.0835911   , -9.782264   , -0.00362486439, -0.00173931348, 0.000752563938, -0.226843745, -0.135769174, 0.451867342 , -0.009347598, -0.009193565, 2.623113    , 0.67        , 3           , 12          , 0.03534261  , 0
-0.09596835 , 0.0943293   , -9.771336   , -0.00390841858, -0.00153005007, 0.0006103037, -0.2266415  , -0.135836586, 0.451732516 , -0.00938674 , -0.009208808, 2.623119    , 0.68        , 3           , 50          , 0           , 0
-0.08092545 , 0.09200396  , -9.80287    , -0.004682731, -0.00216882769, -0.0007363472, -0.2266415  , -0.135836586, 0.451732516 , -0.009433501, -0.009230564, 2.623112    , 0.69        , 3           , 11          , 0.0113531211, 0.011353109
-0.0747099  , 0.0837952048, -9.798788   , -0.00487298146, -0.00205642451, -0.000243130809, -0.226911157, -0.135971412, 0.4516651   , -0.009435694, -0.009308172, 2.623109    , 0.7         , 3           , 12          , 0.03564567  , 0
-0.08400807 , 0.103716671 , -9.786574   , -0.00276429 , -0.000211928957, -0.00100741116, -0.226776332, -0.135836586, 0.4515977   , -0.009463244, -0.009310387, 2.62309957  , 0.71        , 3           , 50          , 0           , 0
-0.0844759941, 0.09835352  , -9.800158   , 0.00153941568, 0.000591504562, -6.7887886E-05, -0.2266415  , -0.135634348, 0.451867342 , -0.009447842, -0.009304479, 2.62309861  , 0.72        , 3           , 11          , 0.0101335151, 0.0101335077
-0.08579322 , 0.108668849 , -9.777075   , 0.00146938371, 0.000450243941, -0.0002803371, -0.2266415  , -0.135634348, 0.451867342 , -0.009433122, -0.009300003, 2.62309575  , 0.73        , 3           , 12          , 0.03564567  , 0
-0.07445097 , 0.106322527 , -9.789653   , -0.000226308068, 0.000790743448, 0.0007718192, -0.226776332, -0.135701761, 0.451732516 , -0.009435456, -0.009292023, 2.62310338  , 0.74        , 3           , 50          , 0           , 0
-0.07243766 , 0.09002428  , -9.780665   , -0.00127208047, -0.00203207252, -0.000296974118, -0.2265741  , -0.135769174, 0.451867342 , -0.009448151, -0.009312372, 2.62310052  , 0.75        , 3           , 11          , 0.0101335151, 0.0101335077
-0.0830387  , 0.096616134 , -9.825014   , -2.78362222E-06, -0.001530735, 0.00112239877, -0.226776332, -0.135701761, 0.451799929 , -0.009448284, -0.009327572, 2.623112    , 0.76        , 3           , 12          , 0.03564567  , 0
-0.08089508 , 0.09783112  , -9.791545   , 0.00323942676, -0.000382510683, 0.0009273761, -0.226776332, -0.135701761, 0.451799929 , -0.009415977, -0.009331309, 2.6231215   , 0.77        , 3           , 50          , 0           , 0
-0.083045505, 0.0801698   , -9.76542    , 0.000127896725, 0.000441171782, -0.0002159581, -0.227045968, -0.135904   , 0.4515977   , -0.009414678, -0.009326918, 2.623119    , 0.78        , 3           , 11          , 0.0101335151, 0.0101335077
-0.080627054, 0.0798220858, -9.804274   , -0.000172711414, 0.00402921438, -0.000918086153, -0.226978555, -0.135701761, 0.4515977   , -0.009416317, -0.009286714, 2.623109    , 0.79        , 3           , 12          , 0.03564567  , 0
-0.10948889 , 0.0914153755, -9.796762   , -1.89910479E-05, 0.00335153216, -0.0002114464, -0.226776332, -0.135634348, 0.451799929 , -0.009402799, -0.009094771, 2.62310719  , 0.8         , 3           , 50          , 0           , 0
-0.06291281 , 0.0868014544, -9.794619   , -0.0002917786, 0.00123788021, -0.00162870518, -0.226776332, -0.135634348, 0.451799929 , -0.009405568, -0.009082548, 2.623091    , 0.81        , 3           , 11          , 0.009383402 , 0.009383395
-0.0807948261, 0.0747762844, -9.779437   , -0.00161920278, -0.001586842, -0.00135676237, -0.226776332, -0.135769174, 0.451732516 , -0.00942164 , -0.009098542, 2.62307763  , 0.82        , 3           , 12          , 0.0359993838, 0
-0.106911123, 0.08502201  , -9.78321    , -0.000137014547, -0.00150642463, -0.001702912, -0.226708919, -0.135701761, 0.451732516 , -0.009422855, -0.009113764, 2.62306046  , 0.83        , 3           , 50          , 0           , 0
-0.100183912, 0.07060672  , -9.813501   , -0.00141406734, -0.000177582973, -0.0008591644, -0.226708919, -0.135634348, 0.451799929 , -0.009436918, -0.009115621, 2.623052    , 0.84        , 3           , 11          , 0.009383402 , 0.009383395
-0.08983493 , 0.06819998  , -9.804844   , -0.002680687, -0.000890086638, 0.0005465117, -0.226708919, -0.135634348, 0.451799929 , -0.009463776, -0.009124473, 2.6230576   , 0.85        , 3           , 12          , 0.0359993838, 0
-0.07681182 , 0.06617319  , -9.784414   , -0.003098688, -0.00208960427, 4.825168E-05, -0.226708919, -0.135769174, 0.4515977   , -0.009494768, -0.009145361, 2.623058    , 0.86        , 3           , 50          , 0           , 0
-0.08802574 , 0.06549902  , -9.812978   , -0.00296344026, -0.000891998061, -1.98800954E-05, -0.226843745, -0.135701761, 0.451799929 , -0.009524401, -0.00915428251, 2.623058    , 0.87        , 3           , 11          , 0.009383402 , 0.009383395
-0.08447078 , 0.07031183  , -9.78084    , -0.00479952246, -0.0008340216, 4.23026322E-05, -0.2265741  , -0.135701761, 0.451732516 , -0.009572402, -0.009162618, 2.62305856  , 0.88        , 3           , 12          , 0.0359993838, 0
-0.07340016 , 0.0810617656, -9.795626   , -0.0022655928, 0.000731775 , -0.000367264351, -0.226708919, -0.135634348, 0.451530278 , -0.009595023, -0.009155336, 2.62305474  , 0.89        , 3           , 50          , 0           , 0
-0.115536273, 0.080195114 , -9.793692   , -0.00181807159, -0.00265033217, -0.00199758448, -0.226708919, -0.135634348, 0.451530278 , -0.00930560753, -0.009090131, 2.62303233  , 0.9         , 3           , 11          , 0.008918643 , 0.008918636
-0.105161935, 0.07423812  , -9.802676   , -0.00125623553, -0.00187220436, -0.00058107014, -0.226708919, -0.135566935, 0.451530278 , -0.009318117, -0.009108906, 2.623027    , 0.91        , 3           , 12          , 0.0364018567, 0
-0.0861159  , 0.09538908  , -9.851708   , -0.00351925753, -0.00118357223, -0.000802423747, -0.226776332, -0.135971412, 0.451867342 , -0.009353238, -0.009120816, 2.6230185   , 0.92        , 3           , 50          , 0           , 0
-0.100872494, 0.111783266 , -9.84497452 , -0.00332512939, 0.00240781554, -0.0006546346, -0.2265741  , -0.135769174, 0.4516651   , -0.009386428, -0.0090968  , 2.62301183  , 0.93        , 3           , 11          , 0.008918643 , 0.008918636
-0.100165516, 0.08044134  , -9.786342   , 2.91415745E-06, 0.00067047996, 0.0007708146, -0.2265741  , -0.135769174, 0.4516651   , -0.009386468, -0.009090023, 2.62301946  , 0.94        , 3           , 12          , 0.0364018567, 0
-0.07072243 , 0.08635449  , -9.768916   , 0.00183957454, 0.000330934155, -0.0007044894, -0.226843745, -0.135634348, 0.4515977   , -0.009368009, -0.00908678 , 2.62301278  , 0.95        , 3           , 50          , 0           , 0
-0.0607785732, 0.120518252 , -9.765082   , 0.000637047051, 0.0007451638, -0.0009213386, -0.226843745, -0.135634348, 0.451799929 , -0.009361553, -0.009079414, 2.62300324  , 0.96        , 3           , 11          , 0.008918643 , 0.008918636
-0.08422052 , 0.111058332 , -9.821799   , -0.00281200418, -0.00131957722, 4.826394E-05, -0.226708919, -0.135904   , 0.451530278 , -0.00938968 , -0.009092606, 2.6230042   , 0.97        , 3           , 12          , 0.0364018567, 0
-0.07878719 , 0.108316354 , -9.830357   , -0.00146240182, -0.00285911048, 0.0007584764, -0.226708919, -0.135904   , 0.451530278 , -0.009404375, -0.009121124, 2.62301183  , 0.98        , 3           , 50          , 0           , 0
-0.08197531 , 0.08341701  , -9.79523    , 0.00100218935, -0.00143457169, 0.00133724441, -0.2266415  , -0.135634348, 0.451462865 , -0.009394476, -0.009135343, 2.62302518  , 0.99        , 3           , 11          , 0.008918643 , 0.008918636
-0.09881257 , 0.08577722  , -9.767777   , 0.00259941188, -0.001203703, 0.000639682636, -0.227045968, -0.135634348, 0.451867342 , -0.009400717, -0.009048032, 2.62303185  , 1           , 3           , 12          , 0.0368510857, 0
-0.0913561  , 0.09746897  , -9.781683   , -0.000226658187, -0.0009412397, -7.93963554E-05, -0.226843745, -0.135904   , 0.451732516 , -0.009402976, -0.009057451, 2.62303185  , 1.01        , 3           , 50          , 0           , 0
-0.08869752 , 0.08935566  , -9.793448   , -0.00171423715, 3.421086E-05, -1.41572264E-05, -0.226843745, -0.135904   , 0.451732516 , -0.009420117, -0.009057111, 2.62303138  , 1.02        , 3           , 11          , 0.008640411 , 0.008640404
-0.0920462459, 0.103903063 , -9.813753   , -0.000798381632, 0.0005331592, 0.0006972258, -0.226708919, -0.135904   , 0.451799929 , -0.009428164, -0.009051713, 2.62303853  , 1.03        , 3           , 12          , 0.0368510857, 0
-0.0903468058, 0.0939715952, -9.818301   , -0.0008722844, 0.00102541642, -0.000785665761, -0.226843745, -0.135769174, 0.451799929 , -0.009436815, -0.009041533, 2.62303042  , 1.04        , 3           , 50          , 0           , 0
-0.09498022 , 0.07258855  , -9.75062752 , 0.000253263 , 0.00180735881, -0.00134427962, -0.226708919, -0.135701761, 0.451732516 , -0.009434158, -0.009023586, 2.6230166   , 1.05        , 3           , 11          , 0.008640411 , 0.008640404
-0.09026157 , 0.08608051  , -9.753699   , 4.38343632E-05, 0.00159475883, 0.0009853415, -0.226708919, -0.135701761, 0.451732516 , -0.009433809, -0.009007547, 2.62302661  , 1.06        , 3           , 12          , 0.0368510857, 0
-0.07939577 , 0.0743469745, -9.790728   , -0.000798730063, 0.0006035504, 0.000697334355, -0.226776332, -0.135701761, 0.451530278 , -0.009441858, -0.009001446, 2.62303376  , 1.07        , 3           , 50          , 0           , 0
-0.08912066 , 0.08402881  , -9.817881   , -0.0022738853, -0.000955085154, 0.0005467651, -0.2266415  , -0.135769174, 0.451799929 , -0.009464648, -0.009010944, 2.623039    , 1.08        , 3           , 11          , 0.008640411 , 0.008640404
-0.101696283, 0.09408029  , -9.811155   , 0.0002679408, -0.00114907441, -0.00127820147, -0.226776332, -0.135836586, 0.451799929 , -0.009461855, -0.009022554, 2.62302613  , 1.09        , 3           , 12          , 0.0368510857, 0
-0.09631917 , 0.09352453  , -9.798914   , 0.00216509518, -0.00024972824, -0.0006333814, -0.226776332, -0.135836586, 0.451799929 , -0.009363066, -0.009058224, 2.62301946  , 1.1         , 3           , 50          , 0           , 0
-0.104717858, 0.0827064142, -9.773259   , 0.00116462959, 0.00213688961, -0.0008462055, -0.226776332, -0.136038825, 0.451732516 , -0.009351341, -0.009036938, 2.62301087  , 1.11        , 3           , 11          , 0.00848471653, 0.008484707
-0.07592069 , 0.0968748853, -9.792868   , -0.0003172918, 0.00198608  , -0.000641433231, -0.226776332, -0.135836586, 0.451799929 , -0.009354455, -0.009017135, 2.6230042   , 1.12        , 3           , 12          , 0.0373449922, 0
-0.10666056 , 0.09102757  , -9.825217   , -0.000661041762, 0.000223913637, 0.0003430896, -0.226978555, -0.135634348, 0.451799929 , -0.009361097, -0.00901486352, 2.62300754  , 1.13        , 3           , 50          , 0           , 0
-0.11102052 , 0.08147122  , -9.78642    , -0.0002351102, -5.478213E-05, 0.0018985871, -0.226978555, -0.135634348, 0.451799929 , -0.009363619, -0.009015233, 2.62302661  , 1.14        , 3           , 11          , 0.00848471653, 0.008484707
-0.0780554339, 0.08279707  , -9.759043   , -0.0003078451, 0.000226301927, 0.0006272732, -0.226708919, -0.135769174, 0.4515977   , -0.00936675351, -0.00901291147, 2.62303281  , 1.15        , 3           , 12          , 0.0373449922, 0
-0.0633482039, 0.102889456 , -9.747096   , 3.51707531E-05, 0.001988465 , -0.0016286684, -0.226978555, -0.135634348, 0.452002168 , -0.009366253, -0.00899318 , 2.6230166   , 1.16        , 3           , 50          , 0           , 0
-0.08768973 , 0.104157433 , -9.770781   , 0.00144842837, 0.0019276269, -0.0002801392, -0.226708919, -0.135971412, 0.451867342 , -0.00935174152, -0.00897393 , 2.62301373  , 1.17        , 3           , 11          , 0.00848471653, 0.008484707
-0.07480064 , 0.07702643  , -9.798365   , 0.00272494415, 0.000880354666, 0.000359869067, -0.226708919, -0.135971412, 0.451867342 , -0.009324524, -0.008965094, 2.6230166   , 1.18        , 3           , 12          , 0.0373449922, 0
-0.08440946 , 0.09751473  , -9.819145   , 0.000682613871, -4.85755227E-05, 0.00162032957, -0.226708919, -0.135971412, 0.4516651   , -0.009317841, -0.008965428, 2.62303281  , 1.19        , 3           , 50          , 0           , 0
-0.09333472 , 0.110224545 , -9.810573   , -0.000518830551, 0.000604941335, -0.000291185424, -0.226978555, -0.135634348, 0.451934755 , -0.009319468, -0.008927407, 2.62303     , 1.2         , 3           , 11          , 0.00840444  , 0.008404429
-0.07595987 , 0.09684312  , -9.783376   , 0.0020900513, 0.00132652081, -0.000419187621, -0.226843745, -0.135971412, 0.451934755 , -0.00929852948, -0.008914181, 2.62302613  , 1.21        , 3           , 12          , 0.03788144  , 0
-0.09999174 , 0.096204415 , -9.778139   , 0.000251733465, 0.00187723734, -3.07373125E-06, -0.226843745, -0.135971412, 0.451934755 , -0.009296009, -0.00889541 , 2.62302566  , 1.22        , 3           , 50          , 0           , 0
-0.09668036 , 0.106548227 , -9.779427   , -0.00151144329, 0.001372559 , -0.000789042, -0.226911157, -0.136106238, 0.451530278 , -0.009311053, -0.008881758, 2.62301755  , 1.23        , 3           , 11          , 0.00840444  , 0.008404429
-0.08192403 , 0.117307052 , -9.809552   , -0.000105133637, 0.002649154 , -3.52659981E-06, -0.226776332, -0.136038825, 0.451867342 , -0.009312102, -0.0088552665, 2.62301755  , 1.24        , 3           , 12          , 0.03788144  , 0
-0.108484074, 0.127119035 , -9.816946   , -0.00163876126, -0.00130326068, 0.000336326979, -0.226708919, -0.135769174, 0.451867342 , -0.00932852 , -0.008868268, 2.623021    , 1.25        , 3           , 50          , 0           , 0
-0.09165508 , 0.111435778 , -9.774395   , 0.00168018776, -0.00149199564, -0.0007080399, -0.2265741  , -0.135769174, 0.451799929 , -0.009311656, -0.008883253, 2.62301373  , 1.26        , 3           , 11          , 0.00840444  , 0.008404429
-0.08487442 , 0.07883761  , -9.765439   , 0.00111297239, -0.0008622907, 0.0006323556, -0.2265741  , -0.135769174, 0.451799929 , -0.009300584, -0.008891816, 2.62302041  , 1.27        , 3           , 12          , 0.03788144  , 0
-0.09796176 , 0.08482951  , -9.75738    , -0.0005967929, 0.00194189453, -0.001560872, -0.227045968, -0.135836586, 0.451934755 , -0.009306413, -0.008872543, 2.62300467  , 1.28        , 3           , 50          , 0           , 0
-0.0943385959, 0.0834486559, -9.761877   , -0.00179620611, 0.00179299538, -0.00121351425, -0.226708919, -0.135904   , 0.451867342 , -0.009324265, -0.008854727, 2.62299228  , 1.29        , 3           , 11          , 0.00840444  , 0.008404429
-0.08604878 , 0.09328586  , -9.764032   , -0.00150477071, -0.0009597578, -0.000368451874, -0.2266415  , -0.135836586, 0.451462865 , -0.009424207, -0.008954861, 2.62298942  , 1.3         , 3           , 12          , 0.03845826  , 0
-0.10979785 , 0.104481407 , -9.789931   , -0.0013030608, 0.00122380734, 0.00083668303, -0.2266415  , -0.135836586, 0.451462865 , -0.00943731051, -0.008942545, 2.62299752  , 1.31        , 3           , 50          , 0           , 0
-0.120587371, 0.09306651  , -9.846107   , -0.003205808, 0.000295824255, -0.000727572769, -0.226776332, -0.135634348, 0.451799929 , -0.009469304, -0.0089396555, 2.62299037  , 1.32        , 3           , 11          , 0.008366306 , 0.008366293
-0.114314765, 0.0889211446, -9.842912   , -0.00319209439, -0.00244943448, -0.0005199004, -0.226978555, -0.135836586, 0.4516651   , -0.009501181, -0.008964199, 2.62298512  , 1.33        , 3           , 12          , 0.03845826  , 0
-0.0701301247, 0.0660042539, -9.757697   , -0.00150526373, -0.0008189741, -1.50632168E-05, -0.226776332, -0.136106238, 0.451732516 , -0.009516233, -0.008972388, 2.62298512  , 1.34        , 3           , 50          , 0           , 0
-0.09186677 , 0.105015345 , -9.7432375  , 0.00130568026, 0.00187499344, -0.000139040116, -0.226776332, -0.136106238, 0.451732516 , -0.009503161, -0.008953651, 2.62298369  , 1.35        , 3           , 11          , 0.008366306 , 0.008366293
-0.09134802 , 0.105956167 , -9.756336   , 0.0006122406, -0.000663867, -4.96924031E-06, -0.226843745, -0.135836586, 0.451867342 , -0.009497037, -0.008960291, 2.62298369  , 1.36        , 3           , 12          , 0.03845826  , 0
-0.081546165, 0.0918732062, -9.762197   , -0.000718913565, -0.00278467778, -0.00015574781, -0.226708919, -0.135971412, 0.451934755 , -0.009504217, -0.00898815 , 2.62298226  , 1.37        , 3           , 50          , 0           , 0
-0.0816058144, 0.0939824656, -9.851681   , -0.001860633, -0.000399015349, -0.000439864525, -0.226776332, -0.135971412, 0.4516651   , -0.0095227845, -0.008992182, 2.62297845  , 1.38        , 3           , 11          , 0.008366306 , 0.008366293
-0.06947172 , 0.0942114741, -9.828083   , -0.00129955 , 0.000308715971, -0.0009305864, -0.226776332, -0.135971412, 0.4516651   , -0.009535696, -0.008989184, 2.622969    , 1.39        , 3           , 12          , 0.03845826  , 0
-0.0516570024, 0.101346396 , -9.731647   , 0.00215326482, -0.0009964248, 0.0008495632, -0.226708919, -0.135971412, 0.451799929 , -0.009530769, -0.008988971, 2.6229775   , 1.4         , 3           , 50          , 0           , 0
-0.0659193844, 0.08570577  , -9.7273     , 0.002356966 , 0.0006943993, 0.0012769606, -0.2266415  , -0.136173651, 0.451934755 , -0.009507313, -0.008981906, 2.62299037  , 1.41        , 3           , 11          , 0.008347924 , 0.008347915
-0.102885462, 0.06841914  , -9.824378   , 0.000380823622, 0.000329068949, -0.0002867564, -0.226708919, -0.135836586, 0.451867342 , -0.009503479, -0.00897864252, 2.622987    , 1.42        , 3           , 12          , 0.0390732959, 0
-0.0787745342, 0.0976142138, -9.867915   , -0.002712669, -0.002366809, -0.000375999341, -0.226708919, -0.135836586, 0.451867342 , -0.009530574, -0.009002346, 2.62298417  , 1.43        , 3           , 50          , 0           , 0
-0.104410678, 0.0896505639, -9.82611    , -0.00188243948, 0.00087691407, -0.00213291775, -0.226843745, -0.135701761, 0.451799929 , -0.009549206, -0.00899378 , 2.62296224  , 1.44        , 3           , 11          , 0.008347924 , 0.008347915
-0.100872517, 0.102037683 , -9.765466   , 0.0010004642, 0.00328979385, -0.00232763379, -0.226911157, -0.135701761, 0.451934755 , -0.00953898951, -0.008961105, 2.62293887  , 1.45        , 3           , 12          , 0.0390732959, 0
-0.09199031 , 0.09420284  , -9.747804   , 0.0007254745, 0.00195045385, -0.000918324455, -0.226708919, -0.135769174, 0.451799929 , -0.009531652, -0.00894168951, 2.62292933  , 1.46        , 3           , 50          , 0           , 0
-0.07455234 , 0.0804262161, -9.737331   , -0.00152826041, 0.000738521339, -0.00135451031, -0.226708919, -0.135769174, 0.451799929 , -0.009546812, -0.008934436, 2.62291551  , 1.47        , 3           , 11          , 0.008347924 , 0.008347915
-0.101835944, 0.07655948  , -9.833376   , -0.004493905, 0.000718465832, -0.00165087555, -0.226708919, -0.135836586, 0.451530278 , -0.009591604, -0.008927407, 2.62289929  , 1.48        , 3           , 12          , 0.0390732959, 0
-0.100583494, 0.09691566  , -9.852718   , -0.003781302, -0.0004734079, -0.000589911942, -0.226776332, -0.135701761, 0.451934755 , -0.009629363, -0.008932198, 2.62289357  , 1.49        , 3           , 50          , 0           , 0
-0.0997021943, 0.0795518756, -9.791765   , -0.00174111128, -0.000296573417, -0.000228201417, -0.226708919, -0.135904   , 0.451867342 , -0.009572648, -0.008990381, 2.62289071  , 1.5         , 3           , 11          , 0.00833128951, 0.008331282
-0.104208931, 0.09569074  , -9.745178   , -0.0006116488, -0.0002889347, -0.000646739849, -0.226708919, -0.135904   , 0.451867342 , -0.009578707, -0.008993331, 2.622884    , 1.51        , 3           , 12          , 0.0397243947, 0
-0.06951246 , 0.0848792642, -9.737274   , -0.000188175225, -0.000145284692, 0.000273699115, -0.22650668 , -0.135904   , 0.451799929 , -0.009580613, -0.008994758, 2.622887    , 1.52        , 3           , 50          , 0           , 0
-0.07171942 , 0.086291045 , -9.746777   , 8.04597948E-05, 0.00246109813, -0.001274926, -0.226776332, -0.135701761, 0.452069581 , -0.009579692, -0.008970271, 2.62287354  , 1.53        , 3           , 11          , 0.00833128951, 0.008331282
-0.08896056 , 0.09130014  , -9.833669   , -0.000260027737, -7.537524E-05, -0.00128047762, -0.2266415  , -0.136038825, 0.452002168 , -0.009582178, -0.008971147, 2.62286115  , 1.54        , 3           , 12          , 0.0397243947, 0
-0.0927488059, 0.0857778341, -9.921858   , -0.00145169569, -0.00163209555, 0.000406763516, -0.2266415  , -0.136038825, 0.452002168 , -0.009596733, -0.008987429, 2.622865    , 1.55        , 3           , 50          , 0           , 0
-0.0969959944, 0.09014971  , -9.865826   , -0.00328131579, -0.00305233966, -0.00101665361, -0.226776332, -0.135971412, 0.451732516 , -0.009629455, -0.009018049, 2.62285542  , 1.56        , 3           , 11          , 0.00833128951, 0.008331282
-0.09196201 , 0.102260061 , -9.728786   , -0.0004009556, -7.632875E-05, -0.000786695455, -0.226708919, -0.135701761, 0.451799929 , -0.009633395, -0.009018888, 2.6228478   , 1.57        , 3           , 12          , 0.0397243947, 0
-0.0680103  , 0.105511948 , -9.70599    , 0.00474084727, 0.00256300718, -5.230403E-05, -0.226708919, -0.135566935, 0.451799929 , -0.009585981, -0.008993262, 2.62284684  , 1.58        , 3           , 50          , 0           , 0
-0.06278206 , 0.1074395   , -9.76017952 , 0.00467936043, 0.000802749768, 0.0006509983, -0.226708919, -0.135566935, 0.451799929 , -0.009539245, -0.008985176, 2.622853    , 1.59        , 3           , 11          , 0.00833128951, 0.008331282
-0.111422636, 0.08955191  , -9.77283    , -0.004091358, -0.00171932788, 0.002019918 , -0.226843745, -0.136038825, 0.451732516 , -0.009614629, -0.008917568, 2.622874    , 1.6         , 3           , 12          , 0.04040946  , 0
-0.0902702659, 0.08644566  , -9.861271   , -0.00775781972, -0.00287042046, 0.00115344976, -0.226978555, -0.135836586, 0.452002168 , -0.009692313, -0.008946163, 2.622886    , 1.61        , 3           , 50          , 0           , 0
-0.0909960046, 0.09776077  , -9.868913   , -0.002960746, -0.00199325569, 0.00117713946, -0.2266415  , -0.135769174, 0.451934755 , -0.009722028, -0.008965978, 2.62289786  , 1.62        , 3           , 11          , 0.008310572 , 0.008310566
-0.0879986063, 0.127489567 , -9.730911   , 0.0046533   , 0.000310832431, 0.000651093142, -0.226708919, -0.136308476, 0.451799929 , -0.009675553, -0.008962807, 2.622904    , 1.63        , 3           , 12          , 0.04040946  , 0
-0.0868822  , 0.0929827541, -9.671835   , 0.005490333 , 0.00228751544, -0.000189530751, -0.226708919, -0.136308476, 0.451799929 , -0.00962063 , -0.008939951, 2.62290215  , 1.64        , 3           , 50          , 0           , 0
-0.0800391  , 0.09376315  , -9.79246    , -0.000428410654, -0.0002866811, -0.000786166755, -0.226843745, -0.135904   , 0.451799929 , -0.009624844, -0.008942893, 2.62289453  , 1.65        , 3           , 11          , 0.008310572 , 0.008310566
-0.123784207, 0.111307785 , -9.891706   , -0.006348638, -0.00229774136, 0.000878364837, -0.2266415  , -0.135769174, 0.451799929 , -0.009688411, -0.008965785, 2.622903    , 1.66        , 3           , 12          , 0.04040946  , 0
-0.117714092, 0.105659291 , -9.843773   , -0.00381302414, -0.00115429435, -0.000238196808, -0.226708919, -0.135634348, 0.451530278 , -0.009726522, -0.008977351, 2.6229012   , 1.67        , 3           , 50          , 0           , 0
-0.09052216 , 0.08624155  , -9.800255   , 0.008310093 , 0.00315130944, -0.0007401346, -0.226708919, -0.135634348, 0.451530278 , -0.00964335 , -0.00894591 , 2.62289357  , 1.68        , 3           , 11          , 0.008310572 , 0.008310566
-0.09512207 , 0.0546195954, -9.773754   , 0.0066102827, 0.00426611071, -0.000181225478, -0.226708919, -0.135769174, 0.451732516 , -0.009577229, -0.008903269, 2.62289119  , 1.69        , 3           , 12          , 0.04040946  , 0
-0.103469357, 0.080369696 , -9.753824   , -0.00180564111, -0.000970764842, -0.000512413448, -0.226843745, -0.135566935, 0.452002168 , -0.009556034, -0.009049662, 2.622886    , 1.7         , 3           , 50          , 0           , 0
-0.08824944 , 0.0804195553, -9.8210535  , -0.00575436745, -0.002123766, -0.00109766121, -0.2266415  , -0.135769174, 0.451934755 , -0.00961348 , -0.009071005, 2.622875    , 1.71        , 3           , 11          , 0.008280892 , 0.008280883
-0.0774597451, 0.0966702551, -9.860226   , -0.00432896 , -0.00436672661, 0.002578439 , -0.2266415  , -0.135769174, 0.451934755 , -0.009657009, -0.009114423, 2.6229012   , 1.72        , 3           , 12          , 0.0411264375, 0
-0.08287155 , 0.0834352   , -9.797496   , -0.000405474944, 0.0012913018, -0.00191504485, -0.226843745, -0.135836586, 0.451732516 , -0.009660887, -0.009101694, 2.62288213  , 1.73        , 3           , 50          , 0           , 0
-0.0675051659, 0.108227149 , -9.710043   , 0.00355217862, 0.00103648729, 0.002058483 , -0.2266415  , -0.135701761, 0.451867342 , -0.009625552, -0.009091131, 2.62290215  , 1.74        , 3           , 11          , 0.008280892 , 0.008280883
-0.07013042 , 0.1007452   , -9.756648   , 0.00128170091, 0.002992157 , -0.000209314574, -0.2265741  , -0.135701761, 0.451934755 , -0.009612713, -0.00906123 , 2.62290025  , 1.75        , 3           , 12          , 0.0411264375, 0
-0.08307271 , 0.09346412  , -9.826836   , -0.006611569, -0.000158541312, -0.00138111191, -0.2265741  , -0.135701761, 0.451934755 , -0.009678703, -0.009062949, 2.62288642  , 1.76        , 3           , 50          , 0           , 0
-0.101485156, 0.102285668 , -9.836431   , -0.0035155362, 0.00211499119, -0.00051554176, -0.2265741  , -0.135971412, 0.451867342 , -0.00971381 , -0.00904185 , 2.62288117  , 1.77        , 3           , 11          , 0.008280892 , 0.008280883
-0.0950527042, 0.115231134 , -9.817345   , 0.00044917615, 0.000170780055, 0.00119508256, -0.226776332, -0.135904   , 0.451799929 , -0.009709425, -0.009040027, 2.62289262  , 1.78        , 3           , 12          , 0.0411264375, 0
-0.105120935, 0.08185932  , -9.788181   , 0.00297560939, 0.00300361356, -0.00133156287, -0.226708919, -0.136173651, 0.451867342 , -0.009679546, -0.009010121, 2.62287927  , 1.79        , 3           , 50          , 0           , 0
-0.120005034, 0.07992394  , -9.698359   , 0.002686856 , 0.00296704075, -0.00133315974, -0.226708919, -0.136173651, 0.451867342 , -0.009660588, -0.009024622, 2.622866    , 1.8         , 3           , 11          , 0.008243052 , 0.008243037
-0.07182467 , 0.0826349556, -9.732781   , -0.00210152776, 0.0004004869, -0.000794378051, -0.2265741  , -0.135566935, 0.451732516 , -0.009681531, -0.009020694, 2.62285781  , 1.81        , 3           , 12          , 0.0418733433, 0
-0.08855648 , 0.08589916  , -9.839111   , 0.000159355142, 0.000415773684, 0.00175899465, -0.226776332, -0.135769174, 0.452002168 , -0.009680096, -0.009016366, 2.62287545  , 1.82        , 3           , 50          , 0           , 0
-0.09968452 , 0.09556064  , -9.855428   , -0.000685463659, -0.0001530879, 0.00118910091, -0.226708919, -0.135634348, 0.451799929 , -0.009687059, -0.009017783, 2.62288737  , 1.83        , 3           , 11          , 0.008243052 , 0.008243037
-0.09360619 , 0.0934896   , -9.797989   , 0.0007311043, -0.00126980385, -0.000783812255, -0.226708919, -0.135634348, 0.451799929 , -0.009679679, -0.009030556, 2.62287927  , 1.84        , 3           , 12          , 0.0418733433, 0
-0.08265861 , 0.106817961 , -9.774346   , 0.00100458891, 0.00070306554, 0.0006332294, -0.226843745, -0.135971412, 0.451732516 , -0.00966968853, -0.009023463, 2.622886    , 1.85        , 3           , 50          , 0           , 0
-0.09440242 , 0.07268452  , -9.780906   , 0.00241558137, 0.000712609966, -0.00133794814, -0.227113381, -0.135769174, 0.451732516 , -0.009645412, -0.009016467, 2.62287259  , 1.86        , 3           , 11          , 0.008243052 , 0.008243037
-0.111333527, 0.0940876   , -9.780043   , -0.0046482035, 0.00122798921, -0.00193507876, -0.226776332, -0.135701761, 0.451867342 , -0.009691717, -0.009004376, 2.622853    , 1.87        , 3           , 12          , 0.0418733433, 0
-0.105365627, 0.0833722949, -9.834279   , -0.0032288623, 0.000111286652, 0.000895145 , -0.226776332, -0.135701761, 0.451867342 , -0.009724086, -0.009003176, 2.622862    , 1.88        , 3           , 50          , 0           , 0
-0.0776463  , 0.08893114  , -9.839468   , -0.005755533, -0.00300311949, 0.000595981837, -0.226776332, -0.135836586, 0.451867342 , -0.009781699, -0.009033147, 2.62286782  , 1.89        , 3           , 11          , 0.008243052 , 0.008243037
-0.110552207, 0.114880607 , -9.79350948 , 0.0002489814, -0.00302292267, -0.00050772843, -0.226843745, -0.135566935, 0.451799929 , -0.009681283, -0.009142443, 2.62286258  , 1.9         , 3           , 12          , 0.0426482633, 0
-0.120207265, 0.0783469   , -9.764808   , 0.001076909 , 0.0009247193, -0.0002151651, -0.226776332, -0.135634348, 0.452002168 , -0.009670493, -0.009133216, 2.62286019  , 1.91        , 3           , 50          , 0           , 0
-0.109764531, 0.07155263  , -9.793231   , -0.000629293441, 0.003165778 , -0.00106720778, -0.226776332, -0.135634348, 0.452002168 , -0.00967668649, -0.009101663, 2.6228497   , 1.92        , 3           , 11          , 0.00818722  , 0.008187215
-0.100583926, 0.07645736  , -9.807605   , 0.0005212351, -0.0007684874, 0.00119228475, -0.226708919, -0.135904   , 0.451799929 , -0.009671584, -0.009109232, 2.62286115  , 1.93        , 3           , 12          , 0.0426482633, 0
-0.0965121761, 0.07953129  , -9.796713   , -0.002007482, -0.00360133126, -0.000236594322, -0.226708919, -0.135971412, 0.451934755 , -0.00969164 , -0.009145266, 2.62285924  , 1.94        , 3           , 50          , 0           , 0
-0.09925468 , 0.0973221362, -9.844118   , 0.0007748028, 0.0048647197, -0.00049294444, -0.226843745, -0.135971412, 0.452137    , -0.009683843, -0.00909667 , 2.622854    , 1.95        , 3           , 11          , 0.00818722  , 0.008187215
-0.09254664 , 0.09494281  , -9.830969   , -0.00316153979, 0.00117763155, -0.00136463507, -0.226843745, -0.135971412, 0.452137    , -0.00971533451, -0.009085026, 2.62284017  , 1.96        , 3           , 12          , 0.0426482633, 0
-0.0834190845, 0.0864882   , -9.764493   , 0.0005166524, -0.000205365664, -0.00191475975, -0.2266415  , -0.135971412, 0.452002168 , -0.009709992, -0.00908726547, 2.622821    , 1.97        , 3           , 50          , 0           , 0
-0.06929883 , 0.101567321 , -9.73584652 , 0.003335908 , 0.00122156867, 0.00149102916, -0.226911157, -0.135904   , 0.451867342 , -0.009676768, -0.009074906, 2.62283587  , 1.98        , 3           , 11          , 0.00818722  , 0.008187215
-0.08667718 , 0.0699386448, -9.796225   , 0.00221498078, -0.0007570313, -0.000212500963, -0.226843745, -0.135769174, 0.452002168 , -0.0096546  , -0.009082496, 2.622834    , 1.99        , 3           , 12          , 0.0426482633, 0
-0.100683413, 0.103083618 , -9.808398   , -0.00362536265, -0.00138920289, 0.00145317509, -0.22650668 , -0.135904   , 0.451799929 , -0.00957192 , -0.009135911, 2.6228478   , 2           , 3           , 50          , 0           , 0
-0.08455311 , 0.08981039  , -9.808783   , -0.00162811764, -0.005599313, 0.0003257345, -0.22650668 , -0.135904   , 0.451799929 , -0.009588236, -0.009191871, 2.62285161  , 2.01        , 3           , 11          , 0.00812348  , 0.008123475
-0.08746615 , 0.103892252 , -9.826374   , -0.00163278892, -0.00475461967, -0.0005205759, -0.226843745, -0.135701761, 0.451934755 , -0.009604521, -0.009239464, 2.62284684  , 2.02        , 3           , 12          , 0.0434493646, 0
-0.100875333, 0.0931084   , -9.793526   , 0.002272886 , 0.0051269   , 0.00036066107, -0.226978555, -0.135904   , 0.452137    , -0.00958182 , -0.009188163, 2.6228497   , 2.03        , 3           , 50          , 0           , 0
-0.100689441, 0.08262077  , -9.761929   , -0.00137922133, 0.000878587365, -0.00220580515, -0.2266415  , -0.135769174, 0.4516651   , -0.00959541 , -0.009179589, 2.62282777  , 2.04        , 3           , 11          , 0.00812348  , 0.008123475
-0.07829388 , 0.08520781  , -9.80378151 , -0.004190706, -0.00139302516, 0.000602928631, -0.2266415  , -0.135769174, 0.4516651   , -0.009637373, -0.00919346 , 2.62283349  , 2.05        , 3           , 12          , 0.0434493646, 0
-0.07222387 , 0.09421465  , -9.819517   , 0.00116933824, -0.000230477744, -0.0002179261, -0.226911157, -0.135769174, 0.451934755 , -0.009625658, -0.009195786, 2.62283158  , 2.06        , 3           , 50          , 0           , 0
-0.09148403 , 0.085760206 , -9.788061   , -0.00192415831, -0.00278557022, 0.000893831835, -0.226708919, -0.135769174, 0.452069581 , -0.009644986, -0.009223554, 2.62284112  , 2.07        , 3           , 11          , 0.00812348  , 0.008123475
-0.06688191 , 0.101664685 , -9.772891   , -0.0002508337, 0.00144936435, 0.0003431675, -0.226843745, -0.135904   , 0.451799929 , -0.009647525, -0.009209027, 2.622844    , 2.08        , 3           , 12          , 0.0434493646, 0
-0.08444421 , 0.108645335 , -9.774804   , 0.004847041 , -0.00161347724, -0.001615663, -0.226843745, -0.135904   , 0.451799929 , -0.009598908, -0.009225316, 2.62282872  , 2.09        , 3           , 50          , 0           , 0
-0.10147953 , 0.120144255 , -9.780311   , -0.00110120943, 0.00121747516, -0.00192092487, -0.226776332, -0.135769174, 0.451867342 , -0.009614292, -0.009134344, 2.62280917  , 2.1         , 3           , 11          , 0.008046094 , 0.008046084
-0.0609499142, 0.09538381  , -9.804059   , -0.00166139146, 0.0003689623, -0.001077248, -0.2266415  , -0.135836586, 0.451867342 , -0.009630805, -0.00913076 , 2.6227982   , 2.11        , 3           , 12          , 0.0442748964, 0
-0.0800517946, 0.086611256 , -9.812377   , -0.00448082527, -0.000494829554, 3.84305458E-05, -0.2266415  , -0.135769174, 0.451934755 , -0.009675618, -0.009135704, 2.62279916  , 2.12        , 3           , 50          , 0           , 0
-0.108492911, 0.09772692  , -9.798536   , 2.28330609E-05, 0.002632947 , 0.000346812245, -0.2266415  , -0.135769174, 0.451934755 , -0.009675417, -0.00910934247, 2.622802    , 2.13        , 3           , 11          , 0.008046094 , 0.008046084
-0.0871259049, 0.1131691   , -9.76893    , 0.00172428961, 0.000955009 , -0.00219072681, -0.2266415  , -0.135701761, 0.4516651   , -0.009657975, -0.009100004, 2.62278     , 2.14        , 3           , 12          , 0.0442748964, 0
-0.0886692554, 0.0974128842, -9.77443    , 0.00371471327, -0.00128413085, 0.00177054468, -0.226708919, -0.135701761, 0.452002168 , -0.00962099 , -0.009112672, 2.6227982   , 2.15        , 3           , 50          , 0           , 0
-0.0780656  , 0.06895198  , -9.801135   , -0.0008150157, 0.000656259654, -0.000225250813, -0.2266415  , -0.135836586, 0.451867342 , -0.009629118, -0.009106132, 2.62279534  , 2.16        , 3           , 11          , 0.008046094 , 0.008046084
-0.08836152 , 0.08523859  , -9.778095   , -0.000512909668, -0.00328374049, 5.25282667E-05, -0.2266415  , -0.135836586, 0.451867342 , -0.009634255, -0.009138963, 2.6227963   , 2.17        , 3           , 12          , 0.0442748964, 0
-0.09042716 , 0.09881633  , -9.783027   , 0.00257607875, 0.000116045208, -0.00162300293, -0.226708919, -0.135836586, 0.4516651   , -0.009608347, -0.009137959, 2.62278     , 2.18        , 3           , 50          , 0           , 0
-0.116664223, 0.09691273  , -9.796343   , 0.00172731525, 0.0006734517, 0.000634213851, -0.226708919, -0.135566935, 0.451799929 , -0.009591131, -0.009131163, 2.62278676  , 2.19        , 3           , 11          , 0.008046094 , 0.008046084
-0.09273505 , 0.08720217  , -9.809759   , -0.00337446085, 0.00343211484, -0.00192814262, -0.2265741  , -0.135769174, 0.452069581 , -0.00962867 , -0.00913053 , 2.62276721  , 2.2         , 3           , 12          , 0.0451231971, 0
-0.0859296843, 0.09293601  , -9.794316   , -0.00224008178, 0.00259506144, -0.00107656408, -0.2265741  , -0.135769174, 0.452069581 , -0.009650971, -0.009104685, 2.62275624  , 2.21        , 3           , 50          , 0           , 0
-0.096346274, 0.09216352  , -9.796659   , 0.00200115517, 0.00177901855, 7.20378157E-05, -0.226843745, -0.136173651, 0.451799929 , -0.009630964, -0.009086888, 2.62275624  , 2.22        , 3           , 11          , 0.007964447 , 0.007964434
-0.10450387 , 0.09225316  , -9.794913   , 0.00173315767, -0.00103853992, 0.000913994 , -0.226708919, -0.135701761, 0.452002168 , -0.009613716, -0.009097186, 2.62276578  , 2.23        , 3           , 12          , 0.0451231971, 0
-0.105143234, 0.1094408   , -9.8047905  , 0.000597221835, 8.00775E-05 , -0.0002196877, -0.226911157, -0.135971412, 0.451934755 , -0.009607725, -0.009096407, 2.62276387  , 2.24        , 3           , 50          , 0           , 0
-0.09433152 , 0.07274198  , -9.79807949 , -0.000807126344, -0.00133729388, 0.00118424522, -0.226911157, -0.135971412, 0.451934755 , -0.009615905, -0.009109665, 2.62277532  , 2.25        , 3           , 11          , 0.007964447 , 0.007964434
-0.08345636 , 0.07887004  , -9.779892   , -0.00166186644, 6.47993E-05 , 0.00033485156, -0.226911157, -0.135836586, 0.451867342 , -0.009632555, -0.009108985, 2.62277913  , 2.26        , 3           , 12          , 0.0451231971, 0
-0.08136992 , 0.09826492  , -9.784768   , 0.0005950865, 0.000643210835, 0.0009113299, -0.227045968, -0.135769174, 0.452002168 , -0.009626686, -0.009102466, 2.62278771  , 2.27        , 3           , 50          , 0           , 0
-0.0871299952, 0.077531904 , -9.77179    , 0.00143876334, 0.00121206685, -0.000496538647, -0.226978555, -0.135769174, 0.451934755 , -0.009612253, -0.009090393, 2.622783    , 2.28        , 3           , 11          , 0.007964447 , 0.007964434
-0.101646736, 0.105725572 , -9.785795   , 0.00115821988, 0.000928594265, 0.000349322683, -0.226978555, -0.135769174, 0.451934755 , -0.009600701, -0.009081073, 2.62278628  , 2.29        , 3           , 12          , 0.0451231971, 0
-0.0989031643, 0.0740987   , -9.783195   , 0.0006156131, 0.0008894962, -0.000218894347, -0.226776332, -0.136038825, 0.451799929 , -0.009559735, -0.009126555, 2.622784    , 2.3         , 3           , 50          , 0           , 0
-0.07916017 , 0.08792837  , -9.804682   , 5.46152332E-05, 4.09794447E-05, -0.000787905, -0.226843745, -0.135769174, 0.452002168 , -0.009559115, -0.00912622 , 2.62277627  , 2.31        , 3           , 11          , 0.007874549 , 0.007874534
-0.06676167 , 0.09015703  , -9.83938    , 5.543098E-05, 4.09833447E-05, 0.000624782231, -0.226708919, -0.135769174, 0.451934755 , -0.009558618, -0.009125752, 2.622782    , 2.32        , 3           , 12          , 0.0459927   , 0
-0.06952726 , 0.09729092  , -9.804568   , 5.821898E-05, -0.0005221468, 0.0006239144, -0.226708919, -0.135769174, 0.451934755 , -0.009558094, -0.009130912, 2.62278867  , 2.33        , 3           , 50          , 0           , 0
-0.08630228 , 0.100594275 , -9.789315   , -0.00164306 , 0.0005926482, -0.00136001362, -0.227383032, -0.135971412, 0.451799929 , -0.0095744  , -0.009125117, 2.62277484  , 2.34        , 3           , 11          , 0.007874549 , 0.007874534
-0.09532678 , 0.0949232951, -9.815623   , -0.0002289681, 0.000602207438, 0.00203702063, -0.226776332, -0.135634348, 0.451867342 , -0.009576876, -0.009118901, 2.62279534  , 2.35        , 3           , 12          , 0.0459927   , 0
-0.104403704, 0.101707682 , -9.788997   , -0.000223881536, -0.0005240552, 0.00118767237, -0.2266415  , -0.135904   , 0.451934755 , -0.009579223, -0.009124026, 2.62280679  , 2.36        , 3           , 50          , 0           , 0
-0.110483728, 0.116721496 , -9.804349   , 0.000339340651, -0.0005202431, -0.00163506833, -0.2265741  , -0.135971412, 0.451799929 , -0.00957568 , -0.00912938453, 2.62279058  , 2.37        , 3           , 11          , 0.007874549 , 0.007874534
-0.0939227  , 0.10387142  , -9.797949   , -0.00332098175, -0.00251602125, 0.000887611 , -0.2265741  , -0.135971412, 0.451799929 , -0.009608973, -0.00915445853, 2.6228      , 2.38        , 3           , 12          , 0.0459927   , 0
-0.06679244 , 0.0990591049, -9.80318451 , -0.002488457, 0.000305355585, -0.000516786, -0.226776332, -0.135836586, 0.452002168 , -0.009633809, -0.009151455, 2.62279439  , 2.39        , 3           , 50          , 0           , 0
-0.08608397 , 0.08343764  , -9.787126   , -0.00421570847, -0.0008239419, -0.00193865946, -0.2265741  , -0.135701761, 0.452137    , -0.009735756, -0.009146391, 2.62277627  , 2.4         , 3           , 11          , 0.007780921 , 0.00778090954
-0.104423262, 0.06784334  , -9.782358   , -0.000833644939, 0.0008883745, 0.000340047118, -0.2266415  , -0.135904   , 0.451799929 , -0.009744124, -0.009137475, 2.62277913  , 2.41        , 3           , 12          , 0.04688191  , 0
-0.06408657 , 0.0745433047, -9.768462   , -0.000247718242, -0.003331281, 0.0006187095, -0.2266415  , -0.135904   , 0.451799929 , -0.00974666048, -0.009170726, 2.62278581  , 2.42        , 3           , 50          , 0           , 0
-0.08567551 , 0.0789328963, -9.790756   , 1.97896443E-05, -0.000513724866, -0.00107085891, -0.226776332, -0.135904   , 0.452069581 , -0.009746364, -0.00917596649, 2.62277532  , 2.43        , 3           , 11          , 0.007780921 , 0.00778090954
-0.0960898846, 0.07860855  , -9.792193   , 1.1588796E-05, 0.00117566623, -0.000785717857, -0.226776332, -0.135566935, 0.452137    , -0.009746177, -0.00916429 , 2.62276721  , 2.44        , 3           , 12          , 0.04688191  , 0
-0.0997773856, 0.09860984  , -9.822874   , -0.000837085652, 0.00145150151, -0.0007892347, -0.226439267, -0.135836586, 0.451934755 , -0.009754473, -0.00914985 , 2.622759    , 2.45        , 3           , 50          , 0           , 0
-0.102438115, 0.08135359  , -9.781383   , 0.00115809846, -0.00191390247, 0.00175761362, -0.226439267, -0.135836586, 0.451934755 , -0.009743055, -0.009168817, 2.62277722  , 2.46        , 3           , 11          , 0.007780921 , 0.00778090954
-0.08819692 , 0.09608436  , -9.783472   , 0.001438805 , -0.0016304286, 0.00119428965, -0.226843745, -0.135836586, 0.451934755 , -0.009728778, -0.009185004, 2.62278962  , 2.47        , 3           , 12          , 0.04688191  , 0
-0.06623652 , 0.10493993  , -9.809483   , -0.00195728685, -0.0002455233, 0.00118065614, -0.226911157, -0.135836586, 0.452002168 , -0.009748462, -0.009187344, 2.622801    , 2.48        , 3           , 50          , 0           , 0
-0.07756161 , 0.100158527 , -9.824054   , -0.003374745, 0.0005896166, -0.0008023889, -0.226708919, -0.136106238, 0.451867342 , -0.009782135, -0.009181528, 2.622793    , 2.49        , 3           , 11          , 0.007780921 , 0.00778090954
-0.08318539 , 0.08221406  , -9.83547    , 0.000321629515, 0.00149470242, -0.0005013286, -0.226708919, -0.136106238, 0.451867342 , -0.009730919, -0.009107508, 2.62278771  , 2.5         , 3           , 12          , 0.0477894247, 0
-0.06790957 , 0.08773955  , -9.787872   , -0.00193474523, 0.000634721946, -0.00249092816, -0.226776332, -0.135769174, 0.451867342 , -0.009750038, -0.009101403, 2.622763    , 2.51        , 3           , 50          , 0           , 0
-0.1002284  , 0.07860498  , -9.776857   , -0.003060196, 6.395893E-05, 4.577324E-05, -0.226708919, -0.135701761, 0.4522044   , -0.009780644, -0.00910075847, 2.622763    , 2.52        , 3           , 11          , 0.007685222 , 0.007685213
-0.09476746 , 0.0830270052, -9.769114   , -0.00362349255, -0.000221425216, 0.000325242931, -0.226911157, -0.135836586, 0.451934755 , -0.009816909, -0.009102942, 2.62276626  , 2.53        , 3           , 12          , 0.0477894247, 0
-0.08714581 , 0.0961916447, -9.818719   , -0.00107296079, -0.00189362443, 0.00089956657, -0.226911157, -0.135836586, 0.451934755 , -0.009827723, -0.009121789, 2.62277532  , 2.54        , 3           , 50          , 0           , 0
-0.08505555 , 0.118267722 , -9.8159     , 0.00229722355, 0.00178963738, -0.000491676154, -0.2266415  , -0.135769174, 0.451934755 , -0.009804705, -0.009103942, 2.62277055  , 2.55        , 3           , 11          , 0.007685222 , 0.007685213
-0.1025732  , 0.09500682  , -9.815226   , 0.0003110558, 0.00346565433, -0.0019109787, -0.2266415  , -0.135769174, 0.452069581 , -0.009801418, -0.009069474, 2.62275052  , 2.56        , 3           , 12          , 0.0477894247, 0
-0.103952333, 0.09723771  , -9.803024   , 2.65678664E-05, 0.004308449 , 0.00176199363, -0.226708919, -0.135769174, 0.451934755 , -0.009801307, -0.009026219, 2.62276816  , 2.57        , 3           , 50          , 0           , 0
-0.08744275 , 0.0803287849, -9.797092   , 0.00117111986, 0.0012188711, 0.0009148755, -0.226708919, -0.135769174, 0.451934755 , -0.009789677, -0.009013941, 2.62277722  , 2.58        , 3           , 11          , 0.007685222 , 0.007685213
-0.101087317, 0.07865341  , -9.788163   , -0.00108894752, 0.00120358821, -0.000225809708, -0.2265741  , -0.136038825, 0.452002168 , -0.009800544, -0.009001928, 2.62277484  , 2.59        , 3           , 12          , 0.0477894247, 0
-0.097570546, 0.102107808 , -9.797531   , -0.0007578085, 0.0008901957, -0.00135584152, -0.226708919, -0.135634348, 0.452137    , -0.009725229, -0.009051356, 2.62276     , 2.6         , 3           , 50          , 0           , 0
-0.07500883 , 0.0901740938, -9.81594    , -0.0007603591, 0.00173489866, 0.00147083506, -0.226843745, -0.135971412, 0.452069581 , -0.009732964, -0.009033865, 2.62277484  , 2.61        , 3           , 11          , 0.00758876652, 0.00758875767
-0.08278939 , 0.09376784  , -9.784346   , 0.00177246565, 0.00344147626, 0.000355141063, -0.226843745, -0.135971412, 0.452069581 , -0.009715269, -0.008999417, 2.62277818  , 2.62        , 3           , 12          , 0.0487139262, 0
-0.08061271 , 0.08920707  , -9.777568   , 0.00206875824, 0.000346162822, -0.00219115242, -0.226911157, -0.135904   , 0.451934755 , -0.009694385, -0.008996168, 2.62275624  , 2.63        , 3           , 50          , 0           , 0
-0.102167331, 0.104783222 , -9.7722435  , -0.00272503821, -0.00109412987, -0.0013680975, -0.2266415  , -0.136038825, 0.452002168 , -0.009721514, -0.00900724251, 2.622743    , 2.64        , 3           , 11          , 0.00758876652, 0.00758875767
-0.09166534 , 0.102500446 , -9.800649   , 0.000375991978, 0.0003347116, 0.0009088581, -0.2266415  , -0.135904   , 0.451799929 , -0.009717835, -0.009003807, 2.62275147  , 2.65        , 3           , 12          , 0.0487139262, 0
-0.09573462 , 0.0651337057, -9.811682   , -0.003008696, -0.0008144739, -0.00108644308, -0.2266415  , -0.135904   , 0.451799929 , -0.009747824, -0.009012057, 2.622741    , 2.66        , 3           , 50          , 0           , 0
-0.08064469 , 0.0735589   , -9.820119   , -0.00159672508, -0.0008049248, -0.00136239582, -0.226439267, -0.135769174, 0.451732516 , -0.009763671, -0.009020239, 2.62272763  , 2.67        , 3           , 11          , 0.00758876652, 0.00758875767
-0.0937143862, 0.103147507 , -9.851283   , -0.001040888, 0.00088828255, -0.00248730835, -0.226776332, -0.135836586, 0.451867342 , -0.009773854, -0.009011599, 2.62270236  , 2.68        , 3           , 12          , 0.0487139262, 0
-0.09597513 , 0.08762856  , -9.79125    , -0.00215920573, -0.00109030516, 0.000329761067, -0.226708919, -0.135769174, 0.451934755 , -0.009795477, -0.00902247 , 2.6227057   , 2.69        , 3           , 50          , 0           , 0
-0.103045866, 0.0785552338, -9.752473   , 0.000138660907, 0.0005947288, -0.0005052968, -0.226708919, -0.135769174, 0.451934755 , -0.009709414, -0.009051689, 2.6227      , 2.7         , 3           , 11          , 0.00749088544, 0.00749088451
-0.0759007856, 0.07107684  , -9.769923   , 0.00437899353, 6.025369E-05, 0.00149135164, -0.22650668 , -0.136038825, 0.451799929 , -0.009665759, -0.009050942, 2.62271523  , 2.71        , 3           , 12          , 0.04965418  , 0
-0.1125568  , 0.09778381  , -9.801279   , -0.00211238954, -0.00110994151, -0.000518435845, -0.226708919, -0.135701761, 0.452137    , -0.009686837, -0.009062091, 2.62271     , 2.72        , 3           , 50          , 0           , 0
-0.110894494, 0.1180999   , -9.810223   , -0.00209131651, -0.00533341663, -0.0002424074, -0.226911157, -0.135769174, 0.451934755 , -0.009707732, -0.009115446, 2.622708    , 2.73        , 3           , 11          , 0.00749088544, 0.00749088451
-0.09522122 , 0.09902598  , -9.82826    , -0.0009858855, -0.000257601583, 0.00118335837, -0.2265741  , -0.135634348, 0.451934755 , -0.009717699, -0.009117907, 2.62272     , 2.74        , 3           , 12          , 0.04965418  , 0
-0.07416186 , 0.129320651 , -9.786392   , 0.000409446249, 0.002849157 , -0.00134812086, -0.2265741  , -0.135634348, 0.451934755 , -0.009713479, -0.009089548, 2.6227057   , 2.75        , 3           , 50          , 0           , 0
-0.08347727 , 0.0935826451, -9.727401   , 0.004081811 , 0.00287399068, 8.168648E-05, -0.226708919, -0.135904   , 0.452137    , -0.009672667, -0.009060803, 2.62270665  , 2.76        , 3           , 11          , 0.00749088544, 0.00749088451
-0.110686481, 0.0822623745, -9.754775   , 0.00491958531, 0.004569106 , -0.00188952126, -0.226776332, -0.135769174, 0.451934755 , -0.009623296, -0.009015297, 2.62268758  , 2.77        , 3           , 12          , 0.04965418  , 0
-0.0897802  , 0.0940585   , -9.845867   , -0.002125262, 0.00142414263, -0.00107960543, -0.226708919, -0.135836586, 0.451799929 , -0.00964445 , -0.009001159, 2.62267613  , 2.78        , 3           , 50          , 0           , 0
-0.112174548, 0.107913248 , -9.862252   , -0.0009854704, -0.0005391714, -0.0005123003, -0.226708919, -0.135836586, 0.451799929 , -0.009654259, -0.0090066  , 2.62267137  , 2.79        , 3           , 11          , 0.00749088544, 0.00749088451
-0.09214468 , 0.0993598   , -9.80428    , 0.001245511 , 0.00138884725, -0.000216579, -0.226439267, -0.136038825, 0.452137    , -0.009676678, -0.009100631, 2.62266946  , 2.8         , 3           , 12          , 0.05060902  , 0
-0.07192412 , 0.10167329  , -9.758014   , 0.00294302334, 0.0008371777, 7.29919557E-05, -0.226911157, -0.135701761, 0.452002168 , -0.009647253, -0.009092252, 2.62267041  , 2.81        , 3           , 50          , 0           , 0
-0.06839123 , 0.08906053  , -9.77657    , 0.00435187947, 0.00140985532, -0.0007671677, -0.226843745, -0.135701761, 0.452137    , -0.009603662, -0.009078227, 2.62266231  , 2.82        , 3           , 11          , 0.007393685 , 0.007393686
-0.0863089859, 0.104159616 , -9.776193   , -0.0007356588, 0.002220173 , -0.000224495743, -0.226843745, -0.135701761, 0.452137    , -0.009610997, -0.00905605 , 2.62266     , 2.83        , 3           , 12          , 0.05060902  , 0
-0.08081911 , 0.09209013  , -9.828631   , -0.00326725258, 0.000232029837, 0.0006082266, -0.226776332, -0.135769174, 0.452002168 , -0.009643725, -0.00905367 , 2.62266612  , 2.84        , 3           , 50          , 0           , 0
-0.103316426, 0.07022755  , -9.823923   , -0.000172362357, 0.00250555715, -0.0005039654, -0.226843745, -0.135904   , 0.451934755 , -0.009645401, -0.009028664, 2.62266088  , 2.85        , 3           , 11          , 0.007393685 , 0.007393686
-0.1061586  , 0.07462129  , -9.779179   , 0.0004027388, 0.0005384238, 0.000343243126, -0.2266415  , -0.135836586, 0.451934755 , -0.009641403, -0.009023246, 2.62266421  , 2.86        , 3           , 12          , 0.05060902  , 0
-0.09200673 , 0.08704792  , -9.766816   , 0.00548175  , 0.001417496 , -0.000479362527, -0.2266415  , -0.135836586, 0.451934755 , -0.009586541, -0.009009117, 2.622659    , 2.87        , 3           , 50          , 0           , 0
-0.09827121 , 0.09209256  , -9.769102   , 0.0009705435, -2.08856945E-05, 0.0006275467, -0.2266415  , -0.135634348, 0.452002168 , -0.00957689248, -0.009009265, 2.62266564  , 2.88        , 3           , 11          , 0.007393685 , 0.007393686
-0.104098164, 0.08908525  , -9.793567   , -0.00186159927, 0.00164940744, 0.00146459334, -0.226776332, -0.135836586, 0.452069581 , -0.00959564 , -0.008992632, 2.62268     , 2.89        , 3           , 12          , 0.05060902  , 0
-0.0830299258, 0.09840865  , -9.82139    , -0.00324296486, 0.000750376552, -0.000239184839, -0.2265741  , -0.135836586, 0.451934755 , -0.009575147, -0.009071061, 2.622677    , 2.9         , 3           , 50          , 0           , 0
-0.06905147 , 0.08034295  , -9.864749   , -0.0009918259, 0.00217347546, -0.00248677959, -0.2265741  , -0.135836586, 0.451934755 , -0.00958483852, -0.00904956553, 2.62265229  , 2.91        , 3           , 11          , 0.007296883 , 0.00729687838
-0.08808851 , 0.07608644  , -9.874403   , -0.00408294937, -0.000663177168, 0.000319769431, -0.226708919, -0.135769174, 0.451867342 , -0.00962569751, -0.009056166, 2.62265515  , 2.92        , 3           , 12          , 0.051577352 , 0
-0.08407292 , 0.09920062  , -9.785236   , -0.00125547824, -0.00148877734, -0.00136358768, -0.227045968, -0.135904   , 0.451934755 , -0.009638131, -0.009071183, 2.6226418   , 2.93        , 3           , 50          , 0           , 0
-0.08329418 , 0.116941221 , -9.697021   , 0.00409546075, 0.00164472859, -0.00105125527, -0.2266415  , -0.136038825, 0.451799929 , -0.009597079, -0.009054838, 2.62263131  , 2.94        , 3           , 11          , 0.007296883 , 0.00729687838
-0.0683500245, 0.102038063 , -9.744877   , 0.00239974353, 0.002196407 , 0.00176708563, -0.2266415  , -0.136038825, 0.451799929 , -0.00957324 , -0.009032706, 2.62264848  , 2.95        , 3           , 12          , 0.051577352 , 0
-0.0757064745, 0.104190059 , -9.821762   , -0.003231235, -0.001783713, -0.00165577768, -0.226708919, -0.135701761, 0.451799929 , -0.009605403, -0.009050701, 2.62263227  , 2.96        , 3           , 50          , 0           , 0
-0.09445902 , 0.081491515 , -9.849571   , -0.00518977456, -0.00545742735, -0.00110556243, -0.226978555, -0.135971412, 0.452002168 , -0.009657206, -0.009105379, 2.62262177  , 2.97        , 3           , 11          , 0.007296883 , 0.00729687838
-0.116720334, 0.07633515  , -9.848858   , -0.006058544, -0.0009581121, 0.000310116971, -0.2265741  , -0.135701761, 0.452069581 , -0.009717821, -0.009114932, 2.62262464  , 2.98        , 3           , 12          , 0.051577352 , 0
-0.07669731 , 0.08501269  , -9.751792   , 0.00267496263, 0.00332456967, -0.00105523632, -0.2265741  , -0.135701761, 0.452069581 , -0.009690971, -0.009081789, 2.62261415  , 2.99        , 3           , 50          , 0           , 0
-0.102694757, 0.08739454  , -9.699099   , 0.004691999 , 0.00137442257, 0.000646026 , -0.2265741  , -0.135634348, 0.452002168 , -0.009585948, -0.009053222, 2.62261987  , 3           , 3           , 11          , 0.007201983 , 0.00720197475
-0.08994803 , 0.0966006145, -9.796593   , -0.00123034848, -0.0006366478, -0.00136242947, -0.226776332, -0.135701761, 0.452002168 , -0.009598128, -0.009059719, 2.62260652  , 3.01        , 3           , 12          , 0.05255816  , 0
-0.09154136 , 0.083407864 , -9.892479   , -0.00660112966, 0.000171755673, -0.00223376183, -0.226843745, -0.135701761, 0.452137    , -0.009663936, -0.009058215, 2.62258458  , 3.02        , 3           , 50          , 0           , 0
-0.114386231, 0.09064865  , -9.819855   , -0.00603915332, 0.001020277 , 3.04735167E-05, -0.226843745, -0.135701761, 0.452137    , -0.00972433 , -0.009048009, 2.62258458  , 3.03        , 3           , 11          , 0.007201983 , 0.00720197475
-0.09866364 , 0.09303948  , -9.780853   , 0.00214909  , 0.00163879944, 0.00119968248, -0.226708919, -0.135836586, 0.451867342 , -0.009702947, -0.009031505, 2.6225965   , 3.04        , 3           , 12          , 0.05255816  , 0
-0.104570717, 0.09264534  , -9.777285   , 0.00214999449, 0.001357232 , 0.000351636 , -0.226708919, -0.135566935, 0.451867342 , -0.009681476, -0.009017899, 2.62259984  , 3.05        , 3           , 50          , 0           , 0
-0.09366854 , 0.09745624  , -9.769949   , -0.00236186478, -8.115283E-05, 0.000328395428, -0.2266415  , -0.135769174, 0.452137    , -0.009705127, -0.009018679, 2.62260318  , 3.06        , 3           , 11          , 0.007201983 , 0.00720197475
-0.0917605758, 0.09215723  , -9.810636   , -0.00149999163, -0.00289107044, 0.00145815685, -0.2266415  , -0.135769174, 0.452137    , -0.00972026 , -0.009047448, 2.622618    , 3.07        , 3           , 12          , 0.05255816  , 0
-0.108330593, 0.0978584439, -9.837858   , 0.000186130826, -0.00147179258, -0.00107460911, -0.226843745, -0.135769174, 0.451867342 , -0.009718302, -0.00906227 , 2.62260747  , 3.08        , 3           , 50          , 0           , 0
-0.08766391 , 0.09614405  , -9.802904   , 0.000746313 , -0.000623279542, -0.00191828585, -0.226911157, -0.135432109, 0.451867342 , -0.009710666, -0.009068688, 2.6225884   , 3.09        , 3           , 11          , 0.007201983 , 0.00720197475
-0.09008655 , 0.10095188  , -9.748665   , 0.000744836 , 0.00215172255, 0.0006284693, -0.226776332, -0.135769174, 0.451934755 , -0.009680707, -0.009130481, 2.62259459  , 3.1         , 3           , 12          , 0.0535504967, 0
-0.09517495 , 0.0964595154, -9.736971   , -0.000647945155, -0.00179973885, 0.000333272037, -0.226439267, -0.135701761, 0.451732516 , -0.00968722 , -0.009148447, 2.622598    , 3.11        , 3           , 50          , 0           , 0
-0.0725132152, 0.116223574 , -9.788693   , -0.00262140343, -0.0026578072, -0.000807398, -0.226439267, -0.135701761, 0.451732516 , -0.009713362, -0.0091751  , 2.6225903   , 3.12        , 3           , 11          , 0.00710929558, 0.007109295
-0.09481616 , 0.09496485  , -9.82963    , 0.00104096532, -0.0009435911, -0.00220036181, -0.226978555, -0.135701761, 0.451934755 , -0.009702751, -0.009184749, 2.62256837  , 3.13        , 3           , 12          , 0.0535504967, 0
-0.115413465, 0.0798482746, -9.824879   , 0.00104366452, -0.00122515007, 5.95040037E-05, -0.22650668 , -0.135566935, 0.452002168 , -0.00969232153, -0.009196994, 2.62256932  , 3.14        , 3           , 50          , 0           , 0
-0.104138121, 0.0930700153, -9.770952   , 0.00187331229, 0.00244092848, 0.0009167085, -0.2266415  , -0.135836586, 0.4515977   , -0.009673671, -0.009172499, 2.622578    , 3.15        , 3           , 11          , 0.00710929558, 0.007109295
-0.110545918, 0.07352342  , -9.706449   , -0.000947752735, 0.00157712866, -0.00079298747, -0.2266415  , -0.135836586, 0.4515977   , -0.009683073, -0.009156804, 2.62257028  , 3.16        , 3           , 12          , 0.0535504967, 0
-0.0767162442, 0.0693751   , -9.797507   , 0.00158670358, 0.00328371371, 0.0009166933, -0.227113381, -0.135904   , 0.451732516 , -0.00966728851, -0.00912388 , 2.62257886  , 3.17        , 3           , 50          , 0           , 0
-0.07119588 , 0.08314446  , -9.885093   , 0.0007425374, 0.00271485536, 0.00147694978, -0.226708919, -0.135432109, 0.452002168 , -0.009659993, -0.009096591, 2.62259316  , 3.18        , 3           , 11          , 0.00710929558, 0.007109295
-0.09247367 , 0.100358121 , -9.831398   , -0.00290703354, -0.00181501731, 0.0008878115, -0.226776332, -0.135769174, 0.451867342 , -0.009689146, -0.009114655, 2.6226027   , 3.19        , 3           , 12          , 0.0535504967, 0
-0.116519839, 0.108188473 , -9.795391   , 0.00107139535, -0.000394246046, -0.0005046481, -0.226776332, -0.135769174, 0.451867342 , -0.009610105, -0.009147839, 2.622597    , 3.2         , 3           , 50          , 0           , 0
-0.108100742, 0.106599472 , -9.755106   , 0.00503257848, -0.0014937591, 0.002337428 , -0.226776332, -0.135836586, 0.451934755 , -0.00955999549, -0.009162552, 2.62262082  , 3.21        , 3           , 11          , 0.00701713562, 0.00701713562
-0.0572623461, 0.0856486261, -9.740341   , 0.00417407136, 0.000471459585, -0.0002063225, -0.227045968, -0.135634348, 0.452069581 , -0.009518234, -0.009157856, 2.622619    , 3.22        , 3           , 12          , 0.0545534566, 0
-0.08784673 , 0.0884079561, -9.783051   , -0.002604988, 0.0004256164, -0.00165061629, -0.226776332, -0.135971412, 0.451934755 , -0.009544135, -0.009153758, 2.62260175  , 3.23        , 3           , 50          , 0           , 0
-0.08133117 , 0.112505376 , -9.859285   , -0.006258993, -0.00297799031, -0.00026025626, -0.226776332, -0.135971412, 0.451934755 , -0.009606704, -0.009183561, 2.62259984  , 3.24        , 3           , 11          , 0.00701713562, 0.00701713562
-0.07087914 , 0.09597307  , -9.81046    , -0.00118769286, -0.000409524248, 4.98911977E-05, -0.226708919, -0.135904   , 0.451799929 , -0.009618586, -0.009187652, 2.62260032  , 3.25        , 3           , 12          , 0.0545534566, 0
-0.07348398 , 0.058750473 , -9.736057   , 0.00388434785, 0.00187737332, -0.0007705447, -0.226843745, -0.135634348, 0.451867342 , -0.00957967 , -0.009168953, 2.62259221  , 3.26        , 3           , 50          , 0           , 0
-0.07586498 , 0.106739745 , -9.774746   , 0.00698981248, 0.002179949 , -0.000473087, -0.22650668 , -0.135904   , 0.451867342 , -0.0095097255, -0.0091472  , 2.62258744  , 3.27        , 3           , 11          , 0.00701713562, 0.00701713562
-0.105745047, 0.11683917  , -9.855387   , -0.001474628, 0.0004332594, -0.0005151987, -0.22650668 , -0.135904   , 0.451867342 , -0.009524425, -0.009142917, 2.6225822   , 3.28        , 3           , 12          , 0.0545534566, 0
-0.109468132, 0.106533945 , -9.864045   , -0.00373183331, 0.000136418486, 0.0008865191, -0.226911157, -0.135432109, 0.451799929 , -0.009561824, -0.009141468, 2.62259126  , 3.29        , 3           , 50          , 0           , 0
-0.10231211 , 0.117982283 , -9.805185   , -0.004883358, -0.00015558544, -0.00194429629, -0.2265741  , -0.136038825, 0.452137    , -0.009657638, -0.009149313, 2.62257266  , 3.3         , 3           , 11          , 0.006927545 , 0.006927543
-0.0831621438, 0.0711482838, -9.765909   , -0.002058764, -0.000136484188, -0.00136605185, -0.226776332, -0.135904   , 0.452069581 , -0.0096781  , -0.009150809, 2.62255883  , 3.31        , 3           , 12          , 0.0555662   , 0
-0.0908401  , 0.08241312  , -9.73473549 , 0.003016392 , 0.001587285 , -0.0016222808, -0.226776332, -0.135904   , 0.452069581 , -0.009647787, -0.009135094, 2.62254262  , 3.32        , 3           , 50          , 0           , 0
-0.06641419 , 0.101671487 , -9.776504   , -0.00291399332, 0.00126560661, -0.00306305825, -0.2266415  , -0.135769174, 0.451867342 , -0.00967664551, -0.009122735, 2.622512    , 3.33        , 3           , 11          , 0.006927545 , 0.006927543
-0.09210505 , 0.09492841  , -9.828255   , -0.00263198139, 0.0015490863, -0.00136608211, -0.226708919, -0.135701761, 0.452137    , -0.009702839, -0.009107377, 2.6224978   , 3.34        , 3           , 12          , 0.0555662   , 0
-0.113914423, 0.126292616 , -9.820606   , -0.001208621, -0.0004123123, 0.00118030224, -0.2266415  , -0.135634348, 0.452002168 , -0.009715032, -0.009111387, 2.62250972  , 3.35        , 3           , 50          , 0           , 0
-0.09634869 , 0.09394696  , -9.790323   , 0.00584287  , 0.00132482359, -0.000196858091, -0.2266415  , -0.135634348, 0.452002168 , -0.009656585, -0.009098158, 2.62250733  , 3.36        , 3           , 11          , 0.006927545 , 0.006927543
-0.0753780156, 0.0800552443, -9.75813    , 0.0004868445, -0.0006824199, 0.000340157334, -0.226843745, -0.135904   , 0.451732516 , -0.00965174753, -0.00910494849, 2.62251115  , 3.37        , 3           , 12          , 0.0555662   , 0
-0.07344383 , 0.07745558  , -9.796545   , 0.00189168239, 0.0007349538, -0.00021616304, -0.226843745, -0.135634348, 0.452137    , -0.009632811, -0.00909762 , 2.62250876  , 3.38        , 3           , 50          , 0           , 0
-0.10387595 , 0.102209456 , -9.805715   , 0.000764763 , 0.000164183715, -0.000222298637, -0.226776332, -0.135701761, 0.452069581 , -0.00962514151, -0.009095999, 2.62250638  , 3.39        , 3           , 11          , 0.006927545 , 0.006927543
-0.08963299 , 0.114263549 , -9.816855   , -8.766818E-05, 0.0009992635, 0.001187779 , -0.226776332, -0.135701761, 0.452069581 , -0.00963014551, -0.00909465551, 2.62251878  , 3.4         , 3           , 12          , 0.05658796  , 0
-0.0929072946, 0.070994    , -9.819771   , 0.003016491 , 0.00130183273, -0.000775062945, -0.226911157, -0.135769174, 0.4516651   , -0.00959991 , -0.009081711, 2.62251115  , 3.41        , 3           , 50          , 0           , 0
-0.08852326 , 0.07573417  , -9.769096   , 0.0027270054, 0.00298931985, 0.00148652354, -0.226776332, -0.135634348, 0.452069581 , -0.009572771, -0.009051678, 2.62252545  , 3.42        , 3           , 11          , 0.00684017735, 0.006840167
-0.08531044 , 0.08644447  , -9.745072   , 0.00104524218, 0.000162203476, -0.000503479736, -0.2266415  , -0.135836586, 0.452069581 , -0.009562273, -0.009050104, 2.62252069  , 3.43        , 3           , 12          , 0.05658796  , 0
-0.0911027342, 0.11240384  , -9.79563    , 0.002739225 , 0.00045523225, 0.000917543 , -0.2266415  , -0.135836586, 0.452069581 , -0.009534964, -0.009045463, 2.62252927  , 3.44        , 3           , 50          , 0           , 0
-0.07386122 , 0.109999    , -9.811328   , -0.00122172071, 0.001836318 , 0.0009012756, -0.226776332, -0.135836586, 0.451799929 , -0.009547261, -0.009027015, 2.62253833  , 3.45        , 3           , 11          , 0.00684017735, 0.006840167
-0.09519084 , 0.104853161 , -9.81693649 , 0.0005079424, -0.00547291944, -0.00107986736, -0.226911157, -0.135701761, 0.452069581 , -0.009542087, -0.009081846, 2.62252831  , 3.46        , 3           , 12          , 0.05658796  , 0
-0.100518882, 0.08632977  , -9.791743   , -0.003477116, 0.000976342242, 0.000606900838, -0.226843745, -0.135701761, 0.451934755 , -0.009576913, -0.009072025, 2.622534    , 3.47        , 3           , 50          , 0           , 0
-0.0880345553, 0.07129444  , -9.792162   , -0.0012197484, 0.00127318408, -0.0005122795, -0.2265741  , -0.135904   , 0.451867342 , -0.009589061, -0.009059342, 2.62252879  , 3.48        , 3           , 11          , 0.00684017735, 0.006840167
-0.101479538, 0.0849567056, -9.782717   , -0.00178648555, 0.00155092683, -0.00136209186, -0.2265741  , -0.135904   , 0.451867342 , -0.009606801, -0.009043964, 2.622515    , 3.49        , 3           , 12          , 0.05658796  , 0
-0.0903694  , 0.09618502  , -9.805636   , -0.00288572628, -0.001287281, 0.0006057969, -0.2266415  , -0.135701761, 0.452002168 , -0.009599996, -0.009091414, 2.62252069  , 3.5         , 3           , 50          , 0           , 0
-0.0766129345, 0.105539039 , -9.817244   , 0.000497908157, -0.000419672346, -0.00163739768, -0.226776332, -0.135836586, 0.452002168 , -0.009594868, -0.009095767, 2.62250447  , 3.51        , 3           , 11          , 0.00675378134, 0.006753775
-0.07980652 , 0.0757254   , -9.7966     , -0.000344048254, -0.00127009221, 0.000335111748, -0.2266415  , -0.135769174, 0.451799929 , -0.00959834 , -0.009108435, 2.62250829  , 3.52        , 3           , 12          , 0.0576179959, 0
-0.104706682, 0.08271548  , -9.77597    , -0.000352086, 0.0004193   , 0.0009027903, -0.2266415  , -0.135769174, 0.451799929 , -0.009601942, -0.009104155, 2.62251687  , 3.53        , 3           , 50          , 0           , 0
-0.112633593, 0.09727521  , -9.784107   , 0.002190334 , 0.000154920708, -0.0004984784, -0.227045968, -0.135769174, 0.452002168 , -0.009579995, -0.009102654, 2.622512    , 3.54        , 3           , 11          , 0.00675378134, 0.006753775
-0.09639849 , 0.08453325  , -9.808443   , 0.000768856669, 0.00183475658, -0.00219768449, -0.226978555, -0.135836586, 0.452069581 , -0.009572104, -0.009084518, 2.62249017  , 3.55        , 3           , 12          , 0.0576179959, 0
-0.08398649 , 0.0725637749, -9.781279   , -0.00233964738, 0.002376882 , -0.000516077853, -0.2266415  , -0.135769174, 0.451799929 , -0.009595451, -0.009060799, 2.62248445  , 3.56        , 3           , 50          , 0           , 0
-0.09542403 , 0.0970762447, -9.784881   , -0.00175560417, -0.001561211, -0.001084594, -0.2266415  , -0.135769174, 0.451799929 , -0.009612911, -0.009076515, 2.622474    , 3.57        , 3           , 11          , 0.00675378134, 0.006753775
-0.08601979 , 0.08706045  , -9.791178   , 0.00189092662, 0.00381336221, 0.001483608 , -0.2266415  , -0.135971412, 0.452069581 , -0.009594134, -0.009038241, 2.62248826  , 3.58        , 3           , 12          , 0.0576179959, 0
-0.08656889 , 0.0802924559, -9.789401   , -0.000341912848, -0.00183322525, -0.0007959058, -0.226843745, -0.135904   , 0.451934755 , -0.009597482, -0.009056648, 2.62248063  , 3.59        , 3           , 50          , 0           , 0
-0.09972173 , 0.0808750838, -9.782721   , -0.000883707544, -0.00015851701, 0.00118148641, -0.2266415  , -0.135769174, 0.452002168 , -0.009534052, -0.00908408 , 2.622492    , 3.6         , 3           , 11          , 0.00667008432, 0.006670077
-0.105656259, 0.10359475  , -9.808887   , -0.00258638058, 0.001237843 , -0.0008020078, -0.2266415  , -0.135769174, 0.452002168 , -0.009559842, -0.00907177851, 2.62248349  , 3.61        , 3           , 12          , 0.05865563  , 0
-0.125009388, 0.112844832 , -9.808544   , -0.000326476526, 0.001253125 , 5.613991E-05, -0.226776332, -0.135971412, 0.451867342 , -0.00956311 , -0.009059242, 2.62248445  , 3.62        , 3           , 50          , 0           , 0
-0.1027745  , 0.09261199  , -9.773655   , -0.00203095865, 0.0032126205, -0.00023126138, -0.226911157, -0.135769174, 0.452069581 , -0.009583395, -0.009027139, 2.62248158  , 3.63        , 3           , 11          , 0.00667008432, 0.006670077
-0.09320264 , 0.107727624 , -9.740072   , 0.000244694558, -0.000150883367, -0.00107354566, -0.226776332, -0.135904   , 0.452002168 , -0.009580852, -0.009028751, 2.622471    , 3.64        , 3           , 12          , 0.05865563  , 0
-0.0806261  , 0.08874987  , -9.775763   , 0.0005203145, 0.00125885266, -0.0007875215, -0.226776332, -0.135904   , 0.452002168 , -0.00957557652, -0.009016239, 2.622463    , 3.65        , 3           , 50          , 0           , 0
-0.06967077 , 0.08467683  , -9.810045   , -0.0008826398, -0.000440083619, 0.000615977449, -0.226776332, -0.135836586, 0.452002168 , -0.00958445948, -0.009020581, 2.62246919  , 3.66        , 3           , 11          , 0.00667008432, 0.006670077
-0.08589807 , 0.09028352  , -9.810599   , -0.00341676967, -0.00214666687, -0.0005286283, -0.226911157, -0.135904   , 0.452002168 , -0.009618579, -0.009042097, 2.622464    , 3.67        , 3           , 12          , 0.05865563  , 0
-0.08258686 , 0.07034952  , -9.798452   , 0.003344746 , 0.00127795315, -0.0004918147, -0.22650668 , -0.135701761, 0.452069581 , -0.009585088, -0.009029365, 2.6224587   , 3.68        , 3           , 50          , 0           , 0
-0.06411829 , 0.07451761  , -9.760778   , 0.00222266139, -0.0001375089, 0.0006308977, -0.22650668 , -0.135701761, 0.452069581 , -0.009562918, -0.00903068 , 2.62246537  , 3.69        , 3           , 11          , 0.00667008432, 0.006670077
-0.0583913364, 0.0907602757, -9.780104   , 0.00168839132, -0.000410942128, -0.0005024223, -0.226843745, -0.135904   , 0.452137    , -0.009472621, -0.009005429, 2.62245965  , 3.7         , 3           , 12          , 0.0597002134, 0
-0.08679566 , 0.09610318  , -9.793858   , -0.00085468113, -0.000146566075, -0.000231303216, -0.226978555, -0.135769174, 0.452002168 , -0.009481145, -0.009006917, 2.62245774  , 3.71        , 3           , 50          , 0           , 0
-0.08137129 , 0.08621234  , -9.82323551 , 0.00197983487, -0.00209841924, 0.0006264408, -0.226911157, -0.135634348, 0.452137    , -0.009461406, -0.009027841, 2.62246442  , 3.72        , 3           , 11          , 0.00658836635, 0.006588359
-0.08199585 , 0.100733891 , -9.845328   , -0.001695481, -0.00156012375, -0.0010850362, -0.226911157, -0.135634348, 0.452137    , -0.00947826449, -0.009043543, 2.62245345  , 3.73        , 3           , 12          , 0.0597002134, 0
-0.09323343 , 0.116109177 , -9.816423   , -0.00142617838, 0.00125744089, 0.000333307253, -0.226708919, -0.135836586, 0.452002168 , -0.009492555, -0.009030938, 2.62245679  , 3.74        , 3           , 50          , 0           , 0
-0.113891676, 0.101835921 , -9.794041   , -0.000851893041, -0.0007096962, -0.000232171078, -0.226843745, -0.135634348, 0.451934755 , -0.009501052, -0.009038056, 2.6224544   , 3.75        , 3           , 11          , 0.00658836635, 0.006588359
-0.10172575 , 0.104768835 , -9.769528   , -0.00143552129, 0.002946827 , -0.00135931373, -0.226708919, -0.135769174, 0.452137    , -0.009515284, -0.009008719, 2.62244058  , 3.76        , 3           , 12          , 0.0597002134, 0
-0.07207087 , 0.07700512  , -9.801508   , 0.00253116363, 0.0004394814, -0.00106224464, -0.226708919, -0.135769174, 0.452137    , -0.009489875, -0.009004425, 2.62243     , 3.77        , 3           , 50          , 0           , 0
-0.09211097 , 0.09447727  , -9.828256   , -0.000853539037, -0.0001465606, 0.001746459 , -0.226843745, -0.135836586, 0.451867342 , -0.009498569, -0.009005725, 2.62244725  , 3.78        , 3           , 11          , 0.00658836635, 0.006588359
-0.09915528 , 0.08587173  , -9.794447   , -0.00113882823, 0.0001330875, -0.000797261135, -0.226843745, -0.135971412, 0.452002168 , -0.009509885, -0.009004473, 2.62243962  , 3.79        , 3           , 12          , 0.0597002134, 0
-0.075283736, 0.08147068  , -9.776655   , -1.43672E-05, 0.001822791 , 0.0006232376, -0.2265741  , -0.135769174, 0.452069581 , -0.009504258, -0.009004713, 2.62244534  , 3.8         , 3           , 50          , 0           , 0
-0.09730465 , 0.09391676  , -9.778128   , 0.00139572041, 0.00211390271, -0.000499893562, -0.2265741  , -0.135769174, 0.452069581 , -0.00949025247, -0.008983625, 2.62244058  , 3.81        , 3           , 11          , 0.00650900276, 0.0065089995
-0.109115452, 0.09000671  , -9.781851   , 0.006473413 , 0.00355611229, 0.00122120569, -0.2265741  , -0.136106238, 0.452002168 , -0.009425625, -0.008947948, 2.622452    , 3.82        , 3           , 12          , 0.0607511625, 0
-0.08067614 , 0.08915566  , -9.762201   , 0.000281836517, -0.0009909507, 0.0003376777, -0.226911157, -0.135701761, 0.451934755 , -0.009422839, -0.008957826, 2.62245584  , 3.83        , 3           , 50          , 0           , 0
-0.07808471 , 0.07339999  , -9.782133   , -0.00282018725, -0.001856653, 0.001169502 , -0.226708919, -0.135904   , 0.452137    , -0.009451146, -0.008976282, 2.62246776  , 3.84        , 3           , 11          , 0.00650900276, 0.0065089995
-0.0812076554, 0.07079682  , -9.802055   , 0.00111722352, 0.001548868 , 0.00147568388, -0.22650668 , -0.135634348, 0.451934755 , -0.00944010448, -0.008960654, 2.62248254  , 3.85        , 3           , 12          , 0.0607511625, 0
-0.105863966, 0.08735784  , -9.81031    , 0.00168372341, 0.0009895524, -0.0005003123, -0.22650668 , -0.135634348, 0.451934755 , -0.009423223, -0.008950804, 2.62247729  , 3.86        , 3           , 50          , 0           , 0
-0.112144172, 0.113740414 , -9.850928   , 0.00168560655, 0.0007079897, 0.000346865942, -0.226843745, -0.135904   , 0.452002168 , -0.009406396, -0.008943693, 2.62248063  , 3.87        , 3           , 11          , 0.00650900276, 0.0065089995
-0.0852833241, 0.09755105  , -9.826835   , 0.000561801658, -0.0004259089, 0.000904937449, -0.226911157, -0.135769174, 0.452069581 , -0.00940085948, -0.008947867, 2.62248969  , 3.88        , 3           , 12          , 0.0607511625, 0
-0.08224273 , 0.109907217 , -9.755347   , 0.00111624459, 0.00154886348, -0.000219540845, -0.2266415  , -0.135701761, 0.452002168 , -0.009389676, -0.0089324  , 2.62248731  , 3.89        , 3           , 50          , 0           , 0
-0.107890815, 0.0983630642, -9.722144   , 0.00167248689, 0.00154012616, -0.0004994494, -0.2266415  , -0.135701761, 0.452002168 , -0.009394843, -0.00894966349, 2.62248254  , 3.9         , 3           , 11          , 0.006431456 , 0.00643145
-0.101420946, 0.08857498  , -9.785413   , -0.000292859448, -0.000725762, 0.0003354728, -0.226776332, -0.135836586, 0.451934755 , -0.009397802, -0.008956889, 2.62248635  , 3.91        , 3           , 12          , 0.0618079044, 0
-0.08557108 , 0.111526951 , -9.82226    , -0.00171368383, 0.000954077 , -0.000233582963, -0.226708919, -0.135566935, 0.452137    , -0.009414918, -0.00894737 , 2.62248349  , 3.92        , 3           , 50          , 0           , 0
-0.09898253 , 0.09002886  , -9.823355   , -0.00142781634, 0.00039286  , 0.0008970158, -0.226911157, -0.135634348, 0.451867342 , -0.009429276, -0.008943357, 2.62249255  , 3.93        , 3           , 11          , 0.006431456 , 0.00643145
-0.09293009 , 0.085705094 , -9.766829   , -9.528056E-06, -0.00100541941, -0.0005112564, -0.226911157, -0.135634348, 0.451867342 , -0.009429326, -0.008953458, 2.62248731  , 3.94        , 3           , 12          , 0.0618079044, 0
-0.06511555 , 0.101607159 , -9.76203    , 0.00279908  , 0.00211089454, -0.00105838873, -0.226911157, -0.135634348, 0.452069581 , -0.00940123852, -0.008932451, 2.62247682  , 3.95        , 3           , 50          , 0           , 0
-0.08486225 , 0.08018652  , -9.764078   , 0.000288395939, -0.00410072459, -0.00023217524, -0.226708919, -0.135769174, 0.4522044   , -0.009398337, -0.008973477, 2.622475    , 3.96        , 3           , 11          , 0.006431456 , 0.00643145
-0.07400735 , 0.09381198  , -9.827668   , -7.88208854E-06, -0.001568555, -0.00248988648, -0.2265741  , -0.136038825, 0.452002168 , -0.009398195, -0.00898939651, 2.62245     , 3.97        , 3           , 12          , 0.0618079044, 0
-0.0722447261, 0.09375141  , -9.815904   , 0.000260026427, 0.00153057463, -0.00107110909, -0.2265741  , -0.136038825, 0.452002168 , -0.009395497, -0.008974192, 2.62243915  , 3.98        , 3           , 50          , 0           , 0
-0.08099799 , 0.08971343  , -9.792484   , -0.00169416785, -0.00298783416, -0.000239658038, -0.226776332, -0.135701761, 0.451934755 , -0.009412421, -0.009004091, 2.62243676  , 3.99        , 3           , 11          , 0.006431456 , 0.00643145
-0.07425443 , 0.0976289362, -9.754885   , 0.00363900745, 0.00325928046, -0.00161754724, -0.226843745, -0.135634348, 0.452137    , -0.009379764, -0.008927916, 2.622421    , 4           , 3           , 12          , 0.06286992  , 0
-0.08235091 , 0.10223157  , -9.753572   , 0.00281254854, -0.000688354252, 0.000632726646, -0.226843745, -0.136106238, 0.452002168 , -0.009351694, -0.008934742, 2.62242723  , 4.01        , 3           , 50          , 0           , 0
-0.0596365631, 0.09756315  , -9.78596    , 0.000269475917, -0.000423978025, 0.000903845648, -0.226843745, -0.136106238, 0.452002168 , -0.009349082, -0.00893889647, 2.62243629  , 4.02        , 3           , 11          , 0.006356169 , 0.006356158
-0.08492778 , 0.09969869  , -9.796088   , -0.005092037, -0.00158653245, -0.0008181365, -0.226776332, -0.135836586, 0.451934755 , -0.00939993 , -0.008954838, 2.62242818  , 4.03        , 3           , 12          , 0.06286992  , 0
-0.09823281 , 0.08855289  , -9.789908   , 0.000557026535, -0.00140754471, 0.00132745015, -0.2265741  , -0.135971412, 0.4522044   , -0.009394479, -0.008968788, 2.62244153  , 4.04        , 3           , 50          , 0           , 0
-0.09758944 , 0.104324281 , -9.78577    , 0.00253122649, -0.0008310447, 0.00133753638, -0.226843745, -0.135769174, 0.452137    , -0.009369288, -0.008976973, 2.622455    , 4.05        , 3           , 11          , 0.006356169 , 0.006356158
-0.0976006538, 0.111903124 , -9.758619   , 0.003233771 , -0.000263143156, 7.027807E-05, -0.226843745, -0.135769174, 0.452137    , -0.009336957, -0.008979598, 2.62245584  , 4.06        , 3           , 12          , 0.06286992  , 0
-0.07481131 , 0.0828203261, -9.777099   , 0.000553711841, -0.0009852028, -0.00079093 , -0.226708919, -0.135904   , 0.451934755 , -0.009331349, -0.008989523, 2.62244821  , 4.07        , 3           , 50          , 0           , 0
-0.08304375 , 0.09482664  , -9.82954    , -0.000431749184, -0.001555017, -0.000372601062, -0.227113381, -0.135566935, 0.452137    , -0.009335635, -0.009005107, 2.62244439  , 4.08        , 3           , 11          , 0.006356169 , 0.006356158
-0.111138046, 0.0911215544, -9.837455   , 0.00168185472, -0.0004144271, 0.00133423635, -0.227045968, -0.135836586, 0.452137    , -0.009318936, -0.009009126, 2.62245774  , 4.09        , 3           , 12          , 0.06286992  , 0
-0.08774836 , 0.0826851055, -9.82556    , 0.0008216755, -0.0005630957, 0.0013302255, -0.227045968, -0.135836586, 0.452137    , -0.009348055, -0.009020537, 2.622472    , 4.1         , 3           , 50          , 0           , 0
-0.0967183  , 0.0980368257, -9.797541   , -0.00144064578, -0.00015603166, -9.23462139E-05, -0.22650668 , -0.135836586, 0.451867342 , -0.009362454, -0.00902210549, 2.622471    , 4.11        , 3           , 11          , 0.006283405 , 0.00628338847
-0.108885683, 0.105815142 , -9.787208   , -0.000885142246, 0.00181874551, 0.0006196689, -0.226708919, -0.135566935, 0.452002168 , -0.009371359, -0.009003862, 2.62247682  , 4.12        , 3           , 12          , 0.06393672  , 0
-0.0724480748, 0.08599868  , -9.791079   , 0.0005306399, 0.00112438353, 0.0009077061, -0.226708919, -0.136173651, 0.452137    , -0.009366133, -0.008992532, 2.62248588  , 4.13        , 3           , 50          , 0           , 0
-0.068361   , 0.07435547  , -9.831322   , -0.00101741357, -0.000153168774, -0.000796714565, -0.226708919, -0.136173651, 0.452137    , -0.009376235, -0.00899414 , 2.62247777  , 4.14        , 3           , 11          , 0.006283405 , 0.00628338847
-0.0874911249, 0.07537973  , -9.80118    , -0.00101782137, -0.000153170738, -0.00150305824, -0.22650668 , -0.135971412, 0.451799929 , -0.009386277, -0.008995811, 2.622463    , 4.15        , 3           , 12          , 0.06393672  , 0
-0.06800572 , 0.0863226056, -9.768895   , 0.00180505309, 0.000147493993, -0.001489455, -0.226708919, -0.135769174, 0.452002168 , -0.009368093, -0.008994477, 2.62244821  , 4.16        , 3           , 50          , 0           , 0
-0.0599939153, 0.113268062 , -9.75878    , 0.00264884834, 0.000857136562, -0.00148441934, -0.226708919, -0.135904   , 0.451934755 , -0.009341469, -0.008986046, 2.622433    , 4.17        , 3           , 11          , 0.006283405 , 0.00628338847
-0.06818665 , 0.07100008  , -9.773932   , 0.0002518684, 0.000136989853, -0.00121416047, -0.226708919, -0.135904   , 0.451934755 , -0.00933884 , -0.008984787, 2.62242055  , 4.18        , 3           , 12          , 0.06393672  , 0
-0.09061229 , 0.0879539251, -9.772677   , 0.000250474521, 0.000418554962, -0.00121372647, -0.226708919, -0.135971412, 0.451867342 , -0.009336226, -0.008980716, 2.62240863  , 4.19        , 3           , 50          , 0           , 0
-0.0778835937, 0.105626032 , -9.838497   , 0.00124601356, 0.0008734943, -0.000360677426, -0.226776332, -0.135769174, 0.452137    , -0.009299478, -0.008899292, 2.62240481  , 4.2         , 3           , 11          , 0.006212242 , 0.006212212
-0.06931312 , 0.09434     , -9.866501   , -0.00227337726, -0.0012621159, 0.0004672188, -0.226708919, -0.135769174, 0.452137    , -0.009322254, -0.00891186949, 2.62241     , 4.21        , 3           , 12          , 0.0650078356, 0
-0.07523932 , 0.10598179  , -9.819491   , -0.00325949118, -0.001831933, -0.000244601921, -0.226843745, -0.135971412, 0.451934755 , -0.009354828, -0.008930211, 2.6224072   , 4.22        , 3           , 50          , 0           , 0
-0.09952621 , 0.09576308  , -9.782658   , 0.00279911584, 0.000883997942, -0.0007772404, -0.226843745, -0.135971412, 0.451934755 , -0.009326765, -0.008921444, 2.62239957  , 4.23        , 3           , 11          , 0.006212242 , 0.006212212
-0.1080337  , 0.06878816  , -9.782382   , 0.004058514 , 0.003285898 , -0.000202550844, -0.226911157, -0.135971412, 0.452137    , -0.009286159, -0.008888606, 2.62239718  , 4.24        , 3           , 12          , 0.0650078356, 0
-0.09316616 , 0.10150826  , -9.769024   , -0.000448139617, 0.000862036541, 0.00033776465, -0.226708919, -0.135904   , 0.452002168 , -0.00929067 , -0.008879954, 2.62240052  , 4.25        , 3           , 50          , 0           , 0
-0.109963067, 0.08515446  , -9.8117075  , -0.00142433227, -0.00167873537, -9.455614E-05, -0.226708919, -0.135971412, 0.451867342 , -0.009304905, -0.00889674947, 2.62239957  , 4.26        , 3           , 11          , 0.006212242 , 0.006212212
-0.0950464159, 0.108540982 , -9.840424   , 0.0006903025, -0.0009604982, -0.000224863063, -0.226708919, -0.135971412, 0.451867342 , -0.009297984, -0.008906374, 2.62239766  , 4.27        , 3           , 12          , 0.0650078356, 0
-0.0907352939, 0.0829444   , -9.758688   , 0.00181504933, 3.26190166E-05, -0.000359345315, -0.226776332, -0.135971412, 0.4522044   , -0.00927980151, -0.008906081, 2.62239385  , 4.28        , 3           , 50          , 0           , 0
-0.131055012, 0.06428088  , -9.704383   , 0.00308166933, 0.0007451227, -0.00176502171, -0.2266415  , -0.135769174, 0.452137    , -0.009248828, -0.008898795, 2.6223762   , 4.29        , 3           , 11          , 0.006212242 , 0.006212212
-0.09525589 , 0.07764724  , -9.777728   , 0.00138889882, 0.0022501857, -0.000640707847, -0.226708919, -0.135701761, 0.451867342 , -0.009209517, -0.008968683, 2.62237     , 4.3         , 3           , 12          , 0.06608284  , 0
-0.07974793 , 0.0966771841, -9.854368   , -0.00227195723, 0.000395190931, 0.00216472615, -0.226708919, -0.135701761, 0.451867342 , -0.009232431, -0.008964532, 2.62239146  , 4.31        , 3           , 50          , 0           , 0
-0.08243266 , 0.112357259 , -9.811835   , -0.0015608035, -0.000726297032, 0.00131867034, -0.226708919, -0.135701761, 0.452069581 , -0.009248158, -0.00897167251, 2.62240481  , 4.32        , 3           , 11          , 0.00614302559, 0.006142997
-0.09140821 , 0.09251689  , -9.784868   , 0.0006827947, 0.00210462464, -0.00191563577, -0.2266415  , -0.135836586, 0.451867342 , -0.009241157, -0.008950804, 2.62238526  , 4.33        , 3           , 12          , 0.06608284  , 0
-0.08747351 , 0.0892308652, -9.760897   , 0.00223544519, 0.00225591217, -0.00190817553, -0.226708919, -0.136038825, 0.451867342 , -0.00921862852, -0.008928421, 2.62236619  , 4.34        , 3           , 50          , 0           , 0
-0.07899175 , 0.08412185  , -9.747293   , 0.00239162217, -0.000699565, -0.00134699862, -0.226708919, -0.136038825, 0.451867342 , -0.009194592, -0.008935543, 2.62235284  , 4.35        , 3           , 11          , 0.00614302559, 0.006142997
-0.07979195 , 0.08287881  , -9.777136   , 0.00212206761, -0.00323555921, -0.00078714604, -0.2266415  , -0.135769174, 0.451867342 , -0.009173304, -0.008967967, 2.62234521  , 4.36        , 3           , 12          , 0.06608284  , 0
-0.102581531, 0.0887512   , -9.833331   , 0.0014232524, -0.004507372, 0.0009028339, -0.226911157, -0.135836586, 0.452069581 , -0.009159156, -0.009012956, 2.62235475  , 4.37        , 3           , 50          , 0           , 0
-0.120486647, 0.100736074 , -9.846074   , 0.000424347818, -0.002543105, -0.0002288878, -0.2266415  , -0.135904   , 0.451934755 , -0.00915489253, -0.009038406, 2.62235284  , 4.38        , 3           , 11          , 0.00614302559, 0.006142997
-0.100846484, 0.09938068  , -9.780392   , -0.000448884937, 0.00266011874, -0.000507348333, -0.2266415  , -0.135904   , 0.451934755 , -0.009159334, -0.009011853, 2.622347    , 4.39        , 3           , 12          , 0.06608284  , 0
-0.0553441346, 0.09687288  , -9.730336   , 0.0008065305, 0.00433508  , 6.6145E-05  , -0.227045968, -0.135634348, 0.452002168 , -0.00917327 , -0.009036386, 2.622348    , 4.4         , 3           , 50          , 0           , 0
-0.07658232 , 0.09180112  , -9.758091   , 0.00137905113, 0.00279029086, 6.639225E-05, -0.226843745, -0.135836586, 0.452002168 , -0.009159483, -0.009008477, 2.622348    , 4.41        , 3           , 11          , 0.006076361 , 0.006076329
-0.0901039541, 0.08486917  , -9.79619    , 0.000405891129, -0.000313609868, 5.70097E-05 , -0.226776332, -0.135836586, 0.452002168 , -0.00915543 , -0.009011609, 2.622349    , 4.42        , 3           , 12          , 0.06716134  , 0
-0.10542012 , 0.115391217 , -9.828723   , 0.00281139812, -0.00128285284, 6.668486E-05, -0.226776332, -0.135836586, 0.452002168 , -0.009127322, -0.00902443 , 2.62235     , 4.43        , 3           , 50          , 0           , 0
-0.09280105 , 0.111177474 , -9.827289   , 0.00265161018, 0.002517322 , 0.0004956906, -0.2266415  , -0.135971412, 0.451732516 , -0.009100849, -0.008999213, 2.62235475  , 4.44        , 3           , 11          , 0.006076361 , 0.006076329
-0.08925935 , 0.118211254 , -9.784744   , 0.000248972967, 0.002923435 , 0.000626416237, -0.226708919, -0.135566935, 0.452002168 , -0.009098413, -0.008969923, 2.62236047  , 4.45        , 3           , 12          , 0.06716134  , 0
-0.08956736 , 0.0974295661, -9.776246   , -1.93062642E-05, -3.491041E-05, -0.000227069322, -0.226708919, -0.135769174, 0.452002168 , -0.009098585, -0.008970293, 2.622358    , 4.46        , 3           , 50          , 0           , 0
-0.09388738 , 0.108809888 , -9.790695   , -0.00156502391, -0.00173480914, -0.00150833465, -0.226708919, -0.135769174, 0.452002168 , -0.009114102, -0.008987778, 2.6223433   , 4.47        , 3           , 11          , 0.006076361 , 0.006076329
-0.111347221, 0.08559585  , -9.804032   , -0.000150146079, -0.00214760378, -0.0003722511, -0.2266415  , -0.135769174, 0.452002168 , -0.009115572, -0.009009289, 2.62233949  , 4.48        , 3           , 12          , 0.06716134  , 0
-0.110975087, 0.08240074  , -9.794552   , 0.000404741848, -3.204341E-05, 0.0004812497, -0.226843745, -0.135499522, 0.452137    , -0.00911156647, -0.009009564, 2.62234426  , 4.49        , 3           , 50          , 0           , 0
-0.09838308 , 0.06923806  , -9.815301   , -0.00272571458, 0.0003444098, -0.000662664941, -0.226843745, -0.136038825, 0.452002168 , -0.0092022  , -0.009081299, 2.62233949  , 4.5         , 3           , 11          , 0.006011009 , 0.00601097057
-0.08706879 , 0.102056623 , -9.818694   , -0.000880553154, -0.00147334673, -9.185035E-05, -0.226843745, -0.136038825, 0.452002168 , -0.009210998, -0.009096041, 2.62233853  , 4.51        , 3           , 12          , 0.06824294  , 0
-0.106593885, 0.103133067 , -9.802568   , 0.000677258358, -0.00216674968, 0.00160953263, -0.226776332, -0.135904   , 0.452002168 , -0.009204374, -0.009117562, 2.62235475  , 4.52        , 3           , 50          , 0           , 0
-0.09882881 , 0.08397867  , -9.769593   , 0.000954398653, -0.001179364, 0.0009060247, -0.2266415  , -0.135769174, 0.451934755 , -0.009194914, -0.00912927 , 2.62236428  , 4.53        , 3           , 11          , 0.006011009 , 0.00601097057
-0.09324686 , 0.0631309   , -9.761953   , 0.00222437759, -0.0010299877, 0.000488361635, -0.2266415  , -0.135836586, 0.452002168 , -0.009172714, -0.009139525, 2.622369    , 4.54        , 3           , 12          , 0.06824294  , 0
-0.08549344 , 0.06576407  , -9.766855   , -3.663872E-05, -0.000622917549, 0.00132608949, -0.2266415  , -0.135836586, 0.452002168 , -0.009173203, -0.009145631, 2.6223824   , 4.55        , 3           , 50          , 0           , 0
-0.115236051, 0.0929362   , -9.8261795  , -0.00130965037, -0.000209165053, 0.00132081413, -0.226708919, -0.135701761, 0.451934755 , -0.00918642152, -0.009147602, 2.62239575  , 4.56        , 3           , 11          , 0.006011009 , 0.00601097057
-0.115944393, 0.09489205  , -9.868212   , -0.00187380682, -0.000353767478, 0.00131796312, -0.22650668 , -0.135836586, 0.452137    , -0.00920528 , -0.009151018, 2.62240863  , 4.57        , 3           , 12          , 0.06824294  , 0
-0.110364541, 0.119049817 , -9.826034   , -0.0004711416, 0.00148595357, 0.000621024868, -0.226776332, -0.135904   , 0.452069581 , -0.009210047, -0.009136102, 2.62241483  , 4.58        , 3           , 50          , 0           , 0
-0.079185836, 0.108886048 , -9.730921   , 0.00220962171, 0.001785659 , -0.0009199863, -0.226708919, -0.136038825, 0.451799929 , -0.009187865, -0.009118332, 2.62240529  , 4.59        , 3           , 11          , 0.006011009 , 0.00601097057
-0.0793335959, 0.09046595  , -9.754049   , 0.00191477488, 0.00147614162, -0.000215457578, -0.226708919, -0.136038825, 0.451799929 , -0.009212625, -0.00918406 , 2.62240386  , 4.6         , 3           , 12          , 0.0693272948, 0
-0.08857229 , 0.08722538  , -9.83097    , -5.55322E-05, 0.000195731 , 0.000479715 , -0.226843745, -0.136038825, 0.451934755 , -0.009213224, -0.009182059, 2.62240863  , 4.61        , 3           , 50          , 0           , 0
-0.07468525 , 0.11186111  , -9.825339   , -0.00272714579, -0.00221571862, -0.000242827853, -0.226843745, -0.135566935, 0.452002168 , -0.009240477, -0.009204237, 2.62240624  , 4.62        , 3           , 11          , 0.00594712747, 0.005947092
-0.0718568861, 0.08655186  , -9.823162   , -0.00273034163, -0.0016525907, -0.0009483038, -0.22650668 , -0.135701761, 0.451732516 , -0.009267693, -0.00922085 , 2.62239718  , 4.63        , 3           , 12          , 0.0693272948, 0
-0.105906643, 0.0850915   , -9.80715752 , 0.00149203883, 0.00119170942, -0.00106547913, -0.22650668 , -0.135701761, 0.451732516 , -0.009252674, -0.009209033, 2.62238622  , 4.64        , 3           , 50          , 0           , 0
-0.09912865 , 0.0992838   , -9.75778    , 0.003602655 , 0.0027546424, -0.0009119467, -0.226708919, -0.135701761, 0.452002168 , -0.009216562, -0.009181572, 2.62237668  , 4.65        , 3           , 11          , 0.00594712747, 0.005947092
-0.107411318, 0.089006044 , -9.75879    , 0.00121731649, -0.00021802244, 0.000202452749, -0.2266415  , -0.136106238, 0.4522044   , -0.009204407, -0.009183734, 2.622379    , 4.66        , 3           , 12          , 0.0693272948, 0
-0.09257312 , 0.102062948 , -9.80156    , 0.0003779477, -0.00177235913, 0.0006199216, -0.2266415  , -0.136038825, 0.451934755 , -0.009200685, -0.009201399, 2.62238526  , 4.67        , 3           , 50          , 0           , 0
-0.103778347, 0.09291519  , -9.859538   , 0.0006595144, -0.00162966736, 0.000338918064, -0.2266415  , -0.136038825, 0.451934755 , -0.009194124, -0.009217664, 2.622389    , 4.68        , 3           , 11          , 0.00594712747, 0.005947092
-0.114699736, 0.07254061  , -9.8014     , 0.0010874999, -0.00247149682, 0.000622129068, -0.226776332, -0.135836586, 0.452002168 , -0.009183308, -0.0092423195, 2.62239575  , 4.69        , 3           , 12          , 0.0693272948, 0
-0.09267323 , 0.102874547 , -9.774439   , 0.00403786637, 6.094997E-05, 0.0004985119, -0.2265741  , -0.135904   , 0.452069581 , -0.009150828, -0.009310229, 2.622401    , 4.7         , 3           , 50          , 0           , 0
-0.0830612853, 0.0739081055, -9.781717   , 0.001776813 , 0.000327233924, 6.460423E-05, -0.2266415  , -0.136038825, 0.452069581 , -0.009133066, -0.00930695 , 2.62240148  , 4.71        , 3           , 11          , 0.00588536076, 0.005885326
-0.0803547949, 0.07520699  , -9.774911   , -0.00160164677, -0.00194820866, -0.000802282768, -0.2266415  , -0.136038825, 0.452069581 , -0.009149009, -0.00932650547, 2.62239385  , 4.72        , 3           , 12          , 0.07041405  , 0
-0.08253953 , 0.106468104 , -9.80463    , -0.00118009746, -0.001522996, -0.0007996565, -0.2266415  , -0.136106238, 0.451867342 , -0.009160736, -0.009341807, 2.62238622  , 4.73        , 3           , 50          , 0           , 0
-0.108798109, 0.10320802  , -9.817047   , -0.001611694, 0.0001635314, -9.26846551E-05, -0.226776332, -0.135769174, 0.451934755 , -0.009176844, -0.00934018 , 2.62238526  , 4.74        , 3           , 11          , 0.00588536076, 0.005885326
-0.11627607 , 0.09015979  , -9.802243   , 0.00078639097, 0.0007428975, 0.00034318323, -0.226708919, -0.135836586, 0.451867342 , -0.009169012, -0.009332719, 2.62238812  , 4.75        , 3           , 12          , 0.07041405  , 0
-0.104965121, 0.08116699  , -9.717673   , 0.00319243153, -0.000367128931, 7.01039462E-05, -0.226708919, -0.135836586, 0.451867342 , -0.009137094, -0.009336385, 2.622389    , 4.76        , 3           , 50          , 0           , 0
-0.08283198 , 0.094179675 , -9.772593   , 0.0020617824, -0.000233987521, -0.000358752935, -0.226843745, -0.135904   , 0.451867342 , -0.009116442, -0.009338757, 2.62238526  , 4.77        , 3           , 11          , 0.00588536076, 0.005885326
-0.0821866542, 0.0871887654, -9.842222   , -0.000625617336, 0.000592562254, -0.0006524993, -0.226911157, -0.135566935, 0.452137    , -0.009122636, -0.009332891, 2.62237859  , 4.78        , 3           , 12          , 0.07041405  , 0
-0.09546981 , 0.07025815  , -9.860021   , -0.00189096213, -0.0005422929, -0.0006601613, -0.226708919, -0.136038825, 0.451934755 , -0.009141485, -0.009338373, 2.62237239  , 4.79        , 3           , 50          , 0           , 0
-0.07463298 , 0.1043155   , -9.86243248 , -0.00159988634, -0.001110427, -0.0009423374, -0.226708919, -0.136038825, 0.451934755 , -0.009137924, -0.009371901, 2.62236333  , 4.8         , 3           , 11          , 0.00582521455, 0.005825174
-0.07864205 , 0.105830014 , -9.76302    , 0.000791925238, 0.0007359822, -0.000504516764, -0.226776332, -0.136106238, 0.451867342 , -0.009129956, -0.009364588, 2.62235761  , 4.81        , 3           , 12          , 0.0715028942, 0
-0.0922326446, 0.09177473  , -9.696289   , 0.00305707916, -0.000374997675, -0.000213179563, -0.226776332, -0.135769174, 0.451934755 , -0.009099364, -0.009368356, 2.6223557   , 4.82        , 3           , 50          , 0           , 0
-0.09232429 , 0.0684902444, -9.74881649 , 0.0002449047, -0.00278739934, 0.00019376885, -0.2265741  , -0.135701761, 0.452069581 , -0.009096937, -0.009396212, 2.622358    , 4.83        , 3           , 11          , 0.00582521455, 0.005825174
-0.10302069 , 0.08698214  , -9.842382   , -0.0041397633, -0.00140917883, 3.42573E-05 , -0.2265741  , -0.135701761, 0.452069581 , -0.00913834 , -0.0094103  , 2.62235856  , 4.84        , 3           , 12          , 0.0715028942, 0
-0.103820086, 0.116910122 , -9.882943   , -0.00372259575, -0.000280057924, -0.00151598768, -0.226911157, -0.135769174, 0.451934755 , -0.009175425, -0.00941324 , 2.6223433   , 4.85        , 3           , 50          , 0           , 0
-0.08963503 , 0.083984226 , -9.80297    , 0.0005161422, -0.000673754839, -0.00107307849, -0.2266415  , -0.135634348, 0.452002168 , -0.009170162, -0.009420076, 2.62233281  , 4.86        , 3           , 11          , 0.00582521455, 0.005825174
-0.0881043151, 0.08552115  , -9.729278   , 0.0047487705, 0.00019959193, -0.0003456788, -0.226776332, -0.135769174, 0.452002168 , -0.009122641, -0.009418111, 2.622329    , 4.87        , 3           , 12          , 0.0715028942, 0
-0.100920662, 0.07752355  , -9.721725   , 0.00290385378, 0.00201735  , -0.00049268693, -0.226776332, -0.135769174, 0.452002168 , -0.009093555, -0.00939798448, 2.62232423  , 4.88        , 3           , 50          , 0           , 0
-0.0972032249, 0.094891645 , -9.799818   , -0.00231784675, 0.00141888717, 0.000188425518, -0.2266415  , -0.136038825, 0.451799929 , -0.00911675 , -0.009383777, 2.62232614  , 4.89        , 3           , 11          , 0.00582521455, 0.005825174
-0.09837432 , 0.08836408  , -9.866748   , -0.0021789025, 0.00169531547, -0.000234309424, -0.226776332, -0.1353647  , 0.452069581 , -0.009140593, -0.009386966, 2.62232327  , 4.9         , 3           , 12          , 0.07259353  , 0
-0.11851649 , 0.0866346061, -9.81945    , 0.000647212 , 0.00129206642, -0.0006455971, -0.2266415  , -0.136106238, 0.452002168 , -0.00913406 , -0.00937410351, 2.622317    , 4.91        , 3           , 50          , 0           , 0
-0.103547715, 0.0803061947, -9.734841   , 0.0007948615, 2.5979034E-05, -0.000364353851, -0.2266415  , -0.136106238, 0.452002168 , -0.009126077, -0.009373877, 2.62231374  , 4.92        , 3           , 11          , 0.005766532 , 0.005766487
-0.08859013 , 0.083714284 , -9.727029   , 0.00150015007, 0.0001715361, -0.0005021133, -0.2265741  , -0.135701761, 0.451732516 , -0.009111028, -0.009372208, 2.62230849  , 4.93        , 3           , 12          , 0.07259353  , 0
-0.08604262 , 0.09150544  , -9.771273   , 0.00107929774, -0.000394459, -0.0005049566, -0.226708919, -0.135701761, 0.452002168 , -0.0091001885, -0.009376198, 2.62230325  , 4.94        , 3           , 50          , 0           , 0
-0.1043887  , 0.08654391  , -9.84149    , -0.00131264 , -0.00210008258, 4.63207471E-05, -0.226911157, -0.135701761, 0.452002168 , -0.009113321, -0.009397193, 2.6223042   , 4.95        , 3           , 11          , 0.005766532 , 0.005766487
-0.0973392  , 0.109883226 , -9.829135   , -0.00102718046, -0.00266130175, 0.000470575935, -0.226843745, -0.135904   , 0.451867342 , -0.00912364 , -0.009423763, 2.622309    , 4.96        , 3           , 12          , 0.07259353  , 0
-0.108714029, 0.08862072  , -9.773717   , 8.834218E-05, 0.000161987744, 5.63768735E-05, -0.226843745, -0.135904   , 0.451867342 , -0.009122761, -0.00942213647, 2.62231     , 4.97        , 3           , 50          , 0           , 0
-0.09387563 , 0.08970049  , -9.744221   , 0.000218158835, 0.0024154624, -0.000363299274, -0.226911157, -0.135769174, 0.452002168 , -0.00912054349, -0.009398016, 2.62230563  , 4.98        , 3           , 11          , 0.005766532 , 0.005766487
-0.06617088 , 0.08810594  , -9.768874   , -0.0010539483, 0.0025476478, -0.00121662114, -0.226843745, -0.135701761, 0.452069581 , -0.009130967, -0.009372652, 2.62229323  , 4.99        , 3           , 12          , 0.07259353  , 0
-0.07051873 , 0.0869659   , -9.816822   , -0.00188895175, -0.000277180516, -0.0009422949, -0.2266415  , -0.135904   , 0.451867342 , -0.009155929, -0.009387143, 2.62228465  , 5           , 3           , 50          , 0           , 0
-0.07288983 , 0.0730687752, -9.835429   , -0.00117456517, -0.00182101049, 0.000188760692, -0.2266415  , -0.135904   , 0.451867342 , -0.00916769449, -0.009405335, 2.622287    , 5.01        , 3           , 11          , 0.00570964  , 0.005709596
-0.08151549 , 0.08029294  , -9.80699    , 0.00135518261, 0.0005894812, -0.000219504553, -0.22650668 , -0.135701761, 0.452069581 , -0.00915412 , -0.009399462, 2.62228417  , 5.02        , 3           , 12          , 0.0736856759, 0
-0.1022878  , 0.0930805   , -9.780429   , 0.00290504517, 0.00130389864, -0.000211176579, -0.2266415  , -0.135836586, 0.452069581 , -0.00912505 , -0.009386442, 2.62228227  , 5.03        , 3           , 50          , 0           , 0
-0.100968756, 0.09794254  , -9.755089   , 0.0007936508, -0.000118252188, -0.0005057607, -0.226776332, -0.135971412, 0.452002168 , -0.009117067, -0.00938767 , 2.6222775   , 5.04        , 3           , 11          , 0.00570964  , 0.005709596
-0.107655592, 0.0936438143, -9.794931   , -0.00160287693, -0.0009791825, -0.0006595252, -0.226776332, -0.135971412, 0.452002168 , -0.009133034, -0.009397523, 2.62227082  , 5.05        , 3           , 12          , 0.0736856759, 0
-0.1224447  , 0.08858685  , -9.849303   , -0.00316085876, -4.20845936E-06, -0.000241443355, -0.2266415  , -0.135971412, 0.451934755 , -0.00916462 , -0.009397586, 2.622268    , 5.06        , 3           , 50          , 0           , 0
-0.100837991, 0.08555071  , -9.827004   , -0.00175266177, 0.0008500378, 0.000190249339, -0.226708919, -0.135836586, 0.452002168 , -0.00918216351, -0.009389069, 2.62226987  , 5.07        , 3           , 11          , 0.00570964  , 0.005709596
-0.0798680261, 0.10327512  , -9.803718   , 0.00347293145, 0.000744589663, 0.000214395652, -0.226776332, -0.135904   , 0.452002168 , -0.009147455, -0.009381603, 2.62227225  , 5.08        , 3           , 12          , 0.0736856759, 0
-0.09310357 , 0.07797657  , -9.749235   , 0.001217291 , -0.000115387324, -0.0005037852, -0.226776332, -0.135904   , 0.452002168 , -0.009135234, -0.009382804, 2.622267    , 5.09        , 3           , 50          , 0           , 0
-0.0809684247, 0.107145041 , -9.743598   , -0.00456063356, -0.00227333 , 3.103803E-05, -0.226843745, -0.136038825, 0.452137    , -0.009177244, -0.009429829, 2.622268    , 5.1         , 3           , 11          , 0.00565435225, 0.00565431546
