Acc X       , Acc Y       , Acc Z       , Gyro X      , Gyro Y      , Gyro Z      , Magn X      , Magn Y      , Magn Z      , Time        , Status       
0.05882767  , 0.1167572   , -9.600137   , 0.0009457329, -0.00158350321, -0.0020041673, -0.2144398  , -0.0239989217, 0.4505865   , 136.40007   , 3
0.0624202043, 0.10867402  , -9.594298   , 0.002543679 , 0.00161238736, -0.0022703968, -0.2144398  , -0.0237966832, 0.450788736 , 136.410065  , 3
0.0565823428, 0.114960946 , -9.596544   , -0.0006522117, 0.00294400845, -0.003602018, -0.2144398  , -0.0237966832, 0.450788736 , 136.420059  , 3
0.0633183345, 0.121696934 , -9.591604   , 0.00281000324, -0.000251882244, -0.0022703968, -0.2144398  , -0.02372927 , 0.450788736 , 136.430069  , 3
0.0610729977, 0.123044126 , -9.580828   , -0.00171750854, -0.00131717918, -0.0022703968, -0.2144398  , -0.0239989217, 0.450788736 , 136.440063  , 3
0.06915619  , 0.1261876   , -9.611813   , -0.000119563185, 0.001079739 , -0.0022703968, -0.2145072  , -0.0237966832, 0.450788736 , 136.450058  , 3
0.0785865858, 0.1275348   , -9.575888   , -0.00118486024, 0.001079739 , -0.00333569385, -0.2145072  , -0.0237966832, 0.450788736 , 136.460068  , 3
0.07454498  , 0.119002536 , -9.585318   , 0.004407949 , 0.0040093055, -0.005466288, -0.2144398  , -0.023864096, 0.4506539   , 136.470062  , 3
0.0489482135, 0.125738531 , -9.588012   , 0.00201103045, 0.001079739 , -0.004134666, -0.214372382, -0.023864096, 0.4506539   , 136.480057  , 3
0.0462538227, 0.105530553 , -9.570948   , -0.00331545388, -0.003447773, -0.00200407254, -0.214372382, -0.0237966832, 0.4506539   , 136.490067  , 3
0.0520916767, 0.100590825 , -9.579928   , -0.00304912985, 0.001079739 , 0.00119181816, -0.214372382, -0.0237966832, 0.4506539   , 136.500061  , 3
0.06960526  , 0.110021204 , -9.591604   , 0.000146762 , 0.0013460631, -0.004134571, -0.2144398  , -0.0239315089, 0.450788736 , 136.510071  , 3
0.06915619  , 0.107775889 , -9.578582   , -0.00464707427, 0.00294400845, -0.00333559886, -0.214372382, -0.0240663346, 0.450721323 , 136.520065  , 3
0.0538879447, 0.102836162 , -9.591604   , -0.000918535, 0.00267768418, -0.00200397754, -0.2144398  , -0.02372927 , 0.4506539   , 136.53006   , 3
0.08128098  , 0.107775889 , -9.58891    , -0.000119562254, -0.001050855, -0.00173765328, -0.2144398  , -0.02372927 , 0.4506539   , 136.54007   , 3
0.06825806  , 0.104632415 , -9.592053   , 0.000146762 , 0.000547090371, 0.0003929406, -0.214304969, -0.0237966832, 0.450788736 , 136.550064  , 3
0.08083191  , 0.132474527 , -9.586664   , -0.00278280466, -0.00078453077, -0.004400896, -0.214304969, -0.023864096, 0.450721323 , 136.560059  , 3
0.07634126  , 0.119002536 , -9.590707   , -0.000119562254, -0.00158350356, -0.00333559886, -0.214372382, -0.023864096, 0.450721323 , 136.570068  , 3
0.0606239364, 0.130678251 , -9.58756351 , 0.006272219 , 0.000280766166, 0.000126616331, -0.214372382, -0.023864096, 0.450721323 , 136.580063  , 3
0.0404159538, 0.113164686 , -9.583073   , 0.005206922 , 0.000280766166, -0.00173765328, -0.21457462 , -0.023864096, 0.450721323 , 136.590057  , 3
0.07095246  , 0.125289455 , -9.590258   , 0.00467427354, 0.00214503566, -0.000139707932, -0.214304969, -0.0237966832, 0.450788736 , 136.600067  , 3
0.07499406  , 0.104632415 , -9.602831   , -0.000119561337, 0.000280766166, -0.00200388255, -0.21457462 , -0.0236618575, 0.4506539   , 136.610062  , 3
0.0583786   , 0.123044126 , -9.600137   , 0.00121206  , -0.002382476, -0.00306917937, -0.21457462 , -0.0236618575, 0.4506539   , 136.620071  , 3
0.0547860749, 0.114511877 , -9.600137   , 0.00294316746, -0.0005182066, -0.00187072065, -0.2144398  , -0.023864096, 0.4505865   , 136.630066  , 3
0.0592767373, 0.112266548 , -9.580378   , -0.000119561337, -0.00118401728, -0.00306917937, -0.2144398  , -0.023864096, 0.4505865   , 136.64006   , 3
0.0435594171, 0.132025465 , -9.600586   , 0.0004130872, 0.0005470904, -0.00360182836, -0.2144398  , -0.023864096, 0.450519085 , 136.65007   , 3
0.03772156  , 0.126636654 , -9.569151   , 0.002676843 , 0.00174554938, -0.00373499026, -0.2144398  , -0.023864096, 0.450519085 , 136.660065  , 3
0.057031408 , 0.100141764 , -9.559272   , 0.00187787029, 0.001212901 , -0.003468666, -0.214372382, -0.0237966832, 0.4506539   , 136.670059  , 3
0.06960526  , 0.106877752 , -9.585318   , -0.000785372, 0.000547090371, -0.002403369, -0.214372382, -0.0239315089, 0.4506539   , 136.680069  , 3
0.07948471  , 0.118104421 , -9.594298   , -0.00185066892, 0.00241136015, -0.00120490987, -0.214237556, -0.0239315089, 0.4505865   , 136.690063  , 3
0.08577164  , 0.12843293  , -9.607323   , -0.0022501552, 0.00214503612, -0.000672261463, -0.214372382, -0.023864096, 0.450721323 , 136.700058  , 3
0.0610729977, 0.1234932   , -9.632918   , -0.00118485733, -0.000385044317, -0.0010716531, -0.214372382, -0.023864096, 0.450721323 , 136.710068  , 3
0.0408650227, 0.131127328 , -9.594748   , 0.0009457364, -0.00131717906, -0.00240327418, -0.214304969, -0.02372927 , 0.450519085 , 136.720062  , 3
0.067809    , 0.129780129 , -9.586665   , 0.000279925764, -0.000651368464, -0.00266959844, -0.214237556, -0.023864096, 0.450519085 , 136.730057  , 3
0.065114595 , 0.118104406 , -9.567804   , 0.0002799258, 0.00187871163, -0.00187062577, -0.2144398  , -0.0236618575, 0.450721323 , 136.740067  , 3
0.0817300454, 0.120798789 , -9.590706   , 0.000146763792, 0.002544522 , -0.002536436, -0.2144398  , -0.0236618575, 0.450721323 , 136.750061  , 3
0.07095245  , 0.139659584 , -9.581725   , -0.00331545086, -0.0002518821, -0.00107165286, -0.214237556, -0.0239315089, 0.450519085 , 136.760071  , 3
0.0579295419, 0.128881991 , -9.58442    , -0.00118485745, -0.00238247565, 0.000393130264, -0.214304969, -0.0239989217, 0.450451672 , 136.770065  , 3
0.0628692657, 0.116308138 , -9.588461   , 0.0009457364, -0.00224931375, -0.0010716531, -0.2145072  , -0.0235944446, 0.4506539   , 136.78006   , 3
0.0588276722, 0.136067048 , -9.583521   , -0.00025272253, -0.00145034108, -0.00280276034, -0.2145072  , -0.0235944446, 0.4506539   , 136.79007   , 3
0.056133274 , 0.104632415 , -9.566008   , -0.0005190468, 0.000147604151, -0.00213695015, -0.2144398  , -0.0239315089, 0.450721323 , 136.800064  , 3
0.0507444739, 0.104183353 , -9.572744   , -0.000918532256, 0.0006802525, -0.0009383961, -0.214372382, -0.0239315089, 0.450316846 , 136.810059  , 3
0.0785865858, 0.105081491 , -9.58397    , 0.0006794131, -0.0005182066, -0.002003693, -0.2145072  , -0.023864096, 0.4505865   , 136.820068  , 3
0.0633183345, 0.110021204 , -9.575888   , 0.0008125752, -0.0002518824, -0.00133788248, -0.2145072  , -0.023864096, 0.4505865   , 136.830063  , 3
0.07813752  , 0.105081491 , -9.591604   , -0.000519045861, -0.0003850445, -0.000139423413, -0.214372382, -0.0239315089, 0.4506539   , 136.840057  , 3
0.06825806  , 0.119900674 , -9.587114   , -0.000918532256, -0.0006513688, -0.0006720719, -0.214304969, -0.0239315089, 0.450451672 , 136.850067  , 3
0.0592767373, 0.12214601  , -9.567355   , -0.0007853702, 0.0006802525, -0.00133788236, -0.214372382, -0.0237966832, 0.450519085 , 136.860062  , 3
0.0606239364, 0.13202545  , -9.566008   , 0.00107889937, 0.000147604063, -0.002003693, -0.214372382, -0.0237966832, 0.450519085 , 136.870071  , 3
0.05119354  , 0.09789643  , -9.579929   , 0.0012120615, 0.00107973884, -0.002669504, -0.2144398  , -0.0236618575, 0.4506539   , 136.880066  , 3
0.0619711354, 0.110919349 , -9.5947485  , 0.0006794133, 0.00214503566, -0.00107155833, -0.214237556, -0.0237966832, 0.450384259 , 136.89006   , 3
0.07274872  , 0.122145995 , -9.600137   , 0.0020110344, 0.0005470904, -0.000139423515, -0.214372382, -0.0236618575, 0.4505865   , 136.90007   , 3
0.0597258   , 0.0974473655, -9.58442    , 0.000812576036, 0.0002807662, -0.002003598, -0.214372382, -0.0236618575, 0.4505865   , 136.910065  , 3
0.0785865858, 0.120349735 , -9.590258   , -0.00105169346, -0.000518206565, -0.0014709495, -0.214304969, -0.02372927 , 0.4506539   , 136.920059  , 3
0.07454499  , 0.1167572   , -9.562415   , -0.00105169346, 0.000147603991, -0.000938301033, -0.214304969, -0.0239315089, 0.450451672 , 136.930069  , 3
0.0646655262, 0.117206275 , -9.557924   , 0.001345225 , 0.00161238713, -0.00160411163, -0.2144398  , -0.0235270318, 0.4505865   , 136.940063  , 3
0.07858658  , 0.132923588 , -9.587114   , 0.003875305 , 0.00187871139, -0.000805139, -0.2144398  , -0.0235270318, 0.4505865   , 136.950058  , 3
0.0799337849, 0.115859084 , -9.591604   , 0.00174471061, 0.001212901 , -6.166306E-06, -0.2145072  , -0.0237966832, 0.4506539   , 136.960068  , 3
0.07409592  , 0.10867402  , -9.597443   , -0.0013180176, -0.000651368639, -0.00120462535, -0.214372382, -0.0239315089, 0.450451672 , 136.970062  , 3
0.07319779  , 0.117655344 , -9.574989   , 0.000146765611, -0.000118720214, -0.00173727388, -0.214237556, -0.0237966832, 0.450384259 , 136.980057  , 3
0.0610730052, 0.126636669 , -9.594748   , 0.002810008 , 0.00147922512, -0.00147094962, -0.214237556, -0.0237966832, 0.450384259 , 136.990067  , 3
0.05748047  , 0.129780129 , -9.590258   , 0.00334265642, 0.00107973872, -0.0018704359, -0.214372382, -0.02372927 , 0.4506539   , 137.000061  , 3
0.0422122255, 0.124391332 , -9.589359   , -0.00158434093, -0.0009176931, -0.00253615179, -0.214304969, -0.0239989217, 0.450384259 , 137.010071  , 3
0.0489482135, 0.134719864 , -9.595646   , -0.00225015148, -0.000917693, -0.00346828648, -0.214170143, -0.0239315089, 0.450451672 , 137.020065  , 3
0.0619711354, 0.1140628   , -9.601933   , 0.00281000882, -0.00118401728, -0.00133769284, -0.214170143, -0.0239315089, 0.450451672 , 137.03006   , 3
0.0610730052, 0.114511877 , -9.601484   , 0.00334265758, 0.000547090254, -6.07162747E-06, -0.214372382, -0.0235944446, 0.450519085 , 137.04007   , 3
0.0624201968, 0.136516124 , -9.577683   , 0.00281000882, 0.00321033271, -0.00133769261, -0.214304969, -0.0239315089, 0.450519085 , 137.050064  , 3
0.0507444739, 0.113164686 , -9.578582   , 0.00147838774, 0.00161238736, -0.002669314, -0.214170143, -0.02372927 , 0.450451672 , 137.060059  , 3
0.07813752  , 0.127534792 , -9.592952   , 0.000945739448, -0.000118720345, -0.00187034137, -0.214170143, -0.02372927 , 0.450451672 , 137.070068  , 3
0.03772156  , 0.112715609 , -9.610465   , 0.0002799288, -0.000118720345, -0.00200350326, -0.2144398  , -0.0237966832, 0.450451672 , 137.080063  , 3
0.06331833  , 0.122595072 , -9.62304    , -0.00065220613, 0.00147922512, -0.00226982753, -0.214304969, -0.02372927 , 0.450384259 , 137.090057  , 3
0.07274872  , 0.118553475 , -9.583522   , 0.00121206348, 0.003476657 , -0.000938206445, -0.214170143, -0.0237966832, 0.450249434 , 137.100067  , 3
0.05478607  , 0.106428683 , -9.571846   , -0.000519043, 0.00121290085, -0.000938111858, -0.214170143, -0.0237966832, 0.450249434 , 137.110062  , 3
0.04849915  , 0.12528947  , -9.584868   , -0.00464706868, -0.00158350356, -0.00147076033, -0.2144398  , -0.023864096, 0.450451672 , 137.120071  , 3
0.0484991521, 0.12214601  , -9.577235   , -0.00251647481, -0.00131717941, -0.00240289513, -0.214237556, -0.0235270318, 0.450384259 , 137.130066  , 3
0.057031408 , 0.106428683 , -9.561068   , -0.0009185293, 0.001212901 , -0.00413400261, -0.214237556, -0.0237966832, 0.450182021 , 137.14006   , 3
0.0570314   , 0.117655337 , -9.589808   , -0.00225015054, 0.00107973884, -0.00466665067, -0.214237556, -0.0237966832, 0.450182021 , 137.15007   , 3
0.0359252952, 0.103285223 , -9.586665   , -0.00171750225, -0.000651368755, -0.00293554366, -0.21457462 , -0.02372927 , 0.450451672 , 137.160065  , 3
0.0673599243, 0.115410022 , -9.594299   , -0.000918529462, -0.000251882419, -0.00320186769, -0.214170143, -0.02372927 , 0.450316846 , 137.170059  , 3
0.07050339  , 0.103734285 , -9.589808   , -0.000918529462, -0.0007845309, -0.00306870579, -0.214304969, -0.023864096, 0.450182021 , 137.180069  , 3
0.0547860749, 0.107326813 , -9.575888   , -0.0006522052, -0.0007845309, -0.00107127393, -0.214304969, -0.023864096, 0.450182021 , 137.190063  , 3
0.0525407456, 0.100141756 , -9.573193   , -0.0009185293, -0.000917693, -0.0020034085, -0.2144398  , -0.0235270318, 0.450384259 , 137.200058  , 3
0.0556842   , 0.12528947  , -9.611363   , 0.0004130927, -0.00145034166, -0.0028022863, -0.2145072  , -0.0237966832, 0.450384259 , 137.210068  , 3
0.0637673959, 0.1127156   , -9.587113   , 0.0002799305, -0.000784531061, -0.00160382758, -0.214372382, -0.0235270318, 0.450249434 , 137.220062  , 3
0.0511935465, 0.09250764  , -9.578582   , -0.000252717757, 1.44416708E-05, -0.000538530468, -0.214372382, -0.0239989217, 0.450384259 , 137.230057  , 3
0.04625382  , 0.124391332 , -9.59385    , 0.00201103813, -0.000784531061, -0.00120434107, -0.214372382, -0.0239989217, 0.450384259 , 137.240067  , 3
0.0592767373, 0.108674005 , -9.613609   , 0.001877876 , -0.0005182068, -0.0026691244, -0.214237556, -0.023864096, 0.450249434 , 137.250061  , 3
0.03547623  , 0.118104391 , -9.610915   , 0.000279930653, 0.000813414343, -0.00173698959, -0.214372382, -0.0237966832, 0.450182021 , 137.260071  , 3
0.0489482135, 0.133372664 , -9.58442    , -0.00105169066, -0.0009176931, -0.000938016863, -0.214372382, -0.023864096, 0.450316846 , 137.270065  , 3
0.0538879447, 0.1167572   , -9.593401   , 1.36064045E-05, -0.00264880038, -0.00160382735, -0.214372382, -0.023864096, 0.450316846 , 137.28006   , 3
0.06915619  , 0.102387078 , -9.589808   , 0.00134522759, -0.00158350356, -0.0026691244, -0.214304969, -0.02372927 , 0.450249434 , 137.29007   , 3
0.0628692657, 0.123942263 , -9.589359   , 0.001877876 , 0.00121290085, -0.00293544866, -0.214170143, -0.02372927 , 0.450182021 , 137.300064  , 3
0.043110352 , 0.1194516   , -9.585767   , 0.00294317375, 0.00307717035, -0.002003219, -0.214372382, -0.0239315089, 0.450451672 , 137.310059  , 3
0.04221222  , 0.120349742 , -9.607771   , 0.00121206616, 0.00134606264, -0.002003219, -0.214372382, -0.0239315089, 0.450451672 , 137.320068  , 3
0.06735993  , 0.1140628   , -9.605526   , 0.00121206627, 1.444156E-05, -0.00266902964, -0.214304969, -0.023864096, 0.450384259 , 137.330063  , 3
0.0601748675, 0.103734285 , -9.583971   , 0.0013452284, 1.444156E-05, -0.00346800266, -0.214170143, -0.023864096, 0.450316846 , 137.340057  , 3
0.0332309   , 0.1113684   , -9.596544   , -0.000918527658, 0.000280765758, -0.002802192, -0.21457462 , -0.02372927 , 0.4505865   , 137.350067  , 3
0.0390687548, 0.108674005 , -9.591156   , -0.00105168985, 0.000946576358, -0.00187005685, -0.21457462 , -0.02372927 , 0.4505865   , 137.360062  , 3
0.0570314   , 0.104183353 , -9.584869   , 0.0004130935, -0.000784531061, -0.00240270561, -0.2144398  , -0.0237966832, 0.450384259 , 137.370071  , 3
0.0507444777, 0.0987945646, -9.583971   , -0.00118485186, -0.00171666581, -0.00280219177, -0.214237556, -0.0239315089, 0.450316846 , 137.380066  , 3
0.0413140878, 0.118553475 , -9.587114   , -0.00344860787, 0.00014760367, -0.004400137, -0.2145072  , -0.0239315089, 0.450249434 , 137.39006   , 3
0.0538879447, 0.118104406 , -9.592503   , -0.000519041263, -0.000251882739, -0.00479962351, -0.2145072  , -0.0239315089, 0.450249434 , 137.40007   , 3
0.04805008  , 0.107326813 , -9.588013   , 0.0012120672, -0.0005182071, -0.00280209724, -0.2145072  , -0.023864096, 0.450384259 , 137.410065  , 3
0.07140153  , 0.107775889 , -9.599239   , -0.00171749934, 0.00014760354, -0.00160363817, -0.2144398  , -0.0241337474, 0.450249434 , 137.420059  , 3
0.08487351  , 0.100590825 , -9.587114   , -0.00278279628, -0.000118720687, -0.00253577321, -0.2144398  , -0.0239315089, 0.450384259 , 137.430069  , 3
0.06691086  , 0.127983868 , -9.571846   , 0.000546256546, -0.00145034178, -0.00213628658, -0.2144398  , -0.0239315089, 0.450384259 , 137.440063  , 3
0.06197113  , 0.129331052 , -9.591155   , 0.00161155348, -0.001716666, -0.00120415178, -0.214372382, -0.0236618575, 0.450316846 , 137.450058  , 3
0.07364686  , 0.110470288 , -9.587114   , 0.00134522934, 0.0002807657, -0.00213628658, -0.2144398  , -0.0239989217, 0.450316846 , 137.460068  , 3
0.07454499  , 0.104183353 , -9.58891    , 0.000679418736, 0.00107973837, -0.001470476, -0.2144398  , -0.0239315089, 0.450384259 , 137.470062  , 3
0.0660127252, 0.104632415 , -9.58397    , -0.00131801306, 0.000413927773, -0.000138854855, -0.2144398  , -0.0239315089, 0.450384259 , 137.480057  , 3
0.0628692657, 0.110919349 , -9.580828   , -0.00065220223, -0.00278196321, -0.000405179133, -0.214372382, -0.023864096, 0.450519085 , 137.490067  , 3
0.0610729977, 0.101488955 , -9.588012   , 0.000279932516, -0.00318144937, -0.00280209724, -0.214304969, -0.0239315089, 0.4505865   , 137.500061  , 3
0.05748047  , 0.104183353 , -9.56331348 , -0.0009185256, -0.00171666616, -0.003068327, -0.214237556, -0.0239315089, 0.450451672 , 137.510071  , 3
0.0489482135, 0.104183353 , -9.560618   , 1.36090421E-05, -0.0003850451, -0.00120405725, -0.214237556, -0.0239315089, 0.450451672 , 137.520065  , 3
0.0570314   , 0.107326813 , -9.554332   , 0.00254368945, 0.00254452135, -0.00160354364, -0.214372382, -0.023864096, 0.450519085 , 137.53006   , 3
0.07050339  , 0.117655337 , -9.572743   , 0.00320949988, 0.00187871081, -0.00147038139, -0.214304969, -0.0239989217, 0.450519085 , 137.54007   , 3
0.06691086  , 0.1167572   , -9.602382   , 0.00294317561, -0.000385045016, -0.00160354364, -0.214237556, -0.0239989217, 0.450316846 , 137.550064  , 3
0.0547860749, 0.1113684   , -9.598341   , 0.00161155441, 0.0001476035, -0.00253567845, -0.214237556, -0.0239989217, 0.450316846 , 137.560059  , 3
0.0669108555, 0.112715624 , -9.602383   , 0.0014783924, 0.0006802519, -0.00280200271, -0.2145072  , -0.0237966832, 0.450384259 , 137.570068  , 3
0.06960526  , 0.1127156   , -9.592503   , 0.00134523027, -0.00251563918, -0.00173670577, -0.214237556, -0.0237966832, 0.450519085 , 137.580063  , 3
0.0574804731, 0.123942271 , -9.592504   , 0.000146771315, -0.0031814496, -0.000138760312, -0.2145072  , -0.0237966832, 0.450451672 , 137.590057  , 3
0.0660127252, 0.129780129 , -9.573194   , 0.00134523027, -0.001450342, -0.000271922443, -0.2145072  , -0.0237966832, 0.450451672 , 137.600067  , 3
0.0835263059, 0.124840394 , -9.600586   , 0.00147839333, -0.00118401775, -0.00173661124, -0.214304969, -0.0236618575, 0.450519085 , 137.610062  , 3
0.0583786   , 0.111817479 , -9.583072   , -0.00251647015, -0.00118401775, -0.00306823244, -0.214372382, -0.02372927 , 0.450316846 , 137.620071  , 3
0.04580475  , 0.117206275 , -9.58980751 , -0.0034486053, -0.000385045132, -0.00306823244, -0.2144398  , -0.023864096, 0.4505865   , 137.630066  , 3
0.0426612869, 0.110470288 , -9.585318   , 1.36101335E-05, 0.00147922453, -0.00226925965, -0.2144398  , -0.023864096, 0.4505865   , 137.64006   , 3
0.04490662  , 0.109572142 , -9.587114   , 0.00161155558, 0.00227819732, -0.00133712485, -0.2144398  , -0.0237966832, 0.450451672 , 137.65007   , 3
0.0534388758, 0.100590818 , -9.566457   , -0.00198382186, 0.00147922465, -0.00160344923, -0.214372382, -0.023864096, 0.4505865   , 137.660065  , 3
0.07050339  , 0.104183353 , -9.578582   , -0.00358176744, -0.000385045045, -0.00226925965, -0.214304969, -0.023864096, 0.450384259 , 137.670059  , 3
0.07229966  , 0.13022919  , -9.60911751 , -0.000385876279, -0.000518207147, -0.0005381522, -0.214304969, -0.023864096, 0.450384259 , 137.680069  , 3
0.0467028841, 0.08936417  , -9.586665   , -0.000119552038, 0.000147603452, 0.000527144759, -0.214304969, -0.0235944446, 0.450519085 , 137.690063  , 3
0.0381706245, 0.102387078 , -9.586664   , -0.00105168694, 0.000813414 , -0.001470287, -0.214237556, -0.02420116 , 0.450451672 , 137.700058  , 3
0.0606239364, 0.12528947  , -9.594748   , 1.3611043E-05, 0.000547089556, -0.00253548985, -0.2144398  , -0.02372927 , 0.450249434 , 137.710068  , 3
0.065114595 , 0.126636669 , -9.58262348 , -0.000119551078, -0.001184018, -0.002668652, -0.214642033, -0.0239989217, 0.4505865   , 137.720062  , 3
0.07634125  , 0.100590825 , -9.589359   , -0.00171749655, -0.000385045336, -0.00360078667, -0.214642033, -0.0239989217, 0.4505865   , 137.730057  , 3
0.0776884556, 0.123942271 , -9.582174   , -0.000119551172, -0.000118721029, -0.002934976, -0.214304969, -0.02372927 , 0.4505865   , 137.740067  , 3
0.07544312  , 0.1113684   , -9.606873   , -0.00158433453, -0.0031814496, -0.00253548985, -0.214372382, -0.0237966832, 0.450451672 , 137.750061  , 3
0.05164261  , 0.125738531 , -9.609567   , -0.003714928, -0.003447774, -0.00293497648, -0.2145072  , -0.023864096, 0.450519085 , 137.760071  , 3
0.0408650227, 0.12528947  , -9.57454    , 0.000146772989, -0.0005182074, -0.00240232772, -0.2145072  , -0.023864096, 0.450519085 , 137.770065  , 3
0.07768845  , 0.105081491 , -9.580379   , 0.00121207  , 0.00174554845, -0.00253548985, -0.214304969, -0.0239989217, 0.450451672 , 137.78006   , 3
0.08936417  , 0.113164686 , -9.597892   , -0.00178407761, -0.000518207438, -0.002602071, -0.2144398  , -0.0239989217, 0.450182021 , 137.79007   , 3
0.07185059  , 0.0916095   , -9.587114   , -0.00324886059, -0.0009842748, -0.00273523317, -0.2144398  , -0.02372927 , 0.450519085 , 137.800064  , 3
0.05613327  , 0.106428683 , -9.574091   , -0.00238330546, 0.00121290016, -0.002601976, -0.2144398  , -0.02372927 , 0.450519085 , 137.810059  , 3
0.06780899  , 0.102387093 , -9.581725   , -0.0019838193, 8.102217E-05, -0.00313462457, -0.214304969, -0.02372927 , 0.450519085 , 137.820068  , 3
0.07140152  , 0.1113684   , -9.605076   , -0.00118484662, -0.0009176937, -0.00153667922, -0.2144398  , -0.0236618575, 0.450316846 , 137.830063  , 3
0.07319779  , 0.119900674 , -9.592503   , 0.00147839554, -0.000451626343, -0.00193616562, -0.214304969, -0.0237966832, 0.450451672 , 137.840057  , 3
0.06466553  , 0.09654923  , -9.588013   , 0.000479679846, 0.000547089556, -0.00226907083, -0.214304969, -0.0237966832, 0.450451672 , 137.850067  , 3
0.0574804731, 0.120349735 , -9.576785   , -0.0005190361, 1.444106E-05, -0.0008708687, -0.214304969, -0.0239315089, 0.450519085 , 137.860062  , 3
0.05613327  , 0.12843293  , -9.561966   , -0.005246291, -0.00165008521, -0.00120377389, -0.214304969, -0.023864096, 0.450316846 , 137.870071  , 3
0.0462538153, 0.132923588 , -9.566008   , 0.00041309878, -0.00351435528, -0.00266855746, -0.214304969, -0.0237966832, 0.450519085 , 137.880066  , 3
0.04625382  , 0.119900674 , -9.592054   , 0.0010123282, -0.00138376106, -0.00107061176, -0.214304969, -0.0237966832, 0.450519085 , 137.89006   , 3
0.07140152  , 0.103734285 , -9.613159   , 0.00141181459, 0.00127948122, -0.00180300348, -0.2144398  , -0.0236618575, 0.4506539   , 137.90007   , 3
0.0520916767, 0.123493187 , -9.57948    , 0.00194446393, 0.0006802517, -0.000671030662, -0.214372382, -0.0240663346, 0.450451672 , 137.910065  , 3
0.0520916767, 0.104183353 , -9.580828   , 0.00161155884, -0.000118721051, 0.0004608472, -0.2145072  , -0.0237966832, 0.4505865   , 137.920059  , 3
0.056133274 , 0.107775889 , -9.60328    , 0.00127865374, -0.00145034224, -0.00113709818, -0.2145072  , -0.0237966832, 0.4505865   , 137.930069  , 3
0.06780899  , 0.110470288 , -9.593401   , -0.00238330476, -0.0020495716, -0.002135814, -0.2145072  , -0.0237966832, 0.4506539   , 137.940063  , 3
0.07409592  , 0.117655337 , -9.561966   , 0.002210788 , 0.0002807654, -0.00166974647, -0.2144398  , -0.02372927 , 0.450384259 , 137.950058  , 3
0.07185059  , 0.117206275 , -9.576336   , 0.00174472085, 0.0006802517, -0.00346743548, -0.2145072  , -0.0239989217, 0.450519085 , 137.960068  , 3
0.0592767373, 0.10957215  , -9.598341   , -0.000252710917, 0.00174554845, -0.00393350236, -0.2145072  , -0.0239989217, 0.450519085 , 137.970062  , 3
0.0597258   , 0.127534792 , -9.612711   , -5.29676872E-05, -0.00105085562, -0.00266846269, -0.214372382, -0.0237966832, 0.450721323 , 137.980057  , 3
0.05164261  , 0.115410022 , -9.596544   , 0.00254369364, 8.102223E-05, -0.002268976, -0.214372382, -0.0239315089, 0.450316846 , 137.990067  , 3
0.0610729977, 0.104183346 , -9.577234   , 0.00114549138, 0.000813413761, -0.002268976, -0.214372382, -0.023864096, 0.450519085 , 138.000061  , 3
0.06825806  , 0.10867402  , -9.580828   , 0.0002133575, 1.44409341E-05, -0.00286811125, -0.214372382, -0.023864096, 0.450519085 , 138.010071  , 3
0.06691086  , 0.112715624 , -9.596544   , 0.0009457493, 0.00154580525, -0.00246862485, -0.2144398  , -0.0239315089, 0.450721323 , 138.020065  , 3
0.0610730052, 0.112266541 , -9.608668   , -0.0005856153, 0.00114631886, -0.00166965206, -0.214304969, -0.0239315089, 0.450519085 , 138.03006   , 3
0.06691086  , 0.119002536 , -9.601484   , 0.000812587154, -0.0007845317, -0.00306785456, -0.214372382, -0.023864096, 0.450519085 , 138.04007   , 3
0.0601748675, 0.155825958 , -9.572295   , 0.0018778838, 0.001279481 , -0.00320101646, -0.214372382, -0.023864096, 0.450519085 , 138.050064  , 3
0.0619711354, 0.132474527 , -9.573193   , -0.0009851016, 0.00154580537, -0.00286811125, -0.214304969, -0.0237966832, 0.4505865   , 138.060059  , 3
0.07589219  , 0.1261876   , -9.574092   , -0.00138458807, 0.000347346271, -0.00260178675, -0.214372382, -0.02372927 , 0.450451672 , 138.070068  , 3
0.05882767  , 0.128881991 , -9.572295   , 0.0006128439, 0.000214184169, -0.0009372604, -0.214304969, -0.0239315089, 0.450519085 , 138.080063  , 3
0.0282911714, 0.13202545  , -9.594299   , 0.000213357533, -0.00031846427, -0.00120358472, -0.214304969, -0.0239315089, 0.450519085 , 138.090057  , 3
0.0489482135, 0.123493187 , -9.592053   , -0.0009185206, -0.00171666639, -0.00226888154, -0.214372382, -0.023864096, 0.450788736 , 138.100067  , 3
0.0655636638, 0.124391332 , -9.574541   , 0.00121207407, -0.0005182077, -0.0015363954, -0.214372382, -0.0239989217, 0.450451672 , 138.110062  , 3
0.05478607  , 0.104183353 , -9.578133   , -0.00158433034, -0.00138376153, -0.00160297658, -0.214304969, -0.0236618575, 0.4505865   , 138.120071  , 3
0.0619711354, 0.105081491 , -9.59385    , -0.002583046, 0.000347346 , -0.002335368, -0.214304969, -0.0236618575, 0.4505865   , 138.130066  , 3
0.04715195  , 0.139210522 , -9.59385    , -0.00291595166, 0.00107973767, -0.0013366522, -0.2145072  , -0.0239315089, 0.4506539   , 138.14006   , 3
0.0476010144, 0.12214601  , -9.596095   , -0.0018506546, 0.000680251338, -0.00173613848, -0.2144398  , -0.0239989217, 0.4506539   , 138.15007   , 3
0.0628692657, 0.1261876   , -9.579479   , -0.00165091117, -0.000451626664, -0.00180271966, -0.214372382, -0.023864096, 0.450519085 , 138.160065  , 3
0.0808319151, 0.146844655 , -9.564212   , 0.0030763438, -0.00018530243, -0.0003379363, -0.214372382, -0.023864096, 0.450519085 , 138.170059  , 3
0.07679031  , 0.1261876   , -9.590707   , 8.019599E-05, -0.000185302459, -0.000870584743, -0.2144398  , -0.023864096, 0.450721323 , 138.180069  , 3
0.07229965  , 0.106877752 , -9.574541   , -0.00225014077, -0.00125059939, -0.000604260538, -0.214372382, -0.023864096, 0.4506539   , 138.190063  , 3
0.06870712  , 0.112715624 , -9.572744   , -0.0019172352, -0.000185302415, -0.00120349007, -0.2144398  , -0.023864096, 0.4505865   , 138.200058  , 3
0.0606239364, 0.127983868 , -9.583073   , -0.000918518752, -0.000118721393, -0.002668179, -0.2144398  , -0.023864096, 0.4505865   , 138.210068  , 3
0.0624201968, 0.122595072 , -9.591156   , 0.000346521527, -0.000451626664, -0.00206894963, -0.2145072  , -0.0237966832, 0.4506539   , 138.220062  , 3
0.0615220629, 0.11361374  , -9.616753   , 8.019723E-05, 0.00107973779, -0.00153630087, -0.214372382, -0.0240663346, 0.450519085 , 138.230057  , 3
0.07229966  , 0.115859084 , -9.589359   , -0.00371492282, -0.000784532, -7.151753E-05, -0.2144398  , -0.0236618575, 0.450519085 , 138.240067  , 3
0.0606239364, 0.121247865 , -9.575887   , -0.00291595026, 1.44407522E-05, -0.00180262513, -0.214642033, -0.02372927 , 0.450721323 , 138.250061  , 3
0.05119354  , 0.0987945646, -9.597443   , -0.00284936954, -0.000851113, -0.00393321924, -0.214642033, -0.02372927 , 0.450721323 , 138.260071  , 3
0.06780899  , 0.136067063 , -9.583521   , -0.004447315, 8.102181E-05, -0.004998516, -0.2144398  , -0.0239315089, 0.450451672 , 138.270065  , 3
0.0664617941, 0.1261876   , -9.583073   , -0.00351518 , -0.00184982875, -0.00340057048, -0.2145072  , -0.0237966832, 0.450519085 , 138.28006   , 3
0.09565109  , 0.113164686 , -9.599238   , -0.00205039652, -0.00184982875, -0.0008039093, -0.21457462 , -0.0239989217, 0.450856149 , 138.29007   , 3
0.07723938  , 0.12528947  , -9.604178   , -0.000319289131, 1.44407522E-05, -0.003933219, -0.21457462 , -0.0239989217, 0.450856149 , 138.300064  , 3
0.0597258061, 0.119002536 , -9.59879    , -0.000252707163, -0.00105085608, -0.00260150339, -0.2144398  , -0.0239315089, 0.4506539   , 138.310059  , 3
0.07858658  , 0.110919349 , -9.588012   , 0.00181130564, -0.002981707, -0.00113672 , -0.2145072  , -0.0239315089, 0.4506539   , 138.320068  , 3
0.0606239252, 0.1140628   , -9.581725   , 0.0011454951, -0.00125059928, -0.00113672 , -0.2145072  , -0.0237966832, 0.450856149 , 138.330063  , 3
0.0453556851, 0.119900674 , -9.56017    , -0.00191723357, 8.102195E-05, -0.001203301, -0.2145072  , -0.0237966832, 0.450856149 , 138.340057  , 3
0.0417631567, 0.140557721 , -9.597892   , 0.000213360327, -0.0003184644, 0.0001949011, -0.2144398  , -0.02372927 , 0.450721323 , 138.350067  , 3
0.0633183345, 0.147742778 , -9.589808   , 0.000612846634, -0.00131718023, -0.00153620623, -0.214237556, -0.0239989217, 0.4506539   , 138.360062  , 3
0.0538879447, 0.124391332 , -9.587563   , 0.00181130553, 1.44408432E-05, -0.003267314, -0.2144398  , -0.0236618575, 0.450923562 , 138.370071  , 3
0.0507444777, 0.115859084 , -9.581725   , -0.00171749061, 0.00154580525, -0.00439919159, -0.2144398  , -0.0236618575, 0.450923562 , 138.380066  , 3
0.06825806  , 0.110919349 , -9.586665   , -0.00384808448, -0.0005182076, -0.00286782742, -0.214372382, -0.0237966832, 0.4505865   , 138.39006   , 3
0.08352631  , 0.114511877 , -9.599238   , -0.00191723381, -0.00111743715, -0.0006706525, -0.214372382, -0.023864096, 0.4505865   , 138.40007   , 3
0.0628692657, 0.141455844 , -9.588013   , -0.00198381371, -5.21399452E-05, -0.00153611181, -0.214642033, -0.0236618575, 0.450721323 , 138.410065  , 3
0.04984634  , 0.134719849 , -9.576786   , 0.00114549592, 0.00167896762, -0.003200638, -0.214642033, -0.0236618575, 0.450721323 , 138.420059  , 3
0.09475297  , 0.122145995 , -9.578133   , 0.00207763072, -5.2139967E-05, -0.003999611, -0.2144398  , -0.0237966832, 0.4506539   , 138.430069  , 3
0.08128098  , 0.117655344 , -9.584419   , 0.0010123339, -0.002182734, 6.183368E-05, -0.214372382, -0.023864096, 0.450721323 , 138.440063  , 3
0.0534388758, 0.119002536 , -9.590258   , 0.0012786584, -0.0008511126, -0.00213534152, -0.214372382, -0.0237966832, 0.450788736 , 138.450058  , 3
0.07723939  , 0.118553467 , -9.566008   , 0.003076347 , -0.000451626285, -0.00273457076, -0.214372382, -0.0237966832, 0.450788736 , 138.460068  , 3
0.07229966  , 0.105979614 , -9.590257   , 0.00300976564, 0.000480508519, -0.00273457076, -0.2145072  , -0.0235944446, 0.450856149 , 138.470062  , 3
0.07768845  , 0.110919349 , -9.574091   , 0.00241053617, 0.000813413761, -0.0026014084, -0.214372382, -0.023864096, 0.450721323 , 138.480057  , 3
0.07499406  , 0.112715609 , -9.5754385  , 0.00307634659, 0.00161238643, -0.00273457076, -0.21457462 , -0.023864096, 0.450721323 , 138.490067  , 3
0.0574804731, 0.109123081 , -9.57948    , 0.00174472551, -0.0003184642, -0.0012032066, -0.21457462 , -0.023864096, 0.450721323 , 138.500061  , 3
0.0552351438, 0.107775889 , -9.610914   , -0.00218355586, -0.001050856, -0.00306738145, -0.2144398  , -0.0236618575, 0.450856149 , 138.510071  , 3
0.06915619  , 0.11541     , -9.587114   , -0.00371492025, 0.000547089439, -0.000270977267, -0.2144398  , -0.023864096, 0.4506539   , 138.520065  , 3
0.07409592  , 0.110470288 , -9.579479   , -0.00105167809, -0.0009176939, -0.002268409, -0.214372382, -0.023864096, 0.450721323 , 138.53006   , 3
0.06152207  , 0.128881991 , -9.597892   , 0.00187788846, -0.00118401821, -0.00213524676, -0.214372382, -0.023864096, 0.450721323 , 138.54007   , 3
0.03996689  , 0.134719849 , -9.601484   , -0.000652191637, -0.0008511127, -0.00173576048, -0.2144398  , -0.0237966832, 0.450856149 , 138.550064  , 3
0.0467028841, 0.1037343   , -9.581725   , -0.00351517741, -0.0009842749, -0.00233499 , -0.214372382, -0.02372927 , 0.450721323 , 138.560059  , 3
0.0520916767, 0.119900674 , -9.575888   , 0.00167814584, -0.0004516265, -0.000537301356, -0.2145072  , -0.0237966832, 0.4506539   , 138.570068  , 3
0.0705033839, 0.12214601  , -9.576786   , -0.0009850968, -0.0002518833, -0.00027097718, -0.2145072  , -0.0237966832, 0.4506539   , 138.580063  , 3
0.07185059  , 0.115859084 , -9.575887   , -0.00331543433, -0.0030482877, -0.001203112, -0.2145072  , -0.02372927 , 0.450856149 , 138.590057  , 3
0.0673599243, 0.1194516   , -9.583073   , -0.00158432673, -0.002182734, -0.000470720319, -0.2144398  , -0.0237966832, 0.450788736 , 138.600067  , 3
0.05478607  , 0.09789643  , -9.580378   , -0.000319285435, 0.000413927337, -0.00213515246, -0.2145072  , -0.0239315089, 0.4506539   , 138.610062  , 3
0.0534388721, 0.102387078 , -9.592952   , 0.00127865991, -0.000118721095, -0.003599936, -0.2145072  , -0.0239315089, 0.4506539   , 138.620071  , 3
0.0543370023, 0.10867402  , -9.586665   , 0.003342673 , -0.00111743691, -0.00166908489, -0.214372382, -0.02372927 , 0.450721323 , 138.630066  , 3
0.05882767  , 0.125738531 , -9.587563   , 0.0006794304, 0.000280765147, -0.00073695 , -0.2144398  , -0.0239315089, 0.450721323 , 138.64006   , 3
0.0565823428, 0.110470288 , -9.59879    , -0.000186123318, 0.000214184125, 0.000128603773, -0.214372382, -0.023864096, 0.450721323 , 138.65007   , 3
0.09116043  , 0.117655344 , -9.596544   , 0.00347583462, 0.001013157 , -4.55835925E-06, -0.214372382, -0.023864096, 0.450721323 , 138.660065  , 3
0.05882767  , 0.125738531 , -9.593849   , 0.002277376 , 0.00214503449, -0.00213515246, -0.2145072  , -0.0236618575, 0.450923562 , 138.670059  , 3
0.07454498  , 0.13202545  , -9.596993   , 0.000679430552, 0.0026111023, -0.0030007062, -0.2145072  , -0.02372927 , 0.450856149 , 138.680069  , 3
0.0579295419, 0.107326813 , -9.580827   , 1.36198942E-05, 8.10220154E-05, -0.00106985541, -0.214642033, -0.0237966832, 0.450721323 , 138.690063  , 3
0.07005432  , 0.1167572   , -9.581276   , 0.000679430552, 1.44409914E-05, -0.00140276062, -0.214642033, -0.0237966832, 0.450721323 , 138.700058  , 3
0.07095246  , 0.122595072 , -9.583971   , -0.000851933, 8.10220445E-05, -0.00353326 , -0.214642033, -0.023864096, 0.450721323 , 138.710068  , 3
0.0556842   , 0.10957215  , -9.566906   , -0.00244987849, 0.00141264312, -0.00273428741, -0.214304969, -0.023864096, 0.450788736 , 138.720062  , 3
0.0592767373, 0.105081491 , -9.599239   , 0.00121207966, 0.00227819686, -0.0006702745, -0.2144398  , -0.0239315089, 0.450519085 , 138.730057  , 3
0.0619711354, 0.104183353 , -9.597443   , 0.00234395755, -0.0009842748, -0.001136342, -0.2145072  , -0.0237966832, 0.4506539   , 138.740067  , 3
0.07768845  , 0.1261876   , -9.592952   , 0.002676863 , 0.0008799947, -0.00246796315, -0.2145072  , -0.0237966832, 0.4506539   , 138.750061  , 3
0.0592767373, 0.114511877 , -9.572295   , -0.000585608766, -0.001117437, -0.00140266609, -0.21457462 , -0.0239989217, 0.4506539   , 138.760071  , 3
0.09071137  , 0.105979621 , -9.596095   , 0.001478404 , 8.102199E-05, -0.0021350577, -0.2145072  , -0.0237966832, 0.450519085 , 138.770065  , 3
0.0996926948, 0.104632415 , -9.583521   , 0.000746012433, 0.0026111023, -0.00333351712, -0.2145072  , -0.0235270318, 0.450856149 , 138.78006   , 3
0.0642164648, 0.123942263 , -9.576786   , -0.0018506489, 0.00141264312, -0.0034000976, -0.2145072  , -0.0235270318, 0.450856149 , 138.79007   , 3
0.07544312  , 0.132474527 , -9.599688   , -0.00271620275, 0.00101315684, -0.003333517, -0.2144398  , -0.0237966832, 0.450788736 , 138.800064  , 3
0.07858658  , 0.1472937   , -9.586216   , 0.00101233751, 0.0008799949, -0.002933936, -0.2144398  , -0.0239989217, 0.450721323 , 138.810059  , 3
0.0592767373, 0.13202545  , -9.572295   , -0.0003192837, -0.00238247681, -0.000803342147, -0.214642033, -0.0236618575, 0.450856149 , 138.820068  , 3
0.0493972823, 0.133372664 , -9.577683   , -0.00238329638, -0.002249315, -0.00153573346, -0.214642033, -0.0236618575, 0.450856149 , 138.830063  , 3
0.056133274 , 0.12708573  , -9.592952   , -0.00118483731, -0.0008511126, -0.0034000033, -0.2144398  , -0.0237966832, 0.450923562 , 138.840057  , 3
0.07858658  , 0.118104406 , -9.580378   , 0.00174472923, -0.00171666616, -0.00246786838, -0.214642033, -0.023864096, 0.450721323 , 138.850067  , 3
0.07723938  , 0.120349735 , -9.570948   , 0.00194447208, 0.00147922442, -0.00320026022, -0.21457462 , -0.02372927 , 0.450721323 , 138.860062  , 3
0.0660127252, 0.132025465 , -9.58980751 , 0.00374216121, 0.0018787107, -0.00260103052, -0.21457462 , -0.02372927 , 0.450721323 , 138.870071  , 3
0.07409592  , 0.137414247 , -9.580379   , 0.00221079681, 0.0008134137, -0.003866071, -0.2145072  , -0.0236618575, 0.450856149 , 138.880066  , 3
0.065114595 , 0.108224951 , -9.592053   , -0.00151774264, -0.000251883117, -0.00320026022, -0.2144398  , -0.0237966832, 0.4505865   , 138.89006   , 3
0.06691086  , 0.131127328 , -9.58891    , -0.00251645851, -0.0009176937, -0.0034000033, -0.2145072  , -0.0235270318, 0.450788736 , 138.90007   , 3
0.06466553  , 0.138312384 , -9.58891    , -0.0023167145, 0.00114631909, -0.00320016523, -0.2145072  , -0.0235270318, 0.450788736 , 138.910065  , 3
0.0615220629, 0.1194516   , -9.572295   , -0.000252701517, 8.102217E-05, -0.00206828746, -0.2144398  , -0.0239989217, 0.450856149 , 138.920059  , 3
0.0633183345, 0.110021226 , -9.592952   , -0.0009850933, -0.002715382, -0.001535639, -0.214372382, -0.0240663346, 0.4506539   , 138.930069  , 3
0.09071137  , 0.119002536 , -9.596544   , -0.0004524448, -0.00145034213, -0.00146905787, -0.214304969, -0.0235944446, 0.450788736 , 138.940063  , 3
0.07454498  , 0.126636669 , -9.604628   , 0.00334267551, 0.000547089556, -0.00333332736, -0.214304969, -0.0235944446, 0.450788736 , 138.950058  , 3
0.0826281756, 0.127983868 , -9.56331348 , 0.0004131091, 0.00134606229, -0.0006700852, -0.214372382, -0.023864096, 0.4506539   , 138.960068  , 3
0.0507444777, 0.12124785  , -9.578582   , 0.00121208187, -0.0007845316, -0.0009364095, -0.2144398  , -0.0239315089, 0.4505865   , 138.970062  , 3
0.06825806  , 0.114062816 , -9.616753   , 0.0004131091, -0.00158350437, -0.0006700852, -0.2144398  , -0.02372927 , 0.450721323 , 138.980057  , 3
0.056133274 , 0.114062816 , -9.599688   , -0.000119539436, 0.001079738 , -0.00173538213, -0.2144398  , -0.02372927 , 0.450721323 , 138.990067  , 3
0.07903565  , 0.104183346 , -9.583522   , 0.00014678482, 0.0018787107, -0.00120273361, -0.214372382, -0.02372927 , 0.450788736 , 139.000061  , 3
0.0664617941, 0.111817479 , -9.588461   , -0.000119538505, 0.00107973814, -0.000936314929, -0.2144398  , -0.0239989217, 0.450519085 , 139.010071  , 3
0.0390687548, 0.09924362  , -9.5754385  , 0.00254370365, -0.0005182072, -0.003066909, -0.21457462 , -0.0239315089, 0.4506539   , 139.020065  , 3
0.0498463474, 0.133372664 , -9.581725   , -0.000652187038, -0.00211615255, -0.003599557, -0.21457462 , -0.0239315089, 0.4506539   , 139.03006   , 3
0.0417631567, 0.124840394 , -9.56825352 , 0.0012120828, -0.00238247681, -0.002267936, -0.2145072  , -0.023864096, 0.450856149 , 139.04007   , 3
0.0565823428, 0.117206275 , -9.575888   , 0.00467429729, 0.00480827736, -0.003066909, -0.2144398  , -0.0241337474, 0.4505865   , 139.050064  , 3
0.0619711243, 0.119900674 , -9.586664   , -0.000119538505, 0.00161238667, 0.0003953064, -0.214372382, -0.02372927 , 0.450519085 , 139.060059  , 3
0.06780899  , 0.124391332 , -9.581725   , -0.00225013238, 1.44412043E-05, -0.00386588159, -0.214372382, -0.02372927 , 0.450519085 , 139.070068  , 3
0.06466553  , 0.121247873 , -9.579031   , -0.000652187038, -0.002648801, -0.0017352876, -0.2145072  , -0.02372927 , 0.4506539   , 139.080063  , 3
0.0673599243, 0.118553475 , -9.586665   , 0.00174473086, 1.44412043E-05, -0.00200161175, -0.2144398  , -0.023864096, 0.450519085 , 139.090057  , 3
0.0538879447, 0.12528947  , -9.611363   , 0.00334267644, 0.00187871081, 0.000128982123, -0.21457462 , -0.0239315089, 0.450721323 , 139.100067  , 3
0.0574804731, 0.115859084 , -9.602831   , -0.004114401, -0.00158350437, -0.001468869, -0.21457462 , -0.0239315089, 0.450721323 , 139.110062  , 3
0.0583786   , 0.125738531 , -9.581725   , -0.000119537588, 0.002145035 , -0.00386578729, -0.21457462 , -0.02372927 , 0.450856149 , 139.120071  , 3
0.06960526  , 0.123942263 , -9.561966   , 0.00121208373, -0.00211615255, -0.0009362206, -0.214237556, -0.023864096, 0.450519085 , 139.130066  , 3
0.0538879447, 0.127983868 , -9.596096   , 0.0017447318, -0.00105085585, 0.000129076419, -0.2144398  , -0.0237966832, 0.450721323 , 139.14006   , 3
0.03682343  , 0.12708573  , -9.586665   , 0.000146786682, 0.004275629 , -0.001468869, -0.2144398  , -0.0237966832, 0.450721323 , 139.15007   , 3
0.0664617941, 0.131127328 , -9.583073   , 0.000413110974, 0.004275629 , -0.00280049024, -0.214642033, -0.02372927 , 0.450856149 , 139.160065  , 3
0.07499405  , 0.121247873 , -9.59879    , -0.00225013145, -0.000251883175, -0.00280049024, -0.2145072  , -0.0240663346, 0.4505865   , 139.170059  , 3
0.06960526  , 0.111817479 , -9.596544   , -0.00091851037, -0.00291512534, -0.001468869, -0.214304969, -0.0235944446, 0.450721323 , 139.180069  , 3
0.06960526  , 0.120798789 , -9.609568   , -0.000385861815, -0.00238247681, -0.00226784172, -0.214304969, -0.0235944446, 0.450721323 , 139.190063  , 3
0.04355942  , 0.117655344 , -9.600586   , -0.00171748293, 0.003210332 , -0.00439843535, -0.2145072  , -0.0237966832, 0.4505865   , 139.200058  , 3
0.03861969  , 0.118553475 , -9.592952   , -0.000119536657, 0.00214503473, -0.002800396, -0.2144398  , -0.023864096, 0.4506539   , 139.210068  , 3
0.0655636638, 0.136067063 , -9.577234   , 0.00067943614, -0.000518207555, 0.000661819 , -0.214372382, -0.0236618575, 0.450519085 , 139.220062  , 3
0.0426612869, 0.115859084 , -9.574091   , 0.00307635381, 0.000280765118, 0.000661819 , -0.214372382, -0.0236618575, 0.450519085 , 139.230057  , 3
0.0242495742, 0.120349735 , -9.604178   , -0.0011848337, -0.00291512581, 0.00252608885, -0.2144398  , -0.0236618575, 0.450721323 , 139.240067  , 3
0.0547860749, 0.121696934 , -9.607321   , 0.00254370552, 0.00187871046, -0.000137153547, -0.2144398  , -0.0239315089, 0.4505865   , 139.250061  , 3
0.05478607  , 0.120798804 , -9.588012   , -0.00225013052, 0.0005470893, -0.0004034778, -0.2144398  , -0.0239315089, 0.4506539   , 139.260071  , 3
0.0637673959, 0.114062816 , -9.58397    , 0.000413111877, -0.00105085608, 0.000129170716, -0.2145072  , -0.0237966832, 0.450788736 , 139.270065  , 3
0.0417631529, 0.139659584 , -9.610465   , 0.00281002978, 1.4440855E-05, -0.00226774742, -0.2145072  , -0.0237966832, 0.450788736 , 139.28006   , 3
0.0588276722, 0.110919349 , -9.594748   , 0.00121208467, 0.0005470893, -0.00146877475, -0.2145072  , -0.023864096, 0.4506539   , 139.29007   , 3
0.06017487  , 0.09789643  , -9.581276   , -0.000119536657, 0.0005470893, -0.0004034778, -0.2144398  , -0.0236618575, 0.450519085 , 139.300064  , 3
0.07723939  , 0.10957215  , -9.568703   , 0.00440797629, 0.001346062 , -0.0006697078, -0.2144398  , -0.0239315089, 0.4505865   , 139.310059  , 3
0.08262818  , 0.124840409 , -9.583073   , 0.00414165156, 0.003476656 , -0.00226765312, -0.2144398  , -0.0239315089, 0.4505865   , 139.320068  , 3
0.0592767373, 0.113164686 , -9.597892   , -0.00038586 , -0.00238247728, -0.0004033835, -0.214372382, -0.02372927 , 0.450519085 , 139.330063  , 3
0.03772156  , 0.120349742 , -9.590706   , -0.00304910238, -0.00158350449, -0.0006697078, -0.214170143, -0.023864096, 0.450519085 , 139.340057  , 3
0.0624201968, 0.120349735 , -9.570049   , -0.001451157, -0.00158350449, -0.00173500471, -0.21457462 , -0.02372927 , 0.4505865   , 139.350067  , 3
0.0664617941, 0.104183346 , -9.583073   , 0.00254370645, 0.0005470893, -0.00359927444, -0.21457462 , -0.02372927 , 0.4505865   , 139.360062  , 3
0.0520916767, 0.130678266 , -9.610465   , 0.0009457614, 0.000280765118, 0.0006619133, -0.2145072  , -0.023864096, 0.450721323 , 139.370071  , 3
0.0399668925, 0.119002536 , -9.580378   , 0.00227738218, 0.000280765118, -0.0006697078, -0.214372382, -0.0240663346, 0.450451672 , 139.380066  , 3
0.0291893   , 0.118104406 , -9.585767   , 0.002011058 , -0.000518207555, -0.00200132886, -0.214304969, -0.0236618575, 0.4506539   , 139.39006   , 3
0.0395178236, 0.09924363  , -9.595197   , -0.00251645385, 0.001346062 , -0.00200132886, -0.214304969, -0.0236618575, 0.4506539   , 139.40007   , 3
0.0327818319, 0.110919349 , -9.585767   , -0.00038585905, 0.00241135852, -0.00306653162, -0.214237556, -0.0236618575, 0.450721323 , 139.410065  , 3
0.0507444739, 0.125738531 , -9.576336   , 0.00201105885, 0.00374297961, -0.00413182843, -0.2145072  , -0.0239989217, 0.450519085 , 139.420059  , 3
0.0538879447, 0.116308138 , -9.585318   , 0.000679438 , 0.00107973744, -0.004930801, -0.214709446, -0.02372927 , 0.4506539   , 139.430069  , 3
0.0502954125, 0.09789643  , -9.607771   , -0.000119534787, -0.00344777433, -0.00280020735, -0.214709446, -0.02372927 , 0.4506539   , 139.440063  , 3
0.0574804731, 0.103285223 , -9.59699249 , 0.000413113739, 0.00187871011, -0.00386550417, -0.2145072  , -0.023864096, 0.4505865   , 139.450058  , 3
0.0646655262, 0.111368418 , -9.574989   , 0.00147841079, -0.00105085643, -0.0004032892, -0.214237556, -0.023864096, 0.450384259 , 139.460068  , 3
0.0583786   , 0.113164686 , -9.581276   , -0.000119534787, -0.00105085643, -0.0043981527, -0.21457462 , -0.0237966832, 0.4505865   , 139.470062  , 3
0.0444575548, 0.106877752 , -9.591155   , -0.00118483184, -0.00371409883, -0.0043981527, -0.21457462 , -0.0237966832, 0.4505865   , 139.480057  , 3
0.0489482135, 0.12843293  , -9.568702   , -0.0006521833, -0.00211615325, -0.00359918 , -0.214372382, -0.0237966832, 0.4506539   , 139.490067  , 3
0.06691086  , 0.110919349 , -9.56825352 , 0.00254370738, 0.00161238585, -0.000136964954, -0.214237556, -0.023864096, 0.450519085 , 139.500061  , 3
0.06825806  , 0.101488955 , -9.582174   , 0.004407978 , 0.002944007 , -0.00173481647, -0.214304969, -0.023864096, 0.4505865   , 139.510071  , 3
0.0309855677, 0.109123081 , -9.57948    , 0.00121208746, 0.0013460617, -0.00173481647, -0.214304969, -0.023864096, 0.4505865   , 139.520065  , 3
0.0610729977, 0.151335314 , -9.585767   , 0.000146790408, 0.00161238585, -0.00173481647, -0.214372382, -0.0237966832, 0.4506539   , 139.53006   , 3
0.0633183345, 0.100141764 , -9.610914   , -0.0006521824, 0.000280764769, -0.003599086, -0.214237556, -0.0239315089, 0.450384259 , 139.54007   , 3
0.0637673959, 0.105979621 , -9.601035   , 0.00600592373, 0.00267768279, -0.0020011405, -0.214372382, -0.0236618575, 0.4506539   , 139.550064  , 3
0.0507444777, 0.1167572   , -9.590706   , 0.0009457632, 0.003210331 , -0.00280011329, -0.214372382, -0.0236618575, 0.4506539   , 139.560059  , 3
0.07589218  , 0.134270787 , -9.588461   , 0.00334268133, -0.00105085643, -0.004664383, -0.214372382, -0.0239315089, 0.4505865   , 139.570068  , 3
0.08352631  , 0.123493187 , -9.578582   , -0.00118483091, 1.44405049E-05, -0.004930707, -0.214237556, -0.02372927 , 0.450519085 , 139.580063  , 3
0.0615220629, 0.0969983   , -9.57005    , 0.00307635684, 0.00187871011, -0.00173481647, -0.214372382, -0.0237966832, 0.450451672 , 139.590057  , 3
0.0565823428, 0.113164686 , -9.603729   , 0.00174473552, -0.0005182079, -0.00173481647, -0.214372382, -0.0237966832, 0.450451672 , 139.600067  , 3
0.06466553  , 0.115859084 , -9.597891   , -0.00198380253, 0.00214503426, -0.0022673707, -0.214304969, -0.0239315089, 0.450519085 , 139.610062  , 3
0.0489482135, 0.109123081 , -9.583073   , 0.000146791339, -0.00131718081, -0.002533695, -0.214372382, -0.0239989217, 0.450519085 , 139.620071  , 3
0.03906876  , 0.12528947  , -9.589359   , 0.00147841265, 0.000547088857, -0.00200104644, -0.21457462 , -0.0233922079, 0.450451672 , 139.630066  , 3
0.05882767  , 0.13022919  , -9.586665   , 0.00174473645, 0.00214503426, -0.00280001923, -0.21457462 , -0.0233922079, 0.450451672 , 139.64006   , 3
0.0794847161, 0.124840394 , -9.5696     , -0.00065218145, 1.44403884E-05, -0.002533695, -0.2144398  , -0.0237966832, 0.4505865   , 139.65007   , 3
0.06466553  , 0.1234932   , -9.588012   , 0.000146791339, -0.000251883874, -0.00120207376, -0.214304969, -0.0239315089, 0.450384259 , 139.660065  , 3
0.0574804731, 0.1194516   , -9.589359   , 0.0028100335, 0.000547088857, -0.002533695, -0.214372382, -0.0239315089, 0.450451672 , 139.670059  , 3
0.0597258   , 0.134270787 , -9.603729   , 0.0004131156, 0.00374297961, -0.00173472217, -0.214372382, -0.0239315089, 0.450451672 , 139.680069  , 3
0.06601273  , 0.135168925 , -9.589808   , 0.00414165435, 0.003210331 , -0.0022673707, -0.2144398  , -0.0237966832, 0.4505865   , 139.690063  , 3
0.0565823428, 0.107775889 , -9.578133   , 0.002277385 , -0.0007845322, -0.000669425353, -0.214237556, -0.0239315089, 0.450519085 , 139.700058  , 3
0.07454498  , 0.1167572   , -9.595646   , -0.00091850484, -0.0031814503, 0.000129641267, -0.2144398  , -0.0240663346, 0.450519085 , 139.710068  , 3
0.0821791142, 0.117206275 , -9.595646   , 0.0030763587, -0.00211615348, -0.0014683042, -0.2144398  , -0.0240663346, 0.450519085 , 139.720062  , 3
0.0502954125, 0.09744736  , -9.573193   , 0.0006794408, -0.000251884, -0.000136683, -0.214372382, -0.0236618575, 0.450451672 , 139.730057  , 3
0.0628692657, 0.123942271 , -9.570948   , 0.003609008 , 0.000280764536, -0.0006693315, -0.214304969, -0.0240663346, 0.450451672 , 139.740067  , 3
0.07274872  , 0.114511877 , -9.564661   , -0.000385856285, -0.00105085666, -0.00040300726, -0.2144398  , -0.0239315089, 0.450316846 , 139.750061  , 3
0.0552351438, 0.0987945646, -9.574091   , 0.00201106165, 0.00134606147, -0.000136683, -0.2144398  , -0.023864096, 0.450451672 , 139.760071  , 3
0.07319779  , 0.104632415 , -9.595197   , 0.00201106165, 0.000813412946, -0.00120197993, -0.2144398  , -0.023864096, 0.450451672 , 139.770065  , 3
0.07005433  , 0.147293717 , -9.571846   , 0.0004131165, -0.00131718093, 0.0009286138, -0.214304969, -0.0237966832, 0.450249434 , 139.78006   , 3
0.0507444777, 0.1472937   , -9.601035   , 0.0004131165, -0.000251884, -0.00226727687, -0.214372382, -0.0236618575, 0.4501146   , 139.79007   , 3
0.0444575548, 0.1261876   , -9.601035   , 0.002277386 , 0.00241135852, -0.004664195, -0.214372382, -0.0237966832, 0.450384259 , 139.800064  , 3
0.0538879447, 0.09969268  , -9.604628   , -0.00171747687, 0.0008134127, -0.00359880412, -0.214372382, -0.0237966832, 0.450384259 , 139.810059  , 3
0.0606239364, 0.09654923  , -9.583971   , 0.002011062 , 0.0021450338, -0.00279983156, -0.214304969, -0.023864096, 0.450384259 , 139.820068  , 3
0.0417631567, 0.107775889 , -9.592053   , 0.002810035 , -0.00184982968, -0.00386512838, -0.214372382, -0.0239315089, 0.450316846 , 139.830063  , 3
0.0673599243, 0.100141756 , -9.595197   , -0.00145115284, -0.00344777526, -0.00386512838, -0.214372382, -0.02372927 , 0.450316846 , 139.840057  , 3
0.0588276722, 0.0952020362, -9.569151   , 0.000413117028, 0.0008134127, -0.00333248 , -0.214372382, -0.02372927 , 0.450316846 , 139.850067  , 3
0.0583786   , 0.110470288 , -9.576785   , -0.0009185044, 0.00134606124, -0.00279983156, -0.214372382, -0.02372927 , 0.450451672 , 139.860062  , 3
0.0467028841, 0.114511877 , -9.598789   , -0.000119531527, 0.0021450338, -0.00306615583, -0.214372382, -0.0239989217, 0.450249434 , 139.870071  , 3
0.06556366  , 0.102387078 , -9.587563   , 0.00573960133, 0.0021450338, -0.000136589166, -0.2144398  , -0.0237966832, 0.450182021 , 139.880066  , 3
0.07005432  , 0.112266541 , -9.596095   , 0.00227738637, 0.0016123855, -0.000136589166, -0.2144398  , -0.0237966832, 0.450182021 , 139.89006   , 3
0.0615220629, 0.1194516   , -9.57948    , 0.002810035 , -0.0007845326, 0.00172768033, -0.214237556, -0.0237966832, 0.450519085 , 139.90007   , 3
0.07185059  , 0.110470288 , -9.578582   , -0.00118482811, -0.0007845328, -0.000136495335, -0.214304969, -0.023864096, 0.450182021 , 139.910065  , 3
0.0417631529, 0.119900674 , -9.576786   , 0.002543711 , 0.0002807642, -0.00146811653, -0.214372382, -0.0236618575, 0.450384259 , 139.920059  , 3
0.058378607 , 0.110470288 , -9.571398   , 0.0001467932, -0.002116154, -0.00146811653, -0.214372382, -0.0236618575, 0.450384259 , 139.930069  , 3
0.0507444777, 0.110470288 , -9.578582   , 0.00147841452, 1.44399237E-05, 0.000129828928, -0.214372382, -0.0237966832, 0.450519085 , 139.940063  , 3
0.0579295419, 0.1194516   , -9.580378   , -0.00198380067, -0.002116154, -0.0009354682, -0.214304969, -0.023864096, 0.450249434 , 139.950058  , 3
0.0673599243, 0.121696934 , -9.582174   , -0.000385855325, -0.00184982992, -0.00226708921, -0.2144398  , -0.0239315089, 0.450316846 , 139.960068  , 3
0.0453556851, 0.101488955 , -9.571846   , -0.000119531062, 0.00161238539, -0.00120179227, -0.2144398  , -0.0239315089, 0.450316846 , 139.970062  , 3
0.05882767  , 0.103734285 , -9.583521   , -0.00384807028, -0.001050857, -0.000669143861, -0.214372382, -0.0237966832, 0.450384259 , 139.980057  , 3
0.0637673959, 0.126636669 , -9.58262348 , -0.006244988, 1.44399237E-05, -0.004131359, -0.214372382, -0.0241337474, 0.450182021 , 139.990067  , 3
0.07095246  , 0.120798804 , -9.578133   , 0.00147841452, 0.00107973686, -0.00253341347, -0.214237556, -0.023864096, 0.450316846 , 140.000061  , 3
0.0534388758, 0.127534792 , -9.597892   , 0.004674305 , 0.00187870965, -0.001734347, -0.214237556, -0.023864096, 0.450316846 , 140.010071  , 3
0.05568421  , 0.124391332 , -9.587114   , 0.000146793667, -0.00131718116, -0.00120169844, -0.214372382, -0.0235944446, 0.450451672 , 140.020065  , 3
0.06780899  , 0.114960939 , -9.572295   , 0.00041311793, -0.000251884223, -0.00359861623, -0.214304969, -0.0239315089, 0.450249434 , 140.03006   , 3
0.06466553  , 0.1194516   , -9.571396   , 0.00041311793, 0.001079737 , -0.00306596817, -0.2144398  , -0.023864096, 0.450249434 , 140.04007   , 3
0.0520916767, 0.1261876   , -9.594748   , -0.00145115191, -0.0007845326, -0.00226699538, -0.2144398  , -0.023864096, 0.450249434 , 140.050064  , 3
0.044008486 , 0.08891511  , -9.578133   , -0.001717476, -0.00184982968, -0.00439758925, -0.2144398  , -0.023864096, 0.450249434 , 140.060059  , 3
0.06915619  , 0.106428683 , -9.58262348 , -0.00145115191, -0.00051820837, -0.0033322922, -0.214170143, -0.0239989217, 0.450316846 , 140.070068  , 3
0.08083191  , 0.120798789 , -9.5934     , -0.00118482765, 1.4440041E-05, -0.002000671, -0.2144398  , -0.0239315089, 0.450316846 , 140.080063  , 3
0.05433701  , 0.121696934 , -9.587114   , -0.000119530596, -0.0007845326, -0.00253331964, -0.2144398  , -0.0239315089, 0.450316846 , 140.090057  , 3
0.0395178236, 0.120349735 , -9.602382   , 0.00440798141, -0.00051820837, -0.00066905003, -0.214304969, -0.023864096, 0.450721323 , 140.100067  , 3
0.0794847161, 0.111817479 , -9.610465   , 0.000146794133, -0.000784533, -0.00200057728, -0.2144398  , -0.0239315089, 0.450182021 , 140.110062  , 3
0.0664617941, 0.11361374  , -9.5754385  , 0.00147841545, 0.00134606089, -0.00439749565, -0.214237556, -0.0239315089, 0.450384259 , 140.120071  , 3
0.0458047539, 0.134719849 , -9.569601   , -0.00411439361, 0.000547088159, -0.004131171, -0.214237556, -0.0239315089, 0.450384259 , 140.130066  , 3
0.05882767  , 0.138312384 , -9.563762   , -0.00011953013, 0.0008134123, -0.00253322581, -0.2145072  , -0.023864096, 0.4506539   , 140.14006   , 3
0.04535568  , 0.124391325 , -9.580379   , 0.00307636033, -0.000784533, -0.00306587433, -0.214372382, -0.023864096, 0.450182021 , 140.15007   , 3
0.044008486 , 0.12528947  , -9.595646   , 0.000413118367, -0.000251884572, -0.00279955 , -0.2144398  , -0.02372927 , 0.450316846 , 140.160065  , 3
0.0404159576, 0.0974473655, -9.56466    , -0.00171747548, -0.00105085724, 0.00013001659, -0.2144398  , -0.02372927 , 0.450316846 , 140.170059  , 3
0.0628692657, 0.111817479 , -9.591155   , -0.000385854422, 0.001612385 , -0.00439749565, -0.21457462 , -0.0236618575, 0.4505865   , 140.180069  , 3
0.05119354  , 0.108224951 , -9.583971   , -0.000385854422, 0.000280763954, -0.00253322581, -0.2144398  , -0.023864096, 0.450384259 , 140.190063  , 3
0.0547860749, 0.1261876   , -9.58891    , 0.00467430567, 0.00214503356, -0.000136307674, -0.214372382, -0.02372927 , 0.450249434 , 140.200058  , 3
0.0520916767, 0.121247865 , -9.580827   , 0.004674306 , -0.0002518847, -0.000668862369, -0.214372382, -0.02372927 , 0.450249434 , 140.210068  , 3
0.0794847161, 0.113164686 , -9.591155   , 0.00227738824, 0.00107973651, -0.003864753, -0.21457462 , -0.02372927 , 0.4505865   , 140.220062  , 3
0.07499405  , 0.120798789 , -9.578582   , -0.002782772, 0.00187870918, -0.00200048345, -0.214304969, -0.0235270318, 0.450451672 , 140.230057  , 3
0.07723938  , 0.119002536 , -9.594299   , -0.00198379927, 0.00187870918, 0.00199438  , -0.214372382, -0.0239989217, 0.450451672 , 140.240067  , 3
0.0826281756, 0.119900674 , -9.596095   , 0.002011064 , -0.00211615418, -0.000402538077, -0.214372382, -0.0239989217, 0.450451672 , 140.250061  , 3
0.0525407456, 0.110021211 , -9.590257   , 0.0009457674, -0.00238247844, -0.003598429, -0.21457462 , -0.023864096, 0.4505865   , 140.260071  , 3
0.0606239364, 0.11361374  , -9.601035   , -0.0003858539, 0.00134606077, -0.001467835, -0.2144398  , -0.023864096, 0.450451672 , 140.270065  , 3
0.06870712  , 0.132923588 , -9.575888   , 0.0001467946, 0.001612385 , -0.00333210453, -0.214304969, -0.0241337474, 0.450384259 , 140.28006   , 3
0.0574804731, 0.108224951 , -9.583971   , 0.0004131189, -0.0002518847, -0.000402538077, -0.214372382, -0.0236618575, 0.4505865   , 140.29007   , 3
0.07409592  , 0.112715624 , -9.593401   , 0.0006794431, 0.00134606077, -0.00173415919, -0.214372382, -0.0236618575, 0.4505865   , 140.300064  , 3
0.0615220629, 0.136067048 , -9.580827   , -0.000119528726, -0.000784533, 0.000130204251, -0.2144398  , -0.0236618575, 0.450316846 , 140.310059  , 3
0.05882767  , 0.1167572   , -9.584869   , 0.00387533475, 0.000280763954, 0.000130204251, -0.2144398  , -0.02372927 , 0.450384259 , 140.320068  , 3
0.0543370023, 0.121247865 , -9.588911   , 0.00147841685, 0.00134606089, -0.005196281, -0.2144398  , -0.023864096, 0.4506539   , 140.330063  , 3
0.0476010144, 0.09654923  , -9.573194   , -0.000119528726, 0.001612385 , 0.000662852544, -0.2144398  , -0.023864096, 0.4506539   , 140.340057  , 3
0.0682580546, 0.109123081 , -9.589359   , 0.00014679553, -0.00158350577, -0.00386465946, -0.214372382, -0.02372927 , 0.450384259 , 140.350067  , 3
0.06915619  , 0.125738531 , -9.580827   , 0.000679444056, -0.00238247821, -0.00146774121, -0.214372382, -0.02372927 , 0.450316846 , 140.360062  , 3
0.0606239364, 0.129331067 , -9.577683   , 0.00174474064, 0.00294400612, -0.000136120012, -0.21457462 , -0.0237966832, 0.450519085 , 140.370071  , 3
0.06691086  , 0.126636669 , -9.581277   , -0.00145115 , 0.0008134123, -0.00200038962, -0.21457462 , -0.0237966832, 0.450519085 , 140.380066  , 3
0.07229966  , 0.122145995 , -9.590258   , -0.00145115 , 1.44396909E-05, -0.000402444275, -0.2145072  , -0.023864096, 0.450721323 , 140.39006   , 3
0.0808319151, 0.114511877 , -9.604178   , 0.00227738917, -0.000784533, -0.000402444275, -0.214237556, -0.0239315089, 0.450519085 , 140.40007   , 3
0.06466553  , 0.131127328 , -9.594748   , 0.00307636219, -0.00291512674, -0.00066867494, -0.214372382, -0.0239989217, 0.4506539   , 140.410065  , 3
0.0655636638, 0.129331052 , -9.596095   , 0.0006794445, -0.00158350565, -0.00226662029, -0.214372382, -0.0239989217, 0.4506539   , 140.420059  , 3
0.07903565  , 0.132474527 , -9.585767   , -0.0025164464, 0.0002807642, -0.000402350677, -0.214372382, -0.023864096, 0.4505865   , 140.430069  , 3
0.06735993  , 0.107775889 , -9.588461   , -0.00011952826, 0.00107973686, -0.003065593, -0.2144398  , -0.0239315089, 0.450451672 , 140.440063  , 3
0.0507444777, 0.09160951  , -9.550291   , -0.00358174345, 0.00134606112, -0.00279926881, -0.21457462 , -0.0236618575, 0.4506539   , 140.450058  , 3
0.0628692657, 0.120349735 , -9.571846   , -0.000918501057, 0.00347665534, -0.002000296, -0.21457462 , -0.0236618575, 0.4506539   , 140.460068  , 3
0.07185059  , 0.137863308 , -9.586665   , 0.00227738963, 0.00267768232, -0.00413088966, -0.214372382, -0.0237966832, 0.450519085 , 140.470062  , 3
0.0628692657, 0.13202545  , -9.585767   , -0.000918501057, -0.000251884339, -0.00173397188, -0.214372382, -0.0240663346, 0.450519085 , 140.480057  , 3
0.0655636638, 0.134270787 , -9.600586   , 0.00227738963, -0.0007845328, -0.000402350677, -0.2144398  , -0.02372927 , 0.4505865   , 140.490067  , 3
0.0673599243, 0.08846603  , -9.59385    , 0.00201106537, 1.44399237E-05, -0.00173397188, -0.2144398  , -0.02372927 , 0.4505865   , 140.500061  , 3
0.08891511  , 0.09924362  , -9.569151   , -0.004380715, 0.0002807642, -0.0035981473, -0.214642033, -0.0237966832, 0.450788736 , 140.510071  , 3
0.0597258   , 0.121696934 , -9.566457   , 0.001212094 , -0.00158350565, -0.00439712033, -0.2145072  , -0.023864096, 0.450519085 , 140.520065  , 3
0.0624202043, 0.117206275 , -9.56466    , 0.001212094 , 0.00294400658, -0.002799175, -0.2144398  , -0.0237966832, 0.4505865   , 140.53006   , 3
0.0601748675, 0.117206275 , -9.572294   , 0.00147841824, 0.0021450338, -0.00200020219, -0.2144398  , -0.0237966832, 0.4505865   , 140.54007   , 3
0.0597258   , 0.122145995 , -9.591155   , 0.0004131212, -0.00264880247, 0.0011956885, -0.2144398  , -0.0237966832, 0.4506539   , 140.550064  , 3
0.06870713  , 0.131127328 , -9.584419   , 0.000679445453, 0.0005470884, -0.000135932583, -0.214372382, -0.0241337474, 0.450519085 , 140.560059  , 3
0.094303906 , 0.117206275 , -9.580827   , -0.000652175862, 0.0002807642, -0.0009349054, -0.21457462 , -0.0237966832, 0.450788736 , 140.570068  , 3
0.07140152  , 0.117206275 , -9.602831   , 0.0004131212, 1.44399237E-05, -0.000135932583, -0.21457462 , -0.0237966832, 0.450788736 , 140.580063  , 3
0.0619711354, 0.108224951 , -9.604628   , 0.00227739057, -0.00291512674, -0.00200020219, -0.214372382, -0.0236618575, 0.450788736 , 140.590057  , 3
0.04849915  , 0.125738531 , -9.578582   , -0.00225012121, -0.002116154, -0.00226652646, -0.2144398  , -0.023864096, 0.450721323 , 140.600067  , 3
0.06152207  , 0.117206275 , -9.573643   , -0.00225012074, -0.00238247821, 0.000130485278, -0.2145072  , -0.02372927 , 0.4505865   , 140.610062  , 3
0.05613327  , 0.124840394 , -9.575888   , -0.00171747222, 0.0008134123, -0.00226643286, -0.2145072  , -0.02372927 , 0.4505865   , 140.620071  , 3
0.08173004  , 0.128881991 , -9.605076   , -0.00278276927, -0.00105085724, -0.004663351, -0.2145072  , -0.0236618575, 0.4505865   , 140.630066  , 3
0.0543370023, 0.123493187 , -9.596993   , -0.000119526863, -0.003181451, -0.0009348118, -0.2144398  , -0.023864096, 0.4506539   , 140.64006   , 3
0.08128098  , 0.123044126 , -9.58756351 , 0.003342688 , -0.003181451, -0.0006684875, -0.21457462 , -0.0239315089, 0.4506539   , 140.65007   , 3
0.0655636638, 0.1261876   , -9.599238   , -0.00145114819, -0.00264880247, -0.003598054, -0.21457462 , -0.0239315089, 0.4506539   , 140.660065  , 3
0.0597258061, 0.132474527 , -9.584419   , 0.000413121656, -0.00105085724, -0.00253275712, -0.2145072  , -0.0239315089, 0.4506539   , 140.670059  , 3
0.0660127252, 0.110919356 , -9.572744   , -0.00198379648, 0.00107973663, -0.00200010859, -0.2144398  , -0.0237966832, 0.450721323 , 140.680069  , 3
0.0610730052, 0.09340577  , -9.575888   , -0.002516445, 0.000280763954, -0.00306540565, -0.214372382, -0.02372927 , 0.4506539   , 140.690063  , 3
0.06152207  , 0.105081491 , -9.592053   , 0.00121209444, -0.00158350577, -0.00519599952, -0.214372382, -0.02372927 , 0.4506539   , 140.700058  , 3
0.0588276722, 0.122595072 , -9.5934     , -0.000652174465, -0.003980424, -0.00226633926, -0.2145072  , -0.0239315089, 0.450788736 , 140.710068  , 3
0.0543370023, 0.121696934 , -9.603729   , -0.000385850173, -0.00158350577, -0.00279898779, -0.2144398  , -0.0239315089, 0.450788736 , 140.720062  , 3
0.0467028841, 0.1392105   , -9.584419   , 0.00307636475, -0.00105085724, -0.000135745388, -0.2144398  , -0.0237966832, 0.450856149 , 140.730057  , 3
0.07140153  , 0.144150257 , -9.588013   , -0.001184823, -0.000784533, -0.00120104232, -0.2144398  , -0.0237966832, 0.450856149 , 140.740067  , 3
0.0794847161, 0.1275348   , -9.57454    , 0.000413122616, 0.00321033038, -0.00173369085, -0.2145072  , -0.023864096, 0.450856149 , 140.750061  , 3
0.0543370023, 0.123493187 , -9.567355   , 0.00467431  , -0.000251884572, 0.000396903139, -0.214372382, -0.0237966832, 0.450856149 , 140.760071  , 3
0.0664617941, 0.123493187 , -9.588012   , 0.00281004049, 0.00187870918, -0.00173369085, -0.214372382, -0.023864096, 0.4506539   , 140.770065  , 3
0.07544312  , 0.0943039   , -9.583073   , -0.000652174465, 0.0008134123, -0.00253266352, -0.214709446, -0.02372927 , 0.450721323 , 140.78006   , 3
0.0570314   , 0.114960939 , -9.591604   , 0.00147841964, 0.000547088159, -0.00120104232, -0.214709446, -0.02372927 , 0.450721323 , 140.79007   , 3
0.0476010144, 0.120349735 , -9.605525   , -0.00278276834, -0.002116154, -0.00306531182, -0.2144398  , -0.0239989217, 0.450721323 , 140.800064  , 3
0.07005433  , 0.106428683 , -9.59385    , -0.00278276787, -0.00398042426, -0.00253257016, -0.2145072  , -0.02372927 , 0.450721323 , 140.810059  , 3
0.07005432  , 0.0821791142, -9.585767   , -0.000385849737, -0.00131718174, -0.0009346248, -0.2144398  , -0.02372927 , 0.450788736 , 140.820068  , 3
0.04445755  , 0.0916095   , -9.60328    , 0.00121209584, 0.0005470879, -0.005462137, -0.2144398  , -0.02372927 , 0.450788736 , 140.830063  , 3
0.05568421  , 0.124840394 , -9.597892   , -0.000918498263, -0.000518208952, -0.0009346248, -0.2144398  , -0.0239989217, 0.450856149 , 140.840057  , 3
0.08487351  , 0.118553475 , -9.615855   , 0.004141662 , -0.00211615441, -0.00199992163, -0.2144398  , -0.0237966832, 0.450721323 , 140.850067  , 3
0.06780899  , 0.1396596   , -9.616303   , 0.00307636522, 0.00107973639, -0.00306521868, -0.214642033, -0.023864096, 0.4506539   , 140.860062  , 3
0.0565823428, 0.121696934 , -9.598341   , -0.0017174707, 0.0005470879, -0.00519581232, -0.214642033, -0.023864096, 0.4506539   , 140.870071  , 3
0.0309855659, 0.109572142 , -9.58756351 , 0.00121209584, 1.4439458E-05, 0.000130672241, -0.214372382, -0.0239315089, 0.450856149 , 140.880066  , 3
0.03547623  , 0.118104406 , -9.584869   , 0.00121209584, -0.0002518848, 0.000663320534, -0.2144398  , -0.0237966832, 0.450923562 , 140.89006   , 3
0.05119354  , 0.113164686 , -9.605077   , -0.00225011935, -0.001583506, -0.000668300549, -0.214709446, -0.023864096, 0.450923562 , 140.90007   , 3
0.08891511  , 0.12528947  , -9.614507   , 0.00174474425, 0.0005470878, -0.004130422, -0.214709446, -0.023864096, 0.450923562 , 140.910065  , 3
0.06960525  , 0.114511877 , -9.579928   , 0.00121209631, 0.0016123848, -0.00173350389, -0.2145072  , -0.0239315089, 0.450923562 , 140.920059  , 3
0.07140152  , 0.110470288 , -9.576336   , 0.00281004142, -0.0029151272, 0.00146238692, -0.21457462 , -0.023864096, 0.450788736 , 140.930069  , 3
0.07589219  , 0.117655337 , -9.574541   , -0.00145114632, 0.0002807636, -0.001999828, -0.21457462 , -0.0237966832, 0.450923562 , 140.940063  , 3
0.08891511  , 0.103285223 , -9.588012   , 0.000945772 , 0.00241135759, -0.00146717962, -0.21457462 , -0.0237966832, 0.450923562 , 140.950058  , 3
0.065114595 , 0.106428683 , -9.577683   , 0.000413123518, -0.00105085759, 0.000929738453, -0.2144398  , -0.0237966832, 0.450990975 , 140.960068  , 3
0.04490662  , 0.108674005 , -9.57454    , 0.005739608 , -0.000784533331, -0.0009345312, -0.214372382, -0.0240663346, 0.450788736 , 140.970062  , 3
0.0637674   , 0.131127328 , -9.587114   , 0.000413123518, -0.0029151272, 0.000397090073, -0.214372382, -0.0237966832, 0.450923562 , 140.980057  , 3
0.07319778  , 0.119900674 , -9.579928   , -0.00358174019, -0.00238247868, -0.00146717962, -0.214372382, -0.0237966832, 0.450923562 , 140.990067  , 3
0.0633183345, 0.1140628   , -9.591604   , -0.000119525015, -0.000251884921, -0.00253247656, -0.21457462 , -0.0237966832, 0.450990975 , 141.000061  , 3
0.05164261  , 0.1194516   , -9.592503   , 0.000146799721, 0.0005470878, 0.000929832051, -0.2145072  , -0.023864096, 0.4506539   , 141.010071  , 3
0.0435594171, 0.100590825 , -9.574092   , -0.002782767, 0.0005470878, -0.00359768 , -0.2144398  , -0.023864096, 0.450856149 , 141.020065  , 3
0.0574804731, 0.0956511   , -9.589359   , -0.00225011841, -0.00318145147, -0.00492930133, -0.2144398  , -0.023864096, 0.450856149 , 141.03006   , 3
0.0642164648, 0.12214601  , -9.597892   , 0.00227739336, -0.00158350612, -0.00359768 , -0.2145072  , -0.0237966832, 0.450990975 , 141.04007   , 3
0.07454498  , 0.121696934 , -9.60328    , -0.000652173068, 0.0016123848, 0.000130859436, -0.214304969, -0.0237966832, 0.450788736 , 141.050064  , 3
0.07858658  , 0.128881991 , -9.581725   , 0.000945772452, -0.000784533331, -0.00279870722, -0.2144398  , -0.023864096, 0.450923562 , 141.060059  , 3
0.07723938  , 0.139659584 , -9.598341   , 0.00254371762, -0.00318145147, -0.00199973444, -0.2144398  , -0.023864096, 0.450923562 , 141.070068  , 3
0.07679032  , 0.139659584 , -9.589808   , 0.000413123984, -0.00238247868, -0.0009344376, -0.2144398  , -0.02372927 , 0.4510584   , 141.080063  , 3
0.07589218  , 0.110919349 , -9.595197   , 0.00414166274, 0.00214503333, -0.00120076176, -0.2145072  , -0.0239315089, 0.450923562 , 141.090057  , 3
0.0462538153, 0.105081491 , -9.596544   , -0.000119524542, -0.000251884921, -0.00279870722, -0.2145072  , -0.0237966832, 0.450923562 , 141.100067  , 3
0.0628692657, 0.12708573  , -9.583073   , -0.000652172137, 0.001079736 , -0.00173331681, -0.2145072  , -0.0237966832, 0.450923562 , 141.110062  , 3
0.0673599243, 0.08891511  , -9.594299   , 0.00174474576, 0.00267768139, -0.000401695725, -0.214709446, -0.0237966832, 0.4510584   , 141.120071  , 3
0.0642164648, 0.09789643  , -9.596544   , -0.000652172137, 0.00134606031, -0.000401695725, -0.214776859, -0.0237966832, 0.450788736 , 141.130066  , 3
0.0637673959, 0.09520203  , -9.595646   , 0.0006794492, -0.00264880317, -0.0009343442, -0.2144398  , -0.023864096, 0.450856149 , 141.14006   , 3
0.07095246  , 0.114511877 , -9.582174   , -0.00304909027, 0.00134606031, -0.00466288347, -0.2144398  , -0.023864096, 0.450856149 , 141.15007   , 3
0.08846605  , 0.1261876   , -9.581276   , -0.00304909027, 0.001079736 , -0.004130235, -0.2145072  , -0.0237966832, 0.450990975 , 141.160065  , 3
0.07589219  , 0.122595072 , -9.607322   , -0.000119523611, -0.000251885154, -0.00279861386, -0.2145072  , -0.0236618575, 0.450788736 , 141.170059  , 3
0.07679032  , 0.143701181 , -9.581725   , -0.001717469, 0.00214503286, -0.003331262, -0.2145072  , -0.023864096, 0.450923562 , 141.180069  , 3
0.07409592  , 0.119900674 , -9.590706   , 0.00174474576, 0.00187870872, 0.00146257388, -0.2145072  , -0.023864096, 0.450923562 , 141.190063  , 3
0.0592767373, 0.121247865 , -9.58442    , 0.00201107  , 0.00214503286, -0.0012006684, -0.214642033, -0.0237966832, 0.4510584   , 141.200058  , 3
0.0637674   , 0.1167572   , -9.595198   , 0.000679449644, -0.000251885154, -0.00199954771, -0.2145072  , -0.02372927 , 0.450923562 , 141.210068  , 3
0.056133274 , 0.116308138 , -9.607322   , -0.0011848202, 0.001079736 , -0.00279852049, -0.214304969, -0.023864096, 0.450990975 , 141.220062  , 3
0.0359252952, 0.123942271 , -9.585767   , 0.000146801118, 0.00214503286, 0.00066369446, -0.214304969, -0.023864096, 0.450990975 , 141.230057  , 3
0.065114595 , 0.129331052 , -9.579929   , -0.00171746861, 0.00134606031, -0.0009342509, -0.214642033, -0.0236618575, 0.450923562 , 141.240067  , 3
0.0520916767, 0.105081491 , -9.590258   , 0.000146801118, -0.00105085783, -0.00173322356, -0.214642033, -0.0239989217, 0.450990975 , 141.250061  , 3
0.0705033839, 0.111817479 , -9.603728   , 0.000546287571, 0.0008134118, -0.00386381778, -0.2145072  , -0.0235944446, 0.450923562 , 141.260071  , 3
0.07274872  , 0.137863308 , -9.583073   , 0.002277395 , 0.0008134118, -0.00346433115, -0.2145072  , -0.0235944446, 0.450923562 , 141.270065  , 3
0.0525407456, 0.1261876   , -9.600586   , 0.0042748265, -0.00158350635, -0.000401602447, -0.214709446, -0.0235270318, 0.450990975 , 141.28006   , 3
0.0516426079, 0.114511877 , -9.607771   , 0.000812611368, -0.00171666837, 0.0006636946, -0.2144398  , -0.0239315089, 0.450923562 , 141.29007   , 3
0.0543370023, 0.135168925 , -9.591604   , 0.000812611368, -0.000118723008, -0.00199954771, -0.2145072  , -0.0239315089, 0.450721323 , 141.300064  , 3
0.07768845  , 0.123044126 , -9.60193348 , 0.00187790883, 0.000413925329, -0.00226577884, -0.21457462 , -0.0236618575, 0.450990975 , 141.310059  , 3
0.07544312  , 0.13022919  , -9.611813   , 0.0006794499, 1.44389905E-05, -0.00199945434, -0.21457462 , -0.0236618575, 0.450990975 , 141.320068  , 3
0.0498463474, 0.119002536 , -9.611813   , 0.00134526053, 0.0006802496, -0.002665265, -0.2144398  , -0.0237966832, 0.450856149 , 141.330063  , 3
0.0552351438, 0.126636669 , -9.588462   , 0.00121209864, -0.0002518853, -0.00266526476, -0.2144398  , -0.0239315089, 0.450856149 , 141.340057  , 3
0.0610729977, 0.119900674 , -9.574092   , 0.00174474681, -0.00158350647, -0.000667833257, -0.214642033, -0.0237966832, 0.450990975 , 141.350067  , 3
0.0453556851, 0.1261876   , -9.570498   , 0.00241055735, -0.00158350647, 0.000663787941, -0.214642033, -0.0237966832, 0.450990975 , 141.360062  , 3
0.0453556851, 0.124840409 , -9.587114   , 0.00201107119, -0.00145034445, -0.00106731954, -0.2145072  , -0.0239315089, 0.4510584   , 141.370071  , 3
0.0875679   , 0.106877744 , -9.607771   , -0.0002526847, -0.00131718221, -0.0022657786, -0.21457462 , -0.0239989217, 0.450923562 , 141.380066  , 3
0.08577164  , 0.095651105 , -9.616753   , -0.0007853332, 0.00187870848, -0.00239894073, -0.21457462 , -0.0236618575, 0.450990975 , 141.39006   , 3
0.0808319151, 0.0983455   , -9.586216   , 0.0009457741, 0.00227819476, -0.00106731954, -0.21457462 , -0.0236618575, 0.450990975 , 141.40007   , 3
0.0830772445, 0.141455844 , -9.576336   , 0.0014784236, -0.000118722848, -0.000268253527, -0.2144398  , -0.023864096, 0.450923562 , 141.410065  , 3
0.08038285  , 0.158520371 , -9.576336   , 0.0009457753, -0.000917695463, -0.00146671268, -0.214642033, -0.0239989217, 0.450788736 , 141.420059  , 3
0.07634126  , 0.123942263 , -9.580827   , 1.36403742E-05, -0.000784533448, -0.0012003883, -0.2145072  , -0.023864096, 0.4510584   , 141.430069  , 3
0.0889151   , 0.119002536 , -9.593401   , -0.00145114283, 1.44392516E-05, -0.002132523, -0.2145072  , -0.023864096, 0.4510584   , 141.440063  , 3
0.07274872  , 0.123044126 , -9.606424   , -0.00158430508, -0.0009176955, -0.00333098229, -0.214642033, -0.0237966832, 0.450923562 , 141.450058  , 3
0.0583786   , 0.127983868 , -9.579031   , -0.001451143, -0.00198299251, -0.00239884737, -0.2144398  , -0.023864096, 0.450788736 , 141.460068  , 3
0.0413140878, 0.115859084 , -9.588012   , -0.000785332348, 0.000147601357, -0.002132523, -0.21457462 , -0.0235944446, 0.4510584   , 141.470062  , 3
0.0480500832, 0.1140628   , -9.589808   , -0.000785332348, 0.00028076343, -0.000800901966, -0.21457462 , -0.0235944446, 0.4510584   , 141.480057  , 3
0.0462538153, 0.121247865 , -9.577234   , -0.00185062934, -0.001583506, -1.92935659E-06, -0.21457462 , -0.023864096, 0.450990975 , 141.490067  , 3
0.03637436  , 0.132025465 , -9.583521   , -0.00158430508, -0.0009176955, -0.00186619908, -0.2145072  , -0.023864096, 0.450788736 , 141.500061  , 3
0.06735993  , 0.111368418 , -9.605975   , -0.000385845546, -0.000651371665, -0.00346405082, -0.21457462 , -0.0239989217, 0.450923562 , 141.510071  , 3
0.0525407456, 0.102387078 , -9.572295   , 0.00014680298, 0.000147601 , -0.00253191614, -0.21457462 , -0.0239989217, 0.450923562 , 141.520065  , 3
0.0426612869, 0.1234932   , -9.589359   , -0.00118481822, 0.000413925241, -0.00186610559, -0.2145072  , -0.02372927 , 0.450990975 , 141.53006   , 3
0.0821791142, 0.1167572   , -9.596544   , 0.00014680282, 0.00107973581, -0.00239875424, -0.214372382, -0.0237966832, 0.450990975 , 141.54007   , 3
0.04715195  , 0.1140628   , -9.606873   , 0.00107893755, 0.0008134116, -0.00186610559, -0.2144398  , -0.0236618575, 0.450788736 , 141.550064  , 3
0.05119354  , 0.14010866  , -9.597443   , 0.000413127244, -0.00131718232, -0.00159978122, -0.2144398  , -0.0236618575, 0.450788736 , 141.560059  , 3
0.0637673959, 0.125738531 , -9.578133   , 0.00161158608, -0.0009176959, -0.00173294346, -0.21457462 , -0.02372927 , 0.450990975 , 141.570068  , 3
0.0606239364, 0.111817479 , -9.581276   , 0.0012120998, 0.00134606019, -0.00239875424, -0.214304969, -0.0239989217, 0.450856149 , 141.580063  , 3
0.0395178236, 0.114960946 , -9.603729   , -0.0015843045, 0.0005470874, -0.00186610548, -0.214304969, -0.023864096, 0.450923562 , 141.590057  , 3
0.0601748675, 0.107326813 , -9.572294   , -0.00185062876, -0.000518209534, -0.00106713292, -0.214304969, -0.023864096, 0.450923562 , 141.600067  , 3
0.0615220629, 0.124391332 , -9.588461   , -0.00118481764, -0.00251564127, -0.00239866064, -0.214372382, -0.0237966832, 0.4510584   , 141.610062  , 3
0.0476010144, 0.1167572   , -9.600137   , -0.00185062818, -0.004646235, -0.00199917424, -0.2144398  , -0.023864096, 0.450856149 , 141.620071  , 3
0.05433701  , 0.12843293  , -9.587114   , -0.00158430415, -0.00158350635, -0.00146652607, -0.214642033, -0.023864096, 0.450990975 , 141.630066  , 3
0.06735993  , 0.134270787 , -9.588461   , -0.00158430415, 0.00254451926, -0.00239866087, -0.214642033, -0.023864096, 0.450990975 , 141.64006   , 3
0.0597258   , 0.118553475 , -9.579031   , -0.00225011469, 0.00214503286, -0.00173285033, -0.214642033, -0.02372927 , 0.450990975 , 141.65007   , 3
0.0606239364, 0.10867402  , -9.598789   , -0.002516439, -0.0005182096, -0.00239866087, -0.2145072  , -0.0239315089, 0.450856149 , 141.660065  , 3
0.07993378  , 0.119002536 , -9.580378   , -0.00131797988, -0.000651371665, -0.002531823, -0.2144398  , -0.0240663346, 0.450856149 , 141.670059  , 3
0.07140153  , 0.124840409 , -9.57454    , -0.00118481764, 0.00107973593, -0.0012002018, -0.2144398  , -0.0240663346, 0.450856149 , 141.680069  , 3
0.07185059  , 0.1037343   , -9.587563   , -0.00118481775, 0.00254451926, -0.00146652607, -0.2144398  , -0.0239315089, 0.450923562 , 141.690063  , 3
0.05119354  , 0.120349735 , -9.592503   , 0.00161158678, 0.00187870848, -0.00146652607, -0.214304969, -0.0239315089, 0.450788736 , 141.700058  , 3
0.07364686  , 0.129780129 , -9.579928   , 0.00174474937, 0.00214503286, -0.00186591933, -0.2144398  , -0.0237966832, 0.450923562 , 141.710068  , 3
0.05298981  , 0.132025465 , -9.558373   , 1.36417784E-05, -0.000385047519, -0.00386335142, -0.2144398  , -0.0237966832, 0.450923562 , 141.720062  , 3
0.03906876  , 0.115859084 , -9.585767   , -0.000119520359, -0.00384726282, -0.00319754053, -0.2144398  , -0.0237966832, 0.450923562 , 141.730057  , 3
0.05298981  , 0.101488955 , -9.57005    , -0.00145114155, -0.001849831, -0.00186591933, -0.2144398  , -0.023864096, 0.450788736 , 141.740067  , 3
0.07095246  , 0.114511877 , -9.592952   , -0.00225011422, -0.0003850476, -0.00226540538, -0.214709446, -0.023864096, 0.450856149 , 141.750061  , 3
0.0507444777, 0.107775889 , -9.579929   , -0.00158430357, 0.000280763023, -0.00226540561, -0.214709446, -0.023864096, 0.450856149 , 141.760071  , 3
0.0502954125, 0.1234932   , -9.578133   , 0.00121210108, 1.44387286E-05, -0.0008006224, -0.214642033, -0.0237966832, 0.4510584   , 141.770065  , 3
0.06870712  , 0.123044126 , -9.608221   , 0.00187791174, -0.002116155, -1.64973244E-06, -0.2144398  , -0.023864096, 0.450990975 , 141.78006   , 3
0.0660127252, 0.09789643  , -9.610466   , 0.00121210073, -0.000118723307, -0.00239856774, -0.2145072  , -0.0237966832, 0.450721323 , 141.79007   , 3
0.0507444777, 0.110919349 , -9.585767   , 0.0010789386, 0.0008134113, -0.00359702646, -0.2145072  , -0.023864096, 0.4506539   , 141.800064  , 3
0.0435594246, 0.128881991 , -9.594748   , -0.002516438, -0.00198299321, -0.00359693379, -0.2145072  , -0.023864096, 0.4506539   , 141.810059  , 3
0.0507444777, 0.124391332 , -9.617201   , -0.00384805934, -0.00251564174, -0.0030642848, -0.214304969, -0.0240663346, 0.450990975 , 141.820068  , 3
0.06780899  , 0.1010399   , -9.599238   , -0.000119519973, -0.0009176961, -0.00146633945, -0.2145072  , -0.0239989217, 0.450788736 , 141.830063  , 3
0.07319778  , 0.126636654 , -9.567355   , 0.000146804276, 0.000147600775, -0.00106685329, -0.2145072  , -0.0236618575, 0.450788736 , 141.840057  , 3
0.0660127252, 0.122145995 , -9.570948   , -0.002516438, 0.0005470871, -0.000800529, -0.2145072  , -0.0236618575, 0.450788736 , 141.850067  , 3
0.0642164648, 0.129780129 , -9.568703   , -0.001317979, 0.00147922209, -0.000667366839, -0.2145072  , -0.0237966832, 0.450856149 , 141.860062  , 3
0.08038285  , 0.114511877 , -9.579929   , 1.3642245E-05, 0.0010797357, -0.0005342047, -0.2145072  , -0.0239989217, 0.450788736 , 141.870071  , 3
0.0660127252, 0.103734285 , -9.601034   , 0.0006794529, 0.000413925 , -0.00173266383, -0.21457462 , -0.0237966832, 0.450788736 , 141.880066  , 3
0.06870712  , 0.116308138 , -9.60911751 , 0.002943209 , 0.00121289759, -0.00293112267, -0.21457462 , -0.0237966832, 0.450788736 , 141.89006   , 3
0.0624201968, 0.121696934 , -9.590258   , 0.000812615 , 0.00227819453, -0.00346377143, -0.21457462 , -0.0239989217, 0.450923562 , 141.90007   , 3
0.0458047539, 0.10553056  , -9.59385    , 0.000812615268, 0.003742978 , -0.00399632659, -0.21457462 , -0.0237966832, 0.4506539   , 141.910065  , 3
0.05164261  , 0.114511877 , -9.61316    , 0.00520696538, 0.00241135666, -0.002132057, -0.2144398  , -0.02372927 , 0.450721323 , 141.920059  , 3
0.044008486 , 0.119002536 , -9.602831   , 0.00427483  , 0.00014760076, -0.0009335981, -0.2144398  , -0.02372927 , 0.450721323 , 141.930069  , 3
0.07229966  , 0.139659584 , -9.583522   , -0.000119519609, 0.00107973558, -0.00119992218, -0.2144398  , -0.0236618575, 0.450788736 , 141.940063  , 3
0.0480500832, 0.115410008 , -9.596993   , -0.00278276182, 0.0006802492, -0.0017325707, -0.214372382, -0.0239989217, 0.4506539   , 141.950058  , 3
0.052091673 , 0.1167572   , -9.570049   , -0.00145114062, 0.000280762848, -0.002265219, -0.21457462 , -0.0237966832, 0.450721323 , 141.960068  , 3
0.0588276722, 0.127534792 , -9.568703   , 0.00267688534, 0.00134605984, -0.00253154337, -0.21457462 , -0.0237966832, 0.450721323 , 141.970062  , 3
0.0637674   , 0.11541     , -9.595646   , 0.00307637174, 0.00107973558, -0.0027978674, -0.2144398  , -0.0237966832, 0.450856149 , 141.980057  , 3
0.0601748675, 0.120798804 , -9.593401   , 0.00374218216, 0.000147600775, -0.00106676016, -0.2144398  , -0.0239315089, 0.450721323 , 141.990067  , 3
0.04849915  , 0.119900674 , -9.589359   , 0.00534012727, -0.000917696161, 0.000797509449, -0.214709446, -0.0236618575, 0.450721323 , 142.000061  , 3
0.0552351438, 0.116308138 , -9.593401   , 0.00227739918, -0.00118402066, -0.000800342532, -0.214709446, -0.0236618575, 0.450721323 , 142.010071  , 3
0.08577164  , 0.110919349 , -9.584419   , 0.00187791267, 0.000413924834, -0.00119982869, -0.21457462 , -0.023864096, 0.450856149 , 142.020065  , 3
0.0803828537, 0.123044126 , -9.599688   , 0.002410561 , 0.00107973535, -0.000933504663, -0.2144398  , -0.0237966832, 0.450721323 , 142.03006   , 3
0.03502716  , 0.13202545  , -9.602832   , 0.0006794536, 0.0008134111, -0.0015993152, -0.21457462 , -0.0236618575, 0.4506539   , 142.04007   , 3
0.044008486 , 0.121696934 , -9.60193348 , -0.000519005349, -0.000917696336, -0.00146615307, -0.21457462 , -0.0236618575, 0.4506539   , 142.050064  , 3
0.0484991521, 0.115859084 , -9.574989   , -0.0002526811, -0.00211615558, -0.00106666668, -0.21457462 , -0.0237966832, 0.450923562 , 142.060059  , 3
0.0615220629, 0.120798804 , -9.5754385  , 0.00121210213, -0.0014503448, -0.00213196361, -0.2144398  , -0.0237966832, 0.450788736 , 142.070068  , 3
0.0637673959, 0.12708573  , -9.581725   , 0.00294320961, -0.0007845343, -0.00359674683, -0.2144398  , -0.0237966832, 0.450721323 , 142.080063  , 3
0.056133274 , 0.09385483  , -9.566458   , 0.00440799259, 0.0008134111, -0.003863071, -0.2144398  , -0.0237966832, 0.450721323 , 142.090057  , 3
0.0664617941, 0.0889151   , -9.583073   , 0.002410561 , 0.0005470869, -0.0030640983, -0.2145072  , -0.0235944446, 0.450856149 , 142.100067  , 3
0.0794847161, 0.104183353 , -9.581725   , 1.36441258E-05, -0.0014503448, -0.0008002491, -0.2144398  , -0.0237966832, 0.450519085 , 142.110062  , 3
0.06915619  , 0.126636669 , -9.596544   , -0.00105165283, -0.00118402054, -0.00213187025, -0.2145072  , -0.02372927 , 0.450788736 , 142.120071  , 3
0.04849915  , 0.11361374  , -9.606424   , -0.003448571, -0.000251885736, -0.002930843, -0.2145072  , -0.02372927 , 0.450788736 , 142.130066  , 3
0.0624201968, 0.09654923  , -9.586216   , -0.004513868, 0.000547087 , -0.0018655461, -0.2144398  , -0.023864096, 0.450856149 , 142.14006   , 3
0.0507444777, 0.08577164  , -9.592952   , -0.002383274, -0.0002518857, -0.00159922184, -0.2145072  , -0.0239989217, 0.4506539   , 142.15007   , 3
0.05164261  , 0.110021226 , -9.589359   , 0.000546292635, -0.001716669, -0.0009334112, -0.214642033, -0.0237966832, 0.450721323 , 142.160065  , 3
