Acc X       , Acc Y       , Acc Z       , Gyro X      , Gyro Y      , Gyro Z      , Magn X      , Magn Y      , Magn Z      , Euler X     , Euler Y     , Euler Z     , Time        , Status      , LowRate X   , LowRate Y   , LowRate Z    
9.789223    , -0.0108204288, -0.0106238443, 0.0008491934, 0.000501841132, 0.000539613 , -0.454024523, 0.492382377 , -0.09781583 , 0.8574503   , 1.56937277  , -0.9097762  , 0           , 3           , 11          , 0.0346410163, 0.0346410163
9.813681    , -0.00574505469, 0.00495165959, 0.00170161983, -0.0005482984, 0.000400667719, -0.455709845, 0.492314965 , -0.09795065 , 0.8574503   , 1.56937277  , -0.909793139, 0.01        , 3           , 12          , 0.0346410163, 0
9.797929    , -0.00191048894, -0.00690447 , 0.0008447074, 0.0012761422, -0.0005893436, -0.455709845, 0.492314965 , -0.09795065 , 0.8574503   , 1.56937277  , -0.9098015  , 0.02        , 3           , 14          , 0.000422695739, 0.000725069956
9.781654    , -0.0008047288, -0.0106401891, -0.000560252869, -0.000141232187, -0.000244926, -0.455777258, 0.4925172   , -0.09808548 , 0.8574503   , 1.56937277  , -0.909796   , 0.03        , 3           , 15          , 0           , 1.53713481E-05
9.794002    , 0.0112010818, -0.00100434572, 0.000581792963, -0.00252689328, 0.000604265661, -0.454024523, 0.492314965 , -0.09774841 , 0.8574503   , 1.56937277  , -0.9098017  , 0.04        , 3           , 50          , 0           , 0
9.815079    , -0.00706757745, -0.009054627, -0.000200212075, -0.00140588416, 0.00102618593, -0.455709845, 0.492382377 , -0.09795065 , 0.8574503   , 1.56937277  , -0.9097998  , 0.05        , 3           , 11          , 0.0346410163, 0.0346410163
9.805189    , -0.006893198, -0.0263049137, -0.000212546962, 0.000846630835, -0.00101873942, -0.455709845, 0.492382377 , -0.09795065 , 0.8574503   , 1.56937277  , -0.9097979  , 0.06        , 3           , 12          , 0.0346410163, 0
9.786674    , 0.00675496925, 0.00479697064, -0.00113092724, 0.0009812069, -0.0006696305, -0.456114322, 0.492854267 , -0.09795065 , 0.8574503   , 1.56937277  , -0.909786463, 0.07        , 3           , 14          , 0.000422695739, 0.000725069956
9.807273    , -0.012421268, -9.683333E-05, -0.00107485743, 0.00400851155, 0.000112341593, -0.454091936, 0.492247552 , -0.09774841 , 0.8574503   , 1.56937277  , -0.909775734, 0.08        , 3           , 15          , 0           , 1.53713481E-05
9.798309    , -0.010901032, -0.0182384253, -0.00134864973, 0.00210603327, -0.00123395748, -0.455777258, 0.492112726 , -0.09808548 , 0.8574503   , 1.56937277  , -0.9097624  , 0.09        , 3           , 50          , 0           , 0
9.795553    , -0.0100091733, -0.00560025871, -1.5125579E-06, 0.00112963084, -2.84364432E-05, -0.455777258, 0.492112726 , -0.09808548 , 0.8574503   , 1.56937277  , -0.9097645  , 0.1         , 3           , 11          , 0.0346410163, 0.0346410163
9.810999    , -0.00300623756, 0.004942514 , 0.0007184723, -0.00161085208, 0.000535699946, -0.456181735, 0.4924498   , -0.09808548 , 0.8574503   , 1.56937277  , -0.9097717  , 0.11        , 3           , 12          , 0.0346410163, 0
9.79437     , 0.00710969837, 0.00666522048, 0.000352996576, 0.0008504538, 0.000114044669, -0.4539571  , 0.492854267 , -0.09774841 , 0.8574503   , 1.56937277  , -0.909775   , 0.12        , 3           , 14          , 0.0004226585, 0.0007250702
9.793395    , 0.00393959228, 0.0134243807, 0.00169268134, 0.0011410889, -0.000656244, -0.455642432, 0.492382377 , -0.0980180651, 0.8574503   , 1.56937277  , -0.909791946, 0.13        , 3           , 15          , 0           , 1.5371299E-05
9.782822    , -0.0112425  , 0.00288496539, 0.000286434573, -0.000205898556, -0.00193630846, -0.455642432, 0.492382377 , -0.0980180651, 0.8574503   , 1.56937277  , -0.9097948  , 0.14        , 3           , 50          , 0           , 0
9.819117    , -0.008930618, -0.00586758554, -0.00013505535, -0.0005607179, -0.00123248261, -0.456114322, 0.4925172   , -0.0980180651, 0.8574503   , 1.56937277  , -0.9097936  , 0.15        , 3           , 11          , 0.0346410163, 0.0346410163
9.806847    , -0.00703842845, 0.0107698347, -0.00302013871, -0.00226967875, 0.001223618 , -0.454024523, 0.492584616 , -0.097681   , 0.8574503   , 1.56937277  , -0.909763336, 0.16        , 3           , 12          , 0.0346410163, 0
9.785858    , -0.0189749934, 0.0105598569, -0.00232718862, 0.000269179058, 0.000241934482, -0.455709845, 0.492314965 , -0.09788324 , 0.8574503   , 1.56937277  , -0.90974    , 0.17        , 3           , 14          , 0.0004226585, 0.0007250702
9.778344    , -0.00980869 , -0.005279023, -0.00346033648, 0.0008246662, -0.0008926151, -0.455709845, 0.492314965 , -0.09788324 , 0.8574503   , 1.56937277  , -0.9097054  , 0.18        , 3           , 15          , 0           , 1.5371299E-05
9.782934    , -0.00311724213, 0.00156356022, -7.023581E-05, 0.0008475906, 0.0008184128, -0.4560469  , 0.492719442 , -0.09788324 , 0.8574503   , 1.56937277  , -0.9097049  , 0.19        , 3           , 50          , 0           , 0
9.7925415   , 0.003100848 , -0.00240504555, -0.000360009464, 0.00253507635, 0.00251492485, -0.454091936, 0.4924498   , -0.09774841 , 0.8574503   , 1.56937277  , -0.9097023  , 0.2         , 3           , 11          , 0.0346694328, 0.03466943
9.796045    , -0.0108744511, -0.0182556249, 0.000205422475, 0.00225732732, 0.00110443728, -0.455844671, 0.492180139 , -0.09781583 , 0.8574503   , 1.56937277  , -0.909704447, 0.21        , 3           , 12          , 0.0346692465, 0
9.801437    , -0.01186473 , -0.0109867528, 0.000777082751, 0.0008533209, 0.000822364062, -0.455844671, 0.492180139 , -0.09781583 , 0.8574503   , 1.56937277  , -0.9097123  , 0.22        , 3           , 14          , 0.000422620185, 0.00072506984
9.813558    , 0.009703738 , -0.0261721127, 0.00104835769, 0.00310775149, 0.000827152457, -0.4559795  , 0.492382377 , -0.09795065 , 0.8574503   , 1.56937277  , -0.909722567, 0.23        , 3           , 15          , 0           , 1.53709479E-05
9.793244    , 0.01713413  , -0.0181609336, -0.00148372573, 0.0011196062, 0.0008122625, -0.4539571  , 0.492382377 , -0.09774841 , 0.8574503   , 1.56937277  , -0.9097078  , 0.24        , 3           , 50          , 0           , 0
9.780588    , -0.01208345 , -0.007531218, 0.00133898552, 0.00142027065, 0.000543328235, -0.455912083, 0.492314965 , -0.09808548 , 0.8574503   , 1.56937277  , -0.909721136, 0.25        , 3           , 11          , 0.0346694328, 0.03466943
9.775412    , -0.0255746432, -0.00310689583, -8.16758547E-05, 0.00310011  , 0.000256809668, -0.455912083, 0.492314965 , -0.09808548 , 0.8574503   , 1.56937277  , -0.9097202  , 0.26        , 3           , 12          , 0.0346692465, 0
9.780724    , 0.00186292455, 0.0042792093, 0.0007779874, 0.000571753539, -2.568218E-05, -0.4560469  , 0.492382377 , -0.0980180651, 0.8574503   , 1.56937277  , -0.90972805 , 0.27        , 3           , 14          , 0.000422620185, 0.00072506984
9.812064    , 0.008717579 , 0.00364330783, -6.961927E-05, 0.000566021947, -0.000594707963, -0.454159349, 0.492247552 , -0.09774841 , 0.8574503   , 1.56937277  , -0.909727335, 0.28        , 3           , 15          , 0           , 1.53709479E-05
9.79163     , 0.00176708843, -0.005129451, 0.0010570481, 0.00141836284, 0.00138962385, -0.455777258, 0.492112726 , -0.0980180651, 0.8574503   , 1.56937277  , -0.909738064, 0.29        , 3           , 50          , 0           , 0
9.780626    , -0.0080352  , -0.00389827229, 0.0019128538, -0.0002653028, -2.17166562E-05, -0.455777258, 0.492112726 , -0.0980180651, 0.8574503   , 1.56937277  , -0.9097769  , 0.3         , 3           , 11          , 0.0347551256, 0.03475512
9.792846    , -0.009969704, -0.007880719, -0.00147766247, -6.657443E-06, -3.708593E-05, -0.455912083, 0.4924498   , -0.0980180651, 0.8574503   , 1.56937277  , -0.909762144, 0.31        , 3           , 12          , 0.03475475  , 0
9.7998085   , 0.000802370254, -0.0150145525, -0.00204620883, 0.0008342203, 0.0008091943, -0.454159349, 0.492247552 , -0.09788324 , 0.8574503   , 1.56937277  , -0.90974164 , 0.32        , 3           , 14          , 0.000421643635, 0.0007250708
9.796239    , 0.006243591 , -0.0104994494, 0.00134611642, 1.24399085E-05, -0.000871529162, -0.4559795  , 0.492584616 , -0.09815289 , 0.8574503   , 1.56937277  , -0.909755   , 0.33        , 3           , 15          , 0           , 1.53713572E-05
9.810181    , -0.00203285459, -0.0131390654, 0.002750539 , 0.00171138369, 0.0002678089, -0.4559795  , 0.492584616 , -0.09815289 , 0.8574503   , 1.56937277  , -0.909782648, 0.34        , 3           , 50          , 0           , 0
9.811516    , 0.00418114057, 0.01265998  , 0.00134890433, -0.000550690165, -0.000872397, -0.4559795  , 0.4924498   , -0.09795065 , 0.8574503   , 1.56937277  , -0.909796   , 0.35        , 3           , 11          , 0.0347551256, 0.03475512
9.823179    , -0.00318605825, 0.0158825163, 0.00163140567, -0.000267208059, 0.0016721912, -0.454159349, 0.492314965 , -0.09795065 , 0.8574503   , 1.56937277  , -0.90981245 , 0.36        , 3           , 12          , 0.03475475  , 0
9.81875     , 0.00408852939, 0.0149748418, 0.00247663935, 2.008368E-05, 0.0005464259, -0.455844671, 0.492112726 , -0.0980180651, 0.8574503   , 1.56937277  , -0.909837246, 0.37        , 3           , 14          , 0.000421643635, 0.0007250708
9.782516    , 0.000933305 , 0.00609699544, 0.000205256991, 0.002257321 , -0.0008733254, -0.455844671, 0.492112726 , -0.0980180651, 0.8574503   , 1.56937277  , -0.9098394  , 0.38        , 3           , 15          , 0           , 1.53713572E-05
9.775905    , 0.007854386 , -0.0160720777, 0.005566858 , 0.00313830352, -0.00141207676, -0.4555076  , 0.4925172   , -0.09815289 , 0.8574503   , 1.56937277  , -0.909894943, 0.39        , 3           , 50          , 0           , 0
9.813431    , 0.009154303 , 0.00320358737, -0.0006388038, 0.00197002618, -0.0005951737, -0.454159349, 0.4924498   , -0.09774841 , 0.8574503   , 1.56937277  , -0.9099145  , 0.4         , 3           , 11          , 0.0348972455, 0.0348972343
9.836221    , -0.0136788934, 0.00463913847, -0.00231507956, -0.00170177943, -0.000326178968, -0.455642432, 0.492382377 , -0.09795065 , 0.8574503   , 1.56937277  , -0.909891367, 0.41        , 3           , 12          , 0.0348966755, 0
9.812326    , -0.00706442166, -0.000487960875, 0.0022011993, -0.0008265167, 0.00252156868, -0.455642432, 0.492382377 , -0.09795065 , 0.8574503   , 1.56937277  , -0.90991354 , 0.42        , 3           , 14          , 0.0004199811, 0.0007250715
9.79552     , -0.00691157766, 0.012491677 , -0.0011907852, -0.0005678783, -3.66379973E-05, -0.4559795  , 0.492314965 , -0.09808548 , 0.8574503   , 1.56937277  , -0.9099016  , 0.43        , 3           , 15          , 0           , 1.53724923E-05
9.79770851  , -0.0208361745, -0.0137643656, 0.0027616336, -0.000259574444, -0.0003003045, -0.454091936, 0.4925172   , -0.097681   , 0.8574503   , 1.56937277  , -0.9099293  , 0.44        , 3           , 50          , 0           , 0
9.771031    , -0.0173675027, -0.0130500123, 0.00277081318, -0.00194896094, 0.00110977911, -0.455912083, 0.492314965 , -0.0980180651, 0.8574503   , 1.56937277  , -0.909956932, 0.45        , 3           , 11          , 0.0348972455, 0.0348972343
9.790056    , -0.016244866, -0.0106399581, -5.452297E-05, -0.0016864941, 0.00166211871, -0.455912083, 0.492314965 , -0.0980180651, 0.8574503   , 1.56937277  , -0.909956455, 0.46        , 3           , 12          , 0.0348966755, 0
9.800523    , -0.0145398444, -0.0173326228, -0.00317153987, -1.81226642E-05, -0.00174021372, -0.4559795  , 0.4924498   , -0.09795065 , 0.8574503   , 1.56937277  , -0.909924746, 0.47        , 3           , 14          , 0.0004199811, 0.0007250715
9.780793    , 0.00593688525, 0.000228781253, -0.000620607461, -0.0014087481, 0.00194245612, -0.454159349, 0.492382377 , -0.09788324 , 0.8574503   , 1.56937277  , -0.909918547, 0.48        , 3           , 15          , 0           , 1.53724923E-05
9.787322    , 0.0198526923, -0.00101955794, 0.00388732157, 0.000592761557, -1.11974514E-05, -0.4560469  , 0.492180139 , -0.0980180651, 0.8574503   , 1.56937277  , -0.9099574  , 0.49        , 3           , 50          , 0           , 0
9.800558    , -0.0100479946, -0.0114379376, 0.00275222771, 0.00227451627, 0.0019639   , -0.4560469  , 0.492180139 , -0.0980180651, 0.8574503   , 1.56937277  , -0.9100082  , 0.5         , 3           , 11          , 0.03509467  , 0.0350946561
9.787647    , -0.0288338866, -0.01568239 , -0.00175889023, 0.0005545629, 0.000810075551, -0.4559795  , 0.4924498   , -0.09795065 , 0.8574503   , 1.56937277  , -0.909990549, 0.51        , 3           , 12          , 0.0350939147, 0
9.790665    , 0.00128272828, 0.00796869  , -0.000357493118, 0.00253506377, -0.000875527, -0.454091936, 0.492382377 , -0.09795065 , 0.8574503   , 1.56937277  , -0.909987   , 0.52        , 3           , 14          , 0.000418146024, 0.000725073041
9.798559    , 0.0151901441, 0.00447085127, -0.00203548931, -0.000855178, -0.00117117318, -0.455777258, 0.4924498   , -0.0980180651, 0.8574503   , 1.56937277  , -0.9099667  , 0.53        , 3           , 15          , 0           , 1.53730234E-05
9.819827    , 0.017161293 , 0.0150372712, -0.00147235591, -0.0005697945, -0.00173318048, -0.455777258, 0.4924498   , -0.0980180651, 0.8574503   , 1.56937277  , -0.9099519  , 0.54        , 3           , 50          , 0           , 0
9.790596    , -0.00278972229, 0.01156715  , 0.002745999 , 0.00340077328, 0.0008354859, -0.455777258, 0.492719442 , -0.09795065 , 0.8574503   , 1.56937277  , -0.909979343, 0.55        , 3           , 11          , 0.03509467  , 0.0350946561
9.785553    , -0.009030742, 0.006530894 , -0.00260108383, -0.000577429659, -4.32231973E-05, -0.454024523, 0.4925172   , -0.09781583 , 0.8574503   , 1.56937277  , -0.909953356, 0.56        , 3           , 12          , 0.0350939147, 0
9.825127    , 0.00181279122, -0.00125725567, 0.00303334929, 0.00227642  , -0.00029508266, -0.455777258, 0.492314965 , -0.0980180651, 0.8574503   , 1.56937277  , -0.909983635, 0.57        , 3           , 14          , 0.000418146024, 0.000725073041
9.800372    , 0.00713433  , -0.0213117711, 0.000221790047, -0.000276764884, -2.96199232E-05, -0.455777258, 0.492314965 , -0.0980180651, 0.8574503   , 1.56937277  , -0.9099858  , 0.58        , 3           , 15          , 0           , 1.53730234E-05
9.799487    , 0.0129645793, -0.007734854, 0.00192151207, -0.00110999565, 0.00167220458, -0.455642432, 0.492382377 , -0.09795065 , 0.8574503   , 1.56937277  , -0.9100051  , 0.59        , 3           , 50          , 0           , 0
9.812662    , -0.006271743, 0.0307047684, -0.000336566271, -0.0008437139, 0.00109702582, -0.454226762, 0.492247552 , -0.09781583 , 0.8574503   , 1.56937277  , -0.910034657, 0.6         , 3           , 11          , 0.0353460573, 0.03534604
9.812857    , -0.00388294575, -0.009058418, -0.0009083011, 0.000278720225, -0.001164172, -0.455709845, 0.4925172   , -0.09795065 , 0.8574503   , 1.56937277  , -0.9100256  , 0.61        , 3           , 12          , 0.0353451073, 0
9.796244    , 0.00267671188, -0.0231697466, 0.002479338 , 0.000864776142, 0.00111279881, -0.455709845, 0.4925172   , -0.09795065 , 0.8574503   , 1.56937277  , -0.9100504  , 0.62        , 3           , 14          , 0.000415089278, 0.0007250751
9.797315    , -0.009624631, 0.007974317 , -0.001755092, 0.0002729926, -0.0003205102, -0.455912083, 0.492382377 , -0.09808548 , 0.8574503   , 1.56937277  , -0.910033   , 0.63        , 3           , 15          , 0           , 1.53751516E-05
9.769216    , 0.01962324  , -0.00387086347, 0.0007937192, -0.001117643, -0.000310827483, -0.454024523, 0.492180139 , -0.09774841 , 0.8574503   , 1.56937277  , -0.910040855, 0.64        , 3           , 50          , 0           , 0
9.776104    , 0.0240852572, -0.0128393723, -0.00118696108, -0.000286315219, 0.000528868 , -0.456114322, 0.492112726 , -0.09774841 , 0.8574503   , 1.56937277  , -0.910028934, 0.65        , 3           , 11          , 0.0353460573, 0.03534604
9.811267    , 0.009261004 , -0.0207676683, 0.00106671441, 0.0008552239, 0.000258601736, -0.456114322, 0.492112726 , -0.09774841 , 0.8574503   , 1.56937277  , -0.910039663, 0.66        , 3           , 12          , 0.0353451073, 0
9.790609    , -0.00724226842, -0.006078575, -0.0006207134, -0.000564060349, 0.000531067955, -0.455777258, 0.492382377 , -0.0980180651, 0.8574503   , 1.56937277  , -0.910033464, 0.67        , 3           , 14          , 0.000415089278, 0.0007250751
9.782458    , -0.008933065, -0.0115717147, -0.00146971422, -0.000288226758, -3.75236559E-05, -0.454294175, 0.492180139 , -0.0975461751, 0.8574503   , 1.56937277  , -0.9100187  , 0.68        , 3           , 15          , 0           , 1.53751516E-05
9.777147    , 0.00863794  , 0.0146755781, -0.00286913919, -0.00283186138, 0.0002345235, -0.455912083, 0.492314965 , -0.09795065 , 0.8574503   , 1.56937277  , -0.9099901  , 0.69        , 3           , 50          , 0           , 0
9.782224    , 0.0113347508, 0.0002620928, 0.000510604936, -0.0002748594, -2.830789E-05, -0.455912083, 0.492314965 , -0.09795065 , 0.8574503   , 1.56937277  , -0.9100268  , 0.7         , 3           , 11          , 0.0356498547, 0.0356498361
9.785218    , -0.008036937, -0.0192306228, -0.0020242664, -0.00169987453, -4.2329968E-05, -0.455777258, 0.492854267 , -0.09795065 , 0.8574503   , 1.56937277  , -0.9100065  , 0.71        , 3           , 12          , 0.0356487036, 0
9.795737    , 0.002191571 , -0.0114240609, 0.00164892816, -0.00223818049, -0.00200384017, -0.454024523, 0.492314965 , -0.09781583 , 0.8574503   , 1.56937277  , -0.910023   , 0.72        , 3           , 14          , 0.0004117579, 0.0007250775
9.797875    , -0.00106110575, 0.00891808048, 0.001072997 , 0.000292092154, 0.000540268549, -0.4560469  , 0.492382377 , -0.0980180651, 0.8574503   , 1.56937277  , -0.9100337  , 0.73        , 3           , 15          , 0           , 1.5377922E-05
9.799153    , -0.00515857944, 0.015238639 , -0.00259715784, -1.43024954E-05, 0.000522714457, -0.4560469  , 0.492382377 , -0.0980180651, 0.8574503   , 1.56937277  , -0.9100077  , 0.74        , 3           , 50          , 0           , 0
9.777582    , -0.00477189 , -0.0242472887, 0.0007840894, 0.00169801048, 0.00138873386, -0.455575019, 0.492584616 , -0.09788324 , 0.8574503   , 1.56937277  , -0.9100156  , 0.75        , 3           , 11          , 0.0356498547, 0.0356498361
9.767686    , 0.00119943928, -0.0211343262, -5.12087136E-05, -0.00112338 , -0.002010006, -0.454226762, 0.492786855 , -0.09788324 , 0.8574503   , 1.56937277  , -0.910014868, 0.76        , 3           , 12          , 0.0356487036, 0
9.777623    , 0.00775904953, 0.00608788244, 0.000223758616, 0.000286352879, -0.002854132, -0.456181735, 0.492382377 , -0.0980180651, 0.8574503   , 1.56937277  , -0.910017252, 0.77        , 3           , 14          , 0.0004117579, 0.0007250775
9.786347    , 0.0175743066, 0.008907169 , 0.00249161175, -0.00110618561, -0.000302928645, -0.456181735, 0.492382377 , -0.0980180651, 0.8574503   , 1.56937277  , -0.910042048, 0.78        , 3           , 15          , 0           , 1.5377922E-05
9.812013    , 0.00376550341, 0.000458497583, 0.00135526061, 0.000294001366, 0.000259048044, -0.455777258, 0.492652029 , -0.0980180651, 0.8574503   , 1.56937277  , -0.910055637, 0.79        , 3           , 50          , 0           , 0
9.768825    , -0.0105993627, -0.005355101, -0.000613069162, -0.0008456297, 0.000530628 , -0.454159349, 0.492719442 , -0.09781583 , 0.8574503   , 1.56937277  , -0.9100745  , 0.8         , 3           , 11          , 0.03600432  , 0.0360042974
9.780649    , -0.00444561942, 0.00199256837, 0.00277802488, -0.00138584408, -0.0008671239, -0.4559795  , 0.492382377 , -0.09808548 , 0.8574503   , 1.56937277  , -0.910102367, 0.81        , 3           , 12          , 0.0360029563, 0
9.779339    , -0.0039452794, -0.007959019, 0.000224126969, 0.00113105425, -2.74583472E-05, -0.4559795  , 0.492382377 , -0.09808548 , 0.8574503   , 1.56937277  , -0.9101045  , 0.82        , 3           , 14          , 0.000408839085, 0.0007250793
9.770247    , -0.0105623929, -0.0211634934, -0.000335313845, 9.731157E-07, -0.000314365432, -0.455844671, 0.4925172   , -0.09808548 , 0.8574503   , 1.56937277  , -0.9101012  , 0.83        , 3           , 15          , 0           , 1.53811143E-05
9.791605    , -0.00271568773, -0.0137359109, 0.0007823368, 0.00254270132, 0.0005424199, -0.4537549  , 0.492584616 , -0.09788324 , 0.8574503   , 1.56937277  , -0.9101088  , 0.84        , 3           , 50          , 0           , 0
9.785779    , 0.00588142965, -0.00063729845, -0.000618155755, 0.00028063287, 0.00137997628, -0.455777258, 0.492247552 , -0.09788324 , 0.8574503   , 1.56937277  , -0.9101026  , 0.85        , 3           , 11          , 0.03600432  , 0.0360042974
9.791287    , 0.0121277086, 0.0012386553, -0.00258448068, -0.00198525982, 0.000519673747, -0.455777258, 0.492247552 , -0.09788324 , 0.8574503   , 1.56937277  , -0.910076857, 0.86        , 3           , 12          , 0.0360029563, 0
9.800024    , -0.00653778575, 0.01975941  , 0.00106673606, 0.00198147725, -0.000869818265, -0.455912083, 0.492314965 , -0.09795065 , 0.8574503   , 1.56937277  , -0.9100876  , 0.87        , 3           , 14          , 0.000408839085, 0.0007250793
9.790937    , -0.0144901983, 0.00112562813, -0.00147371145, 0.00168272236, -0.0008821047, -0.4543616  , 0.492247552 , -0.09781583 , 0.8574503   , 1.56937277  , -0.9100728  , 0.88        , 3           , 15          , 0           , 1.53811143E-05
9.780212    , -0.00665978249, -0.008867566, 0.002496251 , -0.001387751, 0.000261708949, -0.4560469  , 0.492584616 , -0.09788324 , 0.8574503   , 1.56937277  , -0.910097837, 0.89        , 3           , 50          , 0           , 0
9.802811    , -0.007852066, -0.00146796927, 0.00221311045, -0.0005449694, -0.000303381617, -0.4560469  , 0.492584616 , -0.09788324 , 0.8574503   , 1.56937277  , -0.910149336, 0.9         , 3           , 11          , 0.03640757  , 0.0364075452
9.795838    , -0.0159520172, 0.0160725079, 0.00362204132, 0.0003092803, 0.00139972952, -0.455844671, 0.492382377 , -0.0980180651, 0.8574503   , 1.56937277  , -0.9101856  , 0.91        , 3           , 12          , 0.0364059955, 0
9.770631    , -0.009731917, -0.00126984157, 0.00277066766, 0.000866674236, -0.0008636532, -0.454091936, 0.492247552 , -0.09788324 , 0.8574503   , 1.56937277  , -0.910213232, 0.92        , 3           , 14          , 0.00040504447, 0.0007250815
9.767908    , -0.0123827513, -0.00853338651, 0.00137345237, -0.00195852155, 0.000820647634, -0.456114322, 0.492382377 , -0.09781583 , 0.8574503   , 1.56937277  , -0.91022706 , 0.93        , 3           , 15          , 0           , 1.53818473E-05
9.786413    , -0.0197903961, -0.0170102865, 0.00221499382, -0.000826532138, 0.000543796632, -0.456114322, 0.492382377 , -0.09781583 , 0.8574503   , 1.56937277  , -0.910249233, 0.94        , 3           , 50          , 0           , 0
9.789322    , -0.00315237045, -0.0101393163, -0.00371399731, -0.0014297755, -0.0008974141, -0.4559795  , 0.492247552 , -0.0980180651, 0.8574503   , 1.56937277  , -0.91021204 , 0.95        , 3           , 11          , 0.03640757  , 0.0364075452
9.778205    , 0.0141061442, -0.004728973, -0.00231071678, 0.0002691623, -0.00173583836, -0.454091936, 0.492180139 , -0.09761359 , 0.8574503   , 1.56937277  , -0.9101889  , 0.96        , 3           , 12          , 0.0364059955, 0
9.79011     , -0.0121845081, -0.0106227174, -0.0006265809, 0.002814718 , 0.00194895582, -0.4560469  , 0.492314965 , -0.09795065 , 0.8574503   , 1.56937277  , -0.9101825  , 0.97        , 3           , 14          , 0.00040504447, 0.0007250815
9.781766    , 0.008212255 , -0.008794021, -0.00146254618, 0.0005564683, 0.002224071 , -0.4560469  , 0.492314965 , -0.09795065 , 0.8574503   , 1.56937277  , -0.910167933, 0.98        , 3           , 15          , 0           , 1.53818473E-05
9.792582    , 0.003579204 , -0.0105384588, 0.0005146935, 0.000288267445, 0.0002550933, -0.455777258, 0.4924498   , -0.0980180651, 0.8574503   , 1.56937277  , -0.9101732  , 0.99        , 3           , 50          , 0           , 0
9.78601     , -0.005908238, 0.0155870095, 0.0005206976, -0.000274871069, -0.001158463, -0.454091936, 0.492247552 , -0.09795065 , 0.8574503   , 1.56937277  , -0.9102075  , 1           , 3           , 11          , 0.0368576162, 0.03685759
9.783835    , -0.00580907473, -0.00612442754, 0.00391235529, -0.000533511047, 0.0008346687, -0.456181735, 0.4924498   , -0.09795065 , 0.8574503   , 1.56937277  , -0.9102466  , 1.01        , 3           , 12          , 0.0368558168, 0
9.783965    , 0.003669621 , -0.00744008645, 0.00192175433, 0.00226877187, 0.00139486429, -0.456181735, 0.4924498   , -0.09795065 , 0.8574503   , 1.56937277  , -0.9102659  , 1.02        , 3           , 14          , 0.000401012658, 0.0007250861
9.7923975   , -0.00505010644, 0.00659973733, -0.000323631684, -0.0008437304, -0.0008807441, -0.455709845, 0.492719442 , -0.09795065 , 0.8574503   , 1.56937277  , -0.9102626  , 1.03        , 3           , 15          , 0           , 1.53829624E-05
9.793876    , 0.00306525  , 0.0034807974, 0.00023432629, 0.000849486969, 0.00166733062, -0.454226762, 0.4925172   , -0.09774841 , 0.8574503   , 1.56937277  , -0.910264969, 1.04        , 3           , 50          , 0           , 0
9.786087    , -0.008077813, -0.0101844724, -0.0008824199, -0.00197380828, -3.7501206E-05, -0.455912083, 0.4925172   , -0.09788324 , 0.8574503   , 1.56937277  , -0.910256147, 1.05        , 3           , 11          , 0.0368576162, 0.03685759
9.78556     , -0.0143810529, -0.0124745481, 0.0019294658, 0.000579377869, 0.000262110756, -0.455912083, 0.4925172   , -0.09788324 , 0.8574503   , 1.56937277  , -0.910275459, 1.06        , 3           , 12          , 0.0368558168, 0
9.816072    , -0.0007575686, -0.0103768148, -0.00202525151, 0.000834206468, 0.00137425761, -0.4555076  , 0.492382377 , -0.09808548 , 0.8574503   , 1.56937277  , -0.9102552  , 1.07        , 3           , 14          , 0.000401012658, 0.0007250861
9.815658    , 0.00374112139, -0.00493754447, -0.0006071262, -0.0005640737, -0.000316552119, -0.454024523, 0.492652029 , -0.09781583 , 0.8574503   , 1.56937277  , -0.910249233, 1.08        , 3           , 15          , 0           , 1.53829624E-05
9.78041649  , 0.003771114 , -0.0250941757, 0.0010916912, -0.001115737, 0.00223331875, -0.455912083, 0.492247552 , -0.09788324 , 0.8574503   , 1.56937277  , -0.910259962, 1.09        , 3           , 50          , 0           , 0
9.777628    , 0.00285231974, -0.0106558241, -0.000887140632, -2.85648275E-06, 0.000813146646, -0.455912083, 0.492247552 , -0.09788324 , 0.8574503   , 1.56937277  , -0.910282135, 1.1         , 3           , 11          , 0.037352372 , 0.0373523459
9.79461     , 0.0220354963, -0.00457064435, -3.263823E-05, -0.0016865225, -0.00116326835, -0.455642432, 0.492314965 , -0.09815289 , 0.8574503   , 1.56937277  , -0.9102819  , 1.11        , 3           , 12          , 0.037350338 , 0
9.811302    , 0.0164325573, -0.006726161, -0.0022889385, -0.00226493087, -0.000609596667, -0.454226762, 0.492314965 , -0.09788324 , 0.8574503   , 1.56937277  , -0.910259   , 1.12        , 3           , 14          , 0.000396464864, 0.0007250921
9.801284    , 0.014271074 , -3.1972304E-05, -0.0006024153, -0.0005640789, -3.40164843E-05, -0.4559795  , 0.492247552 , -0.09774841 , 0.8574503   , 1.56937277  , -0.910253048, 1.13        , 3           , 15          , 0           , 1.5384845E-05
9.794816    , 0.00219011563, -0.007815238, 0.0008011916, 0.00113486056, -0.0003073657, -0.4559795  , 0.492247552 , -0.09774841 , 0.8574503   , 1.56937277  , -0.9102609  , 1.14        , 3           , 50          , 0           , 0
9.803238    , 0.0183827337, -0.0216952059, -0.00171999144, -0.00282423454, 0.00165246893, -0.455642432, 0.492382377 , -0.09795065 , 0.8574503   , 1.56937277  , -0.91024375 , 1.15        , 3           , 11          , 0.037352372 , 0.0373523459
9.807622    , 0.0115184635, -0.008582607, 0.00136481458, 0.00142024667, -2.17604065E-05, -0.454429   , 0.492584616 , -0.09795065 , 0.8574503   , 1.56937277  , -0.910257339, 1.16        , 3           , 12          , 0.037350338 , 0
9.783383    , -0.0325101651, 0.0186205246, 0.00137506193, -0.000550706754, 0.000822814356, -0.456114322, 0.492314965 , -0.09795065 , 0.8574503   , 1.56937277  , -0.910271168, 1.17        , 3           , 14          , 0.000396464864, 0.0007250921
9.781826    , -0.0175540522, 0.00465912465, -0.0011616929, -0.00169415912, -3.838609E-05, -0.456114322, 0.492314965 , -0.09795065 , 0.8574503   , 1.56937277  , -0.9102595  , 1.18        , 3           , 15          , 0           , 1.5384845E-05
9.799269    , -0.00372649939, -0.008257698, 0.0005231099, 0.000288256153, -2.74469458E-05, -0.455709845, 0.492314965 , -0.09781583 , 0.8574503   , 1.56937277  , -0.91026473 , 1.19        , 3           , 50          , 0           , 0
9.806591    , 0.008749614 , 0.0130932545, -0.00060331315, 0.000280610577, -0.000880329346, -0.454091936, 0.492719442 , -0.09761359 , 0.8574503   , 1.56937277  , -0.91028285 , 1.2         , 3           , 11          , 0.0378897078, 0.03788968
9.799802    , 0.00347450678, -0.0046079047, -0.00200364273, -0.00198145676, 0.000239764311, -0.4560469  , 0.4924498   , -0.09795065 , 0.8574503   , 1.56937277  , -0.9102628  , 1.21        , 3           , 12          , 0.03788743  , 0
9.780764    , 0.00144957379, -0.00702179037, 0.0008024293, 0.00141641707, -0.002284696, -0.4560469  , 0.4924498   , -0.09795065 , 0.8574503   , 1.56937277  , -0.9102709  , 1.22        , 3           , 14          , 0.000392691261, 0.000725095335
9.777054    , -0.005275182, -0.00707804458, 0.00135341729, 0.00451746024, 0.000265548 , -0.455709845, 0.492719442 , -0.09815289 , 0.8574503   , 1.56937277  , -0.9102845  , 1.23        , 3           , 15          , 0           , 1.538696E-05
9.785691    , -0.00177755544, -0.003833605, -0.000595779333, -0.0008456402, 0.00250838487, -0.454091936, 0.4920453   , -0.09781583 , 0.8574503   , 1.56937277  , -0.910278559, 1.24        , 3           , 50          , 0           , 0
9.778301    , -0.0102900751, 0.00375832617, -3.41143168E-05, -0.0005602638, -0.0005964597, -0.456181735, 0.4925172   , -0.09774841 , 0.8574503   , 1.56937277  , -0.9102781  , 1.25        , 3           , 11          , 0.0378897078, 0.03788968
9.78436     , 0.00495576439, 0.0110995919, -0.00116669852, 0.000276797742, 0.00165987411, -0.456181735, 0.4925172   , -0.09774841 , 0.8574503   , 1.56937277  , -0.9102664  , 1.26        , 3           , 12          , 0.03788743  , 0
9.78830051  , -0.0130549632, -0.01380405 , 0.00167741207, -0.003646012, 0.00223204331, -0.455642432, 0.4925172   , -0.0980180651, 0.8574503   , 1.56937277  , -0.9102833  , 1.27        , 3           , 14          , 0.000392691261, 0.000725095335
9.802261    , -0.0146200713, 0.000307705253, 0.00194368954, -0.0005468901, 0.000825446157, -0.454429   , 0.492247552 , -0.09774841 , 0.8574503   , 1.56937277  , -0.910302639, 1.28        , 3           , 15          , 0           , 1.538696E-05
9.804673    , -0.0006896776, 0.0089716   , -0.003136301, -0.00142596709, -4.71728054E-05, -0.456316561, 0.492314965 , -0.09808548 , 0.8574503   , 1.56937277  , -0.9102714  , 1.29        , 3           , 50          , 0           , 0
9.79127     , 0.0121141076, 0.00530632772, 0.00167289481, -0.00223819562, -0.000591162767, -0.456316561, 0.492314965 , -0.09808548 , 0.8574503   , 1.56937277  , -0.9103131  , 1.3         , 3           , 11          , 0.03846746  , 0.038467437
9.79884052  , -0.00146996416, -0.00689567 , -0.00199275184, -0.00338928378, -4.49436666E-05, -0.455642432, 0.492314965 , -0.09788324 , 0.8574503   , 1.56937277  , -0.910293341, 1.31        , 3           , 12          , 0.03846493  , 0
9.800726    , -0.0272454228, 0.00295553543, -0.00144257944, -0.000288244919, 0.00109261321, -0.454294175, 0.492180139 , -0.097681   , 0.8574503   , 1.56937277  , -0.9102788  , 1.32        , 3           , 14          , 0.000388607179, 0.0007250964
9.796283    , -0.0159648973, 0.0183357671, -0.00200931658, -1.05021754E-05, 0.0002428008, -0.4559795  , 0.4924498   , -0.09781583 , 0.8574503   , 1.56937277  , -0.91025877 , 1.33        , 3           , 15          , 0           , 1.53880155E-05
9.787162    , -0.03064074 , -0.0134336725, 0.00110295461, -0.00111575285, 0.000255551335, -0.4559795  , 0.4924498   , -0.09781583 , 0.8574503   , 1.56937277  , -0.910269737, 1.34        , 3           , 50          , 0           , 0
9.790649    , -0.008548859, -0.0200951789, 0.002229874 , -0.000544982729, 0.000261686946, -0.455642432, 0.4924498   , -0.09795065 , 0.8574503   , 1.56937277  , -0.910292149, 1.35        , 3           , 11          , 0.03846746  , 0.038467437
9.800962    , -0.00607457757, 0.0129887527, -4.05296742E-05, 0.00169225922, 0.000537160435, -0.454294175, 0.492382377 , -0.09788324 , 0.8574503   , 1.56937277  , -0.9102917  , 1.36        , 3           , 12          , 0.03846493  , 0
9.775465    , 0.0132266562, -0.00204166584, -0.00229887664, 0.00139541272, -3.888372E-05, -0.456114322, 0.492652029 , -0.09795065 , 0.8574503   , 1.56937277  , -0.9102688  , 1.37        , 3           , 14          , 0.000388607179, 0.0007250964
9.790308    , 0.004936565 , -0.00377047271, -0.00172828359, 0.0002729728, 0.000244551658, -0.456114322, 0.492652029 , -0.09795065 , 0.8574503   , 1.56937277  , -0.9102514  , 1.38        , 3           , 15          , 0           , 1.53880155E-05
9.797012    , 0.000769257662, 0.004399225 , -0.000589307863, -0.001690345, -0.000600830361, -0.455642432, 0.492584616 , -0.09808548 , 0.8574503   , 1.56937277  , -0.910245657, 1.39        , 3           , 50          , 0           , 0
9.776274    , 0.001086344 , -0.0174532589, -0.00114881981, -0.00197572913, -3.88246845E-05, -0.4543616  , 0.492314965 , -0.09795065 , 0.8574503   , 1.56937277  , -0.9102557  , 1.4         , 3           , 11          , 0.0390834771, 0.0390834548
9.802381    , -0.00872033648, -0.0100625381, -0.00143222569, -0.001977644, -0.00173536665, -0.456316561, 0.492584616 , -0.09795065 , 0.8574503   , 1.56937277  , -0.910241365, 1.41        , 3           , 12          , 0.0390806757, 0
9.803024    , 0.004819474 , -0.0131653724, 0.00138170645, 0.000293980469, -0.000306038273, -0.456316561, 0.492584616 , -0.09795065 , 0.8574503   , 1.56937277  , -0.910254955, 1.42        , 3           , 14          , 0.0003849858, 0.0007250969
9.793018    , 0.003115179 , -0.008277126, -0.0008836104, 0.00140495959, -0.000879913161, -0.455844671, 0.4925172   , -0.09815289 , 0.8574503   , 1.56937277  , -0.910246134, 1.43        , 3           , 15          , 0           , 1.53895071E-05
9.787356    , -0.00637987256, 0.0169513077, -0.00143921 , -6.67496352E-06, 0.00307080825, -0.454226762, 0.492314965 , -0.09774841 , 0.8574503   , 1.56937277  , -0.9102318  , 1.44        , 3           , 50          , 0           , 0
9.782375    , -0.0125710024, -0.00299974345, 0.00221472071, 0.00311535946, -0.000862823159, -0.456181735, 0.492719442 , -0.09808548 , 0.8574503   , 1.56937277  , -0.910254   , 1.45        , 3           , 11          , 0.0390834771, 0.0390834548
9.806674    , 0.00122821843, -0.0312317088, 0.005609166 , 0.00229358952, 0.00112944038, -0.456181735, 0.492719442 , -0.09808548 , 0.8574503   , 1.56937277  , -0.9103098  , 1.46        , 3           , 12          , 0.0390806757, 0
9.810124    , -0.00475638127, -0.008178962, 0.000246096839, 0.00141259946, -0.000874645368, -0.455709845, 0.492786855 , -0.09795065 , 0.8574503   , 1.56937277  , -0.9103124  , 1.47        , 3           , 14          , 0.0003849858, 0.0007250969
9.77776     , 0.0150107415, -0.0038246566, 0.00251083565, 0.0005831893, 0.0011123505, -0.4543616  , 0.492719442 , -0.0980180651, 0.8574503   , 1.56937277  , -0.910337448, 1.48        , 3           , 15          , 0           , 1.53895071E-05
9.791654    , 0.0008935225, -0.0137205869, 0.000257575157, -0.0008399197, -0.000313041761, -0.4560469  , 0.492314965 , -0.09788324 , 0.8574503   , 1.56937277  , -0.9103401  , 1.49        , 3           , 50          , 0           , 0
9.812869    , -0.0016407941, -0.00498116948, -0.0008607697, -0.00225539133, -0.000320483174, -0.4560469  , 0.492314965 , -0.09788324 , 0.8574503   , 1.56937277  , -0.9103565  , 1.5         , 3           , 11          , 0.0397356227, 0.0397355966
9.801496    , 0.0238163061, -0.0212340187, -9.796815E-06, -0.003094359, -0.00116544659, -0.455709845, 0.492382377 , -0.09808548 , 0.8574503   , 1.56937277  , -0.9103565  , 1.51        , 3           , 12          , 0.03973253  , 0
9.768902    , -0.008750906, -0.0184543766, -0.00114582153, -0.00169417018, -3.839476E-05, -0.454226762, 0.492584616 , -0.09774841 , 0.8574503   , 1.56937277  , -0.9103451  , 1.52        , 3           , 14          , 0.000380593468, 0.000725103251
9.79203     , -0.0067617083, -0.0196252353, 0.00110571855, 1.05021172E-05, 0.000822356553, -0.456181735, 0.492314965 , -0.09781583 , 0.8574503   , 1.56937277  , -0.910356045, 1.53        , 3           , 15          , 0           , 1.53935143E-05
9.79268551  , 0.0116984108, -0.0100520235, -1.28367674E-05, -0.00224965834, 0.0008136173, -0.456181735, 0.492314965 , -0.09781583 , 0.8574503   , 1.56937277  , -0.910356045, 1.54        , 3           , 50          , 0           , 0
9.802045    , 0.0034312983, 0.0003808923, -0.0005834296, -0.00112721871, 0.0005301817, -0.455912083, 0.492382377 , -0.09795065 , 0.8574503   , 1.56937277  , -0.9103501  , 1.55        , 3           , 11          , 0.0397356227, 0.0397355966
9.814567    , -0.008895599, -0.000478429749, -0.000315832876, 0.001408766 , -0.00342012034, -0.4544964  , 0.492382377 , -0.09781583 , 0.8574503   , 1.56937277  , -0.910347   , 1.56        , 3           , 12          , 0.03973253  , 0
9.803103    , -0.0169136785, 0.008440347 , 0.00139118533, -0.0008322885, -0.0011553904, -0.456249148, 0.4925172   , -0.09795065 , 0.8574503   , 1.56937277  , -0.9103608  , 1.57        , 3           , 14          , 0.000380593468, 0.000725103251
9.790283    , 0.00223871553, -0.00649374351, -2.20165239E-05, -0.0005602717, -0.0005964663, -0.456249148, 0.4925172   , -0.09795065 , 0.8574503   , 1.56937277  , -0.9103606  , 1.58        , 3           , 15          , 0           , 1.53935143E-05
9.80106449  , 0.00382807082, 0.0198103469, -0.00284767849, -0.0002978063, -0.00060920167, -0.455777258, 0.492719442 , -0.09795065 , 0.8574503   , 1.56937277  , -0.9103322  , 1.59        , 3           , 50          , 0           , 0
9.785957    , -0.009521984, 0.0169275738, -4.00363933E-05, 0.00366320531, -2.488566E-05, -0.454091936, 0.492584616 , -0.09788324 , 0.8574503   , 1.56937277  , -0.910346031, 1.6         , 3           , 11          , 0.04042179  , 0.04042177
9.782017    , -0.0026690606, 0.00562626123, 0.00138882583, 0.0002939743, -2.35081989E-05, -0.456249148, 0.492180139 , -0.09795065 , 0.8574503   , 1.56937277  , -0.910359859, 1.61        , 3           , 12          , 0.0404183976, 0
9.799557    , 0.0223949123, 0.005412305 , -0.0005876726, 0.0002806068, 0.000814885541, -0.456249148, 0.492180139 , -0.09795065 , 0.8574503   , 1.56937277  , -0.9103539  , 1.62        , 3           , 14          , 0.000378029566, 0.0007251039
9.809319    , 0.00337043963, -0.00679547526, -0.002845367, -1.62365031E-05, 0.0013689911, -0.455709845, 0.492652029 , -0.09808548 , 0.8574503   , 1.56937277  , -0.9103253  , 1.63        , 3           , 15          , 0           , 1.53969013E-05
9.800877    , 0.0192239322, 0.00450529344, -0.002001527, 0.0005526205, 0.000243659757, -0.454091936, 0.492382377 , -0.0975461751, 0.8574503   , 1.56937277  , -0.910305262, 1.64        , 3           , 50          , 0           , 0
9.806629    , 0.00565506425, -0.00590261258, 0.002239547 , -0.000263422815, 0.00110972452, -0.456114322, 0.492314965 , -0.09781583 , 0.8574503   , 1.56937277  , -0.9103277  , 1.65        , 3           , 11          , 0.04042179  , 0.04042177
9.79534149  , 0.0111700119, 0.003525598 , -0.000869358, -2.871384E-06, -0.0003170151, -0.456114322, 0.492314965 , -0.09781583 , 0.8574503   , 1.56937277  , -0.910318851, 1.66        , 3           , 12          , 0.0404183976, 0
9.795743    , 0.00174948364, -0.0141377524, 0.0005497461, -0.00140114687, -0.0003126001, -0.455709845, 0.4925172   , -0.0980180651, 0.8574503   , 1.56937277  , -0.9103246  , 1.67        , 3           , 14          , 0.000378029566, 0.0007251039
9.797028    , -0.00100360019, -0.00509966 , -0.002824457, -0.00423971238, 0.00136248209, -0.454294175, 0.492314965 , -0.09781583 , 0.8574503   , 1.56937277  , -0.9102962  , 1.68        , 3           , 15          , 0           , 1.53969013E-05
9.791996    , -0.00143256411, 0.005707696 , -0.000300900545, -0.0005621776, 0.00109743816, -0.456181735, 0.492314965 , -0.09795065 , 0.8574503   , 1.56937277  , -0.910293341, 1.69        , 3           , 50          , 0           , 0
9.809079    , -0.004859142, 0.0257113986, 0.00365920621, -0.00138013694, -0.000298121, -0.456181735, 0.492314965 , -0.09795065 , 0.8574503   , 1.56937277  , -0.9103451  , 1.7         , 3           , 11          , 0.0411399379, 0.04113991
9.78697     , -0.00408855174, 0.007918171 , -0.00143374479, 0.000556441431, 0.000528823934, -0.455709845, 0.492314965 , -0.09788324 , 0.8574503   , 1.56937277  , -0.9103308  , 1.71        , 3           , 12          , 0.0411362238, 0
9.792374    , -0.012211089, -0.010605514, -0.00198654179, -0.00198146654, -0.000325327535, -0.454294175, 0.492314965 , -0.09808548 , 0.8574503   , 1.56937277  , -0.910310745, 1.72        , 3           , 14          , 0.000375264179, 0.0007251037
9.785947    , 0.0153919151, -0.0114441942, -0.0002982983, -0.000562178262, 0.000814893458, -0.4559795  , 0.492247552 , -0.09795065 , 0.8574503   , 1.56937277  , -0.9103079  , 1.73        , 3           , 15          , 0           , 1.54040845E-05
9.801095    , 0.006530449 , 0.0211777277, 0.000554395 , -0.00168270944, 0.000534571 , -0.4559795  , 0.492247552 , -0.09795065 , 0.8574503   , 1.56937277  , -0.910313368, 1.74        , 3           , 50          , 0           , 0
9.788356    , -0.008099852, -0.0115231611, 0.00195751269, 1.62276556E-05, -0.000586390437, -0.455575019, 0.492652029 , -0.09808548 , 0.8574503   , 1.56937277  , -0.9103329  , 1.75        , 3           , 11          , 0.0411399379, 0.04113991
9.778527    , 0.001943915 , -0.0120086651, -0.00284850341, 0.00111002242, 0.0008056447, -0.454024523, 0.492786855 , -0.09774841 , 0.8574503   , 1.56937277  , -0.910304546, 1.76        , 3           , 12          , 0.0411362238, 0
9.806013    , -0.007862059, -0.009579223, -2.1195563E-05, 0.000284421432, -0.00116024993, -0.4560469  , 0.492382377 , -0.09815289 , 0.8574503   , 1.56937277  , -0.9103043  , 1.77        , 3           , 14          , 0.000375264179, 0.0007251037
9.808773    , -0.009197517, -0.0244791154, -2.92332843E-05, 0.00197381363, -0.0005925714, -0.4560469  , 0.492382377 , -0.09815289 , 0.8574503   , 1.56937277  , -0.910303831, 1.78        , 3           , 15          , 0           , 1.54040845E-05
9.821962    , -0.00350182946, -0.0198348146, -0.00341449887, 0.001106197 , -0.00117475144, -0.455777258, 0.492584616 , -0.09795065 , 0.8574503   , 1.56937277  , -0.910269737, 1.79        , 3           , 50          , 0           , 0
9.812435    , -0.00162036147, -0.009504244, 0.0005539076, -0.00111958652, -2.963882E-05, -0.454024523, 0.4925172   , -0.09795065 , 0.8574503   , 1.56937277  , -0.9102895  , 1.8         , 3           , 11          , 0.0418880843, 0.04188806
9.775275    , -0.00299514015, -0.007986151, 0.00167918077, 1.43190264E-05, 0.00195512688, -0.4559795  , 0.492652029 , -0.09774841 , 0.8574503   , 1.56937277  , -0.9103062  , 1.81        , 3           , 12          , 0.0418840237, 0
9.800075    , -0.003818766, 0.0161551945, 0.00223378721, 0.00198909245, 0.00111318566, -0.4559795  , 0.492652029 , -0.09774841 , 0.8574503   , 1.56937277  , -0.9103286  , 1.82        , 3           , 14          , 0.000372637238, 0.0007251094
9.78849     , 0.00450667227, -0.00378614641, 0.0008352668, -0.00083611 , 0.0005371868, -0.455912083, 0.492314965 , -0.09808548 , 0.8574503   , 1.56937277  , -0.910337   , 1.83        , 3           , 15          , 0           , 1.54070513E-05
9.78241348  , -0.0125407577, -0.012039002, -0.0008639656, -2.87691364E-06, -0.000317025231, -0.454294175, 0.492382377 , -0.09788324 , 0.8574503   , 1.56937277  , -0.9103284  , 1.84        , 3           , 50          , 0           , 0
9.791345    , -0.0131934742, 0.0165015683, -0.00114827591, 0.000276775856, -0.00116552075, -0.456114322, 0.492719442 , -0.09795065 , 0.8574503   , 1.56937277  , -0.910316944, 1.85        , 3           , 11          , 0.0418880843, 0.04188806
9.769941    , 0.0100930817, 0.009654686 , -0.00452887034, -0.0014355334, -0.0009013901, -0.456114322, 0.492719442 , -0.09795065 , 0.8574503   , 1.56937277  , -0.910271645, 1.86        , 3           , 12          , 0.0418840237, 0
9.769873    , -0.00737029035, -0.0297408272, 0.001943738 , 0.003395005 , -1.61112057E-05, -0.455844671, 0.4924498   , -0.09815289 , 0.8574503   , 1.56937277  , -0.910290956, 1.87        , 3           , 14          , 0.000372637238, 0.0007251094
9.786562    , -0.00583342277, -0.008363603, -0.00227609975, -1.24267535E-05, -0.000323609915, -0.454226762, 0.492314965 , -0.09788324 , 0.8574503   , 1.56937277  , -0.9102683  , 1.88        , 3           , 15          , 0           , 1.54070513E-05
9.802554    , 0.004364562 , -0.0104589518, 0.000838054752, -0.00139924 , 0.0005363189, -0.4560469  , 0.492652029 , -0.0980180651, 0.8574503   , 1.56937277  , -0.910276651, 1.89        , 3           , 50          , 0           , 0
9.797457    , -0.00683156541, -0.01777609 , -0.0022506502, -0.00451747328, -0.0006130935, -0.4560469  , 0.492652029 , -0.0980180651, 0.8574503   , 1.56937277  , -0.9102719  , 1.9         , 3           , 11          , 0.0426643267, 0.0426643
9.807655    , -0.013822373, 0.0125558274, 0.00366751524, -0.00166170776, 0.0013966636, -0.4559795  , 0.4924498   , -0.0980180651, 0.8574503   , 1.56937277  , -0.9103086  , 1.91        , 3           , 12          , 0.0426598974, 0
9.820823    , -0.014839517, 0.0009007212, 0.00225628586, -0.001952825, 0.0005420326, -0.454159349, 0.492584616 , -0.09781583 , 0.8574503   , 1.56937277  , -0.910331   , 1.92        , 3           , 14          , 0.000369328627, 0.0007251141
9.783031    , 0.001426012 , -0.007908514, -0.000295061967, -0.000280629756, -0.00144497852, -0.4560469  , 0.492180139 , -0.0980180651, 0.8574503   , 1.56937277  , -0.91032815 , 1.93        , 3           , 15          , 0           , 1.54101963E-05
9.786745    , 0.009045491 , -0.005588604, 0.0002704443, -0.0002768067, -0.000312194577, -0.4560469  , 0.492180139 , -0.0980180651, 0.8574503   , 1.56937277  , -0.9103308  , 1.94        , 3           , 50          , 0           , 0
9.786738    , 0.00725450041, -0.009663936, -0.00170670671, -0.000290177268, -0.0006039506, -0.4559795  , 0.4924498   , -0.0980180651, 0.8574503   , 1.56937277  , -0.9103136  , 1.95        , 3           , 11          , 0.0426643267, 0.0426643
9.781397    , 0.00605251174, -0.0359248333, -0.00142969273, 0.0008379938, -0.000318360457, -0.454091936, 0.492247552 , -0.09788324 , 0.8574503   , 1.56937277  , -0.9102993  , 1.96        , 3           , 12          , 0.0426598974, 0
9.794882    , 0.006706144 , -0.009151965, 0.000265936047, 0.0005678869, -0.000875967729, -0.4560469  , 0.492382377 , -0.09788324 , 0.8574503   , 1.56937277  , -0.9103019  , 1.97        , 3           , 14          , 0.000369328627, 0.0007251141
9.797286    , 0.0233086832, 0.009918565 , 0.001972213 , -0.00139159942, 0.002519346 , -0.4560469  , 0.492382377 , -0.09788324 , 0.8574503   , 1.56937277  , -0.9103217  , 1.98        , 3           , 15          , 0           , 1.54101963E-05
9.775812    , 0.004655513 , -0.00388247916, -0.000276865583, -0.00365940365, 0.00109265151, -0.456114322, 0.4924498   , -0.09795065 , 0.8574503   , 1.56937277  , -0.9103191  , 1.99        , 3           , 50          , 0           , 0
9.774936    , -0.0291588772, -0.009001186, -1.54344889E-05, 0.000847541844, 0.0002532895, -0.454226762, 0.4925172   , -0.09781583 , 0.8574503   , 1.56937277  , -0.9103284  , 2           , 3           , 11          , 0.0434668325, 0.0434668064
9.78466     , -0.0161508489, -0.0197204985, -0.00312803173, 0.001952791 , -0.000324535766, -0.455912083, 0.492314965 , -0.0980180651, 0.8574503   , 1.56937277  , -0.910297155, 2.01        , 3           , 12          , 0.04346202  , 0
9.784374    , -0.000388486224, -0.00971370749, -0.0008600901, 0.000278681167, -3.40664265E-05, -0.455912083, 0.492314965 , -0.0980180651, 0.8574503   , 1.56937277  , -0.9102886  , 2.02        , 3           , 14          , 0.000367530854, 0.0007251173
9.788544    , 0.00410390273, -0.0182508826, 0.000273472921, -0.0005583758, -0.0005951755, -0.456114322, 0.4925172   , -0.09808548 , 0.8574503   , 1.56937277  , -0.9102912  , 2.03        , 3           , 15          , 0           , 1.54196587E-05
9.790007    , 0.0148853483, -0.009155331, 0.00168379757, 1.430884E-05, 0.00110750168, -0.454159349, 0.492382377 , -0.09774841 , 0.8574503   , 1.56937277  , -0.9103081  , 2.04        , 3           , 50          , 0           , 0
9.787652    , -0.0216895714, 0.00649445876, 0.00196532044, 0.000297786319, 0.00195686519, -0.4559795  , 0.492382377 , -0.09781583 , 0.8574503   , 1.56937277  , -0.9103277  , 2.05        , 3           , 11          , 0.0434668325, 0.0434668064
9.824467    , -0.0144187994, -0.00268554129, 0.00139014481, 0.00198334781, -0.00143361487, -0.4559795  , 0.492382377 , -0.09781583 , 0.8574503   , 1.56937277  , -0.91034174 , 2.06        , 3           , 12          , 0.04346202  , 0
9.830169    , -0.00533709349, -0.0392149761, -0.000575364742, -0.000282541354, -0.0008812299, -0.455844671, 0.4925172   , -0.0980180651, 0.8574503   , 1.56937277  , -0.9103358  , 2.07        , 3           , 14          , 0.000367530854, 0.0007251173
9.805801    , 0.00483596046, -0.0276075546, -0.00142510689, 0.000274860417, -0.0003192378, -0.454159349, 0.492584616 , -0.09781583 , 0.8574503   , 1.56937277  , -0.9103215  , 2.08        , 3           , 15          , 0           , 1.54196587E-05
9.777794    , 0.020840928 , 0.006595405 , 0.004212277 , 0.00256558042, -0.0002894276, -0.455844671, 0.492382377 , -0.09808548 , 0.8574503   , 1.56937277  , -0.9103637  , 2.09        , 3           , 50          , 0           , 0
9.782535    , -0.00128314667, -0.00566362776, 0.000282023742, -0.00168464065, 0.0008157698, -0.455844671, 0.492382377 , -0.09808548 , 0.8574503   , 1.56937277  , -0.910377741, 2.1         , 3           , 11          , 0.04429386  , 0.04429384
9.787339    , -0.022015959, -0.0292159878, 0.003657532 , 0.00115393125, 0.00140098738, -0.455912083, 0.492652029 , -0.09808548 , 0.8574503   , 1.56937277  , -0.910414457, 2.11        , 3           , 12          , 0.04428864  , 0
9.795577    , -0.00775794359, -0.004234785, 0.00251929741, 0.002835681 , 0.00111578568, -0.454294175, 0.492314965 , -0.09788324 , 0.8574503   , 1.56937277  , -0.9104395  , 2.12        , 3           , 14          , 0.000365371816, 0.000725125836
9.815576    , -0.000341919949, 0.00182466581, 0.0005710942, -0.00309055764, 0.000249842065, -0.4560469  , 0.492247552 , -0.09808548 , 0.8574503   , 1.56937277  , -0.9104452  , 2.13        , 3           , 15          , 0           , 1.54258869E-05
9.811476    , -0.008348279, -0.0181271583, 0.000840485445, -0.0005545644, -0.0005925479, -0.4560469  , 0.492247552 , -0.09808548 , 0.8574503   , 1.56937277  , -0.910453558, 2.14        , 3           , 50          , 0           , 0
9.792953    , 0.003953983 , 0.0107091554, 0.000837534433, 8.564908E-06, -0.000874217541, -0.455912083, 0.492854267 , -0.09815289 , 0.8574503   , 1.56937277  , -0.9104619  , 2.15        , 3           , 11          , 0.04429386  , 0.04429384
9.786734    , 0.004125165 , -0.0182646476, -0.000283156231, -0.00168846222, 0.00024806094, -0.454024523, 0.492584616 , -0.09795065 , 0.8574503   , 1.56937277  , -0.910459042, 2.16        , 3           , 12          , 0.04428864  , 0
9.783966    , 0.003223007 , -0.00879789 , 0.0005548556, 0.000288225419, 0.00110266171, -0.4560469  , 0.4925172   , -0.09788324 , 0.8574503   , 1.56937277  , -0.9104645  , 2.17        , 3           , 14          , 0.000365371816, 0.000725125836
9.804373    , 0.0141688455, 0.0194265246, -0.005353552, -0.00453849556, -0.000910133, -0.4560469  , 0.4925172   , -0.09788324 , 0.8574503   , 1.56937277  , -0.9104111  , 2.18        , 3           , 15          , 0           , 1.54258869E-05
9.786165    , 0.004483375 , 0.011111429 , -0.0002854548, -0.00112532976, 0.00109654129, -0.455844671, 0.4924498   , -0.09808548 , 0.8574503   , 1.56937277  , -0.910408258, 2.19        , 3           , 50          , 0           , 0
9.790862    , -0.0158905368, 0.0151307452, 2.64056143E-06, -0.00224968721, -0.00172926032, -0.454226762, 0.4925172   , -0.09781583 , 0.8574503   , 1.56937277  , -0.9104173  , 2.2         , 3           , 11          , 0.04514377  , 0.0451437421
9.800229    , 0.00255630515, -0.001444554, 0.00111225364, 0.001981433 , -0.000304796064, -0.456316561, 0.492854267 , -0.09815289 , 0.8574503   , 1.56937277  , -0.9104283  , 2.21        , 3           , 12          , 0.0451381   , 0
9.801773    , 0.0151877087, -0.005900221, -0.00197106972, -0.0028261845, -0.0008917342, -0.456316561, 0.492854267 , -0.09815289 , 0.8574503   , 1.56937277  , -0.910408735, 2.22        , 3           , 14          , 0.0003636478, 0.0007251249
9.786947    , -0.009017965, -0.002046084, -0.0005697614, -0.000564112561, -0.00031660308, -0.455844671, 0.492180139 , -0.09815289 , 0.8574503   , 1.56937277  , -0.9104028  , 2.23        , 3           , 15          , 0           , 1.54339323E-05
9.794206    , -0.00998415053, -0.00832236 , 0.00140566926, -0.000269178418, -0.0005894881, -0.454226762, 0.492180139 , -0.09788324 , 0.8574503   , 1.56937277  , -0.9104171  , 2.24        , 3           , 50          , 0           , 0
9.803583    , 0.0173980147, 0.00135452673, -0.000288239069, -0.0002806351, 0.00053276  , -0.4560469  , 0.492382377 , -0.09788324 , 0.8574503   , 1.56937277  , -0.9104142  , 2.25        , 3           , 11          , 0.04514377  , 0.0451437421
9.800362    , 0.0138229914, 0.00221904553, 0.0005563422, 6.653543E-06, -0.00172315491, -0.4560469  , 0.492382377 , -0.09788324 , 0.8574503   , 1.56937277  , -0.9104197  , 2.26        , 3           , 12          , 0.0451381   , 0
9.779564    , -0.0121695856, 0.02138755  , -0.00113896024, 0.0002767619, -0.0006004726, -0.4559795  , 0.492180139 , -0.09795065 , 0.8574503   , 1.56937277  , -0.910408258, 2.27        , 3           , 14          , 0.0003636478, 0.0007251249
9.755087    , -0.0208314825, -0.000982739, -0.0008586687, 0.0008418052, 0.0005318619, -0.454159349, 0.492112726 , -0.09781583 , 0.8574503   , 1.56937277  , -0.9103997  , 2.28        , 3           , 15          , 0           , 1.54339323E-05
9.789518    , 0.0148619367, -0.0005714707, -0.000292584242, 0.0005640593, 0.000251524325, -0.455844671, 0.492382377 , -0.09781583 , 0.8574503   , 1.56937277  , -0.9103966  , 2.29        , 3           , 50          , 0           , 0
9.793976    , 0.009841577 , 0.0007977541, 0.00113694253, -0.002805166, 0.0002528957, -0.455844671, 0.492382377 , -0.09781583 , 0.8574503   , 1.56937277  , -0.910411358, 2.3         , 3           , 11          , 0.04601497  , 0.0460149422
9.783831    , -0.005813629, -0.004768528, -0.003663572, -0.00311920349, -0.0009000759, -0.455912083, 0.492719442 , -0.09808548 , 0.8574503   , 1.56937277  , -0.9103749  , 2.31        , 3           , 12          , 0.0460088328, 0
9.812736    , -0.0155856647, -0.0172435641, -0.00224184338, -0.00508061051, -0.00117906614, -0.454226762, 0.492382377 , -0.09795065 , 0.8574503   , 1.56937277  , -0.910352468, 2.32        , 3           , 14          , 0.000362983352, 0.0007251192
9.808113    , -0.0156096146, 0.005772162 , -0.00481746672, 0.00165976072, -0.00174557918, -0.4560469  , 0.4925172   , -0.09808548 , 0.8574503   , 1.56937277  , -0.91030407 , 2.33        , 3           , 15          , 0           , 1.544004E-05
9.77707     , -0.00169016025, 0.000168697909, 0.002250085 , 0.0005812556, 0.0005459081, -0.4560469  , 0.4925172   , -0.09808548 , 0.8574503   , 1.56937277  , -0.9103267  , 2.34        , 3           , 50          , 0           , 0
9.794239    , -0.006832133, -0.006501097, -0.000291252742, 9.24628637E-07, -0.00342233665, -0.4559795  , 0.492382377 , -0.09795065 , 0.8574503   , 1.56937277  , -0.9103236  , 2.35        , 3           , 11          , 0.04601497  , 0.0460149422
9.773811    , -0.00708187837, 0.004641261 , -0.00170421682, 0.0005545144, -3.76036769E-05, -0.4543616  , 0.4925172   , -0.097681   , 0.8574503   , 1.56937277  , -0.9103067  , 2.36        , 3           , 12          , 0.0460088328, 0
9.78649     , -0.0121404678, -0.0111021977, -0.00199656514, 0.00252355915, -0.000318420585, -0.456114322, 0.492719442 , -0.09788324 , 0.8574503   , 1.56937277  , -0.910286665, 2.37        , 3           , 14          , 0.000362983352, 0.0007251192
9.78502     , -0.0180182159, -0.00255012512, 0.001403709 , 0.000293958175, -0.000306088827, -0.456114322, 0.492719442 , -0.09788324 , 0.8574503   , 1.56937277  , -0.910300732, 2.38        , 3           , 15          , 0           , 1.544004E-05
9.780739    , -0.0008031718, -0.007935289, 0.000823847542, 0.003387356 , 0.0002611253, -0.455844671, 0.4924498   , -0.09808548 , 0.8574503   , 1.56937277  , -0.910308838, 2.39        , 3           , 50          , 0           , 0
9.78342152  , -0.00309383613, -0.00702030258, 0.00140074326, 0.000857093837, 0.00110746839, -0.454159349, 0.492314965 , -0.09788324 , 0.8574503   , 1.56937277  , -0.910317659, 2.4         , 3           , 11          , 0.046906    , 0.0469059721
9.793233    , -0.0153843071, -0.009256154, 0.0005383807, 0.00366700953, -0.0008699052, -0.456114322, 0.492584616 , -0.09795065 , 0.8574503   , 1.56937277  , -0.910323143, 2.41        , 3           , 12          , 0.0468993559, 0
9.798968    , 0.009792189 , -0.00187617925, 0.000276700855, -0.0005583776, -0.00116026867, -0.456114322, 0.492584616 , -0.09795065 , 0.8574503   , 1.56937277  , -0.910325766, 2.42        , 3           , 14          , 0.000363976666, 0.0007251175
9.790983    , -0.0140073  , -0.008363683, -0.001686762, -0.003105828, 0.0005218321, -0.4559795  , 0.492786855 , -0.0982203  , 0.8574503   , 1.56937277  , -0.910308838, 2.43        , 3           , 15          , 0           , 1.54378286E-05
9.782472    , -0.00579766976, -0.00477886 , -0.0002804559, -0.00168844766, 0.002508349 , -0.454024523, 0.492314965 , -0.09795065 , 0.8574503   , 1.56937277  , -0.910306   , 2.44        , 3           , 50          , 0           , 0
9.78657     , -0.00448752427, -0.00609803572, -0.00112781068, -0.00197574962, -3.88730041E-05, -0.4560469  , 0.492584616 , -0.09808548 , 0.8574503   , 1.56937277  , -0.9102948  , 2.45        , 3           , 11          , 0.046906    , 0.0469059721
9.785154    , -0.0112131471, -0.0138204647, 0.00224023825, 0.00227064546, -0.0002990983, -0.4560469  , 0.492584616 , -0.09808548 , 0.8574503   , 1.56937277  , -0.9103172  , 2.46        , 3           , 12          , 0.0468993559, 0
9.78556252  , -0.0121464645, -0.006137489, -0.0022567024, -0.00198338577, 0.00136854651, -0.455844671, 0.492652029 , -0.0980180651, 0.8574503   , 1.56937277  , -0.910294533, 2.47        , 3           , 14          , 0.000363976666, 0.0007251175
9.765256    , -0.006496464, -0.005365381, -0.00198017783, -0.0008552169, 0.0008065242, -0.454226762, 0.492180139 , -0.09795065 , 0.8574503   , 1.56937277  , -0.910274744, 2.48        , 3           , 15          , 0           , 1.54378286E-05
9.790039    , -0.0180449411, -0.0120035075, 0.00110700121, 0.00310770376, 0.0008270855, -0.455777258, 0.492180139 , -0.09808548 , 0.8574503   , 1.56937277  , -0.9102857  , 2.49        , 3           , 50          , 0           , 0
9.801066    , -0.001973386, 0.0008029919, -0.001981077, -0.00085522217, -4.108367E-05, -0.455777258, 0.492180139 , -0.09808548 , 0.8574503   , 1.56937277  , -0.9102638  , 2.5         , 3           , 11          , 0.047815457 , 0.0478154272
9.779863    , 0.000124877784, -0.0124579724, -0.00198238925, -0.000573656638, 0.000100618876, -0.455912083, 0.492180139 , -0.09788324 , 0.8574503   , 1.56937277  , -0.910244   , 2.51        , 3           , 12          , 0.0478082746, 0
9.779186    , 0.0172822941, -0.0132959876, -0.0009955342, -0.0002854079, -0.000318144215, -0.453889728, 0.492652029 , -0.09774841 , 0.8574503   , 1.56937277  , -0.910234   , 2.52        , 3           , 14          , 0.000364386477, 0.000725120364
9.787499    , -0.00492512155, -0.0133244786, -0.00170160132, -0.000290182827, -0.000321436528, -0.455777258, 0.4925172   , -0.09781583 , 0.8574503   , 1.56937277  , -0.910217047, 2.53        , 3           , 15          , 0           , 1.54334266E-05
9.783803    , -0.00628139963, 0.000201143324, -0.00212515984, -0.000293047371, -0.000182143136, -0.455777258, 0.4925172   , -0.09781583 , 0.8574503   , 1.56937277  , -0.9101958  , 2.54        , 3           , 50          , 0           , 0
9.777831    , -0.0178878047, -0.0161640644, 0.000128515429, 0.0008484919, -0.000452409324, -0.455844671, 0.4924498   , -0.09815289 , 0.8574503   , 1.56937277  , -0.910197   , 2.55        , 3           , 11          , 0.047815457 , 0.0478154272
9.791683    , 0.0004710746, -0.0223097987, 0.00111881131, 0.0005736137, 0.000258109678, -0.453889728, 0.492180139 , -0.09781583 , 0.8574503   , 1.56937277  , -0.9102082  , 2.56        , 3           , 12          , 0.0478082746, 0
9.805292    , 0.00658086641, -0.008168917, 0.0004134039, 0.000287270115, -0.00101703533, -0.455912083, 0.4924498   , -0.09808548 , 0.8574503   , 1.56937277  , -0.9102125  , 2.57        , 3           , 14          , 0.000364386477, 0.000725120364
9.795072    , 0.019358037 , -0.0149738481, 0.0008385641, -0.000132215253, -0.002004592, -0.455912083, 0.4924498   , -0.09808548 , 0.8574503   , 1.56937277  , -0.910220861, 2.58        , 3           , 15          , 0           , 1.54334266E-05
9.787572    , -0.00218949 , -0.0219002888, 0.000271041237, 0.000567881565, -0.0005934535, -0.455709845, 0.492652029 , -0.09808548 , 0.8574503   , 1.56937277  , -0.9102235  , 2.59        , 3           , 50          , 0           , 0
9.789673    , -0.009042308, -0.00428526476, 0.00110736024, 0.00268534012, -0.000586253649, -0.454159349, 0.492382377 , -0.09788324 , 0.8574503   , 1.56937277  , -0.910232067, 2.6         , 3           , 11          , 0.0487420335, 0.048742
9.809572    , -0.009294335, 0.0012896657, 0.00280253659, 0.00255601713, -0.0007198378, -0.455844671, 0.4920453   , -0.09788324 , 0.8574503   , 1.56937277  , -0.910259962, 2.61        , 3           , 12          , 0.0487342738, 0
9.817884    , 0.00368581968, 0.00366696343, 0.00154481444, 1.33394224E-05, 0.000400480436, -0.455844671, 0.4920453   , -0.09788324 , 0.8574503   , 1.56937277  , -0.910275459, 2.62        , 3           , 14          , 0.000364893116, 0.0007251299
9.799701    , 0.0300992578, -0.00495027937, -0.0007093949, -0.0009874166, 0.0009535011, -0.455777258, 0.492652029 , -0.09788324 , 0.8574503   , 1.56937277  , -0.9102683  , 2.63        , 3           , 15          , 0           , 1.5438889E-05
9.81925     , -0.00168195879, -0.0148761962, -0.000146343154, -0.0007020335, 0.000250225334, -0.454159349, 0.492786855 , -0.09795065 , 0.8574503   , 1.56937277  , -0.9102669  , 2.64        , 3           , 50          , 0           , 0
9.780712    , -0.00439574 , -0.0129222143, 0.0008370269, 0.000290128082, -0.000167452788, -0.455912083, 0.4925172   , -0.09788324 , 0.8574503   , 1.56937277  , -0.9102752  , 2.65        , 3           , 11          , 0.0487420335, 0.048742
9.787514    , -0.00625287 , -0.0210136045, -0.0002901814, -0.000139857511, 0.0005329721, -0.455912083, 0.4925172   , -0.09788324 , 0.8574503   , 1.56937277  , -0.9102721  , 2.66        , 3           , 12          , 0.0487342738, 0
9.788578    , -0.0239151232, -0.00571124442, -1.40003067E-06, -0.00140499009, 0.000673605 , -0.455844671, 0.492382377 , -0.0980180651, 0.8574503   , 1.56937277  , -0.9102721  , 2.67        , 3           , 14          , 0.000364893116, 0.0007251299
9.793252    , -0.00688802358, 0.0133784041, 0.0009815994, -0.000272044446, 0.0008212188, -0.454024523, 0.492180139 , -0.09781583 , 0.8574503   , 1.56937277  , -0.910282135, 2.68        , 3           , 15          , 0           , 1.5438889E-05
9.793472    , 0.0106977876, 0.016164897 , 0.00183174969, -0.000829444441, 0.000965570449, -0.455844671, 0.492180139 , -0.0980180651, 0.8574503   , 1.56937277  , -0.910300255, 2.69        , 3           , 50          , 0           , 0
9.805858    , -0.0191469025, -0.007819267, 0.00113088335, -0.00196048059, -2.83427653E-05, -0.455844671, 0.492180139 , -0.0980180651, 0.8574503   , 1.56937277  , -0.910312653, 2.7         , 3           , 11          , 0.04968449  , 0.0496844575
9.797156    , 0.00758036366, -0.008678967, 0.00126951642, -0.00153718027, -0.0008746457, -0.455912083, 0.492314965 , -0.09815289 , 0.8574503   , 1.56937277  , -0.9103253  , 2.71        , 3           , 12          , 0.04967612  , 0
9.798789    , 0.02385576  , -0.02351447 , 0.00140847568, -0.00111387856, -0.00115587388, -0.4539571  , 0.492652029 , -0.09781583 , 0.8574503   , 1.56937277  , -0.910339355, 2.72        , 3           , 14          , 0.0003646972, 0.0007251282
9.799869    , 0.0142416526, 0.0135166   , -0.0004247999, -0.00154863927, -0.0004587412, -0.455844671, 0.4925172   , -0.09781583 , 0.8574503   , 1.56937277  , -0.910335064, 2.73        , 3           , 15          , 0           , 1.54429326E-05
9.781842    , 0.0198786836, 0.0102382377, 3.05954018E-06, -0.00224968349, 0.000813567953, -0.455844671, 0.4925172   , -0.09781583 , 0.8574503   , 1.56937277  , -0.9103353  , 2.74        , 3           , 50          , 0           , 0
9.817988    , 0.0118035078, 0.004605366 , 0.000707814237, -0.001963343, 0.000958562945, -0.4559795  , 0.492719442 , -0.09808548 , 0.8574503   , 1.56937277  , -0.9103422  , 2.75        , 3           , 11          , 0.04968449  , 0.0496844575
9.799813    , 0.007054982 , 0.00399472751, 0.00112153322, 1.04769242E-05, 0.000681038364, -0.4539571  , 0.492314965 , -0.09761359 , 0.8574503   , 1.56937277  , -0.9103534  , 2.76        , 3           , 12          , 0.04967612  , 0
9.788876    , -0.0009094261, -0.00470962562, 0.00153935293, 0.001139601 , 0.0002609434, -0.455844671, 0.492180139 , -0.0980180651, 0.8574503   , 1.56937277  , -0.9103689  , 2.77        , 3           , 14          , 0.0003646972, 0.0007251282
9.796481    , -0.0077701  , -0.00377593935, 0.00224177144, 0.00184828788, -1.72169166E-05, -0.455844671, 0.492180139 , -0.0980180651, 0.8574503   , 1.56937277  , -0.910391331, 2.78        , 3           , 15          , 0           , 1.54429326E-05
9.795138    , -0.00193906564, 0.0111534223, 0.000835784362, 0.000712480338, 0.0009633437, -0.455777258, 0.4925172   , -0.0980180651, 0.8574503   , 1.56937277  , -0.9103997  , 2.79        , 3           , 50          , 0           , 0
9.789589    , 0.0171494447, -0.0100531131, 0.000142610137, -0.00210793782, 0.0009557025, -0.453889728, 0.492382377 , -0.09781583 , 0.8574503   , 1.56937277  , -0.9103954  , 2.8         , 3           , 11          , 0.0506416857, 0.0506416522
9.783537    , -0.001215152, -0.02915883 , -0.0005661189, -0.00169036794, -3.58200632E-05, -0.455777258, 0.4925172   , -0.09788324 , 0.8574503   , 1.56937277  , -0.9103899  , 2.81        , 3           , 12          , 0.0506326631, 0
9.791015    , -0.0130883716, -0.0133314449, -0.00381792057, -0.00100842176, -0.00075622357, -0.455777258, 0.4925172   , -0.09788324 , 0.8574503   , 1.56937277  , -0.910351753, 2.82        , 3           , 14          , 0.000365744665, 0.0007251207
9.803851    , 0.00429873355, 0.00446615927, -0.00395688 , -0.00143172347, -0.000474995526, -0.455777258, 0.492652029 , -0.0980180651, 0.8574503   , 1.56937277  , -0.910311937, 2.83        , 3           , 15          , 0           , 1.54525678E-05
9.799933    , 0.0120614944, -0.009091135, -0.001417255, -0.000851401, 0.0005266058, -0.454091936, 0.4924498   , -0.0980180651, 0.8574503   , 1.56937277  , -0.9102979  , 2.84        , 3           , 50          , 0           , 0
9.792458    , -0.00232355017, 0.0007357113, -0.0001531786, 0.0004242339, -0.000454396446, -0.455642432, 0.492314965 , -0.09815289 , 0.8574503   , 1.56937277  , -0.91029644 , 2.85        , 3           , 11          , 0.0506416857, 0.0506416522
9.781643    , 0.002756109 , 0.00383795961, -0.001991452, 0.00083416485, -0.00116864929, -0.455642432, 0.492314965 , -0.09815289 , 0.8574503   , 1.56937277  , -0.9102764  , 2.86        , 3           , 12          , 0.0506326631, 0
9.770851    , 0.00249905232, -0.0161329061, -0.0012844872, 0.000838943932, 0.000388599263, -0.455912083, 0.492314965 , -0.0980180651, 0.8574503   , 1.56937277  , -0.910263538, 2.87        , 3           , 14          , 0.000365744665, 0.0007251207
9.79972     , 0.00162302656, 0.009395296 , 0.000271974423, 0.000286320254, 0.000960049336, -0.454091936, 0.492382377 , -0.09781583 , 0.8574503   , 1.56937277  , -0.910266161, 2.88        , 3           , 15          , 0           , 1.54525678E-05
9.802198    , 0.01694619  , 0.006313891 , -1.39139615E-06, -0.00154576264, 0.0009559119, -0.455709845, 0.4925172   , -0.09788324 , 0.8574503   , 1.56937277  , -0.910266161, 2.89        , 3           , 50          , 0           , 0
9.773729    , -0.0183077417, -0.0112253465, -0.000709774962, -0.001550535, -0.000318811362, -0.455709845, 0.4925172   , -0.09788324 , 0.8574503   , 1.56937277  , -0.910250664, 2.9         , 3           , 11          , 0.05161252  , 0.05161249
9.803381    , -0.004637322, -0.0199816115, -0.00170556514, -0.000149396248, -0.000886325957, -0.455844671, 0.4924498   , -0.09815289 , 0.8574503   , 1.56937277  , -0.9102335  , 2.91        , 3           , 12          , 0.0516028069, 0
9.800229    , 0.00166306645, -0.00416015647, -0.00199106918, 0.000552608457, -0.000180214382, -0.453889728, 0.492382377 , -0.09788324 , 0.8574503   , 1.56937277  , -0.9102137  , 2.92        , 3           , 14          , 0.000367327 , 0.0007251148
9.78963852  , -0.00728455745, 0.009733262 , -0.00254431833, -0.00184451556, -0.000610342831, -0.455912083, 0.492382377 , -0.09788324 , 0.8574503   , 1.56937277  , -0.9101882  , 2.93        , 3           , 15          , 0           , 1.54649551E-05
9.787525    , 5.800779E-06, -0.00381218642, -0.00197372539, -0.0029669553, -0.0003269072, -0.455912083, 0.492382377 , -0.09788324 , 0.8574503   , 1.56937277  , -0.910168648, 2.94        , 3           , 50          , 0           , 0
9.812595    , -0.0188238472, 0.006697081 , 0.0006926012, 0.000429970329, -0.000309189083, -0.4559795  , 0.492382377 , -0.09815289 , 0.8574503   , 1.56937277  , -0.9101753  , 2.95        , 3           , 11          , 0.05161252  , 0.05161249
9.78018     , -0.00757873058, -0.00389979756, 0.00125491165, 0.0009969216, 0.000118118762, -0.4539571  , 0.492247552 , -0.09788324 , 0.8574503   , 1.56937277  , -0.91018796 , 2.96        , 3           , 12          , 0.0516028069, 0
9.785201    , -0.00135586108, 0.00656001829, 0.000125448918, 0.0009892829, 0.0005366571, -0.455844671, 0.492247552 , -0.0980180651, 0.8574503   , 1.56937277  , -0.910189152, 2.97        , 3           , 14          , 0.000367327 , 0.0007251148
9.789749    , -0.00139239035, 0.00162282959, -0.000717731135, 0.000138857475, 0.00039013577, -0.455844671, 0.492247552 , -0.0980180651, 0.8574503   , 1.56937277  , -0.910182   , 2.98        , 3           , 15          , 0           , 1.54649551E-05
9.795662    , -0.006796674, -0.021857528, 0.001116938 , 0.000292052864, -0.000307430775, -0.4559795  , 0.4924498   , -0.09808548 , 0.8574503   , 1.56937277  , -0.9101932  , 2.99        , 3           , 50          , 0           , 0
9.792481    , -0.00275050965, -0.006497616, 0.00180883915, 0.002690136 , -1.79134531E-05, -0.453889728, 0.492180139 , -0.09774841 , 0.8574503   , 1.56937277  , -0.910197735, 3           , 3           , 11          , 0.05259599  , 0.05259596
9.793705    , -0.0122497091, -0.003815744, -0.00199785712, 0.00153809309, 0.000810184458, -0.455844671, 0.492247552 , -0.0980180651, 0.8574503   , 1.56937277  , -0.910177946, 3.01        , 3           , 12          , 0.0525855422, 0
9.787541    , 0.004035914 , 0.005244322 , -0.00129244255, 0.00154286483, -0.000316673, -0.455844671, 0.492247552 , -0.0980180651, 0.8574503   , 1.56937277  , -0.910164833, 3.02        , 3           , 14          , 0.000369806919, 0.000725110644
9.790167    , -0.006782789, -0.006984018, 0.00209528534, 0.00184734946, -0.000300435844, -0.455575019, 0.492382377 , -0.09808548 , 0.8574503   , 1.56937277  , -0.9101858  , 3.03        , 3           , 15          , 0           , 1.54659338E-05
9.801315    , -0.0186592173, -0.00288015231, 0.00153453229, 0.000998834 , -0.000445640238, -0.454024523, 0.492180139 , -0.09788324 , 0.8574503   , 1.56937277  , -0.9102011  , 3.04        , 3           , 50          , 0           , 0
9.774573    , -0.0174750425, 0.00641193427, 0.00153801718, 0.000294921367, -0.0004467251, -0.455912083, 0.492314965 , -0.0980180651, 0.8574503   , 1.56937277  , -0.91021657 , 3.05        , 3           , 11          , 0.05259599  , 0.05259596
9.768844    , -0.002103075, 0.0172794573, 0.00182929751, -0.00139255682, 0.000399600569, -0.455912083, 0.492314965 , -0.0980180651, 0.8574503   , 1.56937277  , -0.9102349  , 3.06        , 3           , 12          , 0.0525855422, 0
9.775954    , -0.0139014348, 0.0123130959, 0.0005561225, -0.000978805, 0.000111787893, -0.455777258, 0.492382377 , -0.09808548 , 0.8574503   , 1.56937277  , -0.9102404  , 3.07        , 3           , 14          , 0.000369806919, 0.000725110644
9.786714    , -0.0319707356, -0.01886642 , -0.000290705619, -0.00112531858, -0.000316186022, -0.4537549  , 0.4924498   , -0.09808548 , 0.8574503   , 1.56937277  , -0.910237551, 3.08        , 3           , 15          , 0           , 1.54659338E-05
9.788282    , -0.0135151967, -0.0110941846, -0.001133515, -0.00211652834, -0.00102799933, -0.455777258, 0.492180139 , -0.09808548 , 0.8574503   , 1.56937277  , -0.9102261  , 3.09        , 3           , 50          , 0           , 0
9.776933    , -0.0134064844, -0.00394878536, -0.0007129905, -0.00183209218, -0.000884311, -0.455777258, 0.492180139 , -0.09808548 , 0.8574503   , 1.56937277  , -0.9102092  , 3.1         , 3           , 11          , 0.05359116  , 0.0535911247
9.773462    , -0.00208216044, -0.00483233668, 0.0005532515, -0.0006972327, 0.000677307136, -0.455844671, 0.492247552 , -0.09795065 , 0.8574503   , 1.56937277  , -0.9102149  , 3.11        , 3           , 12          , 0.0535799265, 0
9.786137    , -0.0008956875, 0.000693297 , 0.00125690131, -0.000270111748, 0.0001161754, -0.453620076, 0.492314965 , -0.09781583 , 0.8574503   , 1.56937277  , -0.9102273  , 3.12        , 3           , 14          , 0.000371610251, 0.0007251051
9.808695    , -0.0106008556, -0.009570083, 0.0015391648, -0.000268202537, -0.000165045189, -0.455709845, 0.492314965 , -0.09815289 , 0.8574503   , 1.56937277  , -0.9102428  , 3.13        , 3           , 15          , 0           , 1.54556128E-05
9.80853748  , 0.008837219 , -0.0194343366, -0.000573875441, -0.0011272179, 0.00151900074, -0.455709845, 0.492314965 , -0.09815289 , 0.8574503   , 1.56937277  , -0.910236835, 3.14        , 3           , 50          , 0           , 0
9.787868    , -0.0152661093, -0.02556811 , -0.00268899929, -0.00184545736, 0.000801695336, -0.455777258, 0.492719442 , -0.09808548 , 0.8574503   , 1.56937277  , -0.9102099  , 3.15        , 3           , 11          , 0.05359116  , 0.0535911247
9.798676    , -0.0132089816, -0.0042336937, -0.00199387688, 0.0002710535, -3.93702467E-05, -0.453889728, 0.492584616 , -0.09795065 , 0.8574503   , 1.56937277  , -0.910189867, 3.16        , 3           , 12          , 0.0535799265, 0
9.801094    , 0.00206579058, 0.007147718 , -0.0024219437, 0.00111288251, -0.000463850127, -0.455844671, 0.492382377 , -0.09795065 , 0.8574503   , 1.56937277  , -0.9101658  , 3.17        , 3           , 14          , 0.000371610251, 0.0007251051
9.778659    , 0.0118707642, -0.0124184946, -0.00228150887, 0.0012546198, -0.0006042433, -0.455844671, 0.492382377 , -0.09795065 , 0.8574503   , 1.56937277  , -0.9101429  , 3.18        , 3           , 15          , 0           , 1.54556128E-05
9.800151    , -0.008219929, -0.0168572757, -0.00143172953, 0.000838004053, 0.000105400228, -0.4555076  , 0.492382377 , -0.09808548 , 0.8574503   , 1.56937277  , -0.9101286  , 3.19        , 3           , 50          , 0           , 0
9.789494    , 0.0135024441, 0.00123063661, -0.000863033, -0.0004252198, 0.000671156449, -0.453889728, 0.492180139 , -0.09774841 , 0.8574503   , 1.56937277  , -0.910105   , 3.2         , 3           , 11          , 0.0545971319, 0.0545971
9.791156    , -0.00360059435, -0.0173588879, 0.00125234318, 1.14491286E-05, -0.0005897342, -0.4554402  , 0.492247552 , -0.09795065 , 0.8574503   , 1.56937277  , -0.9101176  , 3.21        , 3           , 12          , 0.054585062 , 0
9.784881    , 0.00232822425, -0.0142184021, 0.00194984593, 0.00156482751, -0.00213801116, -0.4554402  , 0.492247552 , -0.09795065 , 0.8574503   , 1.56937277  , -0.9101372  , 3.22        , 3           , 14          , 0.000374366675, 0.000725107442
9.784982    , 0.01624738  , 0.00572736561, 0.0005325435, 0.00268154  , -0.00143651653, -0.455372781, 0.492180139 , -0.09795065 , 0.8574503   , 1.56937277  , -0.9101424  , 3.23        , 3           , 15          , 0           , 1.54553636E-05
9.77013     , 0.0200652666, -0.00431403145, 0.000393747381, 0.002258239 , -0.000872750941, -0.4537549  , 0.492180139 , -0.09795065 , 0.8574503   , 1.56937277  , -0.910146236, 3.24        , 3           , 50          , 0           , 0
9.790255    , 0.00578593742, 0.0120520778, -0.000303710927, 0.0005640749, -0.00045484057, -0.455642432, 0.492314965 , -0.09795065 , 0.8574503   , 1.56937277  , -0.9101434  , 3.25        , 3           , 11          , 0.0545971319, 0.0545971
9.807641    , -0.0116028972, 0.0234125219, -0.0007250155, 0.000138863412, -3.366063E-05, -0.455642432, 0.492314965 , -0.09795065 , 0.8574503   , 1.56937277  , -0.910136   , 3.26        , 3           , 12          , 0.054585062 , 0
9.782721    , -0.02114365 , -0.004388584, -0.000301783148, 0.000141726385, -0.000738029, -0.4554402  , 0.492314965 , -0.09808548 , 0.8574503   , 1.56937277  , -0.9101331  , 3.27        , 3           , 14          , 0.000374366675, 0.000725107442
9.793444    , 0.00487213768, 0.00438895077, -0.0018537367, -0.0001503435, -0.0007457061, -0.4538223  , 0.492584616 , -0.09781583 , 0.8574503   , 1.56937277  , -0.9101145  , 3.28        , 3           , 15          , 0           , 1.54553636E-05
9.806307    , -0.018708609, -0.00555408746, -0.00213465071, -0.0002930321, 0.0006654474, -0.455709845, 0.492382377 , -0.09795065 , 0.8574503   , 1.56937277  , -0.910093069, 3.29        , 3           , 50          , 0           , 0
9.798831    , -0.00370908435, -0.0118768476, -0.000440852018, -0.0007039121, 0.0005314286, -0.455709845, 0.492382377 , -0.09795065 , 0.8574503   , 1.56937277  , -0.9100735  , 3.3         , 3           , 11          , 0.0556130745, 0.05561305
9.800984    , -0.0123060355, -0.012348   , 0.000122526078, -0.000418527459, 0.000393227645, -0.455642432, 0.492382377 , -0.09815289 , 0.8574503   , 1.56937277  , -0.910074949, 3.31        , 3           , 12          , 0.05560013  , 0
9.798383    , -0.009948833, -0.0331493728, 0.001107372 , 0.000292069279, 0.000116384217, -0.453889728, 0.4919779   , -0.09795065 , 0.8574503   , 1.56937277  , -0.9100859  , 3.32        , 3           , 14          , 0.000377138262, 0.0007250993
9.791233    , 0.009852316 , 0.00710459938, 0.00124624965, 0.000715370639, -0.0003061126, -0.455575019, 0.492112726 , -0.09815289 , 0.8574503   , 1.56937277  , -0.9100983  , 3.33        , 3           , 15          , 0           , 1.54560876E-05
9.798816    , -0.0001512887, 0.0035052374, -0.00044761438, 0.0005631283, -0.000314231176, -0.455575019, 0.492112726 , -0.09815289 , 0.8574503   , 1.56937277  , -0.9100938  , 3.34        , 3           , 50          , 0           , 0
9.803232    , -0.00743646547, 0.007576652 , 0.000255501538, 0.00113103259, -0.0005926083, -0.455709845, 0.4924498   , -0.09815289 , 0.8574503   , 1.56937277  , -0.9100964  , 3.35        , 3           , 11          , 0.0556130745, 0.05561305
9.796113    , -0.0010005181, -0.00284673087, 0.000540019362, 0.00071059505, -0.000591942342, -0.4537549  , 0.492247552 , -0.09774841 , 0.8574503   , 1.56937277  , -0.9101019  , 3.36        , 3           , 12          , 0.05560013  , 0
9.770902    , 0.008341339 , -0.009328552, -0.000299594132, -0.0008437428, -0.0005982797, -0.455642432, 0.4920453   , -0.09808548 , 0.8574503   , 1.56937277  , -0.9100988  , 3.37        , 3           , 14          , 0.000377138262, 0.0007250993
9.792004    , -0.008121213, -0.0178231262, -0.000294307276, -0.0018292187, 0.000106545114, -0.455642432, 0.4920453   , -0.09808548 , 0.8574503   , 1.56937277  , -0.91009593 , 3.38        , 3           , 15          , 0           , 1.54560876E-05
9.800708    , 0.00123229914, -0.0118420068, -0.0001526044, -0.00182826142, 0.000954815943, -0.455642432, 0.492382377 , -0.0982203  , 0.8574503   , 1.56937277  , -0.910094261, 3.39        , 3           , 50          , 0           , 0
9.819777    , 0.00283633126, -0.0184693113, -0.000156543829, -0.00168748014, 0.000672492548, -0.4538223  , 0.4924498   , -0.09781583 , 0.8574503   , 1.56937277  , -0.910075665, 3.4         , 3           , 11          , 0.0566382334, 0.0566382
9.802031    , -0.00238377857, -0.014558793, 0.000121582212, -0.0009816614, -0.0007377931, -0.455372781, 0.4920453   , -0.09788324 , 0.8574503   , 1.56937277  , -0.910076857, 3.41        , 3           , 12          , 0.0566243455, 0
9.802161    , 0.009328018 , -0.009085428, 0.00138770544, 1.24115322E-05, -0.0005890795, -0.455372781, 0.4920453   , -0.09788324 , 0.8574503   , 1.56937277  , -0.9100909  , 3.42        , 3           , 14          , 0.000380217534, 0.000725099933
9.806281    , 0.0084232185, -0.0226171967, 0.00110748841, -0.000271059573, 0.000821857 , -0.455777258, 0.492786855 , -0.09808548 , 0.8574503   , 1.56937277  , -0.9101019  , 3.43        , 3           , 15          , 0           , 1.54591617E-05
9.820914    , -0.0103022959, -0.00676349876, 0.00153592636, -0.00125367276, 0.000681045 , -0.454024523, 0.492112726 , -0.09774841 , 0.8574503   , 1.56937277  , -0.9101174  , 3.44        , 3           , 50          , 0           , 0
9.802603    , 0.0115451906, 0.000870780961, 0.000964310137, 9.547966E-06, -0.000167248552, -0.455642432, 0.492112726 , -0.09781583 , 0.8574503   , 1.56937277  , -0.9101269  , 3.45        , 3           , 11          , 0.0566382334, 0.0566382
9.793466    , 0.00622862065, 0.00349076837, -0.00144222029, 0.001119572 , -0.0007417817, -0.455642432, 0.492112726 , -0.09781583 , 0.8574503   , 1.56937277  , -0.9101126  , 3.46        , 3           , 12          , 0.0566243455, 0
9.795325    , 0.0102646891, 0.00442569144, -0.00101533975, 0.000418522919, -0.00116469734, -0.455912083, 0.492180139 , -0.09808548 , 0.8574503   , 1.56937277  , -0.910102367, 3.47        , 3           , 14          , 0.000380217534, 0.000725099933
9.781352    , 0.0176221989, 0.0120330667, 0.0005428424, -0.000415664283, -2.8606155E-05, -0.4538223  , 0.4920453   , -0.09795065 , 0.8574503   , 1.56937277  , -0.910107851, 3.48        , 3           , 15          , 0           , 1.54591617E-05
9.775703    , 0.00144302787, 0.0123747922, 0.0003968315, 0.000568859046, 0.000113522859, -0.4555076  , 0.492247552 , -0.09795065 , 0.8574503   , 1.56937277  , -0.9101119  , 3.49        , 3           , 50          , 0           , 0
9.803837    , -0.00240807 , -0.01364111 , -0.00074479694, 0.00210983655, -0.000171908949, -0.4555076  , 0.492247552 , -0.09795065 , 0.8574503   , 1.56937277  , -0.9100816  , 3.5         , 3           , 11          , 0.05767187  , 0.0576718338
9.78842     , -0.0334165171, 0.00238386169, -0.000452574983, 0.00028157694, 0.001098006 , -0.455912083, 0.492382377 , -0.0980180651, 0.8574503   , 1.56937277  , -0.9100771  , 3.51        , 3           , 12          , 0.057656996 , 0
9.800637    , -0.00328827277, -0.009149389, 0.000118470125, -0.0009816466, 0.000957418466, -0.4539571  , 0.492180139 , -0.09788324 , 0.8574503   , 1.56937277  , -0.910078049, 3.52        , 3           , 14          , 0.000384308572, 0.0007250897
9.79408     , 0.0134961437, -0.0127458144, 0.0006829975, -0.0009778281, 0.000394977367, -0.455777258, 0.492584616 , -0.09815289 , 0.8574503   , 1.56937277  , -0.910084963, 3.53        , 3           , 15          , 0           , 1.54722838E-05
9.780522    , -0.0130296117, 0.00557188131, 0.001236536 , 0.00127851183, 0.000118545315, -0.455777258, 0.492584616 , -0.09815289 , 0.8574503   , 1.56937277  , -0.910097361, 3.54        , 3           , 50          , 0           , 0
9.80942     , -0.019684406, 0.00531327724, 0.000668034132, 0.00197860366, -0.000165541074, -0.455777258, 0.492382377 , -0.09808548 , 0.8574503   , 1.56937277  , -0.910104036, 3.55        , 3           , 11          , 0.05767187  , 0.0576718338
9.801048    , -0.00377346482, -0.0005605649, 0.00011867765, -0.00112243148, 0.000109589157, -0.454091936, 0.492247552 , -0.09788324 , 0.8574503   , 1.56937277  , -0.9101052  , 3.56        , 3           , 12          , 0.057656996 , 0
9.806526    , -0.002462633, -0.006841017, -0.0003062306, -0.0009845165, -0.000881050539, -0.455575019, 0.492382377 , -0.09808548 , 0.8574503   , 1.56937277  , -0.9101021  , 3.57        , 3           , 14          , 0.000384308572, 0.0007250897
9.805971    , -0.00343219121, 0.014845944 , -0.0005927579, -0.000141730838, -0.0007397969, -0.455575019, 0.492382377 , -0.09808548 , 0.8574503   , 1.56937277  , -0.910096169, 3.58        , 3           , 15          , 0           , 1.54722838E-05
9.772103    , 0.00105708814, 0.005565906 , 0.0022265052, 0.001003632 , 0.0002639894, -0.455575019, 0.4925172   , -0.09815289 , 0.8574503   , 1.56937277  , -0.9101186  , 3.59        , 3           , 50          , 0           , 0
9.790021    , 0.0131109795, -0.0182022564, 0.0034880382, 0.00213849847, -1.08868135E-05, -0.453889728, 0.492314965 , -0.09781583 , 0.8574503   , 1.56937277  , -0.910132647, 3.6         , 3           , 11          , 0.05871332  , 0.0587132834
9.802708    , 0.0152012659, -0.0131247528, -0.000738442934, 0.000138894073, 0.000248859 , -0.4555076  , 0.492314965 , -0.09788324 , 0.8574503   , 1.56937277  , -0.910125   , 3.61        , 3           , 12          , 0.05869739  , 0
9.796582    , -0.0036704205, -0.0155097488, -0.00271272426, -0.0004376064, 9.75038347E-05, -0.4555076  , 0.492314965 , -0.09788324 , 0.8574503   , 1.56937277  , -0.9100981  , 3.62        , 3           , 14          , 0.0003879573, 0.00072507764
9.793654    , -0.01987847 , -0.0160513148, 0.000245461066, 0.0009902723, -0.0004515735, -0.455709845, 0.4924498   , -0.09815289 , 0.8574503   , 1.56937277  , -0.91010046 , 3.63        , 3           , 15          , 0           , 1.54730933E-05
9.797731    , -0.0154601485, -0.002442304, 0.002220113 , 0.00142598851, -0.000865510257, -0.453889728, 0.492247552 , -0.09788324 , 0.8574503   , 1.56937277  , -0.910122633, 3.64        , 3           , 50          , 0           , 0
9.792605    , 0.00627704058, -0.007815197, 0.0009594845, -0.0006943452, -0.00115722849, -0.4555076  , 0.4925172   , -0.09795065 , 0.8574503   , 1.56937277  , -0.91013217 , 3.65        , 3           , 11          , 0.05871332  , 0.0587132834
9.785965    , 0.016745355 , -0.0114384461, 0.0005387952, -0.00126033963, -0.00087753433, -0.4555076  , 0.4925172   , -0.09795065 , 0.8574503   , 1.56937277  , -0.9101374  , 3.66        , 3           , 12          , 0.05869739  , 0
9.79155     , -0.004546004, -0.006060198, -0.000731962442, -0.00126893353, -0.000600922969, -0.455777258, 0.492314965 , -0.09815289 , 0.8574503   , 1.56937277  , -0.91013    , 3.67        , 3           , 14          , 0.0003879573, 0.00072507764
9.796049    , -0.0117646633, -0.0218751561, 0.0002448418, 0.00127184123, 0.0008909133, -0.454024523, 0.492112726 , -0.09795065 , 0.8574503   , 1.56937277  , -0.9101324  , 3.68        , 3           , 15          , 0           , 1.54730933E-05
9.798497    , 0.007997428 , -0.0032431744, -3.71956048E-05, 0.0011995401, 0.0009601222, -0.455575019, 0.492584616 , -0.09808548 , 0.8574503   , 1.56937277  , -0.910131931, 3.69        , 3           , 50          , 0           , 0
9.784344    , 0.00360382441, 0.0106418859, 0.000733208552, 0.00148634845, -0.00108422374, -0.455575019, 0.492584616 , -0.09808548 , 0.8574503   , 1.56937277  , -0.9101181  , 3.7         , 3           , 11          , 0.0597619563, 0.05976191
9.791589    , -0.008085666, -0.02686583 , 0.002785352 , 0.000655502139, -0.000440268283, -0.455709845, 0.492584616 , -0.09835513 , 0.8574503   , 1.56937277  , -0.91014576 , 3.71        , 3           , 12          , 0.0597449057, 0
9.800935    , -0.0159167536, -0.011911368, 0.003138282 , 0.000728281855, -1.4707387E-05, -0.4538223  , 0.492314965 , -0.09795065 , 0.8574503   , 1.56937277  , -0.910177   , 3.72        , 3           , 14          , 0.00039165013, 0.000725081249
9.817272    , -0.008489952, 0.00361180282, 0.00159389165, -0.00104200351, 0.000399143435, -0.455372781, 0.492247552 , -0.09795065 , 0.8574503   , 1.56937277  , -0.910192966, 3.73        , 3           , 15          , 0           , 1.54778281E-05
9.797426    , -0.009533926, -0.0191434752, -0.00122715847, -0.00169462443, 0.0005262664, -0.455372781, 0.492247552 , -0.09795065 , 0.8574503   , 1.56937277  , -0.9101808  , 3.74        , 3           , 50          , 0           , 0
9.796274    , -0.0226671416, -0.00112739019, -0.002009983, -0.00043283336, 0.0007365007, -0.455642432, 0.492719442 , -0.09815289 , 0.8574503   , 1.56937277  , -0.9101608  , 3.75        , 3           , 11          , 0.0597619563, 0.05976191
9.773486    , -0.00206402177, -0.0102558937, -0.00264090882, -0.00149300322, -0.000468873826, -0.4539571  , 0.492180139 , -0.09781583 , 0.8574503   , 1.56937277  , -0.9101343  , 3.76        , 3           , 12          , 0.0597449057, 0
9.78995     , 0.0108219609, -0.008268645, 0.000960504 , -0.00153904164, -0.000240288253, -0.4555076  , 0.492247552 , -0.09808548 , 0.8574503   , 1.56937277  , -0.910143852, 3.77        , 3           , 14          , 0.00039165013, 0.000725081249
9.790026    , -0.0153773436, -0.00024096854, 0.00158690312, 0.0002954288, -0.00023450455, -0.4555076  , 0.492247552 , -0.09808548 , 0.8574503   , 1.56937277  , -0.9101598  , 3.78        , 3           , 15          , 0           , 1.54778281E-05
9.795458    , 0.0179599728, -0.00322511769, -0.0009588126, 0.00105254282, -0.000315797981, -0.455575019, 0.492584616 , -0.09815289 , 0.8574503   , 1.56937277  , -0.9101503  , 3.79        , 3           , 50          , 0           , 0
9.7986145   , 0.0156806055, -0.007278279, -5.30646757E-05, 0.00260735652, -0.0009448427, -0.453889728, 0.4924498   , -0.09788324 , 0.8574503   , 1.56937277  , -0.910125732, 3.8         , 3           , 11          , 0.06081718  , 0.0608171336
9.781049    , -0.0116361165, -0.00797783 , -0.0009599222, 0.0003486279, -0.00116449734, -0.455305368, 0.4925172   , -0.09788324 , 0.8574503   , 1.56937277  , -0.9101162  , 3.81        , 3           , 12          , 0.06079895  , 0
9.803844    , 0.004292675 , 0.00627400726, 2.73852274E-05, 0.000496092951, -0.0020072835, -0.455305368, 0.4925172   , -0.09788324 , 0.8574503   , 1.56937277  , -0.9101167  , 3.82        , 3           , 14          , 0.0003957551, 0.000725081132
9.788618    , 0.0130906366, -0.007365452, -0.0028551924, -0.001916785, -0.00124749239, -0.455709845, 0.4924498   , -0.0982203  , 0.8574503   , 1.56937277  , -0.910088062, 3.83        , 3           , 15          , 0           , 1.54798272E-05
9.77983952  , -0.004804512, -0.0224222355, -0.00314365071, -0.00051086524, 0.000377950637, -0.454024523, 0.492247552 , -0.09774841 , 0.8574503   , 1.56937277  , -0.9100566  , 3.84        , 3           , 50          , 0           , 0
9.797829    , -0.005563547, 0.00618714653, -0.00011256375, 0.0004951441, 0.000181723473, -0.455575019, 0.492247552 , -0.09815289 , 0.8574503   , 1.56937277  , -0.9100554  , 3.85        , 3           , 11          , 0.06081718  , 0.0608171336
9.800237    , 0.000330788025, -0.0104933959, 0.00079809  , 0.00183878292, -0.0008714508, -0.455575019, 0.492247552 , -0.09815289 , 0.8574503   , 1.56937277  , -0.9100635  , 3.86        , 3           , 12          , 0.06079895  , 0
9.793403    , -7.08701555E-05, -0.00150764734, 0.001011649 , 0.00162904477, 0.000329995615, -0.455777258, 0.492652029 , -0.0980180651, 0.8574503   , 1.56937277  , -0.9100735  , 3.87        , 3           , 14          , 0.0003957551, 0.000725081132
9.795766    , 0.007570615 , -0.00100591592, 2.9035351E-05, 0.0005664939, 0.001453909 , -0.4536875  , 0.492112726 , -0.09795065 , 0.8574503   , 1.56937277  , -0.910074   , 3.88        , 3           , 15          , 0           , 1.54798272E-05
9.798588    , 0.0116414055, -0.0136230029, -0.002856571, -0.00142404123, 0.00058976037, -0.455709845, 0.4924498   , -0.0980180651, 0.8574503   , 1.56937277  , -0.9100454  , 3.89        , 3           , 50          , 0           , 0
9.787338    , -0.0104115065, 0.00834676251, -0.002014927, -0.00113674824, 2.9060664E-05, -0.455709845, 0.4924498   , -0.0980180651, 0.8574503   , 1.56937277  , -0.910002   , 3.9         , 3           , 11          , 0.0618784465, 0.0618784
9.786801    , -0.01940202 , 0.000169670209, -0.001040047, 0.001685589 , 0.0006030841, -0.455642432, 0.492786855 , -0.09828772 , 0.8574503   , 1.56937277  , -0.909991741, 3.91        , 3           , 12          , 0.06185897  , 0
9.775213    , -0.008848   , -0.01162676 , 0.0003826644, -0.000416598778, 0.0008183174, -0.454226762, 0.492180139 , -0.09788324 , 0.8574503   , 1.56937277  , -0.909995556, 3.92        , 3           , 14          , 0.000399671466, 0.000725081656
9.78290749  , -0.00313842227, 0.007891047 , -0.0004705591, 0.00070393  , 0.000180393137, -0.4555076  , 0.492247552 , -0.09788324 , 0.8574503   , 1.56937277  , -0.9099908  , 3.93        , 3           , 15          , 0           , 1.54894788E-05
9.773525    , -0.03275516 , -0.008122908, -0.00131757627, 0.000768594269, 0.00123606622, -0.4555076  , 0.492247552 , -0.09788324 , 0.8574503   , 1.56937277  , -0.909977436, 3.94        , 3           , 50          , 0           , 0
9.763204    , -0.0272024758, -0.0131506408, 0.0004504832, 0.000147008861, 0.0008195144, -0.455777258, 0.4924498   , -0.09815289 , 0.8574503   , 1.56937277  , -0.909981966, 3.95        , 3           , 11          , 0.0618784465, 0.0618784
9.772168    , 0.000216765111, -0.0129684238, -0.0008169453, -0.0008470705, -0.001589499, -0.453889728, 0.492247552 , -0.09788324 , 0.8574503   , 1.56937277  , -0.9099736  , 3.96        , 3           , 12          , 0.06185897  , 0
9.782089    , -0.00751985237, -0.02784009 , -0.00188312319, 0.000764771 , 3.26480877E-05, -0.4554402  , 0.492719442 , -0.09815289 , 0.8574503   , 1.56937277  , -0.9099548  , 3.97        , 3           , 14          , 0.000399671466, 0.000725081656
9.795125    , -0.009984195, -0.0114792194, -0.00287436065, 0.00118043052, -0.00110146031, -0.4554402  , 0.492719442 , -0.09815289 , 0.8574503   , 1.56937277  , -0.9099262  , 3.98        , 3           , 15          , 0           , 1.54894788E-05
9.783102    , 0.004606744 , -0.01467455 , -0.00272511318, -0.000367220578, -0.000467478967, -0.455844671, 0.4924498   , -0.09815289 , 0.8574503   , 1.56937277  , -0.909898758, 3.99        , 3           , 50          , 0           , 0
9.771974    , -0.012438152, -0.00624261238, -0.00045749807, -0.002534076, 0.0005992153, -0.453889728, 0.4925172   , -0.09795065 , 0.8574503   , 1.56937277  , -0.9098749  , 4           , 3           , 11          , 0.06294523  , 0.06294519
9.800182    , 0.00117865577, 0.005781114 , 0.0008798102, -0.00182109454, -0.000664863037, -0.455642432, 0.492247552 , -0.09808548 , 0.8574503   , 1.56937277  , -0.909883738, 4.01        , 3           , 12          , 0.06292444  , 0
9.781948    , -0.009866322, -0.0007318724, 1.74181023E-05, 0.00134078553, 0.00032494904, -0.455642432, 0.492247552 , -0.09808548 , 0.8574503   , 1.56937277  , -0.909884   , 4.02        , 3           , 14          , 0.000402886246, 0.000725090445
9.78034     , 0.00192416145, -0.0124468626, 8.956341E-05, 0.0009893057, -2.84359558E-05, -0.455912083, 0.492382377 , -0.0982203  , 0.8574503   , 1.56937277  , -0.9098847  , 4.03        , 3           , 15          , 0           , 1.548324E-05
9.80271     , 0.0192193   , -0.000452542648, 0.002140009 , 0.000369630056, -0.0005143051, -0.4538223  , 0.4924498   , -0.09781583 , 0.8574503   , 1.56937277  , -0.909906149, 4.04        , 3           , 50          , 0           , 0
9.802493    , 0.00431468152, 0.00445583276, 0.0012881757, 0.00134937954, 4.83376825E-05, -0.455575019, 0.492180139 , -0.0980180651, 0.8574503   , 1.56937277  , -0.909919   , 4.05        , 3           , 11          , 0.06294523  , 0.06294519
9.789136    , 0.0234043542, 0.00985665  , 0.00143582176, 0.000224078263, 0.00153058232, -0.455575019, 0.492180139 , -0.0980180651, 0.8574503   , 1.56937277  , -0.9099333  , 4.06        , 3           , 12          , 0.06292444  , 0
9.773626    , 0.008762099 , -0.009757958, -0.00110136683, -0.0007081974, 0.00172922271, -0.4560469  , 0.492786855 , -0.0982203  , 0.8574503   , 1.56937277  , -0.909922361, 4.07        , 3           , 14          , 0.000402886246, 0.000725090445
9.7844      , 0.000971017056, -0.0115158185, 8.92147946E-05, 0.00105969689, -2.8327464E-05, -0.453889728, 0.492180139 , -0.09808548 , 0.8574503   , 1.56937277  , -0.9099233  , 4.08        , 3           , 15          , 0           , 1.548324E-05
9.813274    , -0.00302374456, 0.0022479333, -0.000899049337, 0.0008418343, -0.00144594966, -0.455575019, 0.492382377 , -0.0982203  , 0.8574503   , 1.56937277  , -0.9099145  , 4.09        , 3           , 50          , 0           , 0
9.789793    , 0.00221380545, 0.00254207663, -0.00359381642, 0.002653865 , -0.00152628473, -0.455575019, 0.492382377 , -0.0982203  , 0.8574503   , 1.56937277  , -0.909862757, 4.1         , 3           , 11          , 0.06401708  , 0.06401703
9.793689    , -0.0136016533, -0.004273452, -0.0008995686, 0.000419489254, -0.001446611, -0.455777258, 0.492786855 , -0.09795065 , 0.8574503   , 1.56937277  , -0.909853935, 4.11        , 3           , 12          , 0.06399489  , 0
9.808825    , -0.00112215034, -0.010885736, 0.00193074672, -0.000758061942, -0.00122338277, -0.454024523, 0.4920453   , -0.09795065 , 0.8574503   , 1.56937277  , -0.909873   , 4.12        , 3           , 14          , 0.000405496656, 0.000725087768
9.81419     , -0.0106147658, -0.02444358 , 0.00228736154, -0.00124840788, 0.000755266345, -0.455642432, 0.492314965 , -0.09795065 , 0.8574503   , 1.56937277  , -0.9098959  , 4.13        , 3           , 15          , 0           , 1.549369E-05
9.816848    , -0.0160498861, -0.0276096687, 0.00177413609, 0.0024085918, -0.0007247189, -0.455642432, 0.492314965 , -0.09795065 , 0.8574503   , 1.56937277  , -0.9099138  , 4.14        , 3           , 50          , 0           , 0
9.810409    , -0.0124857053, 0.008062588 , 0.00163441664, 0.00219646539, 5.1275154E-05, -0.4560469  , 0.492247552 , -0.09815289 , 0.8574503   , 1.56937277  , -0.90993    , 4.15        , 3           , 11          , 0.06401708  , 0.06401703
9.780027    , -0.0139507828, 0.0127960257, 0.0016495653, -0.0008303589, 0.000329147821, -0.454226762, 0.4924498   , -0.09795065 , 0.8574503   , 1.56937277  , -0.909946442, 4.16        , 3           , 12          , 0.06399489  , 0
9.785748    , 0.007195581 , 0.0111194905, 0.000161311575, 0.000215481326, -0.000170579253, -0.455642432, 0.4924498   , -0.0980180651, 0.8574503   , 1.56937277  , -0.909948349, 4.17        , 3           , 14          , 0.000405496656, 0.000725087768
9.805194    , 0.00114589289, -0.00186441839, -0.000122609374, 0.000424743048, -0.0009485487, -0.455642432, 0.4924498   , -0.0980180651, 0.8574503   , 1.56937277  , -0.9099469  , 4.18        , 3           , 15          , 0           , 1.549369E-05
9.776503    , -0.014276254, -0.0120913908, -0.000476302754, 0.000703924161, 0.000321657571, -0.4560469  , 0.492719442 , -0.09828772 , 0.8574503   , 1.56937277  , -0.90994215 , 4.19        , 3           , 50          , 0           , 0
9.793348    , -0.0054710824, -0.005598303, -0.000619719, 0.000632581243, 0.0008153351, -0.454091936, 0.492314965 , -0.0980180651, 0.8574503   , 1.56937277  , -0.9099188  , 4.2         , 3           , 11          , 0.06509352  , 0.06509347
9.798874    , 0.00480532972, 0.0053341575, -0.0012640513, 0.00224727881, -0.0006684545, -0.455709845, 0.4924498   , -0.09808548 , 0.8574503   , 1.56937277  , -0.909906149, 4.21        , 3           , 12          , 0.06506986  , 0
9.777965    , -0.009744398, -0.022909034, -0.0010535809, 0.00238949084, -0.00179739983, -0.455709845, 0.4924498   , -0.09808548 , 0.8574503   , 1.56937277  , -0.9098954  , 4.22        , 3           , 14          , 0.0004083335, 0.0007250858
9.802243    , 0.0196606517, 0.00406556763, 0.000777106965, 0.00352816842, -0.0009394915, -0.4560469  , 0.4924498   , -0.09828772 , 0.8574503   , 1.56937277  , -0.9099033  , 4.23        , 3           , 15          , 0           , 1.5489728E-05
9.796692    , 0.00534504233, -0.0132116228, 0.0007177153, 0.00120477751, -0.00143784145, -0.454159349, 0.492180139 , -0.09788324 , 0.8574503   , 1.56937277  , -0.90991044 , 4.24        , 3           , 50          , 0           , 0
9.790787    , -0.00040395814, -0.0272921026, -0.00160161 , -0.0007819307, 0.0001728468, -0.455777258, 0.4925172   , -0.09808548 , 0.8574503   , 1.56937277  , -0.909894466, 4.25        , 3           , 11          , 0.06509352  , 0.06509347
9.781973    , -0.00627526455, 0.004707016 , -0.000831802434, 0.0005607547, -0.0002452765, -0.455777258, 0.4925172   , -0.09808548 , 0.8574503   , 1.56937277  , -0.9098861  , 4.26        , 3           , 12          , 0.06506986  , 0
9.810629    , -0.002041183, -0.0122316927, 0.0003048119, -0.000769038161, 0.000252370548, -0.455844671, 0.4924498   , -0.09808548 , 0.8574503   , 1.56937277  , -0.9098892  , 4.27        , 3           , 14          , 0.0004083335, 0.0007250858
9.814703    , -0.00387548981, -0.01763196 , 0.00199756771, -0.0003352295, 0.000755363668, -0.454091936, 0.4925172   , -0.0980180651, 0.8574503   , 1.56937277  , -0.909909   , 4.28        , 3           , 15          , 0           , 1.5489728E-05
9.798426    , 0.006153516 , 0.008500205 , -0.00047038612, -0.0010558553, 0.0003895837, -0.455777258, 0.492719442 , -0.09808548 , 0.8574503   , 1.56937277  , -0.9099045  , 4.29        , 3           , 50          , 0           , 0
9.790929    , -0.0109263556, 0.014699853 , -0.000611540047, -0.00119759818, 0.0004593375, -0.455777258, 0.492719442 , -0.09808548 , 0.8574503   , 1.56937277  , -0.9098942  , 4.3         , 3           , 11          , 0.0661741346, 0.06617408
9.785218    , 0.00713890651, 0.0296465456, -0.00139036763, -0.000710110355, 0.0009509159, -0.456181735, 0.492247552 , -0.09828772 , 0.8574503   , 1.56937277  , -0.909880161, 4.31        , 3           , 12          , 0.06614893  , 0
9.801718    , 0.0120190606, -0.002749892, -0.0036506427, -0.0005846084, 0.0006580599, -0.454091936, 0.492112726 , -0.09788324 , 0.8574503   , 1.56937277  , -0.9098437  , 4.32        , 3           , 14          , 0.000409011671, 0.0007250914
9.822847    , -0.0012975235, -0.007615352, -0.00215808442, -0.00247514341, 0.00136838853, -0.455709845, 0.492112726 , -0.09795065 , 0.8574503   , 1.56937277  , -0.9098222  , 4.33        , 3           , 15          , 0           , 1.5494903E-05
9.792652    , -0.0150367022, 0.0232836735, 0.000225433483, 0.0007086918, -0.00108773878, -0.455709845, 0.492112726 , -0.09795065 , 0.8574503   , 1.56937277  , -0.9098244  , 4.34        , 3           , 50          , 0           , 0
9.762913    , -0.00831986 , 0.008168653 , 0.000789078535, 0.000923684565, -0.00136731681, -0.456114322, 0.4925172   , -0.09828772 , 0.8574503   , 1.56937277  , -0.909832239, 4.35        , 3           , 11          , 0.0661741346, 0.06617408
9.78657     , -0.00805894751, -0.017412439, 0.000789653044, 0.0007829014, -0.00157943694, -0.454091936, 0.492180139 , -0.09808548 , 0.8574503   , 1.56937277  , -0.9098401  , 4.36        , 3           , 12          , 0.06614893  , 0
9.797794    , -0.0127320774, -0.008758292, 0.00121328619, 0.001067338 , 0.000824541 , -0.455844671, 0.492247552 , -0.09808548 , 0.8574503   , 1.56937277  , -0.909852266, 4.37        , 3           , 14          , 0.000409011671, 0.0007250914
9.781029    , -0.006296387, 0.014191363 , 0.0007202923, 0.000712036854, -2.591844E-05, -0.455844671, 0.492247552 , -0.09808548 , 0.8574503   , 1.56937277  , -0.9098594  , 4.38        , 3           , 15          , 0           , 1.5494903E-05
9.798445    , 0.008846811 , 0.0125793731, -0.00161120447, 0.0009778445, -0.000177617927, -0.456114322, 0.492247552 , -0.0980180651, 0.8574503   , 1.56937277  , -0.9098432  , 4.39        , 3           , 50          , 0           , 0
9.791576    , 0.00395480869, 0.015218473 , 0.000436321279, 0.000710137771, -0.0006629451, -0.454159349, 0.492719442 , -0.09788324 , 0.8574503   , 1.56937277  , -0.9098401  , 4.4         , 3           , 11          , 0.06725852  , 0.06725847
9.786115    , 0.000426030165, 0.0101902662, 0.0002979516, 0.0003572317, 0.00124298187, -0.455575019, 0.492652029 , -0.09788324 , 0.8574503   , 1.56937277  , -0.909842968, 4.41        , 3           , 12          , 0.06723169  , 0
9.795239    , 0.00573200826, 0.0107340235, 0.00162449712, 0.00325234327, 5.29009776E-05, -0.455575019, 0.492652029 , -0.09788324 , 0.8574503   , 1.56937277  , -0.9098592  , 4.42        , 3           , 14          , 0.000410188863, 0.000725078862
9.78531     , 0.00364157977, -0.003814062, 0.00155146956, 0.00381499785, 0.000689148845, -0.4559795  , 0.492314965 , -0.09808548 , 0.8574503   , 1.56937277  , -0.9098747  , 4.43        , 3           , 15          , 0           , 1.5495285E-05
9.782598    , -0.002124965, -0.0237459857, 0.000291088974, 0.00155387877, -0.000379764329, -0.4543616  , 0.492247552 , -0.0980180651, 0.8574503   , 1.56937277  , -0.909877539, 4.44        , 3           , 50          , 0           , 0
9.79565     , -0.0005576727, 0.00121942163, -0.000475500477, -0.0004223277, 0.000178651419, -0.455575019, 0.492247552 , -0.09808548 , 0.8574503   , 1.56937277  , -0.9098728  , 4.45        , 3           , 11          , 0.06725852  , 0.06725847
9.782034    , -0.002655459, 0.00155859825, 0.0006527536, -0.000203515927, -0.00052209897, -0.455575019, 0.492247552 , -0.09808548 , 0.8574503   , 1.56937277  , -0.909879446, 4.46        , 3           , 12          , 0.06723169  , 0
9.791824    , 0.02022498  , 0.00670013763, -0.00167070923, -0.00148631481, -4.04758866E-05, -0.456114322, 0.492652029 , -0.0980180651, 0.8574503   , 1.56937277  , -0.909862757, 4.47        , 3           , 14          , 0.000410188863, 0.000725078862
9.790032    , 0.0180297978, -0.00507424958, -0.00174676615, -0.0005013172, -0.00102816743, -0.454091936, 0.492247552 , -0.09795065 , 0.8574503   , 1.56937277  , -0.9098451  , 4.48        , 3           , 15          , 0           , 1.5495285E-05
9.791288    , 0.011682611 , -0.0005711131, -0.0006061515, -0.00274619879, -0.00145017728, -0.455642432, 0.4925172   , -0.09795065 , 0.8574503   , 1.56937277  , -0.9098389  , 4.49        , 3           , 50          , 0           , 0
9.795485    , -0.0105102072, 0.009312617 , 0.0005125521, -6.368486E-05, -0.00101699913, -0.455642432, 0.4925172   , -0.09795065 , 0.8574503   , 1.56937277  , -0.9098568  , 4.5         , 3           , 11          , 0.06834632  , 0.06834628
9.793451    , 0.003093223 , -0.003302088, 0.0003653735, 0.00113201165, -0.00108644774, -0.4560469  , 0.492314965 , -0.0980180651, 0.8574503   , 1.56937277  , -0.9098606  , 4.51        , 3           , 12          , 0.06831778  , 0
9.786629    , 0.004487108 , 0.008403098 , 0.00235184166, -0.000332824857, 0.002664114 , -0.4539571  , 0.4924498   , -0.09781583 , 0.8574503   , 1.56937277  , -0.9098842  , 4.52        , 3           , 14          , 0.0004081942, 0.0007250739
9.800719    , 0.009275923 , 0.0112425946, -0.000748165534, -0.0019024472, 0.0009520167, -0.455642432, 0.492652029 , -0.0980180651, 0.8574503   , 1.56937277  , -0.9098766  , 4.53        , 3           , 15          , 0           , 1.55133039E-05
9.801813    , -0.0110403141, 0.0107147507, -0.00202922639, -0.000151267057, -0.00152340042, -0.455642432, 0.492652029 , -0.0980180651, 0.8574503   , 1.56937277  , -0.9098563  , 4.54        , 3           , 50          , 0           , 0
9.808781    , -0.00740652252, -0.0204037819, -0.00182130979, 0.0009764336, 0.00137533213, -0.456114322, 0.4925172   , -0.09828772 , 0.8574503   , 1.56937277  , -0.9098382  , 4.55        , 3           , 11          , 0.06834632  , 0.06834628
9.811088    , 0.000189608661, -0.006343163, -0.00111134991, 0.0002772978, 0.00208388316, -0.454159349, 0.492247552 , -0.09795065 , 0.8574503   , 1.56937277  , -0.909827   , 4.56        , 3           , 12          , 0.06831778  , 0
9.786007    , -0.0117127253, -0.00251642615, -0.0019527023, -0.00106586947, 0.0008770868, -0.4555076  , 0.492180139 , -0.09828772 , 0.8574503   , 1.56937277  , -0.909807444, 4.57        , 3           , 14          , 0.0004081942, 0.0007250739
9.788329    , -0.0018729294, 0.0151694855, -0.00102989527, -0.00204514 , 0.000950482441, -0.4555076  , 0.492180139 , -0.09828772 , 0.8574503   , 1.56937277  , -0.9097972  , 4.58        , 3           , 15          , 0           , 1.55133039E-05
9.761738    , -0.002352773, -0.0175786633, -0.000396689138, -0.00161849533, 0.000671559 , -0.4560469  , 0.492247552 , -0.09808548 , 0.8574503   , 1.56937277  , -0.909793139, 4.59        , 3           , 50          , 0           , 0
9.777854    , -0.00849528052, 0.008282183 , -0.00244879024, -0.0007876492, -0.00117318484, -0.454024523, 0.492314965 , -0.09795065 , 0.8574503   , 1.56937277  , -0.90977335 , 4.6         , 3           , 11          , 0.06943719  , 0.06943714
9.793058    , 0.0107348692, 0.00667022262, -0.00167078548, -0.0009935693, -0.0006754479, -0.455777258, 0.492180139 , -0.0980180651, 0.8574503   , 1.56937277  , -0.90975666 , 4.61        , 3           , 12          , 0.0694068447, 0
9.786281    , 0.00725527061, -0.008311484, -0.000548786134, 0.0005626784, -0.000738428, -0.455777258, 0.492180139 , -0.0980180651, 0.8574503   , 1.56937277  , -0.9097512  , 4.62        , 3           , 14          , 0.0004074585, 0.0007250706
9.793495    , 0.008930987 , 0.004858155 , 0.00135835132, 0.0005051813, -2.33035862E-05, -0.4560469  , 0.4924498   , -0.09808548 , 0.8574503   , 1.56937277  , -0.909764767, 4.63        , 3           , 15          , 0           , 1.55175458E-05
9.79629     , 0.008070865 , -0.0172712412, -0.0006068504, -0.001831099, 0.000458338443, -0.4538223  , 0.492382377 , -0.09808548 , 0.8574503   , 1.56937277  , -0.9097588  , 4.64        , 3           , 50          , 0           , 0
9.800354    , 0.00756733352, -0.0158862974, 0.0006494555, 0.00106353662, -9.636229E-05, -0.455912083, 0.492247552 , -0.0980180651, 0.8574503   , 1.56937277  , -0.909765244, 4.65        , 3           , 11          , 0.06943719  , 0.06943714
9.786928    , -0.013496208, -0.012008436, -0.000346742541, 0.00246467348, -0.00137022068, -0.455912083, 0.492247552 , -0.0980180651, 0.8574503   , 1.56937277  , -0.909761667, 4.66        , 3           , 12          , 0.0694068447, 0
9.791856    , -0.0100271162, 0.0124507481, -0.000478676084, 0.000844725233, 0.000816291256, -0.456114322, 0.492247552 , -0.09808548 , 0.8574503   , 1.56937277  , -0.9097569  , 4.67        , 3           , 14          , 0.0004074585, 0.0007250706
9.827132    , 0.0171246268, 0.000629493967, -0.00119289965, 0.00238855626, -3.222674E-05, -0.4539571  , 0.492180139 , -0.09795065 , 0.8574503   , 1.56937277  , -0.909745   , 4.68        , 3           , 15          , 0           , 1.55175458E-05
9.801755    , 0.0165124312, 0.002692826 , -0.00188709551, -7.991498E-05, -0.0006043909, -0.455575019, 0.4925172   , -0.0982203  , 0.8574503   , 1.56937277  , -0.909726143, 4.69        , 3           , 50          , 0           , 0
9.787241    , -0.0198645238, 0.00197904743, -0.0005324618, -0.00239375 , 0.0002458815, -0.455575019, 0.4925172   , -0.0982203  , 0.8574503   , 1.56937277  , -0.90972805 , 4.7         , 3           , 11          , 0.0705307946, 0.07053074
9.791906    , -0.0126644932, -0.008351048, -0.00173998694, -0.001134829, -0.00138235325, -0.4559795  , 0.492584616 , -0.09808548 , 0.8574503   , 1.56937277  , -0.909710646, 4.71        , 3           , 12          , 0.0704985559, 0
9.787155    , 0.00855878647, 0.00345218554, -0.00168053235, 0.001118169 , -0.00137855229, -0.454159349, 0.492247552 , -0.09788324 , 0.8574503   , 1.56937277  , -0.9096937  , 4.72        , 3           , 14          , 0.000406342326, 0.000725068559
9.797955    , -0.003675791, -0.0186631661, 0.000222315663, 0.0021165458, 0.0009627898, -0.455305368, 0.492652029 , -0.09815289 , 0.8574503   , 1.56937277  , -0.909695864, 4.73        , 3           , 15          , 0           , 1.55328362E-05
9.787439    , -0.0103298733, -0.01605925 , 0.00058127736, 0.0007814954, -0.00023840947, -0.455305368, 0.492652029 , -0.09815289 , 0.8574503   , 1.56937277  , -0.9097018  , 4.74        , 3           , 50          , 0           , 0
9.800891    , -0.0137199592, 0.00572477654, 0.00135467364, 0.0013498757, -0.00108153245, -0.456316561, 0.492180139 , -0.0980180651, 0.8574503   , 1.56937277  , -0.9097152  , 4.75        , 3           , 11          , 0.0705307946, 0.07053074
9.807444    , -0.00514085451, -0.0185966771, -0.000263689522, 0.0004238119, 0.0007459784, -0.4539571  , 0.492314965 , -0.09788324 , 0.8574503   , 1.56937277  , -0.909712553, 4.76        , 3           , 12          , 0.0704985559, 0
9.790691    , -0.00181938941, -0.008767359, -0.002164843, -0.000644949439, 0.00073546177, -0.455575019, 0.492314965 , -0.0980180651, 0.8574503   , 1.56937277  , -0.9096911  , 4.77        , 3           , 14          , 0.000406342326, 0.000725068559
9.788797    , -0.009454099, -0.0128813554, -0.000468435843, -0.00105583842, 0.000318906183, -0.455575019, 0.492314965 , -0.0980180651, 0.8574503   , 1.56937277  , -0.9096863  , 4.78        , 3           , 15          , 0           , 1.55328362E-05
9.772511    , -0.00969725 , -0.0179787148, 0.000658197852, -0.000485069642, -0.0001693986, -0.456114322, 0.492314965 , -0.0980180651, 0.8574503   , 1.56937277  , -0.909693   , 4.79        , 3           , 50          , 0           , 0
9.771744    , 0.00426279  , -0.007079094, -4.913584E-05, -0.000278688472, -0.00179695187, -0.454159349, 0.492180139 , -0.09795065 , 0.8574503   , 1.56937277  , -0.909697056, 4.8         , 3           , 11          , 0.07162682  , 0.07162677
9.787174    , 0.0009859815, -0.02550603 , -0.0005475498, 0.0007738432, 3.886421E-05, -0.455575019, 0.4925172   , -0.09795065 , 0.8574503   , 1.56937277  , -0.9096916  , 4.81        , 3           , 12          , 0.0715926   , 0
9.795465    , -0.0216846727, -0.0219207387, 0.0004438322, 0.000287791278, 0.0008196921, -0.455575019, 0.4925172   , -0.09795065 , 0.8574503   , 1.56937277  , -0.9096961  , 4.82        , 3           , 14          , 0.000405625382, 0.0007250818
9.784679    , -0.00408465136, 0.0146804247, 0.0007909412, 0.00148683053, 0.0008231825, -0.456181735, 0.4924498   , -0.0980180651, 0.8574503   , 1.56937277  , -0.90970397 , 4.83        , 3           , 15          , 0           , 1.55287889E-05
9.780686    , 0.006742418 , 0.02915826  , -0.00117052719, -0.00169414724, 0.000526544638, -0.453889728, 0.492314965 , -0.09795065 , 0.8574503   , 1.56937277  , -0.9096923  , 4.84        , 3           , 50          , 0           , 0
9.77566     , 6.841734E-05, 0.0186965242, 0.000507142569, 0.00169609289, 0.000257116015, -0.455575019, 0.4919779   , -0.09808548 , 0.8574503   , 1.56937277  , -0.909697533, 4.85        , 3           , 11          , 0.07162682  , 0.07162677
9.805179    , 0.000687189749, 0.0003934782, 0.0005072314, 0.00141452148, -0.00200361758, -0.455575019, 0.4919779   , -0.09808548 , 0.8574503   , 1.56937277  , -0.9097028  , 4.86        , 3           , 12          , 0.0715926   , 0
9.781714    , -0.00343453139, -0.0337018073, 0.000229965532, 0.000567920855, -0.0003110114, -0.456114322, 0.492180139 , -0.09815289 , 0.8574503   , 1.56937277  , -0.9097049  , 4.87        , 3           , 14          , 0.000405625382, 0.0007250818
9.777683    , 0.007360814 , -0.009732742, 0.0005359272, -0.004216776, -0.0005996088, -0.454091936, 0.492382377 , -0.09795065 , 0.8574503   , 1.56937277  , -0.9097104  , 4.88        , 3           , 15          , 0           , 1.55287889E-05
9.801854    , -0.007435636, 0.012085964 , -0.00201952783, -0.00141831371, -4.20469E-05, -0.4555076  , 0.492112726 , -0.09815289 , 0.8574503   , 1.56937277  , -0.909690142, 4.89        , 3           , 50          , 0           , 0
9.808112    , -0.021859223, -0.0141410418, 0.0007979617, 8.614792E-06, 0.00110344007, -0.4555076  , 0.492112726 , -0.09815289 , 0.8574503   , 1.56937277  , -0.9096949  , 4.9         , 3           , 11          , 0.072725    , 0.0727249458
9.781895    , 0.0163511243, -0.0141831059, 0.0033384976, 2.579822E-05, -0.00114500709, -0.4559795  , 0.492382377 , -0.09815289 , 0.8574503   , 1.56937277  , -0.9097283  , 4.91        , 3           , 12          , 0.0726887   , 0
9.789049    , 0.012620558 , -0.00329626538, -0.00145513541, -0.00141449342, -3.94147719E-05, -0.454024523, 0.492382377 , -0.0980180651, 0.8574503   , 1.56937277  , -0.909714   , 4.92        , 3           , 14          , 0.0004060866, 0.0007250814
9.800202    , 0.000748666935, -0.0005482845, -0.003422039, -0.003398817, 0.0005134039, -0.455709845, 0.492180139 , -0.09795065 , 0.8574503   , 1.56937277  , -0.909679651, 4.93        , 3           , 15          , 0           , 1.553053E-05
9.816111    , 0.00195086212, -0.0108172875, 0.00191725872, 0.00198720745, -1.84043529E-05, -0.455709845, 0.492180139 , -0.09795065 , 0.8574503   , 1.56937277  , -0.909698963, 4.94        , 3           , 50          , 0           , 0
9.822027    , 0.00503073446, -0.008047372, 0.0005178334, -0.000556427636, 0.0002536428, -0.456114322, 0.4924498   , -0.09815289 , 0.8574503   , 1.56937277  , -0.90970397 , 4.95        , 3           , 11          , 0.072725    , 0.0727249458
9.793516    , 0.004484489 , -0.0145954248, -0.000890356139, -0.00169224548, -0.00258005224, -0.453889728, 0.492854267 , -0.09808548 , 0.8574503   , 1.56937277  , -0.9096949  , 4.96        , 3           , 12          , 0.0726887   , 0
9.798661    , -0.0136661744, -0.00242775865, -0.002854071, -0.0039581256, 0.0010802449, -0.455237955, 0.492584616 , -0.09795065 , 0.8574503   , 1.56937277  , -0.909666538, 4.97        , 3           , 14          , 0.0004060866, 0.0007250814
9.803218    , -0.007893669, 0.00938259251, -0.0006081813, -0.00140876509, -0.0006005389, -0.455237955, 0.492584616 , -0.09795065 , 0.8574503   , 1.56937277  , -0.909660339, 4.98        , 3           , 15          , 0           , 1.553053E-05
9.791979    , -0.00100108015, 0.0115851387, -0.001451606, -0.00225919182, -0.00117086654, -0.456114322, 0.4924498   , -0.0980180651, 0.8574503   , 1.56937277  , -0.909645557, 4.99        , 3           , 50          , 0           , 0
9.800297    , 0.0124302246, 0.0139643429, -0.002607103, 0.00195665727, 0.0005255989, -0.454091936, 0.492652029 , -0.09781583 , 0.8574503   , 1.56937277  , -0.90958    , 5           , 3           , 11          , 0.0738250539, 0.073825
