Acc X       , Acc Y       , Acc Z       , Gyro X      , Gyro Y      , Gyro Z      , Magn X      , Magn Y      , Magn Z      , Euler X     , Euler Y     , Euler Z     , Time        , Status      , LowRate X   , LowRate Y   , LowRate Z    
-9.819526   , -0.07757297 , -0.0121381953, -0.00134662015, -7.26384751E-05, 0.00132825423, 0.3254011   , -0.387016326, -0.200417966, 1.4777267   , -1.56442058 , 2.7585938   , 0           , 3           , 11          , 0.0346410163, 0.0346410163
-9.830506   , -0.08200075 , 0.000867011 , 0.0009034516, 0.00163202721, -0.000353831419, 0.3243899   , -0.3873534  , -0.200417966, 1.4777267   , -1.56441116 , 2.75860333  , 0.01        , 3           , 12          , 0.0346410163, 0
-9.805988   , -0.07375221 , 0.0119363014, 0.00146707438, 0.001917413 , -6.822612E-05, 0.3243899   , -0.3873534  , -0.200417966, 1.4777267   , -1.56441116 , 2.75861764  , 0.02        , 3           , 14          , 0.000292811 , 0.0005094907
-9.812565   , -0.0601076931, 0.00290290825, 0.00205455837, -0.00258380664, 0.0004925395, 0.3259404   , -0.3874208  , -0.20028314 , 1.4777267   , -1.56442988 , 2.75863862  , 0.03        , 3           , 15          , 0           , 6.22845E-05
-9.823444   , -0.06222227 , -0.00125691108, -0.00247386564, -0.0006434101, 0.0007570437, 0.325064033 , -0.387218565, -0.2000809  , 1.4777267   , -1.5644393  , 2.75861382  , 0.04        , 3           , 50          , 0           , 0
-9.817068   , -0.06494463 , -0.0188468061, -0.002201197, 0.00132945541, 0.0007613981, 0.3243899   , -0.387555629, -0.2000809  , 1.4777267   , -1.56442058 , 2.758592    , 0.05        , 3           , 11          , 0.0346410163, 0.0346410163
-9.810159   , -0.0533246733, -0.009706134, 0.00344111072, 0.00249391212, -0.000340677216, 0.3243899   , -0.387555629, -0.2000809  , 1.4777267   , -1.56442988 , 2.75862622  , 0.06        , 3           , 12          , 0.0346410163, 0
-9.794324   , -0.0486100353, 0.008965837 , 0.000911978655, -5.73626348E-05, -7.389753E-05, 0.326075226 , -0.387690455, -0.200350553, 1.4777267   , -1.5644393  , 2.75863528  , 0.07        , 3           , 14          , 0.000292811 , 0.0005094907
-9.79545    , -0.0635085553, 0.0152232349, -0.00137039251, 0.004432396 , -0.00120764 , 0.325266272 , -0.387083739, -0.200148314, 1.4777267   , -1.56439257 , 2.758622    , 0.08        , 3           , 15          , 0           , 6.22845E-05
-9.788698   , -0.0636200458, 0.0247660559, 0.000336462545, 0.00219134055, 0.000774552347, 0.324255079 , -0.387690455, -0.200350553, 1.4777267   , -1.56442058 , 2.75862527  , 0.09        , 3           , 50          , 0           , 0
-9.801194   , -0.05618173 , 0.00345811062, 0.00034358757, 0.000783515163, 0.00105492  , 0.324255079 , -0.387690455, -0.200350553, 1.4777267   , -1.5644393  , 2.75862813  , 0.1         , 3           , 11          , 0.0346410163, 0.0346410163
-9.815042   , -0.0478312261, -0.0160484668, -0.000514845, 0.00303030573, 0.00105444074, 0.326277465 , -0.3874208  , -0.200148314, 1.4777267   , -1.56442988 , 2.75862336  , 0.11        , 3           , 12          , 0.0346410163, 0
-9.82594    , -0.0450496525, -0.000300837681, -0.001369333, 0.004150829 , -0.00177314912, 0.325131446 , -0.387218565, -0.199946076, 1.4777267   , -1.56442058 , 2.75860953  , 0.12        , 3           , 14          , 0.000292819139, 0.0005094913
-9.813813   , -0.05643264 , -0.0120068789, -0.00163716706, 0.0013332708, -0.0006486553, 0.324255079 , -0.387555629, -0.200148314, 1.4777267   , -1.56441116 , 2.75859332  , 0.13        , 3           , 15          , 0           , 6.22845037E-05
-9.820387   , -0.0432317331, -0.0233020112, 0.0009227962, -0.00230988534, -0.000642444, 0.324255079 , -0.387555629, -0.200148314, 1.4777267   , -1.56440187 , 2.75860238  , 0.14        , 3           , 50          , 0           , 0
-9.800245   , -0.0512478426, 0.008909622 , 5.68155374E-05, 0.00162629993, 0.0007723676, 0.326075226 , -0.387488216, -0.200485379, 1.4777267   , -1.56442058 , 2.75860333  , 0.15        , 3           , 11          , 0.0346410163, 0.0346410163
-9.824605   , -0.0392822772, 0.0241404027, -0.001623479, -0.00120080938, 0.00132520148, 0.325131446 , -0.3874208  , -0.200148314, 1.4777267   , -1.56442988 , 2.75858712  , 0.16        , 3           , 12          , 0.0346410163, 0
-9.808436   , -0.0592199638, -0.007005496, -0.0013449823, -0.0006357747, -0.000650375849, 0.3243899   , -0.387623042, -0.200417966, 1.4777267   , -1.56441116 , 2.75857329  , 0.17        , 3           , 14          , 0.000292819139, 0.0005094913
-9.81749249 , -0.05866704 , -0.005716495, -0.00276441267, 0.0007624993, -0.00121986587, 0.3243899   , -0.387623042, -0.200417966, 1.4777267   , -1.56440187 , 2.75854564  , 0.18        , 3           , 15          , 0           , 6.22845037E-05
-9.807618   , -0.062424954, 0.00383509882, -0.00162273762, -0.00148237753, 0.000194617634, 0.326277465 , -0.3874208  , -0.200417966, 1.4777267   , -1.56439257 , 2.75852942  , 0.19        , 3           , 50          , 0           , 0
-9.78795052 , -0.047318913, 0.00540404953, 5.3501517E-05, 0.00218942668, -7.437622E-05, 0.325064033 , -0.387488216, -0.200215727, 1.4777267   , -1.56441116 , 2.758529    , 0.2         , 3           , 11          , 0.0346694328, 0.0346694328
-9.808235   , -0.0447740555, -0.00965597853, 0.002612813 , -0.001453733, -0.00119831483, 0.32452473  , -0.387690455, -0.20028314 , 1.4777267   , -1.56438327 , 2.7585547   , 0.21        , 3           , 12          , 0.0346692465, 0
-9.822893   , -0.0563459843, -0.00620016 , 0.000637218647, -0.00174866791, -0.00120796729, 0.32452473  , -0.387690455, -0.20028314 , 1.4777267   , -1.56436467 , 2.75856137  , 0.22        , 3           , 14          , 0.000292855664, 0.0005094923
-9.81300449 , -0.0596451759, 0.001093531 , 0.00147244264, 0.0007911502, -0.000352498726, 0.326142639 , -0.387555629, -0.200417966, 1.4777267   , -1.56439257 , 2.75857615  , 0.23        , 3           , 15          , 0           , 6.22838561E-05
-9.803573   , -0.06651499 , -0.00157474913, -0.00191233412, -7.646391E-05, -8.706623E-05, 0.325064033 , -0.387151152, -0.200148314, 1.4777267   , -1.56435549 , 2.758557    , 0.24        , 3           , 50          , 0           , 0
-9.826256   , -0.07699673 , -0.02574678 , 0.00174420665, 0.00304558314, 0.000499901944, 0.3243225   , -0.387488216, -0.200215727, 1.4777267   , -1.56436467 , 2.75857472  , 0.25        , 3           , 11          , 0.0346694328, 0.0346694328
-9.82183552 , -0.07892251 , -0.005381696, 0.00174789934, 0.00220088568, -0.000349012116, 0.3243225   , -0.387488216, -0.200215727, 1.4777267   , -1.56438327 , 2.758592    , 0.26        , 3           , 12          , 0.0346692465, 0
-9.803091   , -0.06738936 , -0.01151833 , 0.000335439 , 0.00219133426, -0.000920671853, 0.326142639 , -0.387555629, -0.200485379, 1.4777267   , -1.564374   , 2.75859571  , 0.27        , 3           , 14          , 0.000292855664, 0.0005094923
-9.810941   , -0.07143949 , 0.0123600028, -0.00163761852, 0.00161483965, 0.001047004 , 0.325064033 , -0.387083739, -0.20028314 , 1.4777267   , -1.56435549 , 2.758579    , 0.28        , 3           , 15          , 0           , 6.22838561E-05
-9.822208   , -0.07037255 , 0.002786601 , 0.00232693087, -0.000329372415, 0.00247509126, 0.324187666 , -0.3873534  , -0.200417966, 1.4777267   , -1.56441116 , 2.75860238  , 0.29        , 3           , 50          , 0           , 0
-9.80400848 , -0.06337128 , 0.00431074761, 0.0017597914, -5.16324944E-05, 0.00106020307, 0.324187666 , -0.3873534  , -0.200417966, 1.4777267   , -1.56441116 , 2.75861859  , 0.3         , 3           , 11          , 0.0347551219, 0.0347551219
-9.826402   , -0.08068606 , -0.0018080509, -0.0007817981, -0.0003503928, -0.0009298455, 0.326075226 , -0.387285978, -0.200417966, 1.4777267   , -1.56440187 , 2.758611    , 0.31        , 3           , 12          , 0.03475475  , 0
-9.821323   , -0.0766479  , -0.01260009 , -0.00331437076, -0.00233854051, -0.001792348, 0.3254011   , -0.3873534  , -0.2000809  , 1.4777267   , -1.564374   , 2.75857759  , 0.32        , 3           , 14          , 0.0002929315, 0.000509493635
-9.831048   , -0.05848489 , -0.0125991544, -0.000501921866, 0.0004962202, 0.0018981481, 0.324592143 , -0.387488216, -0.199946076, 1.4777267   , -1.56439257 , 2.75857234  , 0.33        , 3           , 15          , 0           , 6.228438E-05
-9.809985   , -0.04113149 , -0.0132701145, 0.002613879 , -0.00145372888, 0.0007794468, 0.324592143 , -0.387488216, -0.199946076, 1.4777267   , -1.56441116 , 2.75859857  , 0.34        , 3           , 50          , 0           , 0
-9.802089   , -0.0548236966, 0.00526483543, -0.00163351255, 0.000770143059, 0.00104570168, 0.326142639 , -0.387488216, -0.20028314 , 1.4777267   , -1.56441116 , 2.75858235  , 0.35        , 3           , 11          , 0.0347551219, 0.0347551219
-9.812812   , -0.0469917729, -0.00518032 , 0.000916944759, -0.0011836281, -0.0009232456, 0.325198859 , -0.3873534  , -0.200013489, 1.4777267   , -1.56440187 , 2.758591    , 0.36        , 3           , 12          , 0.03475475  , 0
-9.797867   , -0.0462724455, -0.00280315429, 0.0017464296, 0.00248244964, -0.0003485787, 0.3243225   , -0.3874208  , -0.200148314, 1.4777267   , -1.56439257 , 2.758609    , 0.37        , 3           , 14          , 0.0002929315, 0.000509493635
-9.798087   , -0.06296504 , -0.002874026, 0.0008961978, 0.00303984853, -0.0006341991, 0.3243225   , -0.3874208  , -0.200148314, 1.4777267   , -1.56439257 , 2.75861764  , 0.38        , 3           , 15          , 0           , 6.228438E-05
-9.812806   , -0.0420775  , 0.00930357352, 0.00512858061, 0.00391319441, -0.0003306058, 0.326142639 , -0.3873534  , -0.2006202  , 1.4777267   , -1.56438327 , 2.75866914  , 0.39        , 3           , 50          , 0           , 0
-9.810614   , -0.0524276346, -0.00654199533, 0.00344662182, 0.00136764767, -5.987418E-05, 0.325333685 , -0.387151152, -0.200350553, 1.4777267   , -1.56438327 , 2.758702    , 0.4         , 3           , 11          , 0.03489724  , 0.0348972343
-9.80838    , -0.0564964339, -0.0119655961, -0.00077133195, -0.00232134643, 0.000479805341, 0.32452473  , -0.387016326, -0.200417966, 1.4777267   , -1.56441116 , 2.75869441  , 0.41        , 3           , 12          , 0.0348966755, 0
-9.823437   , -0.06444779 , -0.0103057567, 0.00232126  , 0.0005153132, 0.00021609354, 0.32452473  , -0.387016326, -0.200417966, 1.4777267   , -1.56441116 , 2.75871778  , 0.42        , 3           , 14          , 0.0002930391, 0.0005094957
-9.832027   , -0.0603196733, -0.000410689041, 0.0009119137, -5.7366793E-05, 0.000208641 , 0.326277465 , -0.387488216, -0.200552791, 1.4777267   , -1.56439257 , 2.75872636  , 0.43        , 3           , 15          , 0           , 6.228322E-05
-9.818817   , -0.04835777 , 0.01917522  , -0.0007809269, -0.000350390153, 0.00076538045, 0.325131446 , -0.387218565, -0.20028314 , 1.4777267   , -1.56439257 , 2.75871873  , 0.44        , 3           , 50          , 0           , 0
-9.833376   , -0.05493981 , 0.0145167643, 0.000638177269, -0.0017486657, 0.000769795442, 0.324659556 , -0.387285978, -0.200350553, 1.4777267   , -1.56442988 , 2.7587254   , 0.45        , 3           , 11          , 0.03489724  , 0.0348972343
-9.797128   , -0.0566837564, 0.004391087 , 0.00120303081, -0.00174484577, 0.000772429339, 0.324659556 , -0.387285978, -0.200350553, 1.4777267   , -1.56441116 , 2.75873685  , 0.46        , 3           , 12          , 0.0348966755, 0
-9.810214   , -0.0618496761, -0.023753386, -0.00020696783, -0.002317529, -0.000365172949, 0.326142639 , -0.3873534  , -0.200350553, 1.4777267   , -1.56442988 , 2.758735    , 0.47        , 3           , 14          , 0.0002930391, 0.0005094957
-9.814065   , -0.0446580835, -0.0237115528, 0.0009241335, -0.002591454, -0.000360339152, 0.325064033 , -0.387218565, -0.200215727, 1.4777267   , -1.56441116 , 2.75874448  , 0.48        , 3           , 15          , 0           , 6.228322E-05
-9.820126   , -0.0527656525, -0.007068126, 0.00289472984, -0.00145182782, -0.00176207232, 0.324592143 , -0.387218565, -0.200350553, 1.4777267   , -1.56440187 , 2.758773    , 0.49        , 3           , 50          , 0           , 0
-9.822868   , -0.0581112877, -0.01795887 , 0.00316999038, 0.0002394775, 0.0005021496, 0.324592143 , -0.387218565, -0.200350553, 1.4777267   , -1.56441116 , 2.75880361  , 0.5         , 3           , 11          , 0.0350946672, 0.0350946561
-9.82641    , -0.0798004  , 0.00316737569, 0.00146748032, 0.00163583865, -0.001198807, 0.3260078   , -0.387285978, -0.200417966, 1.4777267   , -1.56439257 , 2.758818    , 0.51        , 3           , 12          , 0.03509391  , 0
-9.806573   , -0.0894767046, -0.006212713, -0.0013549045, 0.001335176 , -0.00036479783, 0.32499662  , -0.387218565, -0.20028314 , 1.4777267   , -1.56439257 , 2.75880456  , 0.52        , 3           , 14          , 0.000293146441, 0.0005094969
-9.81539    , -0.0740010142, -0.0152556561, -0.0004990969, -0.000348483736, -8.091312E-05, 0.324592143 , -0.387285978, -0.20028314 , 1.4777267   , -1.56439257 , 2.75879979  , 0.53        , 3           , 15          , 0           , 6.22814841E-05
-9.811785   , -0.0678075552, 0.008752743 , 0.0003501559, -0.0009058879, -0.00149051764, 0.324592143 , -0.387285978, -0.20028314 , 1.4777267   , -1.56438327 , 2.75880313  , 0.54        , 3           , 50          , 0           , 0
-9.818513   , -0.0614283346, 0.0136995446, 0.00317351986, -0.0006052208, -0.0006293019, 0.326075226 , -0.387151152, -0.200485379, 1.4777267   , -1.56436467 , 2.758835    , 0.55        , 3           , 11          , 0.0350946672, 0.0350946561
-9.800923   , -0.060798347, 0.03327197  , -0.001054845, -0.00232326239, -0.00121673453, 0.325131446 , -0.387083739, -0.20028314 , 1.4777267   , -1.56435549 , 2.75882459  , 0.56        , 3           , 12          , 0.03509391  , 0
-9.795396   , -0.06524967 , -0.00376689434, 0.00117799465, 0.003323325 , 0.00106277934, 0.324255079 , -0.387488216, -0.200350553, 1.4777267   , -1.56435549 , 2.758836    , 0.57        , 3           , 14          , 0.000293146441, 0.0005094969
-9.801572   , -0.0565625466, -0.0159816667, 6.94493647E-05, -0.00118936133, -0.000927193556, 0.324255079 , -0.387488216, -0.200350553, 1.4777267   , -1.56435549 , 2.758837    , 0.58        , 3           , 15          , 0           , 6.22814841E-05
-9.824903   , -0.04807773 , -0.0423399433, -0.00106378738, -0.000352302915, 0.000198990238, 0.326142639 , -0.387623042, -0.200417966, 1.4777267   , -1.56435549 , 2.75882649  , 0.59        , 3           , 50          , 0           , 0
-9.819509   , -0.0477281734, -0.0309976544, -0.00162638887, -0.0006376842, 0.00189114769, 0.325064033 , -0.387083739, -0.200215727, 1.4777267   , -1.564374   , 2.75880885  , 0.6         , 3           , 11          , 0.0353460461, 0.03534604
-9.803881   , -0.05612565 , -0.00379393972, -0.000211956125, -0.00119126681, 0.001049252 , 0.324120253 , -0.387555629, -0.200215727, 1.4777267   , -1.56440187 , 2.75880647  , 0.61        , 3           , 12          , 0.0353451073, 0
-9.809071   , -0.06739585 , 0.0110351127, 0.00346156466, -0.00172957114, -0.000347182824, 0.324120253 , -0.387555629, -0.200215727, 1.4777267   , -1.56438327 , 2.7588408   , 0.62        , 3           , 14          , 0.000293267163, 0.0005094979
-9.819127   , -0.07226576 , 0.0181697682, 0.0009085713, 0.000505759555, -0.000355563738, 0.3260078   , -0.3873534  , -0.200485379, 1.4777267   , -1.564374   , 2.75885034  , 0.63        , 3           , 15          , 0           , 6.22811E-05
-9.798833   , -0.0570229255, -0.0227423869, 0.00204032543, 0.000231837388, 0.0007794198, 0.3248618   , -0.387218565, -0.200215727, 1.4777267   , -1.56439257 , 2.75887036  , 0.64        , 3           , 50          , 0           , 0
-9.804513   , -0.07054961 , -0.00611849967, -0.000211867315, -0.00147283822, -0.00121148152, 0.3243225   , -0.387285978, -0.2000809  , 1.4777267   , -1.56438327 , 2.75886846  , 0.65        , 3           , 11          , 0.0353460461, 0.03534604
-9.799428   , -0.0598106943, 0.00300458446, 0.00176684069, -0.00174103188, -0.0006376219, 0.3243225   , -0.387285978, -0.2000809  , 1.4777267   , -1.56439257 , 2.75888562  , 0.66        , 3           , 12          , 0.0353451073, 0
-9.80341    , -0.0565624535, -0.009667935, -0.00303343637, -0.00177349686, 0.00103521487, 0.326142639 , -0.387488216, -0.200485379, 1.4777267   , -1.56438327 , 2.758855    , 0.67        , 3           , 14          , 0.000293267163, 0.0005094979
-9.811927   , -0.08443816 , -0.009848633, -0.00415108725, -0.00431522448, 0.0001784293, 0.325064033 , -0.387016326, -0.200215727, 1.4777267   , -1.56441116 , 2.75881362  , 0.68        , 3           , 15          , 0           , 6.22811E-05
-9.806796   , -0.07053816 , -0.00161606621, -0.00444580754, -0.00206461968, -0.00179717853, 0.32452473  , -0.3873534  , -0.200350553, 1.4777267   , -1.564374   , 2.75876927  , 0.69        , 3           , 50          , 0           , 0
-9.800647   , -0.0556648374, -0.0177788083, 0.00232810853, -0.000892514363, 0.0004964623, 0.32452473  , -0.3873534  , -0.200350553, 1.4777267   , -1.56439257 , 2.75879216  , 0.7         , 3           , 11          , 0.03564984  , 0.0356498323
-9.807069   , -0.06145992 , -0.0164959785, 0.00119479722, -0.000337028, -0.0009206248, 0.326075226 , -0.387285978, -0.20028314 , 1.4777267   , -1.564374   , 2.75880361  , 0.71        , 3           , 12          , 0.0356487   , 0
-9.804939   , -0.06873668 , -0.007018201, 0.00120455527, -0.00230798358, -0.0009236623, 0.325131446 , -0.387285978, -0.200215727, 1.4777267   , -1.56436467 , 2.758816    , 0.72        , 3           , 14          , 0.000293323857, 0.000509498641
-9.803807   , -0.0574050061, -0.0259458851, 0.0003389008, 0.00162820308, 0.00105622422, 0.324592143 , -0.3874208  , -0.200417966, 1.4777267   , -1.564374   , 2.75881934  , 0.73        , 3           , 15          , 0           , 6.228223E-05
-9.805364   , -0.0606741235, 0.0119952969, -0.003040626, -0.000365672866, 0.000754845969, 0.324592143 , -0.3874208  , -0.200417966, 1.4777267   , -1.56438327 , 2.75878882  , 0.74        , 3           , 50          , 0           , 0
-9.813779   , -0.08132536 , 0.0100373961, -0.000234064952, 0.003032203 , -0.000922002248, 0.3259404   , -0.387151152, -0.200485379, 1.4777267   , -1.56438327 , 2.75878644  , 0.75        , 3           , 11          , 0.03564984  , 0.0356498323
-9.820923   , -0.07714215 , -0.00129948556, -0.0013417945, -0.00148047961, -0.0014992879, 0.32499662  , -0.387151152, -0.200215727, 1.4777267   , -1.564374   , 2.758773    , 0.76        , 3           , 12          , 0.0356487   , 0
-9.805121   , -0.04797991 , -0.006481556, 0.00260521146, -4.591464E-05, -0.00147868111, 0.324726969 , -0.387285978, -0.200148314, 1.4777267   , -1.564337   , 2.75879931  , 0.77        , 3           , 14          , 0.000293323857, 0.000509498641
-9.82525349 , -0.06800248 , -0.0202780254, 0.00261471746, -0.00173529971, 0.0004964774, 0.324726969 , -0.387285978, -0.200148314, 1.4777267   , -1.56434619 , 2.75882554  , 0.78        , 3           , 15          , 0           , 6.228223E-05
-9.809238   , -0.05376831 , -0.0151247224, 7.34539353E-05, -0.00203405856, -0.0009284962, 0.3260078   , -0.387218565, -0.200485379, 1.4777267   , -1.56434619 , 2.758826    , 0.79        , 3           , 50          , 0           , 0
-9.783993   , -0.0608513951, -0.009537251, 0.0003605256, -0.00287684053, -8.086865E-05, 0.3249292   , -0.387218565, -0.20028314 , 1.4777267   , -1.564337   , 2.75882936  , 0.8         , 3           , 11          , 0.0360043   , 0.0360042937
-9.795978   , -0.07516818 , -0.004264435, 0.0006227838, 0.00106697727, -0.00120362663, 0.32452473  , -0.3873534  , -0.200417966, 1.4777267   , -1.56432772 , 2.75883555  , 0.81        , 3           , 12          , 0.0360029563, 0
-9.835044   , -0.04989239 , -0.004458377, 0.00371914264, 0.00334051158, 0.000227018347, 0.32452473  , -0.3873534  , -0.200417966, 1.4777267   , -1.56432772 , 2.75887275  , 0.82        , 3           , 14          , 0.000293350517, 0.000509497942
-9.837277   , -0.04939501 , -0.0103491824, -0.0007848421, 0.00021273375, -0.0006464381, 0.3259404   , -0.387285978, -0.200552791, 1.4777267   , -1.56431854 , 2.75886464  , 0.83        , 3           , 15          , 0           , 6.228241E-05
-9.793581   , -0.0412397  , -0.0380042456, 0.00317159551, -0.000323658285, -0.0011939439, 0.3248618   , -0.3874208  , -0.200417966, 1.4777267   , -1.56432772 , 2.75889659  , 0.84        , 3           , 50          , 0           , 0
-9.794343   , -0.0584461726, -0.0177421328, -0.00191094575, -0.0003580323, 0.000760113529, 0.324592143 , -0.3874208  , -0.20028314 , 1.4777267   , -1.564337   , 2.75887752  , 0.85        , 3           , 11          , 0.0360043   , 0.0360042937
-9.820757   , -0.065403156, -0.003961457, -0.00246964488, -0.00176968158, -0.000657377241, 0.324592143 , -0.3874208  , -0.20028314 , 1.4777267   , -1.564337   , 2.75885272  , 0.86        , 3           , 12          , 0.0360029563, 0
-9.799951   , -0.07012743 , -0.0133135952, 0.001465304 , 0.00219897181, 0.000214747139, 0.326210052 , -0.387488216, -0.2006202  , 1.4777267   , -1.564337   , 2.7588675   , 0.87        , 3           , 14          , 0.000293350517, 0.000509497942
-9.808221   , -0.04520859 , -0.0146294842, 5.48901444E-05, 0.0019078583, 0.000772803556, 0.325131446 , -0.387083739, -0.200148314, 1.4777267   , -1.56432772 , 2.758868    , 0.88        , 3           , 15          , 0           , 6.228241E-05
-9.817259   , -0.07358001 , 9.925477E-05, -0.0010695674, 0.000773956242, 0.000200725073, 0.324659556 , -0.3873534  , -0.20028314 , 1.4777267   , -1.56431854 , 2.758857    , 0.89        , 3           , 50          , 0           , 0
-9.817486   , -0.0884937  , 0.00771941664, 0.00289338827, -0.0008886898, 0.00134670956, 0.324659556 , -0.3873534  , -0.20028314 , 1.4777267   , -1.564337   , 2.758886    , 0.9         , 3           , 11          , 0.03640755  , 0.0364075452
-9.801423   , -0.0372477137, 0.009410653 , -0.00022067751, 0.000216552129, -0.00177395332, 0.3260078   , -0.3874208  , -0.200552791, 1.4777267   , -1.564337   , 2.75888371  , 0.91        , 3           , 12          , 0.0364059955, 0
-9.817912   , -0.0577427968, -0.0106877033, 0.001187349 , 0.00135236932, 0.000777204463, 0.3249292   , -0.387151152, -0.200350553, 1.4777267   , -1.564337   , 2.75889564  , 0.92        , 3           , 14          , 0.000293387 , 0.0005094964
-9.829043   , -0.0783606  , -0.0131182028, 0.00177311292, -0.00286728656, 0.0007733293, 0.324659556 , -0.387285978, -0.200350553, 1.4777267   , -1.56435549 , 2.75891328  , 0.93        , 3           , 15          , 0           , 6.228139E-05
-9.820158   , -0.0505597852, 0.0078562405, 7.174481E-05, -0.00147092051, 0.00105013477, 0.324659556 , -0.387285978, -0.200350553, 1.4777267   , -1.56434619 , 2.75891423  , 0.94        , 3           , 50          , 0           , 0
-9.81569    , -0.06092743 , -0.0106839109, -0.00106895133, 0.000773961 , 0.001330876 , 0.3260078   , -0.387218565, -0.200485379, 1.4777267   , -1.56435549 , 2.75890326  , 0.95        , 3           , 11          , 0.03640755  , 0.0364075452
-9.806664   , -0.0646293461, -0.0146981031, 0.000909356051, 0.0002241935, -0.00120361045, 0.32499662  , -0.387218565, -0.200215727, 1.4777267   , -1.56436467 , 2.75891232  , 0.96        , 3           , 12          , 0.0364059955, 0
-9.808771   , -0.0484066829, -0.00108743645, -0.0002130549, -0.00119127007, -0.000645972847, 0.324592143 , -0.387488216, -0.20028314 , 1.4777267   , -1.564337   , 2.75891042  , 0.97        , 3           , 14          , 0.000293387 , 0.0005094964
-9.82076    , -0.0600483  , 0.0136880968, 0.0003449919, 0.000220375965, -0.000358631834, 0.324592143 , -0.387488216, -0.20028314 , 1.4777267   , -1.56435549 , 2.75891328  , 0.98        , 3           , 15          , 0           , 6.228139E-05
-9.811727   , -0.06731557 , -0.003448354, -0.0005104151, 0.00218560966, 0.00246582949, 0.3260078   , -0.387555629, -0.200552791, 1.4777267   , -1.564374   , 2.75890851  , 0.99        , 3           , 50          , 0           , 0
-9.830943   , -0.04545593 , 0.00372707471, 5.255334E-05, 0.00190784724, -0.00318271923, 0.325064033 , -0.387016326, -0.200350553, 1.4777267   , -1.56432772 , 2.75890946  , 1           , 3           , 11          , 0.0368575975, 0.03685759
-9.813566   , -0.028558027, 0.01703754  , 0.00316383154, 0.0013657352, -6.11884E-05, 0.324457318 , -0.387555629, -0.200350553, 1.4777267   , -1.564337   , 2.758941    , 1.01        , 3           , 12          , 0.0368558168, 0
-9.804287   , -0.0476028845, 0.0125096869, 0.00258970913, 0.00333287334, 0.0007868275, 0.324457318 , -0.387555629, -0.200350553, 1.4777267   , -1.56432772 , 2.75896668  , 1.02        , 3           , 14          , 0.000293403224, 0.000509498059
-9.825062   , -0.07536077 , 0.0199194942, -0.00303053251, -0.00261819735, -0.00094384863, 0.3259404   , -0.387218565, -0.200417966, 1.4777267   , -1.56435549 , 2.75893617  , 1.03        , 3           , 15          , 0           , 6.228052E-05
-9.820816   , -0.0681282  , 0.00145060755, -0.0007786661, -0.0009135235, 0.000481977768, 0.32499662  , -0.3873534  , -0.200350553, 1.4777267   , -1.56435549 , 2.75892854  , 1.04        , 3           , 50          , 0           , 0
-9.821496   , -0.05588357 , -0.014323269, -0.0004892693, -0.00231943885, 0.000481125026, 0.3243899   , -0.387285978, -0.200417966, 1.4777267   , -1.56435549 , 2.75892377  , 1.05        , 3           , 11          , 0.0368575975, 0.03685759
-9.821491   , -0.05230913 , -0.003912788, 0.00289148884, -0.0006071288, 0.00049953186, 0.3243899   , -0.387285978, -0.200417966, 1.4777267   , -1.56435549 , 2.75895238  , 1.06        , 3           , 12          , 0.0368558168, 0
-9.807315   , -0.0394162238, 0.00393279456, -0.00361703755, 0.00188302691, 0.0001906103, 0.3260078   , -0.387218565, -0.200350553, 1.4777267   , -1.56434619 , 2.75891614  , 1.07        , 3           , 14          , 0.000293403224, 0.000509498059
-9.811859   , -0.0460713878, -0.0137569048, -0.00219391473, -0.0003599447, -8.881376E-05, 0.3249292   , -0.387218565, -0.200485379, 1.4777267   , -1.56434619 , 2.75889421  , 1.08        , 3           , 15          , 0           , 6.228052E-05
-9.829217   , -0.0607226044, -0.0243460126, -0.0007849835, 0.000494305044, 0.00161429751, 0.324457318 , -0.387151152, -0.200485379, 1.4777267   , -1.56435549 , 2.75888658  , 1.09        , 3           , 50          , 0           , 0
-9.809102   , -0.0736696348, -0.00164667889, -0.002465666, -0.00233280682, 0.001602061 , 0.324457318 , -0.387151152, -0.200485379, 1.4777267   , -1.56438327 , 2.75886178  , 1.1         , 3           , 11          , 0.03735235  , 0.0373523422
-9.80427551 , -0.08501142 , -0.000300839543, 5.75637678E-05, 0.00134472642, 0.000771942 , 0.325873    , -0.387218565, -0.2006202  , 1.4777267   , -1.564374   , 2.75886226  , 1.11        , 3           , 12          , 0.037350338 , 0
-9.827922   , -0.0581117719, -0.0003701467, -0.001901302, -0.00232898933, 0.0007570823, 0.325131446 , -0.387083739, -0.20028314 , 1.4777267   , -1.56439257 , 2.75884318  , 1.12        , 3           , 14          , 0.0002934649, 0.0005094994
-9.821422   , -0.0473434441, -0.004795637, 0.0009115767, -0.000338941871, -0.00205208547, 0.3243225   , -0.3873534  , -0.200350553, 1.4777267   , -1.564374   , 2.75885224  , 1.13        , 3           , 15          , 0           , 6.227609E-05
-9.797936   , -0.05480954 , -0.0132346982, 0.0003358974, 0.00190976053, -0.001486173, 0.3243225   , -0.3873534  , -0.200350553, 1.4777267   , -1.564374   , 2.75885558  , 1.14        , 3           , 50          , 0           , 0
-9.814894   , -0.06861519 , -0.008449782, -0.0016279805, -0.000356120639, 0.00189158681, 0.326142639 , -0.387488216, -0.200552791, 1.4777267   , -1.564374   , 2.758839    , 1.15        , 3           , 11          , 0.03735235  , 0.0373523422
-9.811129   , -0.0622917041, -0.023310218, 0.00174942543, 0.0016377453, -0.00148002221, 0.3249292   , -0.3868141  , -0.200417966, 1.4777267   , -1.56436467 , 2.758857    , 1.16        , 3           , 12          , 0.037350338 , 0
-9.819177   , -0.054526452, -0.023339577, 0.00118915457, 0.0010708035, 0.00162438827, 0.324726969 , -0.387488216, -0.20028314 , 1.4777267   , -1.56436467 , 2.75886846  , 1.17        , 3           , 14          , 0.0002934649, 0.0005094994
-9.825983   , -0.05758209 , -0.03018404 , -0.00105869293, -0.00147856656, -8.527734E-05, 0.324726969 , -0.387488216, -0.20028314 , 1.4777267   , -1.564374   , 2.758858    , 1.18        , 3           , 15          , 0           , 6.227609E-05
-9.801501   , -0.08499795 , -0.01383909 , 5.79788721E-05, 0.00106315664, -0.0009237167, 0.326075226 , -0.3874208  , -0.200552791, 1.4777267   , -1.56435549 , 2.758859    , 1.19        , 3           , 50          , 0           , 0
-9.79142    , -0.07341219 , -0.00557826273, -0.00163336971, 0.000488572754, -8.487399E-05, 0.325131446 , -0.387083739, -0.200417966, 1.4777267   , -1.56436467 , 2.75884223  , 1.2         , 3           , 11          , 0.0378896855, 0.037889678
-9.781668   , -0.0581498928, -0.0158360358, -0.0005041521, 0.0004962102, -0.00092721876, 0.324457318 , -0.3873534  , -0.200350553, 1.4777267   , -1.56435549 , 2.758837    , 1.21        , 3           , 12          , 0.037887428 , 0
-9.811996   , -0.0479682125, 0.013805191 , 0.004010821 , 0.00137146667, -0.000339770981, 0.324457318 , -0.3873534  , -0.200350553, 1.4777267   , -1.56434619 , 2.758877    , 1.22        , 3           , 14          , 0.000293530233, 0.000509495731
-9.817513   , -0.0591302961, -0.00210270472, 0.00344515173, 0.00136764278, -0.00175509229, 0.326075226 , -0.3873534  , -0.2006876  , 1.4777267   , -1.56431854 , 2.75891185  , 1.23        , 3           , 15          , 0           , 6.227641E-05
-9.807672   , -0.06648682 , 0.00426982157, -0.00134766567, -7.264505E-05, 0.0007631873, 0.325266272 , -0.387285978, -0.20028314 , 1.4777267   , -1.564337   , 2.758898    , 1.24        , 3           , 50          , 0           , 0
-9.805218   , -0.05519984 , -0.00606024638, -0.000783138268, -6.882666E-05, 0.0002007462, 0.324592143 , -0.387555629, -0.200215727, 1.4777267   , -1.564337   , 2.75889039  , 1.25        , 3           , 11          , 0.0378896855, 0.037889678
-9.808775   , -0.0510878861, -0.008782303, 0.001760097 , -0.000333202042, 0.000212164683, 0.324592143 , -0.387555629, -0.200215727, 1.4777267   , -1.56435549 , 2.758908    , 1.26        , 3           , 12          , 0.037887428 , 0
-9.823413   , -0.0613048449, -0.005772708, -0.00105129881, -0.00288638566, 0.0007601649, 0.326142639 , -0.387623042, -0.200485379, 1.4777267   , -1.56435549 , 2.75889754  , 1.27        , 3           , 14          , 0.000293530233, 0.000509495731
-9.803476   , -0.0606333949, -0.00652143639, 0.002053513 , -0.00258381339, -7.252712E-05, 0.325064033 , -0.387285978, -0.200148314, 1.4777267   , -1.56435549 , 2.758918    , 1.28        , 3           , 15          , 0           , 6.227641E-05
-9.806184   , -0.0543458648, 0.01156326  , -0.00472038565, -0.00347434729, 0.0001771019, 0.324659556 , -0.387285978, -0.200350553, 1.4777267   , -1.56435549 , 2.75887036  , 1.29        , 3           , 50          , 0           , 0
-9.826924   , -0.04822731 , 0.008718139 , 0.000925474567, -0.00287301838, 0.000486848236, 0.324659556 , -0.387285978, -0.200350553, 1.4777267   , -1.564374   , 2.75888     , 1.3         , 3           , 11          , 0.03846744  , 0.03846743
-9.815196   , -0.0519732274, 0.008340308 , -0.0019010033, -0.00261055725, -0.0009385744, 0.326142639 , -0.387488216, -0.200552791, 1.4777267   , -1.56436467 , 2.75886083  , 1.31        , 3           , 12          , 0.0384649225, 0
-9.789809   , -0.050460238, 0.006732762 , -0.0007795858, -0.0006319548, 0.00161256839, 0.32499662  , -0.387285978, -0.20028314 , 1.4777267   , -1.564374   , 2.75885272  , 1.32        , 3           , 14          , 0.000293581426, 0.0005094976
-9.768211   , -0.05975202 , 0.0109272562, -0.000213664418, -0.000909701455, 0.001049693 , 0.32452473  , -0.387151152, -0.200215727, 1.4777267   , -1.56440187 , 2.75885034  , 1.33        , 3           , 15          , 0           , 6.22741063E-05
-9.8115     , -0.056418404, -0.02419269 , 0.00205025868, -0.00173911545, 0.00162400154, 0.32452473  , -0.387151152, -0.200215727, 1.4777267   , -1.56441116 , 2.75887132  , 1.34        , 3           , 50          , 0           , 0
-9.812833   , -0.0563812964, -0.0305304863, 0.0006334529, -0.000903972366, 0.0007711064, 0.3260078   , -0.3873534  , -0.200417966, 1.4777267   , -1.56442058 , 2.758877    , 1.35        , 3           , 11          , 0.03846744  , 0.03846743
-9.800164   , -0.048949752, -0.0037357742, 0.00175472186, 0.00051148585, -0.00176429353, 0.325266272 , -0.387285978, -0.20028314 , 1.4777267   , -1.56439257 , 2.75889516  , 1.36        , 3           , 12          , 0.0384649225, 0
-9.81681252 , -0.0388489142, 0.00250657648, 0.00203410885, 0.00135809649, 0.000216087516, 0.324457318 , -0.387488216, -0.20028314 , 1.4777267   , -1.56441116 , 2.75891519  , 1.37        , 3           , 14          , 0.000293581426, 0.0005094976
-9.791186   , -0.05179775 , 0.006716693 , -0.00106471183, -0.000352305942, -0.0006486146, 0.324457318 , -0.387488216, -0.20028314 , 1.4777267   , -1.564374   , 2.7589047   , 1.38        , 3           , 15          , 0           , 6.22741063E-05
-9.809748   , -0.05157829 , 0.00612368248, -0.002471522, -0.00120654551, 0.001321261 , 0.326210052 , -0.387285978, -0.200417966, 1.4777267   , -1.56441116 , 2.75888     , 1.39        , 3           , 50          , 0           , 0
-9.820048   , -0.04600745 , -0.00432760827, -0.000498202338, -0.000630052062, -0.000363870524, 0.32499662  , -0.3874208  , -0.200350553, 1.4777267   , -1.56441116 , 2.75887513  , 1.4         , 3           , 11          , 0.03908346  , 0.03908345
-9.823924   , -0.06625615 , -0.00760507537, -0.00106363418, -0.000352302974, 0.00104661682, 0.3243899   , -0.3874208  , -0.200417966, 1.4777267   , -1.56441116 , 2.75886464  , 1.41        , 3           , 12          , 0.03908067  , 0
-9.810381   , -0.06644888 , 0.00244131871, 0.000340462168, 0.00134663889, 0.00162088  , 0.3243899   , -0.3874208  , -0.200417966, 1.4777267   , -1.56442988 , 2.75886846  , 1.42        , 3           , 14          , 0.000293482764, 0.000509499339
-9.791039   , -0.07169    , 0.0174829587, 0.00289034145, -0.000325563422, 0.00106505374, 0.326142639 , -0.387488216, -0.200485379, 1.4777267   , -1.56444871 , 2.758897    , 1.43        , 3           , 15          , 0           , 6.226747E-05
-9.82824    , -0.0495164357, -0.005760746, 0.0006272341, 0.00050385436, 0.00190343254, 0.325131446 , -0.3873534  , -0.200215727, 1.4777267   , -1.56446743 , 2.75890374  , 1.44        , 3           , 50          , 0           , 0
-9.807674   , -0.037996985, -0.0141434334, 0.0006180544, 0.00219324138, 0.000493348751, 0.324457318 , -0.3873534  , -0.200350553, 1.4777267   , -1.56446743 , 2.75890946  , 1.45        , 3           , 11          , 0.03908346  , 0.03908345
-9.803786   , -0.0529252477, -0.016435504, 0.00259659952, 0.00192504667, 0.0007846708, 0.324457318 , -0.3873534  , -0.200350553, 1.4777267   , -1.56448638 , 2.75893569  , 1.46        , 3           , 12          , 0.03908067  , 0
-9.810535   , -0.07862541 , 0.00103370659, -0.00108306145, 0.00330803683, -0.00120804179, 0.3260078   , -0.387555629, -0.200350553, 1.4777267   , -1.56446743 , 2.7589252   , 1.47        , 3           , 14          , 0.000293482764, 0.000509499339
-9.786725   , -0.0648496151, -0.0186143927, 0.00316342572, 0.00136573229, -0.000626250345, 0.325266272 , -0.3873534  , -0.200350553, 1.4777267   , -1.56444871 , 2.75895667  , 1.48        , 3           , 15          , 0           , 6.226747E-05
-9.790595   , -0.07884418 , -0.00333455112, -0.0007816969, -0.0003503954, 0.000200321185, 0.324592143 , -0.387488216, -0.20028314 , 1.4777267   , -1.564458   , 2.758949    , 1.49        , 3           , 50          , 0           , 0
-9.810907   , -0.07007395 , 0.008750048 , -0.00416558562, -0.00149957719, -0.00038229255, 0.324592143 , -0.387488216, -0.20028314 , 1.4777267   , -1.56444871 , 2.75890756  , 1.5         , 3           , 11          , 0.0397356   , 0.0397355929
-9.816686   , -0.06991715 , -0.0175085515, 6.433626E-05, -6.309993E-05, 0.00048724332, 0.326142639 , -0.3874208  , -0.200485379, 1.4777267   , -1.56444871 , 2.75890756  , 1.51        , 3           , 12          , 0.039732527 , 0
-9.788371   , -0.07801079 , 0.009341452 , 0.0009157986, -0.0009020653, 0.0004898924, 0.325333685 , -0.3874208  , -0.2000809  , 1.4777267   , -1.56444871 , 2.758917    , 1.52        , 3           , 14          , 0.000293499266, 0.0005094997
-9.788995   , -0.0572396442, 0.00716287829, -0.000777368143, -0.00119509012, 0.0004815568, 0.3243899   , -0.387285978, -0.20028314 , 1.4777267   , -1.564458   , 2.75890946  , 1.53        , 3           , 15          , 0           , 6.226754E-05
-9.818184   , -0.07046121 , 0.01502057  , -0.001067017, 0.0004923957, 0.00246060616, 0.3243899   , -0.387285978, -0.20028314 , 1.4777267   , -1.56447685 , 2.7588985   , 1.54        , 3           , 50          , 0           , 0
-9.806654   , -0.057032343, 0.007028699 , -0.0010658605, -7.07421859E-05, -0.0003656366, 0.326075226 , -0.3873534  , -0.200417966, 1.4777267   , -1.56450522 , 2.758888    , 1.55        , 3           , 11          , 0.0397356   , 0.0397355929
-9.80168    , -0.06557651 , -0.0187317524, -0.0013561619, 0.001616741 , 0.0004832623, 0.325064033 , -0.3874208  , -0.200215727, 1.4777267   , -1.56447685 , 2.75887418  , 1.56        , 3           , 12          , 0.039732527 , 0
-9.796988   , -0.08104518 , 0.00248322636, -0.000231126032, 0.00246907352, -0.000357780373, 0.3243899   , -0.387151152, -0.200215727, 1.4777267   , -1.56447685 , 2.75887227  , 1.57        , 3           , 14          , 0.000293499266, 0.0005094997
-9.811311   , -0.06511805 , 0.0123833772, -0.000208747631, -0.0017543959, 0.00217854767, 0.3243899   , -0.387151152, -0.200215727, 1.4777267   , -1.56452417 , 2.75887036  , 1.58        , 3           , 15          , 0           , 6.226754E-05
-9.81236649 , -0.04923471 , -0.0106100142, -0.00275575 , -0.0009268949, 0.000472772226, 0.3264797   , -0.387488216, -0.200485379, 1.4777267   , -1.5644958  , 2.75884271  , 1.59        , 3           , 50          , 0           , 0
-9.802557   , -0.06331164 , -0.0182770956, 0.000322565465, 0.00472541  , -0.000351677125, 0.325266272 , -0.387218565, -0.200215727, 1.4777267   , -1.5644958  , 2.75884557  , 1.6         , 3           , 11          , 0.0404217727, 0.04042176
-9.814348   , -0.06586673 , -0.0224457011, -0.0007797512, -0.0009135337, -0.001213236, 0.3248618   , -0.3874208  , -0.200215727, 1.4777267   , -1.56448638 , 2.758838    , 1.61        , 3           , 12          , 0.04041839  , 0
-9.826995   , -0.0549809858, 0.004621744 , -0.00106693828, 0.000210820508, 0.000199869974, 0.3248618   , -0.3874208  , -0.200215727, 1.4777267   , -1.56450522 , 2.75882745  , 1.62        , 3           , 14          , 0.000293509365, 0.0005095036
-9.807331   , -0.07372416 , 0.008310271 , 0.0003483102, -0.000342758169, 0.0007706618, 0.325873    , -0.3873534  , -0.200552791, 1.4777267   , -1.56448638 , 2.75883079  , 1.63        , 3           , 15          , 0           , 6.226964E-05
-9.813413   , -0.0578186326, -0.0038738437, -0.003043926, 0.000197450732, 0.000190651437, 0.325266272 , -0.387488216, -0.200215727, 1.4777267   , -1.5644958  , 2.75880027  , 1.64        , 3           , 50          , 0           , 0
-9.827163   , -0.06493655 , 0.0136188557, -0.000219657828, 0.000216550427, 0.000203820775, 0.32452473  , -0.387218565, -0.20028314 , 1.4777267   , -1.56450522 , 2.758798    , 1.65        , 3           , 11          , 0.0404217727, 0.04042176
-9.834796   , -0.06747144 , -0.0108571369, 0.00258911354, 0.00333286566, -6.077386E-05, 0.32452473  , -0.387218565, -0.20028314 , 1.4777267   , -1.5644958  , 2.758824    , 1.66        , 3           , 12          , 0.04041839  , 0
-9.824273   , -0.05768652 , -0.00531229936, -0.002753135, -0.00149002974, 0.000189364757, 0.3260078   , -0.387218565, -0.200485379, 1.4777267   , -1.56451476 , 2.75879645  , 1.67        , 3           , 14          , 0.000293509365, 0.0005095036
-9.79863    , -0.07374503 , -0.0155784125, -0.00471520424, -0.00431904569, 0.00187103183, 0.325131446 , -0.3869489  , -0.20028314 , 1.4777267   , -1.56453371 , 2.75874925  , 1.68        , 3           , 15          , 0           , 6.226964E-05
-9.789156   , -0.07433201 , -0.008276664, 0.000338967278, 0.00134662748, -0.000921959348, 0.324457318 , -0.387285978, -0.200148314, 1.4777267   , -1.56451476 , 2.75875258  , 1.69        , 3           , 50          , 0           , 0
-9.807779   , -0.07862557 , -0.00843687 , 7.111224E-05, -0.00147093087, 0.000202530035, 0.324457318 , -0.387285978, -0.200148314, 1.4777267   , -1.56452417 , 2.758753    , 1.7         , 3           , 11          , 0.04113992  , 0.04113991
-9.805082   , -0.07867257 , -0.003896607, -0.00248892535, 0.0018906534, -0.00234695221, 0.326075226 , -0.3873534  , -0.200350553, 1.4777267   , -1.56448638 , 2.75872827  , 1.71        , 3           , 12          , 0.0411362126, 0
-9.811834   , -0.0754363  , -0.00348283187, -0.00189874228, -0.00289212517, 0.0004736793, 0.3254011   , -0.387488216, -0.20028314 , 1.4777267   , -1.56451476 , 2.75870919  , 1.72        , 3           , 14          , 0.000293530145, 0.0005095044
-9.82261848 , -0.06408286 , 0.0123011973, -0.00106687029, -7.075159E-05, -0.00206086761, 0.324592143 , -0.387285978, -0.200215727, 1.4777267   , -1.56448638 , 2.7586987   , 1.73        , 3           , 15          , 0           , 6.227369E-05
-9.799607   , -0.039497517, 0.00127949379, 0.00288890023, -4.400339E-05, 0.00106548145, 0.324592143 , -0.387285978, -0.200215727, 1.4777267   , -1.56448638 , 2.75872731  , 1.74        , 3           , 50          , 0           , 0
-9.809396   , -0.05880657 , 0.007452367 , -0.000216727436, -0.0003465797, 0.0004854863, 0.326277465 , -0.3873534  , -0.200417966, 1.4777267   , -1.56448638 , 2.7587254   , 1.75        , 3           , 11          , 0.04113992  , 0.04113991
-9.816811   , -0.0726966262, 0.0041741915, 5.51256235E-05, 0.00162628212, -0.0009228465, 0.325131446 , -0.387151152, -0.200215727, 1.4777267   , -1.56447685 , 2.758726    , 1.76        , 3           , 12          , 0.0411362126, 0
-9.825956   , -0.05086623 , -0.0147885578, -0.00162951427, -0.0003561327, -0.000651248032, 0.324255079 , -0.387151152, -0.200148314, 1.4777267   , -1.56448638 , 2.75870967  , 1.77        , 3           , 14          , 0.000293530145, 0.0005095044
-9.823216   , -0.05043186 , -0.0192856342, -0.002483438, 0.00104596443, -8.79542E-05, 0.324255079 , -0.387151152, -0.200148314, 1.4777267   , -1.56447685 , 2.75868487  , 1.78        , 3           , 15          , 0           , 6.227369E-05
-9.802027   , -0.0583437048, -0.0214163251, -0.00106326654, -0.0006338778, -0.000649048132, 0.326210052 , -0.3874208  , -0.20028314 , 1.4777267   , -1.56447685 , 2.758674    , 1.79        , 3           , 50          , 0           , 0
-9.80629349 , -0.0366549455, -0.015483248, -0.00162519666, -0.001200826, -0.000370011519, 0.325198859 , -0.387285978, -0.200215727, 1.4777267   , -1.56446743 , 2.75865769  , 1.8         , 3           , 11          , 0.04188807  , 0.04188806
-9.799755   , -0.056132663, -0.015965987, 0.001478132 , -0.000335117278, 0.00105846371, 0.3243225   , -0.3874208  , -0.200215727, 1.4777267   , -1.56447685 , 2.758673    , 1.81        , 3           , 12          , 0.0418840125, 0
-9.81089    , -0.07318361 , -0.005726192, 0.00203568954, 0.00107652647, 0.000498192268, 0.3243225   , -0.3874208  , -0.200215727, 1.4777267   , -1.56448638 , 2.758693    , 1.82        , 3           , 14          , 0.000293557969, 0.000509503356
-9.817262   , -0.0744747445, -0.00216440484, 0.00374156516, -0.00116453355, 0.00078516  , 0.326344877 , -0.387285978, -0.200417966, 1.4777267   , -1.56448638 , 2.75873017  , 1.83        , 3           , 15          , 0           , 6.227286E-05
-9.815279   , -0.06676899 , -0.0192926712, -0.000785464537, 0.0004942981, 0.00104923  , 0.325333685 , -0.3873534  , -0.20028314 , 1.4777267   , -1.56448638 , 2.75872254  , 1.84        , 3           , 50          , 0           , 0
-9.797192   , -0.06476971 , -0.00603854842, 0.000338592363, 0.00134662632, -0.00148703763, 0.3243899   , -0.387151152, -0.200148314, 1.4777267   , -1.56448638 , 2.75872636  , 1.85        , 3           , 11          , 0.04188807  , 0.04188806
-9.774842   , -0.05373928 , -0.009437794, -0.000220032714, 0.000216549073, -0.000361257175, 0.3243899   , -0.387151152, -0.200148314, 1.4777267   , -1.56448638 , 2.758724    , 1.86        , 3           , 12          , 0.0418840125, 0
-9.77443    , -0.05645604 , -0.008089956, -0.00105927547, -0.00147857284, -0.0009328867, 0.325873    , -0.387488216, -0.200215727, 1.4777267   , -1.56448638 , 2.758713    , 1.87        , 3           , 14          , 0.000293557969, 0.000509503356
-9.820038   , -0.0442134254, -0.00115619972, -0.00105378823, -0.002323262, 0.00132611126, 0.325198859 , -0.387285978, -0.20028314 , 1.4777267   , -1.56450522 , 2.75870252  , 1.88        , 3           , 15          , 0           , 6.227286E-05
-9.823457   , -0.0617862344, 0.00326463557, 0.000336041878, 0.00219132961, 0.001339639 , 0.324457318 , -0.387218565, -0.200148314, 1.4777267   , -1.5644958  , 2.75870633  , 1.89        , 3           , 50          , 0           , 0
-9.788097   , -0.0581495576, 0.00626200065, -0.00191824278, 0.0010497875, 0.0004797576, 0.324457318 , -0.387218565, -0.200148314, 1.4777267   , -1.5644958  , 2.75868726  , 1.9         , 3           , 11          , 0.0426643081, 0.0426642969
-9.791105   , -0.05039289 , -0.008644309, -0.000216711749, -0.000346578076, 0.000485489523, 0.3260078   , -0.3873534  , -0.200417966, 1.4777267   , -1.56450522 , 2.75868487  , 1.91        , 3           , 12          , 0.0426598862, 0
-9.78496    , -0.0689252  , -0.0204257257, 0.00345032872, 0.000522945251, -6.116324E-05, 0.325198859 , -0.387016326, -0.200148314, 1.4777267   , -1.56450522 , 2.75871968  , 1.92        , 3           , 14          , 0.000293514458, 0.0005095028
-9.795168   , -0.08507693 , -0.0124350367, 0.00175774  , -5.16486762E-05, -0.00148262014, 0.324457318 , -0.3873534  , -0.200350553, 1.4777267   , -1.56448638 , 2.75873685  , 1.93        , 3           , 15          , 0           , 6.227048E-05
-9.794745   , -0.0494722575, -0.00143658556, 6.5967004E-05, -0.000626238645, -0.00149138959, 0.324457318 , -0.3873534  , -0.200350553, 1.4777267   , -1.56448638 , 2.7587378   , 1.94        , 3           , 50          , 0           , 0
-9.834166   , -0.0548354462, -0.0135118347, -0.000773854, -0.00203979178, -0.0006498977, 0.326210052 , -0.387488216, -0.200552791, 1.4777267   , -1.56446743 , 2.7587297   , 1.95        , 3           , 11          , 0.0426643081, 0.0426642969
-9.806841   , -0.07860899 , -0.01656533 , -0.00106678018, 0.000210822109, 0.000482406584, 0.325333685 , -0.387218565, -0.200148314, 1.4777267   , -1.56447685 , 2.75871873  , 1.96        , 3           , 12          , 0.0426598862, 0
-9.798463   , -0.057988   , -0.00556817371, 0.00345606753, -0.0006033144, 0.00021963827, 0.324592143 , -0.387285978, -0.200215727, 1.4777267   , -1.56448638 , 2.75875354  , 1.97        , 3           , 14          , 0.000293514458, 0.0005095028
-9.823502   , -0.06941044 , -0.0103268251, 6.30902359E-05, 0.000218462723, 0.00077021186, 0.324592143 , -0.387285978, -0.200215727, 1.4777267   , -1.56448638 , 2.758754    , 1.98        , 3           , 15          , 0           , 6.227048E-05
-9.819046   , -0.071307525, 0.00145096332, -0.0035967282, -0.00234045647, -0.0006635009, 0.3260078   , -0.387488216, -0.200417966, 1.4777267   , -1.56448638 , 2.75871825  , 1.99        , 3           , 50          , 0           , 0
-9.816037   , -0.0487848781, 0.00247130543, -0.000506892, 0.00105933542, -0.00092634774, 0.325266272 , -0.387083739, -0.200013489, 1.4777267   , -1.56447685 , 2.758713    , 2           , 3           , 11          , 0.0434668139, 0.0434668064
-9.807346   , -0.04792309 , -0.0155380331, -0.00247395854, -0.000924988941, -0.00065606623, 0.3243899   , -0.387488216, -0.200148314, 1.4777267   , -1.56446743 , 2.75868869  , 2.01        , 3           , 12          , 0.04346201  , 0
-9.814997   , -0.0393137746, 0.000258594751, -0.000781533, -0.000350395916, 0.00048285292, 0.3243899   , -0.387488216, -0.200148314, 1.4777267   , -1.56446743 , 2.75868058  , 2.02        , 3           , 14          , 0.000293482066, 0.0005095007
-9.826539   , -0.0625712  , -0.0207173266, 0.000918603851, -0.00146519649, 0.0004890188, 0.3260078   , -0.3874208  , -0.200350553, 1.4777267   , -1.5644958  , 2.75869     , 2.03        , 3           , 15          , 0           , 6.227323E-05
-9.820641   , -0.06218462 , -0.02202657 , -0.0002168425, -0.0003465768, 0.000202949319, 0.3254011   , -0.387218565, -0.200148314, 1.4777267   , -1.56450522 , 2.75868773  , 2.04        , 3           , 50          , 0           , 0
-9.824303   , -0.06485204 , -0.02116166 , 0.00205560774, -0.00286538037, 0.00105719187, 0.32452473  , -0.3873534  , -0.200148314, 1.4777267   , -1.56451476 , 2.75870824  , 2.05        , 3           , 11          , 0.0434668139, 0.0434668064
-9.802234   , -0.06654607 , 0.00295521133, -0.0005046822, 0.0007777743, 0.000485905563, 0.32452473  , -0.3873534  , -0.200148314, 1.4777267   , -1.56450522 , 2.75870347  , 2.06        , 3           , 12          , 0.04346201  , 0
-9.786865   , -0.06585625 , 0.0125672333, 0.00204675412, -0.00117599219, 0.00021218296, 0.325873    , -0.3874208  , -0.200417966, 1.4777267   , -1.56450522 , 2.7587235   , 2.07        , 3           , 14          , 0.000293482066, 0.0005095007
-9.787317   , -0.0747772  , -0.0164001659, -0.0007799758, -0.0006319602, 0.0007649565, 0.325198859 , -0.387218565, -0.200215727, 1.4777267   , -1.56450522 , 2.75871587  , 2.08        , 3           , 15          , 0           , 6.227323E-05
-9.795869   , -0.06927751 , -0.011922908, 0.00119512843, -0.0003370277, -7.300327E-05, 0.3243225   , -0.3874208  , -0.2000809  , 1.4777267   , -1.56452417 , 2.75872779  , 2.09        , 3           , 50          , 0           , 0
-9.785754   , -0.0612359345, -0.0231118221, 0.0003468237, -6.11868454E-05, 0.00020601436, 0.3243225   , -0.3874208  , -0.2000809  , 1.4777267   , -1.56452417 , 2.758732    , 2.1         , 3           , 11          , 0.0442938432, 0.044293832
-9.785772   , -0.05634129 , -0.002752401, 0.00119008543, 0.0007892391, 0.000493804459, 0.3260078   , -0.387555629, -0.200350553, 1.4777267   , -1.56452417 , 2.75874448  , 2.11        , 3           , 12          , 0.0442886278, 0
-9.812006   , -0.05065395 , 0.007466202 , 0.00373011758, 0.00136956363, 0.00220174971, 0.325333685 , -0.3874208  , -0.2000809  , 1.4777267   , -1.56454325 , 2.75878167  , 2.12        , 3           , 14          , 0.000293275516, 0.0005094958
-9.816029   , -0.0492239147, -0.00114631839, 0.000341084553, 0.0010650726, -7.478715E-05, 0.3243225   , -0.387488216, -0.200148314, 1.4777267   , -1.56454325 , 2.758785    , 2.13        , 3           , 15          , 0           , 6.227598E-05
-9.819198   , -0.0500799567, -0.00388600328, -0.000216309651, -0.000346570334, 0.000768021564, 0.3243225   , -0.387488216, -0.200148314, 1.4777267   , -1.56454325 , 2.75878263  , 2.14        , 3           , 50          , 0           , 0
-9.790738   , -0.05850229 , -0.0136469388, -0.000223279654, 0.00106125511, 0.000770191255, 0.3260078   , -0.3874208  , -0.200350553, 1.4777267   , -1.56455278 , 2.75878072  , 2.15        , 3           , 11          , 0.0442938432, 0.044293832
-9.78534    , -0.06573612 , -0.0280991346, -0.00135019911, 0.00049048505, 0.0007640556, 0.325266272 , -0.387285978, -0.200350553, 1.4777267   , -1.56456232 , 2.75876737  , 2.16        , 3           , 12          , 0.0442886278, 0
-9.822145   , -0.07299933 , -0.02117895 , -0.000773867068, -0.00175821409, 0.00132829312, 0.324187666 , -0.387083739, -0.20028314 , 1.4777267   , -1.56458151 , 2.75875974  , 2.17        , 3           , 14          , 0.000293275516, 0.0005094958
-9.813506   , -0.06637539 , -0.008429876, -0.00288878381, -0.00261723832, -0.000236841865, 0.324187666 , -0.387083739, -0.20028314 , 1.4777267   , -1.56458151 , 2.75873017  , 2.18        , 3           , 15          , 0           , 6.227598E-05
-9.796141   , -0.08735227 , -0.00341223367, -0.00331516727, -0.002197759, -0.00136831636, 0.3259404   , -0.387488216, -0.200485379, 1.4777267   , -1.564572   , 2.75869727  , 2.19        , 3           , 50          , 0           , 0
-9.795386   , -0.0616707  , 0.005287707 , -0.000920609862, -0.0009144745, -0.00135517458, 0.325333685 , -0.3873534  , -0.200215727, 1.4777267   , -1.56454325 , 2.75868917  , 2.2         , 3           , 11          , 0.0451437458, 0.0451437347
-9.812342   , -0.0443052948, -0.000645751134, -0.0005002471, -0.000348481641, -0.00219994364, 0.324255079 , -0.387555629, -0.2000809  , 1.4777267   , -1.56454325 , 2.758684    , 2.21        , 3           , 12          , 0.04513809  , 0
-9.804746   , -0.0516186245, 0.00073796697, -0.00176912115, -0.000638638448, -0.00107615418, 0.324255079 , -0.387555629, -0.2000809  , 1.4777267   , -1.56452417 , 2.75866628  , 2.22        , 3           , 14          , 0.000293072982, 0.0005094889
-9.814259   , -0.0528498627, -0.002503777, -0.000500662136, -6.69119E-05, -0.0005042851, 0.326142639 , -0.387218565, -0.20028314 , 1.4777267   , -1.56452417 , 2.75866151  , 2.23        , 3           , 15          , 0           , 6.22809748E-05
-9.8255825  , -0.0598628372, -0.0243146569, -0.00219792919, 0.0004847588, -0.00037005 , 0.325198859 , -0.387285978, -0.200148314, 1.4777267   , -1.5644958  , 2.75863957  , 2.24        , 3           , 50          , 0           , 0
-9.796778   , -0.06703833 , -0.00378487422, -0.004026859, -0.00079469604, 0.0006083184, 0.324659556 , -0.387488216, -0.200148314, 1.4777267   , -1.56452417 , 2.758599    , 2.25        , 3           , 11          , 0.0451437458, 0.0451437347
-9.807537   , -0.0592351332, -0.005642725, -0.00387801626, -0.00248313486, -0.000665045343, 0.324659556 , -0.387488216, -0.200148314, 1.4777267   , -1.56450522 , 2.75856042  , 2.26        , 3           , 12          , 0.04513809  , 0
-9.823063   , -0.0974741  , 0.0139673054, -0.00261119613, -0.00162984442, -0.000516548753, 0.3259404   , -0.3874208  , -0.200417966, 1.4777267   , -1.56450522 , 2.75853372  , 2.27        , 3           , 14          , 0.000293072982, 0.0005094889
-9.816006   , -0.0768054053, 0.0154629014, -0.0005005805, -6.69115E-05, -0.000363016326, 0.325333685 , -0.387151152, -0.200013489, 1.4777267   , -1.56450522 , 2.758529    , 2.28        , 3           , 15          , 0           , 6.22809748E-05
-9.808951   , -0.0588179231, 0.009263657 , 0.0007751377, -0.00104379468, -0.000499877555, 0.324726969 , -0.387285978, -0.2000809  , 1.4777267   , -1.56451476 , 2.75853658  , 2.29        , 3           , 50          , 0           , 0
-9.815215   , -0.0537732877, 0.00697674043, -0.00133395044, -0.00274751033, 5.27120174E-05, 0.324726969 , -0.387285978, -0.2000809  , 1.4777267   , -1.56450522 , 2.75852561  , 2.3         , 3           , 11          , 0.04601495  , 0.0460149422
-9.801276   , -0.06339108 , 0.0007156804, -0.004301234, -0.00248600217, -0.0006670256, 0.3259404   , -0.387285978, -0.200350553, 1.4777267   , -1.56450522 , 2.75848222  , 2.31        , 3           , 12          , 0.0460088179, 0
-9.817718   , -0.07179427 , 0.007334888 , -0.0021916863, -0.00064150244, 5.20157773E-05, 0.325266272 , -0.387151152, -0.200350553, 1.4777267   , -1.56450522 , 2.75846028  , 2.32        , 3           , 14          , 0.000292650278, 0.0005094911
-9.793426   , -0.0855992138, 0.00249158964, 5.75998019E-05, 0.00148551713, 0.000630880764, 0.3243225   , -0.387285978, -0.2000809  , 1.4777267   , -1.56450522 , 2.75846124  , 2.33        , 3           , 15          , 0           , 6.2285726E-05
-9.810155   , -0.0515351966, -0.00517883338, -8.204925E-05, 0.0009214262, -0.00148967677, 0.3243225   , -0.387285978, -0.2000809  , 1.4777267   , -1.56447685 , 2.75846028  , 2.34        , 3           , 50          , 0           , 0
-9.79344749 , -0.0589109734, -0.01683325 , -0.00021690804, -0.00034657144, -0.00135101913, 0.326344877 , -0.387623042, -0.200417966, 1.4777267   , -1.5644958  , 2.75845838  , 2.35        , 3           , 11          , 0.04601495  , 0.0460149422
-9.784145   , -0.06856329 , 0.00308515131, 0.000207592355, -0.000484488235, -0.001066723, 0.325333685 , -0.387285978, -0.20028314 , 1.4777267   , -1.56447685 , 2.75846028  , 2.36        , 3           , 12          , 0.0460088179, 0
-9.817634   , -0.070833005, -0.0102878511, -0.0004958943, -0.000911608455, -0.000223053939, 0.3243899   , -0.3874208  , -0.200148314, 1.4777267   , -1.56447685 , 2.75845551  , 2.37        , 3           , 14          , 0.000292650278, 0.0005094911
-9.836315   , -0.0484670475, -0.02118559 , -0.00135190948, 0.0009128364, 0.000340890663, 0.3243899   , -0.3874208  , -0.200148314, 1.4777267   , -1.56446743 , 2.75844216  , 2.38        , 3           , 15          , 0           , 6.2285726E-05
-9.82191849 , -0.0549608432, -0.0188425034, 0.00160410313, 0.00276306225, -0.000348804722, 0.326142639 , -0.387488216, -0.200350553, 1.4777267   , -1.564458   , 2.758458    , 2.39        , 3           , 50          , 0           , 0
-9.811612   , -0.062758714, -0.0169880912, 0.0041504   , 0.00207634876, 0.0003683067, 0.325131446 , -0.387151152, -0.200417966, 1.4777267   , -1.56446743 , 2.75850224  , 2.4         , 3           , 11          , 0.04690598  , 0.04690597
-9.809998   , -0.07409805 , -0.005271187, 0.001620326 , -0.000334144715, 0.0002114972, 0.32452473  , -0.3873534  , -0.200215727, 1.4777267   , -1.56444871 , 2.75851846  , 2.41        , 3           , 12          , 0.04689934  , 0
-9.801899   , -0.0426184162, -0.0019148587, -0.002042243, -0.00218914775, 5.028776E-05, 0.32452473  , -0.3873534  , -0.200215727, 1.4777267   , -1.56444871 , 2.75849843  , 2.42        , 3           , 14          , 0.00029208776, 0.000509483449
-9.803306   , -0.0506763346, -0.0159705244, -0.00274519576, -0.002757051, 0.000611202442, 0.3260078   , -0.3874208  , -0.200552791, 1.4777267   , -1.56447685 , 2.75847077  , 2.43        , 3           , 15          , 0           , 6.228551E-05
-9.812749   , -0.081236206, -0.0197853  , -0.00218275934, -0.00233088527, 4.94123E-05 , 0.325266272 , -0.387285978, -0.200013489, 1.4777267   , -1.56448638 , 2.75844884  , 2.44        , 3           , 50          , 0           , 0
-9.792222   , -0.0621590652, 0.00530986674, -7.42345946E-05, -0.000345604582, 0.000203595628, 0.324120253 , -0.3874208  , -0.200350553, 1.4777267   , -1.56448638 , 2.758448    , 2.45        , 3           , 11          , 0.04690598  , 0.04690597
-9.799501   , -0.06969066 , -0.0105964588, 0.00203888  , 0.0007949829, 0.00106282067, 0.324120253 , -0.3874208  , -0.200350553, 1.4777267   , -1.56448638 , 2.758468    , 2.46        , 3           , 12          , 0.04689934  , 0
-9.802338   , -0.0742186755, 0.00382657349, 0.000772593368, -0.0001990909, 0.0006315695, 0.325873    , -0.387555629, -0.200417966, 1.4777267   , -1.5644958  , 2.758476    , 2.47        , 3           , 14          , 0.00029208776, 0.000509483449
-9.811931   , -0.08087127 , 0.00282166153, 0.000770665531, 0.000223257623, 0.0009147579, 0.325333685 , -0.387285978, -0.200350553, 1.4777267   , -1.56450522 , 2.75848365  , 2.48        , 3           , 15          , 0           , 6.228551E-05
-9.82348    , -0.06537578 , -0.00262620486, -0.0003579741, -6.5948916E-05, 0.000343981432, 0.324187666 , -0.387218565, -0.20028314 , 1.4777267   , -1.56450522 , 2.75848031  , 2.49        , 3           , 50          , 0           , 0
-9.814411   , -0.06323994 , 0.00151983276, -0.00148102222, -0.00134062744, -8.70515E-05, 0.324187666 , -0.387218565, -0.20028314 , 1.4777267   , -1.56452417 , 2.75846887  , 2.5         , 3           , 11          , 0.0478154346, 0.0478154272
-9.83498    , -0.0850285441, -0.0222309269, -0.00119666755, -0.00176106556, -0.00036892292, 0.326210052 , -0.387285978, -0.2006876  , 1.4777267   , -1.56452417 , 2.75845647  , 2.51        , 3           , 12          , 0.04780826  , 0
-9.832446   , -0.06296534 , -0.0171482526, -0.00176307827, -0.00148332131, -0.000653660158, 0.325131446 , -0.387016326, -0.20028314 , 1.4777267   , -1.56450522 , 2.75843883  , 2.52        , 3           , 14          , 0.000291456847, 0.0005094778
-9.815977   , -0.054092858, -0.0291891024, -0.00177095283, 0.0002060714, 0.0001965557, 0.3243225   , -0.387285978, -0.200148314, 1.4777267   , -1.56450522 , 2.75842118  , 2.53        , 3           , 15          , 0           , 6.229168E-05
-9.813109   , -0.0740139857, -0.01930612 , -0.000502819952, 0.000777796435, 0.000203349788, 0.3243225   , -0.387285978, -0.200148314, 1.4777267   , -1.56450522 , 2.75841641  , 2.54        , 3           , 50          , 0           , 0
-9.797391   , -0.08010733 , -0.00655564666, 0.0013313971, 0.00107177545, -7.019357E-05, 0.325873    , -0.3873534  , -0.200485379, 1.4777267   , -1.56450522 , 2.75842977  , 2.55        , 3           , 11          , 0.0478154346, 0.0478154272
-9.790128   , -0.0494528338, -0.02309642 , 0.00118370331, 0.00247864844, 0.00077893  , 0.3254011   , -0.3873534  , -0.20028314 , 1.4777267   , -1.56450522 , 2.75844121  , 2.56        , 3           , 12          , 0.04780826  , 0
-9.793979   , -0.06566385 , -0.0195772015, -0.00051118416, 0.00246718712, 0.00020595346, 0.32405284  , -0.387623042, -0.200350553, 1.4777267   , -1.56450522 , 2.75843644  , 2.57        , 3           , 14          , 0.000291456847, 0.0005094778
-9.810226   , -0.05784223 , -0.007917433, -0.00135136861, 0.0009128464, -0.000789265148, 0.32405284  , -0.387623042, -0.200350553, 1.4777267   , -1.56450522 , 2.758423    , 2.58        , 3           , 15          , 0           , 6.229168E-05
-9.807841   , -0.0403631143, 0.0188403055, -0.00149123243, 0.0007711118, 0.000340009225, 0.326075226 , -0.387285978, -0.200552791, 1.4777267   , -1.56451476 , 2.75840783  , 2.59        , 3           , 50          , 0           , 0
-9.813739   , -0.0510158  , -0.0128878243, 0.0009054091, 0.00177283515, 0.00091779785, 0.325198859 , -0.3868815  , -0.200215727, 1.4777267   , -1.56452417 , 2.75842023  , 2.6         , 3           , 11          , 0.0487420075, 0.0487419963
-9.815146   , -0.0577353835, -0.0224181078, 0.0024648665, 0.0005162965, 0.0006405507, 0.324457318 , -0.387285978, -0.2000809  , 1.4777267   , -1.56452417 , 2.758445    , 2.61        , 3           , 12          , 0.04873426  , 0
-9.795536   , -0.0733976141, 0.00433396548, 0.00119960331, -0.000618558435, 0.0007741575, 0.324457318 , -0.387285978, -0.2000809  , 1.4777267   , -1.56452417 , 2.75845647  , 2.62        , 3           , 14          , 0.000290890632, 0.0005094686
-9.81528    , -0.06632389 , -0.017482901, -0.0007811141, 7.19833261E-05, 0.000342217681, 0.3260078   , -0.387285978, -0.200350553, 1.4777267   , -1.56452417 , 2.75844884  , 2.63        , 3           , 15          , 0           , 6.229073E-05
-9.806041   , -0.0502129458, -0.0101137254, -0.00106464571, 0.000210853977, -0.000365225831, 0.325131446 , -0.387151152, -0.200148314, 1.4777267   , -1.56453371 , 2.75843835  , 2.64        , 3           , 50          , 0           , 0
-9.79067    , -0.0486283824, 0.00176194869, -0.000222696675, 0.0013428455, 6.426677E-05, 0.324255079 , -0.3874208  , -0.200417966, 1.4777267   , -1.56453371 , 2.758436    , 2.65        , 3           , 11          , 0.0487420075, 0.0487419963
-9.798687   , -0.0778084  , -0.0146917263, 0.00161725946, 0.0005105651, 7.152505E-05, 0.324255079 , -0.3874208  , -0.200417966, 1.4777267   , -1.56454325 , 2.75845218  , 2.66        , 3           , 12          , 0.04873426  , 0
-9.822186   , -0.07481753 , -0.0171189383, 0.00260894932, -4.58783252E-05, 0.000781610142, 0.3260078   , -0.387555629, -0.200552791, 1.4777267   , -1.56452417 , 2.7584784   , 2.67        , 3           , 14          , 0.000290890632, 0.0005094686
-9.84085751 , -0.05021094 , -0.023487471, 0.00189939747, 0.00065325934, 0.0007794026, 0.325333685 , -0.3873534  , -0.200417966, 1.4777267   , -1.56454325 , 2.75849748  , 2.68        , 3           , 15          , 0           , 6.229073E-05
-9.822453   , -0.0608235151, -0.0179669168, 0.00247060577, -0.0006099632, 0.000921352534, 0.324255079 , -0.387488216, -0.200148314, 1.4777267   , -1.56454325 , 2.75852227  , 2.69        , 3           , 50          , 0           , 0
-9.78790951 , -0.0557652935, -0.0321453  , 0.000213989551, -0.001047575, 0.00133397232, 0.324255079 , -0.387488216, -0.200148314, 1.4777267   , -1.56455278 , 2.75852656  , 2.7         , 3           , 11          , 0.0496844649, 0.0496844538
-9.788092   , -0.0599299669, -0.0009770785, -0.001206709, 0.00049147883, -0.0002241819, 0.3260078   , -0.387488216, -0.200485379, 1.4777267   , -1.56454325 , 2.75851464  , 2.71        , 3           , 12          , 0.04967611  , 0
-9.813951   , -0.09798016 , -0.00133256614, -0.00107070082, 0.00147791  , -0.000787079567, 0.325131446 , -0.387285978, -0.200215727, 1.4777267   , -1.56455278 , 2.75850415  , 2.72        , 3           , 14          , 0.000290427881, 0.000509454345
-9.793249   , -0.06938802 , 0.01159982  , -0.00106192881, -0.000211478662, -8.333949E-05, 0.324255079 , -0.387285978, -0.200215727, 1.4777267   , -1.56454325 , 2.75849319  , 2.73        , 3           , 15          , 0           , 6.22908E-05
-9.798417   , -0.0619682223, -0.0295394659, -0.000207226185, -0.00175435783, -0.000505581556, 0.324255079 , -0.387285978, -0.200215727, 1.4777267   , -1.56454325 , 2.7584908   , 2.74        , 3           , 50          , 0           , 0
-9.816578   , -0.0609031841, -0.0147584593, -0.0002124315, -0.00076888164, -0.00106913759, 0.3259404   , -0.387488216, -0.2006202  , 1.4777267   , -1.56453371 , 2.758489    , 2.75        , 3           , 11          , 0.0496844649, 0.0496844538
-9.774359   , -0.0532738045, -0.0153079629, 0.00133816525, -5.446057E-05, 0.000210608923, 0.325266272 , -0.3874208  , -0.200350553, 1.4777267   , -1.56453371 , 2.75850224  , 2.76        , 3           , 12          , 0.04967611  , 0
-9.789009   , -0.06394644 , -0.01094439 , 0.00317316083, 9.873638E-05, 7.81171839E-05, 0.324187666 , -0.387488216, -0.200485379, 1.4777267   , -1.56454325 , 2.75853372  , 2.77        , 3           , 14          , 0.000290427881, 0.000509454345
-9.817078   , -0.06406047 , -0.01341942 , 0.002601545 , 0.001361957 , -0.0007701763, 0.324187666 , -0.387488216, -0.200485379, 1.4777267   , -1.56454325 , 2.75856     , 2.78        , 3           , 15          , 0           , 6.22908E-05
-9.806653   , -0.05881729 , 0.0011455249, 0.00105860806, -0.000619500235, 0.000349692884, 0.325873    , -0.3873534  , -0.200417966, 1.4777267   , -1.56452417 , 2.758571    , 2.79        , 3           , 50          , 0           , 0
-9.807586   , -0.06373909 , -0.007921701, 0.00035947212, -0.0018913059, 0.0006269836, 0.325333685 , -0.387218565, -0.200417966, 1.4777267   , -1.56453371 , 2.75857663  , 2.8         , 3           , 11          , 0.05064166  , 0.05064165
-9.80147    , -0.080062516, -0.005682678, -0.00134115433, -0.000776507834, -0.000226794611, 0.324457318 , -0.387285978, -0.200148314, 1.4777267   , -1.56452417 , 2.75856328  , 2.81        , 3           , 12          , 0.05063265  , 0
-9.8064     , -0.07505347 , -0.00208373927, -0.00218208018, -0.00204928033, -9.142947E-05, 0.324457318 , -0.387285978, -0.200148314, 1.4777267   , -1.56456232 , 2.75854135  , 2.82        , 3           , 14          , 0.0002899328, 0.000509443169
-9.809544   , -0.08436798 , -0.0387570746, -0.00147137884, -0.00302998442, -0.0005134622, 0.325805575 , -0.387623042, -0.200417966, 1.4777267   , -1.56452417 , 2.75852656  , 2.83        , 3           , 15          , 0           , 6.229251E-05
-9.800686   , -0.0623912923, -0.0300105531, -0.0009092317, -0.002463034, -0.000368691661, 0.325333685 , -0.387285978, -0.20028314 , 1.4777267   , -1.56454325 , 2.7585175   , 2.84        , 3           , 50          , 0           , 0
-9.798686   , -0.07155881 , 0.00522146933, -7.441555E-05, 7.67821839E-05, -0.000219566718, 0.324255079 , -0.3873534  , -0.200417966, 1.4777267   , -1.56452417 , 2.75851655  , 2.85        , 3           , 11          , 0.05064166  , 0.05064165
-9.823914   , -0.0595523827, 0.0114061181, -0.0007820398, 0.000353571639, -0.0005049625, 0.324255079 , -0.3873534  , -0.200417966, 1.4777267   , -1.56452417 , 2.758509    , 2.86        , 3           , 12          , 0.05063265  , 0
-9.805482   , -0.0416509062, -0.008717999, -6.74083349E-05, -0.001190257, 0.00104989938, 0.325805575 , -0.387488216, -0.200417966, 1.4777267   , -1.56453371 , 2.758508    , 2.87        , 3           , 14          , 0.0002899328, 0.000509443169
-9.804711   , -0.0498064645, -0.00151418708, -0.000348522735, -0.00147373253, 0.000906879839, 0.325198859 , -0.387285978, -0.200215727, 1.4777267   , -1.56455278 , 2.75850463  , 2.88        , 3           , 15          , 0           , 6.229251E-05
-9.80903149 , -0.06602577 , 0.00606926344, -0.00246893358, -0.00120649626, -0.000515250664, 0.324255079 , -0.387285978, -0.200148314, 1.4777267   , -1.56455278 , 2.75847983  , 2.89        , 3           , 50          , 0           , 0
-9.816906   , -0.0482973866, -0.005217038, -0.00388646778, 5.100601E-05, -0.000519883353, 0.324255079 , -0.387285978, -0.200148314, 1.4777267   , -1.56452417 , 2.7584455   , 2.9         , 3           , 11          , 0.0516124964, 0.05161248
-9.796512   , -0.04718314 , -0.00505648 , -0.004453457, 0.0006103194, 0.000608500559, 0.325873    , -0.387488216, -0.200417966, 1.4777267   , -1.56453371 , 2.75840116  , 2.91        , 3           , 12          , 0.0516028   , 0
-9.787209   , -0.06620834 , -0.0154598448, -0.002471961, -0.000221004535, 0.00118149223, 0.325535923 , -0.387151152, -0.200350553, 1.4777267   , -1.56456232 , 2.75837636  , 2.92        , 3           , 14          , 0.000289059943, 0.000509434
-9.797411   , -0.0489529222, -0.012302435, -0.002603824, -0.00219291681, 0.000471452426, 0.3243225   , -0.3874208  , -0.2000809  , 1.4777267   , -1.564572   , 2.75835013  , 2.93        , 3           , 15          , 0           , 6.229315E-05
-9.795027   , -0.07246433 , -0.0065058805, -0.003304315, -0.0033239522, 0.000466424361, 0.3243225   , -0.3874208  , -0.2000809  , 1.4777267   , -1.56456232 , 2.75831723  , 2.94        , 3           , 50          , 0           , 0
-9.803094   , -0.06114279 , 0.0092988   , -0.00021282841, -0.000346511661, -0.000503414136, 0.325805575 , -0.3873534  , -0.200417966, 1.4777267   , -1.56456232 , 2.75831485  , 2.95        , 3           , 11          , 0.0516124964, 0.05161248
-9.798684   , -0.07200393 , 0.00341170817, 0.00034206704, 0.00148747675, -0.00205191574, 0.325131446 , -0.3873534  , -0.200215727, 1.4777267   , -1.56454325 , 2.75831819  , 2.96        , 3           , 12          , 0.0516028   , 0
-9.789407   , -0.0567544624, -0.00142595917, -0.000216105764, 0.00021661575, -0.00135015859, 0.323918    , -0.3873534  , -0.200215727, 1.4777267   , -1.56452417 , 2.75831628  , 2.97        , 3           , 14          , 0.000289059943, 0.000509434
-9.79544449 , -0.06484237 , 0.009341955 , 6.332555E-05, 0.0009224409, -0.000500144437, 0.323918    , -0.3873534  , -0.200215727, 1.4777267   , -1.56452417 , 2.75831723  , 2.98        , 3           , 15          , 0           , 6.229315E-05
-9.791812   , -0.06889385 , -0.006014513, 0.000759100833, 0.00303895515, -0.0002110602, 0.325873    , -0.387488216, -0.200417966, 1.4777267   , -1.56450522 , 2.75832486  , 2.99        , 3           , 50          , 0           , 0
-9.810217   , -0.0569429435, -0.00700967433, 0.00301829376, 0.003335806 , 8.244523E-05, 0.325266272 , -0.387218565, -0.200215727, 1.4777267   , -1.56452417 , 2.75836015  , 3           , 3           , 11          , 0.05259597  , 0.0525959544
-9.825451   , -0.0775356  , -0.00269169919, 0.0004933878, -0.0002009495, -0.0007824437, 0.324255079 , -0.387218565, -0.20028314 , 1.4777267   , -1.56451476 , 2.75836539  , 3.01        , 3           , 12          , 0.0525855348, 0
-9.797739   , -0.06394826 , 0.0197237451, -0.00246668071, -0.00134726556, -0.00108054478, 0.324255079 , -0.387218565, -0.20028314 , 1.4777267   , -1.56451476 , 2.7583406   , 3.02        , 3           , 14          , 0.000288050564, 0.000509428268
-9.806694   , -0.06554526 , -0.0106342621, 0.00020804719, 0.0005010558, 0.000206205281, 0.325805575 , -0.387285978, -0.200552791, 1.4777267   , -1.5644958  , 2.7583425   , 3.03        , 3           , 15          , 0           , 6.22945663E-05
-9.807926   , -0.05560851 , -0.009246549, 0.00175356457, 0.00206016772, -6.67023851E-05, 0.325333685 , -0.387285978, -0.20028314 , 1.4777267   , -1.56448638 , 2.75836015  , 3.04        , 3           , 50          , 0           , 0
-9.823582   , -0.0441074148, -0.0201661773, 0.000622218533, 0.00233409158, -0.000495342363, 0.3243225   , -0.387218565, -0.200350553, 1.4777267   , -1.56448638 , 2.75836682  , 3.05        , 3           , 11          , 0.05259597  , 0.0525959544
-9.828569   , -0.07477941 , -0.006319983, 0.000634683 , -0.000199994349, -0.000640516635, 0.3243225   , -0.387218565, -0.200350553, 1.4777267   , -1.56448638 , 2.75837255  , 3.06        , 3           , 12          , 0.0525855348, 0
-9.799879   , -0.0593572445, 0.00390698761, 0.0005006844, -0.0016087736, -0.000219538517, 0.325805575 , -0.387488216, -0.200485379, 1.4777267   , -1.56448638 , 2.75837779  , 3.07        , 3           , 14          , 0.000288050564, 0.000509428268
-9.803246   , -0.0443783626, -0.0105201425, -6.531857E-05, -0.00133102713, 0.000202067808, 0.3254011   , -0.387218565, -0.20028314 , 1.4777267   , -1.56450522 , 2.75837731  , 3.08        , 3           , 15          , 0           , 6.22945663E-05
-9.810668   , -0.050686527, 0.0124481143, 0.0007792182, -0.000902952743, -0.0009234804, 0.32405284  , -0.3873534  , -0.200215727, 1.4777267   , -1.56448638 , 2.758385    , 3.09        , 3           , 50          , 0           , 0
-9.824235   , -0.08346944 , 0.0131124388, 0.0014840893, -0.000335039571, 0.00035210434, 0.32405284  , -0.3873534  , -0.200215727, 1.4777267   , -1.56448638 , 2.758404    , 3.1         , 3           , 11          , 0.05359114  , 0.0535911173
-9.819243   , -0.0826271251, 0.0136060771, 6.95749841E-05, 0.000218542671, 0.00105273118, 0.3259404   , -0.3873534  , -0.200417966, 1.4777267   , -1.56450522 , 2.758405    , 3.11        , 3           , 12          , 0.05357991  , 0
-9.82109451 , -0.0492350049, 0.0196061488, 6.871487E-05, 0.0003593244, 0.0007704106, 0.3254685   , -0.387285978, -0.200148314, 1.4777267   , -1.56452417 , 2.758406    , 3.12        , 3           , 14          , 0.0002871929, 0.000509423669
-9.814358   , -0.05292999 , 0.021450283 , 0.00218429137, 0.0009367803, 0.001063693 , 0.324187666 , -0.3873534  , -0.20028314 , 1.4777267   , -1.56450522 , 2.75842786  , 3.13        , 3           , 15          , 0           , 6.228872E-05
-9.800475   , -0.03856341 , -0.005051039, -7.421868E-05, 0.0006399331, 0.00020511121, 0.324187666 , -0.3873534  , -0.20028314 , 1.4777267   , -1.56450522 , 2.758427    , 3.14        , 3           , 50          , 0           , 0
-9.81699848 , -0.0541759655, -0.00117426552, -0.00176623662, 6.534182E-05, -0.0002274644, 0.325805575 , -0.3873534  , -0.200417966, 1.4777267   , -1.56450522 , 2.75840878  , 3.15        , 3           , 11          , 0.05359114  , 0.0535911173
-9.798947   , -0.06247152 , -0.0123702148, -0.00149147667, 0.0016158598, -0.000223760842, 0.325266272 , -0.387083739, -0.200148314, 1.4777267   , -1.56450522 , 2.75839448  , 3.16        , 3           , 12          , 0.05357991  , 0
-9.806583   , -0.0618861467, -0.0255337134, -0.00192040391, 0.00259847078, -0.00093056116, 0.324187666 , -0.387623042, -0.200350553, 1.4777267   , -1.56450522 , 2.75837541  , 3.17        , 3           , 14          , 0.0002871929, 0.000509423669
-9.818263   , -0.053191185, -0.021067135, -0.002199264, 0.00189264864, -0.0007916942, 0.324187666 , -0.387623042, -0.200350553, 1.4777267   , -1.56448638 , 2.75835347  , 3.18        , 3           , 15          , 0           , 6.228872E-05
-9.807453   , -0.060060326, -0.0286966767, -0.00120470475, 0.00077307527, 5.87916729E-05, 0.3259404   , -0.3873534  , -0.2006876  , 1.4777267   , -1.5644958  , 2.758341    , 3.19        , 3           , 50          , 0           , 0
-9.80323    , -0.07196588 , 0.007896934 , 0.00105573516, 0.0006475825, -0.000495959364, 0.325198859 , -0.387285978, -0.200350553, 1.4777267   , -1.56448638 , 2.75835538  , 3.2         , 3           , 11          , 0.0545971133, 0.0545970872
-9.817675   , -0.0628317147, 0.0254517216, 0.0007666274, 0.0019127134, -0.00120166712, 0.324120253 , -0.3873534  , -0.200148314, 1.4777267   , -1.56448638 , 2.758363    , 3.21        , 3           , 12          , 0.0545850471, 0
-9.807195   , -0.0669190958, -0.00296007469, 0.0003461458, 0.00120593433, -0.0017698023, 0.324120253 , -0.3873534  , -0.200148314, 1.4777267   , -1.56444871 , 2.75836682  , 3.22        , 3           , 14          , 0.000286538329, 0.000509412
-9.816582   , -0.05688819 , -0.00118231587, 0.000638367841, -0.0006223252, -0.0004998875, 0.325603336 , -0.387488216, -0.200417966, 1.4777267   , -1.5644393  , 2.758373    , 3.23        , 3           , 15          , 0           , 6.22832958E-05
-9.797846   , -0.0453625843, -0.005059134, -7.184406E-05, 0.000358381163, 0.0007697576, 0.325333685 , -0.387151152, -0.20028314 , 1.4777267   , -1.56446743 , 2.75837255  , 3.24        , 3           , 50          , 0           , 0
-9.817714   , -0.0415134467, -0.00700303027, -0.001624287, 6.63089158E-05, -8.553191E-05, 0.32405284  , -0.387488216, -0.200013489, 1.4777267   , -1.56446743 , 2.75835633  , 3.25        , 3           , 11          , 0.0545971133, 0.0545970872
-9.79968548 , -0.0498271249, -0.0127754277, -0.00247234618, 0.000201361268, -0.000230534351, 0.32405284  , -0.387488216, -0.200013489, 1.4777267   , -1.56446743 , 2.75833154  , 3.26        , 3           , 12          , 0.0545850471, 0
-9.807408   , -0.0444015674, 0.0106911641, -0.00134657591, 0.00105369743, 0.000199841277, 0.325738162 , -0.387285978, -0.200485379, 1.4777267   , -1.56446743 , 2.75831819  , 3.27        , 3           , 14          , 0.000286538329, 0.000509412
-9.804286   , -0.0778791755, 0.0254917145, -7.262264E-05, 0.00049916323, 0.0006287057, 0.325131446 , -0.3874208  , -0.20028314 , 1.4777267   , -1.56446743 , 2.75831723  , 3.28        , 3           , 15          , 0           , 6.22832958E-05
-9.810245   , -0.06008891 , -0.0106387883, 0.00190288923, 0.000794097665, 0.0004970895, 0.324187666 , -0.387285978, -0.2000809  , 1.4777267   , -1.56447685 , 2.75833631  , 3.29        , 3           , 50          , 0           , 0
-9.810379   , -0.03482971 , -0.00737120956, 0.000922622567, -0.000901983934, -0.00064026675, 0.324187666 , -0.387285978, -0.2000809  , 1.4777267   , -1.56446743 , 2.75834823  , 3.3         , 3           , 11          , 0.0556130633, 0.0556130372
-9.8173     , -0.07316665 , 0.0114002489, -0.000910037255, -0.00147752732, -8.461973E-05, 0.325670749 , -0.387488216, -0.200485379, 1.4777267   , -1.56446743 , 2.75833917  , 3.31        , 3           , 12          , 0.0556001142, 0
-9.815446   , -0.0415369943, -0.007889748, 0.0003504284, 0.000642805651, -7.54390858E-05, 0.325603336 , -0.387218565, -0.20028314 , 1.4777267   , -1.564458   , 2.758343    , 3.32        , 3           , 14          , 0.0002860226, 0.000509415229
-9.829083   , -0.0449912734, -0.00665240362, 0.002185016 , 0.0007960007, -0.0009142743, 0.323985428 , -0.3874208  , -0.200215727, 1.4777267   , -1.56442988 , 2.758365    , 3.33        , 3           , 15          , 0           , 6.227683E-05
-9.818942   , -0.059618406, 0.0137037793, -0.001346283, 0.0009833003, -0.0007891418, 0.323985428 , -0.3874208  , -0.200215727, 1.4777267   , -1.56442988 , 2.75835156  , 3.34        , 3           , 50          , 0           , 0
-9.804212   , -0.0470942855, -0.004662998, 0.000147547 , -0.00118880055, -0.0002911503, 0.325738162 , -0.3873534  , -0.200417966, 1.4777267   , -1.56444871 , 2.75835252  , 3.35        , 3           , 11          , 0.0556130633, 0.0556130372
-9.814377   , -0.0569631457, 0.0132977059, 0.0009915686, -0.0005495497, -0.000498126261, 0.325333685 , -0.387285978, -0.20028314 , 1.4777267   , -1.5644393  , 2.758363    , 3.36        , 3           , 12          , 0.0556001142, 0
-9.8323555  , -0.0584281236, -0.0248124748, 0.000284760055, -0.0002727564, 0.0006291651, 0.324120253 , -0.387151152, -0.200013489, 1.4777267   , -1.56442988 , 2.75836587  , 3.37        , 3           , 14          , 0.0002860226, 0.000509415229
-9.82881451 , -0.0313841626, -0.0282891616, -0.00055847934, -0.00119357521, -0.000223808325, 0.324120253 , -0.387151152, -0.200013489, 1.4777267   , -1.56444871 , 2.75836015  , 3.38        , 3           , 15          , 0           , 6.227683E-05
-9.785905   , -0.0649298057, 0.0021827966, 0.00135058607, -0.00167342066, 0.00020812772, 0.3259404   , -0.387488216, -0.200417966, 1.4777267   , -1.56444871 , 2.7583735   , 3.39        , 3           , 50          , 0           , 0
-9.79228    , -0.06845552 , -0.0005924776, 0.000145787941, -0.000696055766, -0.000149108411, 0.3254011   , -0.387083739, -0.200148314, 1.4777267   , -1.564458   , 2.75837827  , 3.4         , 3           , 11          , 0.05663822  , 0.05663819
-9.79393    , -0.0562516637, -0.00100647658, 0.0005723569, -0.00118592742, 0.000699719938, 0.324187666 , -0.387555629, -0.20028314 , 1.4777267   , -1.56446743 , 2.758384    , 3.41        , 3           , 12          , 0.05662433  , 0
-9.812983   , -0.0658766255, -0.0242432375, 0.00197348744, 0.000864965 , -0.0008445055, 0.324187666 , -0.387555629, -0.20028314 , 1.4777267   , -1.564458   , 2.75840354  , 3.42        , 3           , 14          , 0.0002854238, 0.0005094098
-9.814308   , -0.0560154878, -0.00025735423, -0.000212947678, 0.0005686023, 0.00084007933, 0.3260078   , -0.3874208  , -0.200350553, 1.4777267   , -1.5644393  , 2.75840116  , 3.43        , 3           , 15          , 0           , 6.226301E-05
-9.830173   , -0.05539643 , 0.005047707 , -0.000207431, -0.000628051232, 0.000131891444, 0.325198859 , -0.387218565, -0.20028314 , 1.4777267   , -1.564458   , 2.75839925  , 3.44        , 3           , 50          , 0           , 0
-9.829631   , -0.0508660451, -0.002161108, -0.0009911156, 0.0007745215, 5.98050028E-05, 0.324187666 , -0.3873534  , -0.200148314, 1.4777267   , -1.56446743 , 2.75838971  , 3.45        , 3           , 11          , 0.05663822  , 0.05663819
-9.826305   , -0.04274172 , -0.0143055506, -0.0009262295, 0.001971652 , 0.000415150222, 0.324187666 , -0.3873534  , -0.200148314, 1.4777267   , -1.56446743 , 2.75838017  , 3.46        , 3           , 12          , 0.05662433  , 0
-9.810599   , -0.05598696 , -0.0214721113, -0.0003502016, -0.0003474417, -0.000150870648, 0.325738162 , -0.3874208  , -0.200215727, 1.4777267   , -1.56446743 , 2.75837636  , 3.47        , 3           , 14          , 0.0002854238, 0.0005094098
-9.8148     , -0.0622900054, -0.011134739, 0.000639704638, -0.000551929, 0.000489122467, 0.325333685 , -0.387218565, -0.200485379, 1.4777267   , -1.56446743 , 2.758383    , 3.48        , 3           , 15          , 0           , 6.226301E-05
-9.818284   , -0.08705704 , -0.0139759621, 0.00154890155, 0.00114366738, -6.906879E-05, 0.324255079 , -0.3874208  , -0.20028314 , 1.4777267   , -1.56446743 , 2.75839877  , 3.49        , 3           , 50          , 0           , 0
-9.829474   , -0.07387554 , -0.00361126079, -0.00077950937, 0.0007759621, -0.0014225262, 0.324255079 , -0.3874208  , -0.20028314 , 1.4777267   , -1.5644393  , 2.75839448  , 3.5         , 3           , 11          , 0.05767186  , 0.0576718263
-9.819038   , -0.06817667 , 0.009599714 , -0.000139911353, 7.63500357E-05, -0.000290498079, 0.3259404   , -0.38782528 , -0.200417966, 1.4777267   , -1.56442988 , 2.758393    , 3.51        , 3           , 12          , 0.05765698  , 0
-9.799855   , -0.062909   , -0.0132829482, -0.00111315283, -0.00302755088, -0.0004411492, 0.3254685   , -0.387218565, -0.200350553, 1.4777267   , -1.5644393  , 2.758382    , 3.52        , 3           , 14          , 0.000284781156, 0.0005093976
-9.821584   , -0.06175761 , -0.0116363866, -0.000345313922, -0.00126251741, -0.0006467186, 0.324255079 , -0.387218565, -0.200013489, 1.4777267   , -1.56444871 , 2.75837827  , 3.53        , 3           , 15          , 0           , 6.22601656E-05
-9.803152   , -0.0683309659, 0.000228885561, -0.000571752549, 0.00176287652, -7.33235765E-06, 0.324255079 , -0.387218565, -0.200013489, 1.4777267   , -1.56444871 , 2.75837255  , 3.54        , 3           , 50          , 0           , 0
-9.78901    , -0.0617163926, -0.003251439, -0.00141138444, 0.000138145479, -0.000649487542, 0.325873    , -0.387555629, -0.2006202  , 1.4777267   , -1.56441116 , 2.75835872  , 3.55        , 3           , 11          , 0.05767186  , 0.0576718263
-9.812893   , -0.0577695221, -0.0201410782, -0.0016154747, -0.00148228765, -0.00114741083, 0.3254685   , -0.387083739, -0.200215727, 1.4777267   , -1.56440187 , 2.7583425   , 3.56        , 3           , 12          , 0.05765698  , 0
-9.811031   , -0.0826714039, -0.00169874914, -0.0026953  , 0.002663634 , -0.00142848643, 0.324255079 , -0.387151152, -0.20028314 , 1.4777267   , -1.56439257 , 2.75831532  , 3.57        , 3           , 14          , 0.000284781156, 0.0005093976
-9.811376   , -0.0830250159, -0.0292738676, -0.00155407726, 0.000559541048, 0.000410020322, 0.324255079 , -0.387151152, -0.20028314 , 1.4777267   , -1.56438327 , 2.7583      , 3.58        , 3           , 15          , 0           , 6.22601656E-05
-9.819402   , -0.06854541 , -0.0134557746, 0.00231892173, 0.00255675544, -0.0006283497, 0.325805575 , -0.3874208  , -0.200350553, 1.4777267   , -1.56438327 , 2.758323    , 3.59        , 3           , 50          , 0           , 0
-9.828252   , -0.04952551 , -0.0030489713, 0.00281254342, 0.00277128583, -0.0009789001, 0.3254011   , -0.387218565, -0.200350553, 1.4777267   , -1.564374   , 2.75835538  , 3.6         , 3           , 11          , 0.0587133057, 0.0587132759
-9.811746   , -0.06599085 , 0.005144693 , 0.0009211886, -0.000268431, -0.000921819941, 0.324457318 , -0.387285978, -0.200148314, 1.4777267   , -1.56435549 , 2.758364    , 3.61        , 3           , 12          , 0.0586973727, 0
-9.808559   , -0.06690768 , -0.00161449611, -0.00176569982, 0.000487728015, -0.0009331375, 0.324457318 , -0.387285978, -0.200148314, 1.4777267   , -1.56434619 , 2.7583468   , 3.62        , 3           , 14          , 0.00028415717, 0.0005093831
-9.807246   , -0.0415918529, -0.0200308375, 6.23037558E-05, 0.00211914326, -0.000498276029, 0.325670749 , -0.3873534  , -0.200485379, 1.4777267   , -1.56436467 , 2.75834727  , 3.63        , 3           , 15          , 0           , 6.226891E-05
-9.804686   , -0.050231915, -0.009199476, 0.00112336955, 0.00184474338, 0.0004951096, 0.3254685   , -0.387151152, -0.200485379, 1.4777267   , -1.564374   , 2.75835872  , 3.64        , 3           , 50          , 0           , 0
-9.810817   , -0.06241192 , 0.0110424217, -0.0021794783, -0.00155648484, -0.00136206509, 0.324187666 , -0.387218565, -0.200350553, 1.4777267   , -1.564337   , 2.75833678  , 3.65        , 3           , 11          , 0.0587133057, 0.0587132759
-9.818846   , -0.0559698865, 0.00196805969, -0.002262238, 0.000765946461, -0.00248896447, 0.324187666 , -0.387218565, -0.200350553, 1.4777267   , -1.56430936 , 2.75831437  , 3.66        , 3           , 12          , 0.0586973727, 0
-9.812907   , -0.05644327 , -0.012000001, -0.002756737, 0.00104417454, -0.0005130728, 0.3259404   , -0.387488216, -0.200552791, 1.4777267   , -1.56431854 , 2.75828671  , 3.67        , 3           , 14          , 0.00028415717, 0.0005093831
-9.777791   , -0.0677323937, 0.00223322771, -0.00324806967, 0.0003369166, -0.00150534348, 0.3254685   , -0.387151152, -0.200215727, 1.4777267   , -1.56430018 , 2.75825429  , 3.68        , 3           , 15          , 0           , 6.226891E-05
-9.810105   , -0.05417406 , -0.0255286731, -0.00247164816, 0.000623739557, 0.000476474466, 0.324255079 , -0.387285978, -0.200215727, 1.4777267   , -1.56430936 , 2.75822949  , 3.69        , 3           , 50          , 0           , 0
-9.806393   , -0.07593915 , -0.007059179, 0.000770302257, 0.00184236059, -0.000142239514, 0.324255079 , -0.387285978, -0.200215727, 1.4777267   , -1.564291   , 2.758239    , 3.7         , 3           , 11          , 0.0597619377, 0.0597619042
-9.807516   , -0.06412826 , -0.0264541041, 0.00155238912, 0.0007213517, -0.0004228911, 0.325805575 , -0.387285978, -0.200552791, 1.4777267   , -1.56430936 , 2.75825477  , 3.71        , 3           , 12          , 0.0597448871, 0
-9.811156   , -0.0587444752, -0.00476440042, 0.002115419 , 0.00107712753, -0.00056098355, 0.325535923 , -0.387218565, -0.200417966, 1.4777267   , -1.56430018 , 2.75827622  , 3.72        , 3           , 14          , 0.00028382364, 0.0005093768
-9.821658   , -0.05780006 , 0.0191143416, 0.000629152055, 0.0017710129, -0.000637447, 0.3243225   , -0.387690455, -0.200215727, 1.4777267   , -1.56430018 , 2.758282    , 3.73        , 3           , 15          , 0           , 6.2262654E-05
-9.81452    , -0.07136219 , 0.00193732057, -0.000564907561, 0.0004254595, -0.00128081464, 0.3243225   , -0.387690455, -0.200215727, 1.4777267   , -1.56426358 , 2.7582767   , 3.74        , 3           , 50          , 0           , 0
-9.8148     , -0.0618433952, -0.009776936, -0.000136803515, -0.00027558353, 0.000415300747, 0.325805575 , -0.387488216, -0.200485379, 1.4777267   , -1.56428182 , 2.75827527  , 3.75        , 3           , 11          , 0.0597619377, 0.0597619042
-9.819662   , -0.0500837043, -0.0011776723, 0.00113286427, 8.496993E-05, 0.00126938184, 0.3254011   , -0.3873534  , -0.20028314 , 1.4777267   , -1.56430018 , 2.75828671  , 3.76        , 3           , 12          , 0.0597448871, 0
-9.818912   , -0.06628892 , -0.0152506158, 0.000431924447, -0.00104606745, 0.000487375626, 0.3243225   , -0.387285978, -0.200350553, 1.4777267   , -1.56430018 , 2.758291    , 3.77        , 3           , 14          , 0.00028382364, 0.0005093768
-9.803376   , -0.08592134 , -0.00120171532, 0.00112909719, 0.0006480954, -0.000424975064, 0.3243225   , -0.387285978, -0.200350553, 1.4777267   , -1.56430018 , 2.758302    , 3.78        , 3           , 15          , 0           , 6.2262654E-05
-9.800072   , -0.08093843 , -0.0183311626, 0.0025466   , -0.000327830174, 0.000427703228, 0.325873    , -0.387488216, -0.200552791, 1.4777267   , -1.56430936 , 2.75832772  , 3.79        , 3           , 50          , 0           , 0
-9.789026   , -0.05681874 , 0.0162040535, -0.0004937988, 0.000566728355, 0.000556218147, 0.3254011   , -0.387151152, -0.200350553, 1.4777267   , -1.564291   , 2.758324    , 3.8         , 3           , 11          , 0.0608171672, 0.0608171262
-9.824342   , -0.05684922 , 0.0141259478, -0.000566763571, 0.00105899014, 0.0006979171, 0.324255079 , -0.387285978, -0.200148314, 1.4777267   , -1.56430018 , 2.75831819  , 3.81        , 3           , 12          , 0.06079893  , 0
-9.814801   , -0.06050506 , -0.005251549, 0.000415620481, 0.002332719 , 0.0009870164, 0.324255079 , -0.387285978, -0.200148314, 1.4777267   , -1.56430018 , 2.758322    , 3.82        , 3           , 14          , 0.000283685047, 0.000509372971
-9.826518   , -0.0616613366, -0.0229733083, -0.0027442344, -0.00127872452, 0.000401593337, 0.3259404   , -0.387151152, -0.200417966, 1.4777267   , -1.56432772 , 2.75829434  , 3.83        , 3           , 15          , 0           , 6.22696E-05
-9.83974    , -0.06559777 , -0.0140510565, -0.00261140335, 0.0003412278, -0.0002309622, 0.325198859 , -0.387151152, -0.200148314, 1.4777267   , -1.56431854 , 2.75826859  , 3.84        , 3           , 50          , 0           , 0
-9.81716    , -0.0681435  , -0.00665720971, -0.000280069478, 7.54195062E-05, -0.000361800136, 0.324187666 , -0.387555629, -0.200148314, 1.4777267   , -1.56430018 , 2.75826573  , 3.85        , 3           , 11          , 0.0608171672, 0.0608171262
-9.805351   , -0.0722695142, -0.0282792374, -0.0007048776, 0.0002837277, -0.0005753532, 0.324187666 , -0.387555629, -0.200148314, 1.4777267   , -1.56430018 , 2.758259    , 3.86        , 3           , 12          , 0.06079893  , 0
-9.815887   , -0.03973615 , -0.00517375953, 0.00105582259, 0.001140359 , -0.00106026116, 0.325670749 , -0.3873534  , -0.200417966, 1.4777267   , -1.56430018 , 2.75826955  , 3.87        , 3           , 14          , 0.000283685047, 0.000509372971
-9.824764   , -0.06396104 , -0.01618968 , -0.0005726508, 0.002396428 , 0.00197139685, 0.325603336 , -0.3873534  , -0.200215727, 1.4777267   , -1.56431854 , 2.75826383  , 3.88        , 3           , 15          , 0           , 6.22696E-05
-9.819307   , -0.06222021 , -0.01614074 , -0.003242989, -0.00043737347, -0.000164484343, 0.324255079 , -0.387218565, -0.200215727, 1.4777267   , -1.56430018 , 2.7582314   , 3.89        , 3           , 50          , 0           , 0
-9.812948   , -0.0569216348, -0.00386657566, -0.001971406, -0.000851125, -0.002490141, 0.324255079 , -0.387218565, -0.200215727, 1.4777267   , -1.56427264 , 2.758211    , 3.9         , 3           , 11          , 0.06187843  , 0.0618783943
-9.82354    , -0.07435195 , -0.0166753829, 0.000133259367, 0.00211963849, -0.0005685799, 0.3260078   , -0.387690455, -0.200552791, 1.4777267   , -1.56426358 , 2.75821233  , 3.91        , 3           , 12          , 0.0618589446, 0
-9.822955   , -0.06398381 , -0.0157239456, -0.000417846837, -0.0003478685, 0.00210909545, 0.3254685   , -0.387083739, -0.20028314 , 1.4777267   , -1.56430936 , 2.75820851  , 3.92        , 3           , 14          , 0.000283767527, 0.0005093652
-9.79633    , -0.06615495 , 0.000290069729, 0.000286110619, 8.860911E-06, 0.00147722079, 0.3243225   , -0.387488216, -0.200148314, 1.4777267   , -1.56431854 , 2.75821137  , 3.93        , 3           , 15          , 0           , 6.226754E-05
-9.827473   , -0.0585652031, -0.001272548, 0.00063940743, 8.164265E-05, 0.00253849081, 0.3243225   , -0.387488216, -0.200148314, 1.4777267   , -1.564337   , 2.75821757  , 3.94        , 3           , 50          , 0           , 0
-9.83871    , -0.0859654248, 0.0007878449, 0.0019092866, 0.000160625379, 0.00134374131, 0.325873    , -0.3873534  , -0.2006202  , 1.4777267   , -1.56435549 , 2.75823617  , 3.95        , 3           , 11          , 0.06187843  , 0.0618783943
-9.811438   , -0.07504035 , 0.01143731  , 3.46503839E-06, -0.000204228883, -0.000714087, 0.3254685   , -0.387083739, -0.200148314, 1.4777267   , -1.56434619 , 2.75823617  , 3.96        , 3           , 12          , 0.0618589446, 0
-9.816783   , -0.0388247147, -0.00472484156, -0.00246686861, -0.000361722632, -0.000372655166, 0.324255079 , -0.387488216, -0.200417966, 1.4777267   , -1.56435549 , 2.75821185  , 3.97        , 3           , 14          , 0.000283767527, 0.0005093652
-9.806809   , -0.0433957241, -0.0218429118, -0.0004917422, -0.000137182942, -0.00177579862, 0.324255079 , -0.387488216, -0.200417966, 1.4777267   , -1.564337   , 2.75820661  , 3.98        , 3           , 15          , 0           , 6.226754E-05
-9.804021   , -0.06918333 , -0.0115328692, -0.001968462, -0.00113268278, 0.000193530854, 0.325670749 , -0.3874208  , -0.200552791, 1.4777267   , -1.564337   , 2.758187    , 3.99        , 3           , 50          , 0           , 0
-9.813512   , -0.0659333  , -0.005716184, -0.001474541, -0.00105894636, 0.000407849642, 0.325535923 , -0.387218565, -0.20028314 , 1.4777267   , -1.564337   , 2.7581718   , 4           , 3           , 11          , 0.0629452243, 0.06294518
-9.8004     , -0.0638709962, 0.006144209 , -0.000838487351, -0.00112503883, 0.000834510545, 0.32405284  , -0.387218565, -0.200350553, 1.4777267   , -1.564337   , 2.75816369  , 4.01        , 3           , 12          , 0.06292442  , 0
-9.813045   , -0.0623566173, 0.00243792124, -0.00204976462, 0.0009081865, -0.00065126206, 0.32405284  , -0.387218565, -0.200350553, 1.4777267   , -1.564337   , 2.75814271  , 4.02        , 3           , 14          , 0.000283867266, 0.000509363133
-9.82279    , -0.04688844 , -0.00118833408, -0.0007752809, 0.000353654934, 0.000695849245, 0.325535923 , -0.387488216, -0.200485379, 1.4777267   , -1.56432772 , 2.758135    , 4.03        , 3           , 15          , 0           , 6.22650041E-05
-9.796043   , -0.0489613153, -0.0145519255, -0.001270262, 0.0003503089, -0.000577874, 0.3254685   , -0.387218565, -0.200350553, 1.4777267   , -1.56435549 , 2.75812268  , 4.04        , 3           , 50          , 0           , 0
-9.80125    , -0.0606917366, 0.00298699178, 0.0005007265, -0.000764012861, -0.0001475728, 0.3243225   , -0.387218565, -0.2000809  , 1.4777267   , -1.56431854 , 2.75812745  , 4.05        , 3           , 11          , 0.0629452243, 0.06294518
-9.816703   , -0.06859243 , -0.008915499, 0.00396440737, -0.00137413316, 0.00128027075, 0.3243225   , -0.387218565, -0.2000809  , 1.4777267   , -1.564337   , 2.758167    , 4.06        , 3           , 12          , 0.06292442  , 0
-9.811781   , -0.04065152 , -0.0155417742, 0.00127390784, 0.000226723918, 0.00225913641, 0.325603336 , -0.387285978, -0.200350553, 1.4777267   , -1.56435549 , 2.75818     , 4.07        , 3           , 14          , 0.000283867266, 0.000509363133
-9.811415   , -0.0812703  , -0.0143514108, 0.001342405 , 0.00057915604, 0.0016242984, 0.3254685   , -0.387151152, -0.20028314 , 1.4777267   , -1.56439257 , 2.75819325  , 4.08        , 3           , 15          , 0           , 6.22650041E-05
-9.804199   , -0.0769164  , 0.00741701759, 6.26380643E-05, 0.00197837781, -0.00162863906, 0.32405284  , -0.387488216, -0.20028314 , 1.4777267   , -1.564374   , 2.75819421  , 4.09        , 3           , 50          , 0           , 0
-9.821652   , -0.0301959  , -0.00427432731, 0.0005487695, 0.00353032444, -0.002400927, 0.32405284  , -0.387488216, -0.20028314 , 1.4777267   , -1.56434619 , 2.75819945  , 4.1         , 3           , 11          , 0.06401706  , 0.06401702
-9.82243    , -0.0265110414, -0.0237002932, 0.001542936 , 0.00262192846, -0.000419965916, 0.325603336 , -0.3873534  , -0.200417966, 1.4777267   , -1.56434619 , 2.75821519  , 4.11        , 3           , 12          , 0.06399488  , 0
-9.823128   , -0.07260406 , -0.00129753537, 0.0007027294, 0.00113798073, -0.000850000943, 0.3254685   , -0.3873534  , -0.200215727, 1.4777267   , -1.56432772 , 2.75822186  , 4.12        , 3           , 14          , 0.0002838671, 0.0005093645
-9.825267   , -0.0662281141, -0.0112311  , -0.0004815314, -0.002178528, -0.00142577162, 0.32405284  , -0.387285978, -0.200148314, 1.4777267   , -1.56431854 , 2.758217    , 4.13        , 3           , 15          , 0           , 6.226629E-05
-9.815641   , -0.0586565472, -0.0151939578, 7.70270053E-05, -0.000837272557, -0.0008560015, 0.32405284  , -0.387285978, -0.200148314, 1.4777267   , -1.56430018 , 2.758218    , 4.14        , 3           , 50          , 0           , 0
-9.834752   , -0.06029535 , 0.00182848808, -0.000277504325, -0.000487702346, -0.000433299079, 0.325738162 , -0.3873534  , -0.200350553, 1.4777267   , -1.56428182 , 2.75821519  , 4.15        , 3           , 11          , 0.06401706  , 0.06401702
-9.832105   , -0.06127489 , 0.0154042011, -0.00111390336, -0.00253477553, 0.00090165704, 0.3254685   , -0.387285978, -0.200215727, 1.4777267   , -1.56431854 , 2.75820374  , 4.16        , 3           , 12          , 0.06399488  , 0
-9.815775   , -0.0654601157, -0.00437557325, 0.000358938531, -0.0006241862, 6.38876663E-05, 0.324187666 , -0.3873534  , -0.200013489, 1.4777267   , -1.56430018 , 2.75820756  , 4.17        , 3           , 14          , 0.0002838671, 0.0005093645
-9.811848   , -0.0727686957, 0.0082797   , -0.000773349253, -0.000209480713, -0.0007883417, 0.324187666 , -0.3873534  , -0.200013489, 1.4777267   , -1.56430018 , 2.7582      , 4.18        , 3           , 15          , 0           , 6.226629E-05
-9.807615   , -0.06420839 , -0.002500059, -0.000707599334, 0.0007060816, -0.001351677, 0.325805575 , -0.387488216, -0.200417966, 1.4777267   , -1.56430018 , 2.75819278  , 4.19        , 3           , 50          , 0           , 0
-9.826033   , -0.0585161522, -0.02069665 , -0.0004932418, 0.000214768181, -0.00106890919, 0.325535923 , -0.387488216, -0.20028314 , 1.4777267   , -1.56428182 , 2.75818753  , 4.2         , 3           , 11          , 0.0650935   , 0.06509346
-9.816624   , -0.0662958249, -0.0211089365, 0.000346227 , 0.00183949852, -0.0007092913, 0.324120253 , -0.3873534  , -0.200350553, 1.4777267   , -1.56427264 , 2.75819087  , 4.21        , 3           , 12          , 0.06506985  , 0
-9.790609   , -0.0476852544, -0.0104372241, -0.000215571665, 0.00120215665, -0.000854170357, 0.324120253 , -0.3873534  , -0.200350553, 1.4777267   , -1.56426358 , 2.75818849  , 4.22        , 3           , 14          , 0.0002839324, 0.0005093724
-9.830923   , -0.05035057 , -0.0166323334, 0.000774661 , 0.0009976709, 0.0003508977, 0.325738162 , -0.3874208  , -0.200417966, 1.4777267   , -1.56426358 , 2.75819659  , 4.23        , 3           , 15          , 0           , 6.226411E-05
-9.804744   , -0.0516171046, 0.0002860017, 0.0018401203, -0.000402995, -0.0007058489, 0.3254011   , -0.3869489  , -0.20028314 , 1.4777267   , -1.5642544  , 2.75821519  , 4.24        , 3           , 50          , 0           , 0
-9.816819   , -0.043318104, -0.0101675559, -0.000275193044, -0.0009100565, 6.049263E-05, 0.32405284  , -0.387555629, -0.200350553, 1.4777267   , -1.5642544  , 2.75821233  , 4.25        , 3           , 11          , 0.0650935   , 0.06509346
-9.831156   , -0.06392895 , -0.00358288 , -0.00085302646, 0.00183138589, 0.00112160516, 0.32405284  , -0.387555629, -0.200350553, 1.4777267   , -1.56427264 , 2.75820374  , 4.26        , 3           , 12          , 0.06506985  , 0
-9.806623   , -0.0917490944, -0.0012506973, 0.00112755  , 0.00107045064, 0.0007058241, 0.325873    , -0.3874208  , -0.200485379, 1.4777267   , -1.56427264 , 2.75821519  , 4.27        , 3           , 14          , 0.0002839324, 0.0005093724
-9.814041   , -0.070008   , 0.000138662755, -0.000140026576, 0.000287549454, -0.000148907653, 0.3254011   , -0.387285978, -0.200350553, 1.4777267   , -1.56428182 , 2.75821376  , 4.28        , 3           , 15          , 0           , 6.226411E-05
-9.820647   , -0.0550478362, 0.00241008215, -0.0012014258, 0.0008435195, 0.000694634044, 0.324120253 , -0.387083739, -0.200350553, 1.4777267   , -1.56428182 , 2.75820184  , 4.29        , 3           , 50          , 0           , 0
-9.786833   , -0.0689538345, -0.00552470051, -0.00133752334, -0.000213310341, 0.00104552275, 0.324120253 , -0.387083739, -0.200350553, 1.4777267   , -1.56428182 , 2.75818658  , 4.3         , 3           , 11          , 0.06617411  , 0.06617407
-9.795383   , -0.0612225756, 0.00619353773, -0.0007037203, 2.15793534E-06, -1.07042188E-05, 0.3254011   , -0.3873534  , -0.200417966, 1.4777267   , -1.564291   , 2.758179    , 4.31        , 3           , 12          , 0.0661489144, 0
-9.814937   , -0.06820335 , 0.00330317975, -6.323636E-05, -0.00104941463, -0.000362540159, 0.3254011   , -0.3869489  , -0.200148314, 1.4777267   , -1.564291   , 2.758179    , 4.32        , 3           , 14          , 0.000284248032, 0.000509379257
-9.816064   , -0.0577338152, -0.0197132  , -0.0009832146, -0.000633274438, -0.000366169319, 0.324120253 , -0.3873534  , -0.200148314, 1.4777267   , -1.56428182 , 2.75816846  , 4.33        , 3           , 15          , 0           , 6.226159E-05
-9.83445    , -0.07336592 , -0.00364718656, 0.0007720728, 0.001349618 , -0.0005668041, 0.324120253 , -0.3873534  , -0.200148314, 1.4777267   , -1.56426358 , 2.75817657  , 4.34        , 3           , 50          , 0           , 0
-9.806418   , -0.07685354 , -0.00344730378, 0.00106280425, -0.000408255815, -0.00127454288, 0.325603336 , -0.3873534  , -0.200552791, 1.4777267   , -1.56427264 , 2.75818753  , 4.35        , 3           , 11          , 0.06617411  , 0.06617407
-9.785286   , -0.0531946048, -0.000927701651, -0.00183888117, 0.00112077931, 0.000197666814, 0.3254011   , -0.387218565, -0.20028314 , 1.4777267   , -1.56426358 , 2.758169    , 4.36        , 3           , 12          , 0.0661489144, 0
-9.810698   , -0.0578520373, -0.00340124569, -0.002977012, 0.00273213652, -0.000511449471, 0.324187666 , -0.387285978, -0.2000809  , 1.4777267   , -1.5642544  , 2.758139    , 4.37        , 3           , 14          , 0.000284248032, 0.000509379257
-9.825634   , -0.0581186973, -0.00622846233, -0.000911747746, -0.00077357894, -8.35197352E-05, 0.324187666 , -0.387285978, -0.2000809  , 1.4777267   , -1.5642544  , 2.75813031  , 4.38        , 3           , 15          , 0           , 6.226159E-05
-9.795057   , -0.0738283843, -0.00334788323, -0.000847806863, 0.0007051187, 0.00104923756, 0.325805575 , -0.387555629, -0.200417966, 1.4777267   , -1.56427264 , 2.75812173  , 4.39        , 3           , 50          , 0           , 0
-9.810146   , -0.05643889 , -0.0228264723, -0.000633264834, -6.776465E-05, -0.000151753586, 0.325131446 , -0.3873534  , -0.20028314 , 1.4777267   , -1.56427264 , 2.75811267  , 4.4         , 3           , 11          , 0.06725851  , 0.06725846
-9.804568   , -0.0403156579, -0.006445555, 0.00035963353, -0.000835381, 0.0008405435, 0.3243899   , -0.3873534  , -0.200148314, 1.4777267   , -1.56428182 , 2.758116    , 4.41        , 3           , 12          , 0.06723168  , 0
-9.804891   , -0.0628958941, 0.000238105655, 0.00253081275, 0.002698984 , 0.000503001851, 0.3243899   , -0.3873534  , -0.200148314, 1.4777267   , -1.56426358 , 2.75814176  , 4.42        , 3           , 14          , 0.000284666254, 0.000509387755
-9.805241   , -0.08415745 , 0.01732269  , 0.003380369 , 0.002211974 , 0.000223655865, 0.325805575 , -0.387083739, -0.200350553, 1.4777267   , -1.56426358 , 2.75817513  , 4.43        , 3           , 15          , 0           , 6.226302E-05
-9.82058048 , -0.08884111 , -0.0121929683, 0.00239392952, 0.00164215534, -0.0010532398, 0.325603336 , -0.387083739, -0.200552791, 1.4777267   , -1.56428182 , 2.75819945  , 4.44        , 3           , 50          , 0           , 0
-9.830612   , -0.0580571964, -0.00717023434, 0.0005602459, 0.00120739278, -0.0010624507, 0.324187666 , -0.3873534  , -0.200215727, 1.4777267   , -1.56424534 , 2.7582047   , 4.45        , 3           , 11          , 0.06725851  , 0.06725846
-9.801986   , -0.04893755 , -0.00103775039, -0.00079200347, 0.00338045042, -0.00092407444, 0.324187666 , -0.3873534  , -0.200215727, 1.4777267   , -1.5642271  , 2.758197    , 4.46        , 3           , 12          , 0.06723168  , 0
-9.816488   , -0.09155354 , -0.0248284787, -0.00126019807, -0.001761452, 0.000125217019, 0.325670749 , -0.387151152, -0.200552791, 1.4777267   , -1.5642271  , 2.75818467  , 4.47        , 3           , 14          , 0.000284666254, 0.000509387755
-9.827681   , -0.07748182 , -0.0108442279, -0.00112359319, -0.0009861967, -0.00121498422, 0.325738162 , -0.387218565, -0.200350553, 1.4777267   , -1.564218   , 2.75817323  , 4.48        , 3           , 15          , 0           , 6.226302E-05
-9.826308   , -0.0721292943, 0.00274797529, -0.002536591, -0.000714178837, -0.000302888162, 0.3243225   , -0.387488216, -0.20028314 , 1.4777267   , -1.5642271  , 2.758148    , 4.49        , 3           , 50          , 0           , 0
-9.818356   , -0.05772993 , -0.0129509531, -0.002817243, -0.00113844231, 0.000401476253, 0.3243225   , -0.387488216, -0.20028314 , 1.4777267   , -1.5642271  , 2.758115    , 4.5         , 3           , 11          , 0.06834631  , 0.06834626
-9.81241    , -0.0506093279, -0.00428827759, 0.000426383223, -0.000342175917, -0.000359163561, 0.325603336 , -0.3873534  , -0.200485379, 1.4777267   , -1.564218   , 2.75811934  , 4.51        , 3           , 12          , 0.06831776  , 0
-9.80567551 , -0.0534126  , 0.0007234216, 0.00375719229, -0.00257224869, 0.00163060124, 0.325266272 , -0.387151152, -0.20028314 , 1.4777267   , -1.56423628 , 2.758157    , 4.52        , 3           , 14          , 0.000285390415, 0.00050939573
-9.815933   , -0.07674645 , -0.00216365978, -0.00274173869, -0.00205304986, 0.00103610463, 0.324187666 , -0.3874208  , -0.20028314 , 1.4777267   , -1.56427264 , 2.75812936  , 4.53        , 3           , 15          , 0           , 6.227443E-05
-9.817046   , -0.0582317822, -0.00254739448, -0.00275108172, -0.0003636639, -0.0006565165, 0.324187666 , -0.3874208  , -0.20028314 , 1.4777267   , -1.56426358 , 2.7581017   , 4.54        , 3           , 50          , 0           , 0
-9.821156   , -0.06178257 , -0.005757427, -0.000217278022, 0.00134291791, -7.69855251E-05, 0.3254685   , -0.3874208  , -0.200350553, 1.4777267   , -1.5642544  , 2.75809979  , 4.55        , 3           , 11          , 0.06834631  , 0.06834626
-9.806684   , -0.0619662777, -0.0015796721, -0.00132697984, -0.00260663056, 0.0007592839, 0.325333685 , -0.387285978, -0.200215727, 1.4777267   , -1.56426358 , 2.75808644  , 4.56        , 3           , 12          , 0.06831776  , 0
-9.806754   , -0.0673801  , -0.00160266261, -0.000209655409, -6.4904365E-05, 0.0010509945, 0.324255079 , -0.3873534  , -0.200215727, 1.4777267   , -1.56428182 , 2.75808454  , 4.57        , 3           , 14          , 0.000285390415, 0.00050939573
-9.795418   , -0.0679459944, -0.006942123, 0.00064951845, -0.002593263, -7.91098E-05, 0.324255079 , -0.3873534  , -0.200215727, 1.4777267   , -1.56428182 , 2.75809073  , 4.58        , 3           , 15          , 0           , 6.227443E-05
-9.811206   , -0.06726496 , -0.02016755 , -0.00358950859, -0.00205878215, 0.0001845413, 0.325805575 , -0.387488216, -0.200485379, 1.4777267   , -1.56427264 , 2.758055    , 4.59        , 3           , 50          , 0           , 0
-9.807084   , -0.0583487339, -0.002471717, -0.00302515272, -0.00205496466, -9.53653944E-05, 0.325333685 , -0.3874208  , -0.200350553, 1.4777267   , -1.56428182 , 2.75802255  , 4.6         , 3           , 11          , 0.069437176 , 0.06943713
-9.816943   , -0.0469892845, 0.008347612 , -0.00301744137, -0.0037443582, -0.001228119, 0.324255079 , -0.387285978, -0.200215727, 1.4777267   , -1.56428182 , 2.757992    , 4.61        , 3           , 12          , 0.06940683  , 0
-9.810665   , -0.04979179 , 0.01471177  , 0.0006341759, 0.000503952266, 0.000490734936, 0.324255079 , -0.387285978, -0.200215727, 1.4777267   , -1.56428182 , 2.75799823  , 4.62        , 3           , 14          , 0.000285725226, 0.0005093975
-9.808244   , -0.04299516 , -0.00196493417, -0.00133444776, -0.00119880785, 0.000478912785, 0.325603336 , -0.3873534  , -0.200485379, 1.4777267   , -1.56428182 , 2.75798488  , 4.63        , 3           , 15          , 0           , 6.22777443E-05
-9.803976   , -0.0303895921, -0.008207817, 0.00120230706, -5.53554855E-05, 0.00134011335, 0.325266272 , -0.387218565, -0.20028314 , 1.4777267   , -1.56430018 , 2.7579968   , 4.64        , 3           , 50          , 0           , 0
-9.816537   , -0.0514955372, 0.005168153 , 0.00343876472, 0.004464963 , 0.000227441808, 0.3243225   , -0.387285978, -0.200215727, 1.4777267   , -1.56428182 , 2.75803161  , 4.65        , 3           , 11          , 0.069437176 , 0.06943713
-9.813079   , -0.06595525 , -0.000741148368, 0.001748223 , 0.00360880676, -6.429883E-05, 0.3243225   , -0.387285978, -0.200215727, 1.4777267   , -1.56428182 , 2.75804925  , 4.66        , 3           , 12          , 0.06940683  , 0
-9.81353951 , -0.06774093 , -0.00481991842, -0.001060385, 0.000492492458, 0.000482833275, 0.325603336 , -0.387488216, -0.200485379, 1.4777267   , -1.56428182 , 2.75803876  , 4.67        , 3           , 14          , 0.000285725226, 0.0005093975
-9.831192   , -0.06395766 , 0.00500442274, -0.000219985712, 0.00162447675, -0.00177178 , 0.325603336 , -0.387285978, -0.20028314 , 1.4777267   , -1.56427264 , 2.75803638  , 4.68        , 3           , 15          , 0           , 6.22777443E-05
-9.79007    , -0.07164923 , 0.00212309323, -0.004154119, -0.00234417245, -0.00123121706, 0.3238506   , -0.387488216, -0.200148314, 1.4777267   , -1.56428182 , 2.757995    , 4.69        , 3           , 50          , 0           , 0
-9.807377   , -0.08224161 , -0.007996798, -0.00133311283, -0.00148038659, 0.00104356045, 0.3238506   , -0.387488216, -0.200148314, 1.4777267   , -1.56427264 , 2.75797868  , 4.7         , 3           , 11          , 0.07053078  , 0.070530735
-9.816634   , -0.06005531 , 0.00151605345, -0.002741228, -0.00233463245, 0.000753136643, 0.325603336 , -0.387623042, -0.200552791, 1.4777267   , -1.56428182 , 2.757951    , 4.71        , 3           , 12          , 0.07049855  , 0
-9.820143   , -0.05144092 , 0.00152493082, 0.001201106 , -5.5374665E-05, -7.25670761E-05, 0.325266272 , -0.387218565, -0.200215727, 1.4777267   , -1.56428182 , 2.75796342  , 4.72        , 3           , 14          , 0.0002861106, 0.0005094127
-9.822362   , -0.04200366 , 0.0205304064, -0.00276778848, 0.002733532 , -0.00178188994, 0.323918    , -0.387151152, -0.2000809  , 1.4777267   , -1.56427264 , 2.75793576  , 4.73        , 3           , 15          , 0           , 6.227098E-05
-9.782384   , -0.0419174731, -0.00989843 , 0.00260931  , 0.000517299864, -0.002042877, 0.323918    , -0.387151152, -0.2000809  , 1.4777267   , -1.56424534 , 2.75796151  , 4.74        , 3           , 50          , 0           , 0
-9.80892    , -0.0601320826, -0.002493132, 0.00146647845, 0.00332531473, -0.0006311179, 0.325738162 , -0.387285978, -0.200485379, 1.4777267   , -1.56423628 , 2.75797677  , 4.75        , 3           , 11          , 0.07053078  , 0.070530735
-9.808507   , -0.0673119649, -0.0156272817, -0.00191846164, 0.0024577   , -0.0006482229, 0.3254685   , -0.387083739, -0.200215727, 1.4777267   , -1.5642271  , 2.7579577   , 4.76        , 3           , 12          , 0.07049855  , 0
-9.807042   , -0.08903837 , -0.0007906835, -0.000197088142, -0.00288057514, -8.349109E-05, 0.324120253 , -0.387218565, -0.20028314 , 1.4777267   , -1.5642271  , 2.75795579  , 4.77        , 3           , 14          , 0.0002861106, 0.0005094127
-9.799419   , -0.0535550527, 0.02110993  , 0.0003496435, 0.0007835907, -7.521608E-05, 0.324120253 , -0.387218565, -0.20028314 , 1.4777267   , -1.5642271  , 2.75795865  , 4.78        , 3           , 15          , 0           , 6.227098E-05
-9.80775    , -0.0367176123, 0.008008515 , 0.0037394173, 0.000806513359, 0.00107073679, 0.325738162 , -0.387555629, -0.2006202  , 1.4777267   , -1.56423628 , 2.75799632  , 4.79        , 3           , 50          , 0           , 0
-9.820423   , -0.04593864 , -0.0233134981, -0.00274197618, -0.00233465619, 0.000188073827, 0.3254685   , -0.387285978, -0.20028314 , 1.4777267   , -1.56423628 , 2.75796628  , 4.8         , 3           , 11          , 0.07162681  , 0.07162677
-9.810418   , -0.07451215 , -0.0147677595, 0.00034873237, 0.0007835663, -0.00092281634, 0.32405284  , -0.3874208  , -0.200215727, 1.4777267   , -1.5642271  , 2.75796962  , 4.81        , 3           , 12          , 0.0715926   , 0
-9.80096149 , -0.07779091 , -0.0119971465, 0.00176349119, 0.00022998522, -0.00119963707, 0.32405284  , -0.3874208  , -0.200215727, 1.4777267   , -1.564209   , 2.75798726  , 4.82        , 3           , 14          , 0.0002865323, 0.0005094346
-9.822476   , -0.08978264 , 0.00586796552, 0.00233842945, -0.00173714873, -0.000634965661, 0.3254685   , -0.387555629, -0.2006202  , 1.4777267   , -1.564209   , 2.75801063  , 4.83        , 3           , 15          , 0           , 6.2258754E-05
-9.801898   , -0.07244961 , 0.0128769279, 0.0003507789, 0.0005020044, 0.00020689948, 0.325670749 , -0.387083739, -0.200350553, 1.4777267   , -1.5642271  , 2.758014    , 4.84        , 3           , 50          , 0           , 0
-9.836301   , -0.07114484 , 0.0130712818, 0.0009053849, 0.00247677788, -0.000635041331, 0.32405284  , -0.3874208  , -0.200417966, 1.4777267   , -1.5642271  , 2.7580235   , 4.85        , 3           , 11          , 0.07162681  , 0.07162677
-9.817019   , -0.055532448, -0.000276088715, 0.0003433194, 0.00190982758, -0.0006385431, 0.32405284  , -0.3874208  , -0.200417966, 1.4777267   , -1.564209   , 2.75802684  , 4.86        , 3           , 12          , 0.0715926   , 0
-9.816298   , -0.06729568 , 0.00646042963, -0.0004896947, -0.000911551644, -8.175826E-05, 0.325603336 , -0.3874208  , -0.200417966, 1.4777267   , -1.564209   , 2.75802159  , 4.87        , 3           , 14          , 0.0002865323, 0.0005094346
-9.80418    , -0.08225612 , -0.0147521663, -0.00161898683, -0.00120076118, -0.00178268517, 0.325805575 , -0.387285978, -0.20028314 , 1.4777267   , -1.564173   , 2.75800538  , 4.88        , 3           , 15          , 0           , 6.2258754E-05
-9.809843   , -0.07129439 , -0.0341853276, 7.753185E-05, -0.001189292, 0.00161566644, 0.324187666 , -0.3874208  , -0.200215727, 1.4777267   , -1.564191   , 2.75800633  , 4.89        , 3           , 50          , 0           , 0
-9.80499649 , -0.0420771465, -0.0177557357, 0.0003492998, 0.0007835663, 0.0007723988, 0.324187666 , -0.3874208  , -0.200215727, 1.4777267   , -1.564191   , 2.75800729  , 4.9         , 3           , 11          , 0.07272499  , 0.0727249458
-9.808708   , -0.04299891 , 0.000743402168, 0.00119658024, 0.0007892963, 0.0007763495, 0.325603336 , -0.387285978, -0.200552791, 1.4777267   , -1.564209   , 2.75801921  , 4.91        , 3           , 12          , 0.0726887   , 0
-9.826441   , -0.0513332337, -0.008466426, 0.0006428786, -0.00146704435, 0.000770244165, 0.3254011   , -0.387218565, -0.200485379, 1.4777267   , -1.5642271  , 2.75802541  , 4.92        , 3           , 14          , 0.000286943745, 0.0005094394
-9.808571   , -0.04735168 , -0.0467318967, 0.0006488697, -0.002874874, -0.0009271503, 0.32405284  , -0.3873534  , -0.200148314, 1.4777267   , -1.5642271  , 2.758032    , 4.93        , 3           , 15          , 0           , 6.226846E-05
-9.806793   , -0.043828737, -0.0272683855, 0.000346348621, 0.0013466957, 0.000490729057, 0.32405284  , -0.3873534  , -0.200148314, 1.4777267   , -1.564218   , 2.75803542  , 4.94        , 3           , 50          , 0           , 0
-9.79608    , -0.08417759 , -0.008370423, 7.27008737E-05, -0.0006261745, -0.00120885007, 0.3254685   , -0.3873534  , -0.200485379, 1.4777267   , -1.5642     , 2.758036    , 4.95        , 3           , 11          , 0.07272499  , 0.0727249458
-9.812172   , -0.06864256 , -0.009785024, -0.001329764, -0.00232510874, 0.00104226125, 0.3254011   , -0.387083739, -0.200417966, 1.4777267   , -1.5642271  , 2.75802255  , 4.96        , 3           , 12          , 0.0726887   , 0
-9.790804   , -0.0314022042, -0.021218814, -0.00104979891, -0.001760067, 0.00160952122, 0.323918    , -0.387218565, -0.200350553, 1.4777267   , -1.5642544  , 2.758012    , 4.97        , 3           , 14          , 0.000286943745, 0.0005094394
-9.825869   , -0.0391892157, 0.00107995979, 0.0006416477, -0.00118547841, 0.00105321547, 0.323918    , -0.387218565, -0.200350553, 1.4777267   , -1.56426358 , 2.75801873  , 4.98        , 3           , 15          , 0           , 6.226846E-05
-9.838906   , -0.06522075 , 0.004940195 , 7.16332E-05 , -0.000344607863, -0.0006433412, 0.325535923 , -0.3874208  , -0.200485379, 1.4777267   , -1.56424534 , 2.75801921  , 4.99        , 3           , 50          , 0           , 0
-9.828232   , -0.0486171655, -0.004852986, -0.00134069892, -7.258041E-05, 0.00161082449, 0.325535923 , -0.387151152, -0.200215727, 1.4777267   , -1.56426358 , 2.75800538  , 5           , 3           , 11          , 0.07382505  , 0.073825
-9.827618   , -0.03911806 , -0.0138485869, 0.00204760744, -4.96646971E-05, 0.000213940119, 0.324255079 , -0.387151152, -0.200148314, 1.4777267   , -1.5642544  , 2.75802541  , 5.01        , 3           , 12          , 0.07378657  , 0
