Acc X       , Acc Y       , Acc Z       , Gyro X      , Gyro Y      , Gyro Z      , Magn X      , Magn Y      , Magn Z      , Euler X     , Euler Y     , Euler Z     , Time        , Status      , LowRate X   , LowRate Y   , LowRate Z    
-0.08942166 , 0.110491775 , -9.769863   , -0.005224579, -0.00160440488, -0.0007020789, -0.22320345 , -0.130241334, 0.4538223   , -0.009709074, -0.008897765, 2.63579822  , 0           , 3           , 11          , 0.0346410163, 0.0346410163
-0.09210324 , 0.11010579  , -9.779829   , -0.00213743723, 0.00221772934, -0.001953153, -0.223338276, -0.130510986, 0.45348525  , -0.009730272, -0.008875777, 2.63577867  , 0.01        , 3           , 12          , 0.0346410163, 0
-0.07240951 , 0.120324761 , -9.80087948 , 0.00124868937, 0.00294456421, -0.00108865253, -0.223338276, -0.130106509, 0.453620076 , -0.009717687, -0.008846438, 2.63576722  , 0.02        , 3           , 50          , 0           , 0
-0.107106432, 0.09282389  , -9.821146   , -0.00029183022, 0.0005407609, 0.00059564074, -0.223338276, -0.130106509, 0.453620076 , -0.009720657, -0.00884097349, 2.635773    , 0.03        , 3           , 11          , 0.0346410163, 0.0346410163
-0.09800032 , 0.0678369552, -9.802649   , -2.062643E-06, -0.00100593863, 2.94960955E-05, -0.223270863, -0.130443573, 0.4536875   , -0.009720681, -0.008851029, 2.635774    , 0.04        , 3           , 12          , 0.0346410163, 0
-0.0928975344, 0.07412635  , -9.812075   , 0.000136325529, -0.000582639535, -0.00124061317, -0.2234731  , -0.130173922, 0.4538223   , -0.009719209, -0.008856976, 2.6357615   , 0.05        , 3           , 50          , 0           , 0
-0.08777169 , 0.09918117  , -9.766733   , 0.0002699091, 0.00110770948, 3.4067536E-05, -0.223405689, -0.1305784  , 0.4537549   , -0.009716513, -0.008845896, 2.6357615   , 0.06        , 3           , 11          , 0.0346410163, 0.0346410163
-0.0663062  , 0.08665724  , -9.740407   , -0.0004375963, 0.0015252853, 0.0011615759, -0.223405689, -0.1305784  , 0.4537549   , -0.0097209895, -0.008830531, 2.635773    , 0.07        , 3           , 12          , 0.0346410163, 0
-0.115064181, 0.08109815  , -9.795492   , -0.00100289506, 0.00138067733, -0.0008190372, -0.223338276, -0.130713224, 0.4537549   , -0.009730945, -0.008816805, 2.63576484  , 0.08        , 3           , 50          , 0           , 0
-0.108839795, 0.102281541 , -9.80982    , 0.000127264531, 0.00124753348, -0.00123779266, -0.223607928, -0.130308747, 0.453889728 , -0.009729562, -0.00880445 , 2.635752    , 0.09        , 3           , 11          , 0.0346410163, 0.0346410163
-0.08976686 , 0.102103621 , -9.823235   , 0.000132796165, 0.0002620588, -0.000109160843, -0.2234731  , -0.130241334, 0.4536875   , -0.009728224, -0.008801842, 2.635751    , 0.1         , 3           , 12          , 0.0346410163, 0
-0.0731823146, 0.085701786 , -9.834023   , 0.00112912036, -0.00127986341, 0.0001755993, -0.2234731  , -0.130241334, 0.4536875   , -0.00971695 , -0.008814623, 2.635753    , 0.11        , 3           , 50          , 0           , 0
-0.0751777142, 0.08111024  , -9.803775   , 0.00339017366, -0.00154614763, 0.000609506969, -0.223607928, -0.13037616 , 0.4536875   , -0.009683103, -0.008830023, 2.63575959  , 0.12        , 3           , 11          , 0.0346410163, 0.0346410163
-0.07547082 , 0.128037587 , -9.802679   , 0.002818023 , -0.000142143719, 4.39678624E-05, -0.2234731  , -0.130173922, 0.4538223   , -0.009654926, -0.00883144047, 2.63575959  , 0.13        , 3           , 12          , 0.0346410163, 0
-0.09044245 , 0.123279065 , -9.8114     , -0.000157334769, 0.00166797091, -0.00137972657, -0.2234731  , -0.1305784  , 0.4538223   , -0.009656376, -0.00881489553, 2.63574624  , 0.14        , 3           , 50          , 0           , 0
-0.09262635 , 0.100680783 , -9.792978   , -0.00101335 , 0.00349241542, -0.000815782, -0.2234731  , -0.1305784  , 0.4538223   , -0.009666435, -0.008780051, 2.63573766  , 0.15        , 3           , 11          , 0.0346410163, 0.0346410163
-0.08895241 , 0.110053457 , -9.775285   , -0.00143199239, 0.00264485879, 0.000593628036, -0.223270863, -0.130308747, 0.453552663 , -0.009680804, -0.008753549, 2.635743    , 0.16        , 3           , 12          , 0.0346410163, 0
-0.08885322 , 0.118168131 , -9.773442   , 0.00013398267, 0.000121278572, 0.00073823455, -0.223405689, -0.130241334, 0.4538223   , -0.009679528, -0.008752263, 2.63575053  , 0.17        , 3           , 50          , 0           , 0
-0.09228307 , 0.0912133753, -9.796633   , 0.00126988138, -0.00113812473, 0.0006002809, -0.223540515, -0.130443573, 0.4537549   , -0.009666884, -0.008763584, 2.63575673  , 0.18        , 3           , 11          , 0.0346410163, 0.0346410163
-0.08331282 , 0.0838962048, -9.798853   , -0.0005688441, -0.000587410235, 0.000310051168, -0.2234731  , -0.130308747, 0.453620076 , -0.009672599, -0.008769429, 2.63575959  , 0.19        , 3           , 12          , 0.0346410163, 0
-0.110331364, 0.09103079  , -9.813495   , -0.00127630762, -0.000310620962, 0.0003071933, -0.2234731  , -0.130308747, 0.453620076 , -0.009685468, -0.008772534, 2.63576245  , 0.2         , 3           , 50          , 0           , 0
-0.08434075 , 0.07979053  , -9.782155   , -0.000144346312, -0.000725327933, 0.0005943476, -0.223540515, -0.13037616 , 0.4537549   , -0.0096869655, -0.008779728, 2.63576913  , 0.21        , 3           , 11          , 0.0346699134, 0.0346699171
-0.09631589 , 0.09799069  , -9.785335   , 0.0007010506, -0.0004380353, -0.0002488801, -0.22367534 , -0.130241334, 0.4538223   , -0.009679933, -0.008784132, 2.63576627  , 0.22        , 3           , 12          , 0.03466877  , 0
-0.116603009, 0.06132844  , -9.815021   , -0.000428819767, -0.00044567592, -0.0005366853, -0.223405689, -0.13037616 , 0.4536875   , -0.009684173, -0.008788641, 2.635761    , 0.23        , 3           , 50          , 0           , 0
-0.08749914 , 0.07715863  , -9.793489   , -0.000713671034, 0.00025633187, 0.00129957614, -0.223405689, -0.13037616 , 0.4536875   , -0.009691425, -0.008785951, 2.635774    , 0.24        , 3           , 11          , 0.0346699134, 0.0346699171
-0.07604216 , 0.09142025  , -9.780687   , -0.000574133534, 0.000398064731, -0.0003947733, -0.22367534 , -0.13037616 , 0.453620076 , -0.009697133, -0.00878201 , 2.63577     , 0.25        , 3           , 12          , 0.03466877  , 0
-0.0963966548, 0.0921227   , -9.784456   , 0.00127057964, -0.00141969393, -0.0006009369, -0.2234731  , -0.130241334, 0.4536875   , -0.00968437549, -0.008796264, 2.63576436  , 0.26        , 3           , 50          , 0           , 0
-0.0890847445, 0.122369885 , -9.814105   , 0.00106478389, -0.00254738471, 0.000173317792, -0.22320345 , -0.130173922, 0.4536875   , -0.00967374351, -0.008821719, 2.63576627  , 0.27        , 3           , 11          , 0.0346699134, 0.0346699171
-0.08116636 , 0.103786081 , -9.816834   , -0.00141674618, -0.0003115722, 0.00164858776, -0.22320345 , -0.130173922, 0.4536875   , -0.009688056, -0.008824675, 2.63578248  , 0.28        , 3           , 12          , 0.03466877  , 0
-0.0902378  , 0.07270925  , -9.802568   , -0.00170183508, 0.000108862689, 0.0006590406, -0.223877579, -0.13037616 , 0.453620076 , -0.009705133, -0.008823523, 2.63578916  , 0.29        , 3           , 50          , 0           , 0
-0.103163093, 0.09624011  , -9.777711   , 0.002258838 , 0.0008267269, 0.0003958127, -0.223540515, -0.130173922, 0.453889728 , -0.009469473, -0.009078628, 2.635791    , 0.3         , 3           , 11          , 0.03475344  , 0.0347534381
-0.0956272259, 0.07682584  , -9.800333   , 0.00162559468, 0.000259296648, -0.000596899365, -0.223405689, -0.13037616 , 0.4536875   , -0.00945316348, -0.009076092, 2.63578534  , 0.31        , 3           , 12          , 0.0347538   , 0
-0.07926257 , 0.08561365  , -9.787064   , 0.00141730066, -0.0004460483, -0.0005283374, -0.223405689, -0.13037616 , 0.4536875   , -0.009438941, -0.009080602, 2.63578     , 0.32        , 3           , 50          , 0           , 0
-0.101690486, 0.09944119  , -9.795313   , -0.000558908563, -0.0006002002, -0.000396504125, -0.223607928, -0.1300391  , 0.453620076 , -0.009444496, -0.009086641, 2.63577628  , 0.33        , 3           , 11          , 0.03475344  , 0.0347534381
-0.0802396238, 0.112273246 , -9.794645   , 0.00212402386, -0.0005820562, -0.0005958964, -0.223607928, -0.1300391  , 0.4536875   , -0.009423203, -0.00909252 , 2.63577     , 0.34        , 3           , 12          , 0.0347538   , 0
-0.10043028 , 0.0774745643, -9.841949   , 0.00177562109, -0.00142913638, 0.00017813356, -0.223405689, -0.129971683, 0.453620076 , -0.009405463, -0.009106793, 2.635772    , 0.35        , 3           , 50          , 0           , 0
-0.116203189, 0.09289694  , -9.811271   , -0.000418025069, -0.0004584609, 0.0002400804, -0.223405689, -0.129971683, 0.453620076 , -0.009409665, -0.009111354, 2.63577485  , 0.36        , 3           , 11          , 0.03475344  , 0.0347534381
-0.11231979 , 0.11582987  , -9.801203   , 0.000712687 , -0.000661995145, 0.000174388319, -0.223607928, -0.130510986, 0.453350425 , -0.009402554, -0.009117958, 2.63577676  , 0.37        , 3           , 12          , 0.0347538   , 0
-0.06886769 , 0.0796733052, -9.801021   , -0.002315527, -0.00237192027, -0.000689984648, -0.22367534 , -0.130443573, 0.4536875   , -0.009425648, -0.009141741, 2.63577     , 0.38        , 3           , 50          , 0           , 0
-0.0690543056, 0.104443558 , -9.786456   , -0.0007770648, 0.0007358028, 9.900975E-05, -0.223607928, -0.130173922, 0.453552663 , -0.009433428, -0.009134374, 2.63577056  , 0.39        , 3           , 11          , 0.03475344  , 0.0347534381
-0.101180226, 0.106624059 , -9.786241   , 0.0005534471, 0.000673015369, 0.00151794334, -0.223607928, -0.130173922, 0.453552663 , -0.009539957, -0.00914102 , 2.63578677  , 0.4         , 3           , 12          , 0.034895245 , 0
-0.08236207 , 0.09463459  , -9.775298   , -0.00057469937, 0.0002430253, 0.000593777862, -0.223540515, -0.130241334, 0.453552663 , -0.009545759, -0.009138532, 2.635793    , 0.41        , 3           , 50          , 0           , 0
-0.101918541, 0.113465451 , -9.8052     , 0.00133574184, -0.000588778232, 0.00038946225, -0.2234731  , -0.130106509, 0.453552663 , -0.009532437, -0.009144383, 2.63579679  , 0.42        , 3           , 11          , 0.0176882744, 0.01768822
-0.102181256, 0.0985230356, -9.788993   , 0.00336896535, 0.002311111 , 0.0002621891, -0.223338276, -0.130173922, 0.453552663 , -0.00949877 , -0.009121248, 2.63579917  , 0.43        , 3           , 12          , 0.034895245 , 0
-0.09632506 , 0.0681519359, -9.768282   , 0.00274010468, 0.00103977206, 0.000822348229, -0.223338276, -0.130173922, 0.453552663 , -0.00947144348, -0.009110772, 2.63580728  , 0.44        , 3           , 50          , 0           , 0
-0.09024267 , 0.08386406  , -9.765459   , 0.00428597443, 0.00238770712, -0.000651669048, -0.223607928, -0.130510986, 0.453552663 , -0.009428523, -0.009086957, 2.6358006   , 0.45        , 3           , 11          , 0.0176882744, 0.01768822
-0.0896529555, 0.09512845  , -9.762697   , 0.00302692456, -8.458397E-05, -0.0012264672, -0.2234731  , -0.130106509, 0.4537549   , -0.009398143, -0.009087918, 2.6357882   , 0.46        , 3           , 12          , 0.034895245 , 0
-0.07934813 , 0.07572462  , -9.797954   , 0.00217933324, 0.000120863391, 4.13260532E-05, -0.223540515, -0.130173922, 0.453552663 , -0.009376354, -0.009086706, 2.63578868  , 0.47        , 3           , 50          , 0           , 0
-0.1116462  , 0.06437512  , -9.799151   , 0.0008376832, 0.000111790439, -0.000176832342, -0.223540515, -0.130173922, 0.453552663 , -0.00936796051, -0.009085604, 2.63578725  , 0.48        , 3           , 11          , 0.0176882744, 0.01768822
-0.09456773 , 0.09345489  , -9.784437   , 0.00146596611, 0.001664698 , 0.00067612977, -0.2234731  , -0.130106509, 0.453417838 , -0.009353361, -0.009068894, 2.635794    , 0.49        , 3           , 12          , 0.034895245 , 0
-0.08177881 , 0.09964486  , -9.791092   , 0.0005720242, 0.00239774212, 0.000601829553, -0.2234731  , -0.130106509, 0.453620076 , -0.009214027, -0.00921329 , 2.63579822  , 0.5         , 3           , 50          , 0           , 0
-0.08886991 , 0.07805724  , -9.7876215  , -0.0006897282, 0.000347796042, -0.001031833, -0.223607928, -0.130308747, 0.45348525  , -0.009220827, -0.009209908, 2.6357882   , 0.51        , 3           , 11          , 0.0134300552, 0.0134300366
-0.08548601 , 0.09069157  , -9.799294   , -0.00287681562, 5.14302264E-05, -0.0004773981, -0.223607928, -0.130308747, 0.45348525  , -0.009249552, -0.009209436, 2.63578343  , 0.52        , 3           , 12          , 0.035091985 , 0
-0.108243845, 0.11444369  , -9.80569649 , -0.001388295, -0.00106480182, -0.000119048142, -0.2234731  , -0.130173922, 0.453283    , -0.009263424, -0.009220095, 2.635782    , 0.53        , 3           , 50          , 0           , 0
-0.0814561  , 0.122670189 , -9.795967   , 0.000366539927, 0.00105887419, 0.000104340121, -0.223540515, -0.130443573, 0.45348525  , -0.009259769, -0.009209496, 2.63578343  , 0.54        , 3           , 11          , 0.0134300552, 0.0134300366
-0.07934064 , 0.110918231 , -9.797356   , 8.194056E-05, 0.00147931138, -3.75945237E-05, -0.2234731  , -0.130173922, 0.453620076 , -0.009258944, -0.009194707, 2.63578248  , 0.55        , 3           , 12          , 0.035091985 , 0
-0.0764731541, 0.118150085 , -9.810863   , -0.0013925141, -0.000360892678, -0.00138938217, -0.223405689, -0.130308747, 0.453417838 , -0.009272743, -0.009198445, 2.63576865  , 0.56        , 3           , 50          , 0           , 0
-0.07421133 , 0.120353587 , -9.803152   , 0.00114141556, 0.00120490382, -0.00179894932, -0.223405689, -0.130308747, 0.453417838 , -0.009261161, -0.009186563, 2.63575053  , 0.57        , 3           , 11          , 0.0134300552, 0.0134300366
-0.06002132 , 0.103872478 , -9.782321   , 0.00234863325, 1.63743389E-05, -9.997178E-05, -0.223810166, -0.130173922, 0.453552663 , -0.009237665, -0.00918640848, 2.63574958  , 0.58        , 3           , 12          , 0.035091985 , 0
-0.06962373 , 0.0954273641, -9.786949   , 8.376113E-05, 0.00126814132, 0.001304133 , -0.223607928, -0.130241334, 0.4536875   , -0.009236947, -0.009173607, 2.63576245  , 0.59        , 3           , 50          , 0           , 0
-0.07098768 , 0.09543876  , -9.78560448 , 0.00237046275, 0.00242682616, 0.00117748592, -0.223540515, -0.1305784  , 0.45348525  , -0.009537611, -0.008890737, 2.63577676  , 0.6         , 3           , 11          , 0.0113490447, 0.01134902
-0.06832406 , 0.08911495  , -9.792841   , 0.002583351 , 0.002146692 , 0.0006129647, -0.223540515, -0.1305784  , 0.45348525  , -0.00951183 , -0.008869213, 2.635783    , 0.61        , 3           , 12          , 0.0353426747, 0
-0.09911838 , 0.08277717  , -9.813442   , 0.000190656792, 0.0005114576, 0.0004580069, -0.223607928, -0.130308747, 0.4536875   , -0.009509964, -0.008864055, 2.63578725  , 0.62        , 3           , 50          , 0           , 0
-0.09927539 , 0.074615635 , -9.801274   , -0.002627913, -0.0006339017, 0.000655005 , -0.223540515, -0.130173922, 0.4538223   , -0.009536303, -0.008870331, 2.635794    , 0.63        , 3           , 11          , 0.0113490447, 0.01134902
-0.08422022 , 0.0763174   , -9.822847   , -0.00227834238, 2.00558361E-06, 9.25527056E-05, -0.2234731  , -0.130173922, 0.453417838 , -0.009559093, -0.008870303, 2.63579488  , 0.64        , 3           , 12          , 0.0353426747, 0
-0.100031868, 0.0872449   , -9.797159   , -0.00279083359, 0.003659009 , -0.000116013864, -0.2234731  , -0.130173922, 0.453417838 , -0.009586989, -0.008833724, 2.63579345  , 0.65        , 3           , 50          , 0           , 0
-0.109102733, 0.0895706862, -9.786372   , -0.004122622, 0.0016085878, -0.0007611247, -0.223540515, -0.130173922, 0.45348525  , -0.009628147, -0.008817714, 2.63578534  , 0.66        , 3           , 11          , 0.0113490447, 0.01134902
-0.09335054 , 0.111550786 , -9.802431   , -0.00214181887, 0.000777260459, -0.00138891721, -0.223540515, -0.130106509, 0.4538223   , -0.009649441, -0.008810075, 2.635772    , 0.67        , 3           , 12          , 0.0353426747, 0
-0.07577905 , 0.109487474 , -9.786938   , 0.000330153416, 0.0006531903, -0.00130697666, -0.2234731  , -0.130308747, 0.453350425 , -0.009646024, -0.008803669, 2.63575864  , 0.68        , 3           , 50          , 0           , 0
-0.07458224 , 0.122656979 , -9.815802   , -0.00333319767, -0.000920244667, -0.0004082366, -0.2234731  , -0.130308747, 0.453350425 , -0.009679319, -0.008812912, 2.63575482  , 0.69        , 3           , 11          , 0.0113490447, 0.01134902
-0.0889085159, 0.12876159  , -9.836677   , -0.00437950762, -0.00035838873, 0.000506821554, -0.223338276, -0.130106509, 0.453552663 , -0.009840644, -0.008805   , 2.63576055  , 0.7         , 3           , 12          , 0.0356457531, 0
-0.06671945 , 0.09688649  , -9.82805252 , -0.0008570654, 0.00128448557, 0.000737681461, -0.223607928, -0.1300391  , 0.453552663 , -0.009849281, -0.008792084, 2.63576818  , 0.71        , 3           , 50          , 0           , 0
-0.07077746 , 0.11257042  , -9.781916   , 0.0009140083, 2.937834E-05, 0.000108250395, -0.223405689, -0.130443573, 0.453620076 , -0.00984015 , -0.008791779, 2.63576913  , 0.72        , 3           , 11          , 0.0101306709, 0.0101306681
-0.109167084, 0.115779057 , -9.797111   , 0.00133705535, 0.000102633407, -0.000313471857, -0.223405689, -0.130443573, 0.453620076 , -0.009826751, -0.008790784, 2.63576579  , 0.73        , 3           , 12          , 0.0356457531, 0
-0.0917292237, 0.09932424  , -9.795238   , 0.00225035287, 0.000953534 , -0.00101423368, -0.223607928, -0.130308747, 0.453552663 , -0.00980415847, -0.008781347, 2.63575578  , 0.74        , 3           , 50          , 0           , 0
-0.0987904742, 0.0777608156, -9.798998   , 0.00127058988, -0.000742539531, -0.000385737279, -0.223607928, -0.130106509, 0.453552663 , -0.00979142 , -0.008788812, 2.635752    , 0.75        , 3           , 11          , 0.0101306709, 0.0101306681
-0.103816763, 0.0791213438, -9.783663   , 0.001487    , -0.00158580032, 0.000320292165, -0.223540515, -0.1300391  , 0.45348525  , -0.00977658 , -0.008804636, 2.6357553   , 0.76        , 3           , 12          , 0.0356457531, 0
-0.09236919 , 0.08310929  , -9.801638   , 0.000218044224, -0.00187595747, 0.00130281341, -0.223540515, -0.1300391  , 0.45348525  , -0.009774515, -0.008823268, 2.63576865  , 0.77        , 3           , 50          , 0           , 0
-0.08907601 , 0.08897483  , -9.812888   , -0.00304441247, 0.0007769398, -0.000968508946, -0.22367534 , -0.1300391  , 0.45348525  , -0.009804873, -0.008815594, 2.63575864  , 0.78        , 3           , 11          , 0.0101306709, 0.0101306681
-0.08969693 , 0.08348773  , -9.7894125  , 0.0002644672, 0.00277033844, -0.00073809427, -0.223810166, -0.130106509, 0.453552663 , -0.009802161, -0.008787965, 2.635751    , 0.79        , 3           , 12          , 0.0356457531, 0
-0.102268986, 0.08059794  , -9.825228   , 0.00150782627, 0.00223242072, 4.28674139E-05, -0.223607928, -0.130241334, 0.453552663 , -0.009720611, -0.008853864, 2.635751    , 0.8         , 3           , 50          , 0           , 0
-0.1043147  , 0.1035652   , -9.804809   , -0.000457787071, 3.69241679E-05, 0.001019167 , -0.223607928, -0.130241334, 0.453552663 , -0.009725279, -0.00885339547, 2.635761    , 0.81        , 3           , 11          , 0.009378793 , 0.0093788
-0.10665895 , 0.100848578 , -9.793989   , -0.00341817923, -0.001250179, -0.00104501017, -0.2234731  , -0.130173922, 0.453417838 , -0.009759369, -0.008865999, 2.635751    , 0.82        , 3           , 12          , 0.0359994732, 0
-0.0944308043, 0.104724593 , -9.781677   , -0.00207790057, -0.0010299338, -0.00139160117, -0.22367534 , -0.130241334, 0.4536875   , -0.009780026, -0.008876434, 2.6357367   , 0.83        , 3           , 50          , 0           , 0
-0.103193372, 0.09309113  , -9.780436   , -0.0015785523, -0.001941675, -0.00040182544, -0.223540515, -0.1300391  , 0.453620076 , -0.009795779, -0.008895889, 2.635733    , 0.84        , 3           , 11          , 0.009378793 , 0.0093788
-0.09048572 , 0.0876101255, -9.804769   , -0.00122324587, -0.00229124143, 0.000517525 , -0.223540515, -0.1300391  , 0.453620076 , -0.009808058, -0.008918749, 2.63573861  , 0.85        , 3           , 12          , 0.0359994732, 0
-0.0762521  , 0.09965665  , -9.813649   , -0.00320078945, -0.002093435, 0.0013562442, -0.223540515, -0.130241334, 0.453552663 , -0.00984018948, -0.008939549, 2.635752    , 0.86        , 3           , 50          , 0           , 0
-0.094805   , 0.102561839 , -9.807903   , -0.004335206, -0.00139716815, -0.000766969635, -0.2234731  , -0.13037616 , 0.4536875   , -0.009883474, -0.00895359553, 2.63574433  , 0.87        , 3           , 11          , 0.009378793 , 0.0093788
-0.106838837, 0.114465557 , -9.816987   , -0.00300581637, 0.00114599173, -5.0465158E-05, -0.223405689, -0.130308747, 0.453552663 , -0.00991352648, -0.008942142, 2.63574433  , 0.88        , 3           , 12          , 0.0359994732, 0
-0.08337732 , 0.07223884  , -9.820598   , -0.000618635269, 0.003837094 , -0.0003883206, -0.223405689, -0.130308747, 0.453552663 , -0.009919677, -0.008903811, 2.63573956  , 0.89        , 3           , 50          , 0           , 0
-0.0684437752, 0.08098364  , -9.789713   , -0.00331555144, -0.001330073, -0.0009044691, -0.223540515, -0.130241334, 0.4536875   , -0.009908058, -0.009029664, 2.6357305   , 0.9         , 3           , 11          , 0.008913893 , 0.008913893
-0.07792921 , 0.08200664  , -9.792493   , -0.00274606678, -0.00217094645, -0.000126159081, -0.223810166, -0.13037616 , 0.4537549   , -0.009935509, -0.009051385, 2.63572955  , 0.91        , 3           , 12          , 0.03640196  , 0
-0.0793332  , 0.07573672  , -9.801569   , -0.0009100257, -0.00222892337, -0.00025897607, -0.223405689, -0.130241334, 0.4536875   , -0.009944588, -0.009073699, 2.63572717  , 0.92        , 3           , 50          , 0           , 0
-0.09646644 , 0.0884953439, -9.779048   , -0.00112922734, -0.00068174646, 0.0002368633, -0.223405689, -0.130173922, 0.453620076 , -0.009955903, -0.009080492, 2.63572955  , 0.93        , 3           , 11          , 0.008913893 , 0.008913893
-0.08620967 , 0.107364543 , -9.790191   , -0.000489114143, -0.001592535, 0.000450319174, -0.223405689, -0.130173922, 0.453620076 , -0.009960837, -0.009096372, 2.63573432  , 0.94        , 3           , 12          , 0.03640196  , 0
-0.0676849559, 0.09908032  , -9.80635452 , -0.0008448133, -0.00103179156, 0.0006614441, -0.223607928, -0.130106509, 0.4537549   , -0.009969345, -0.009106623, 2.635741    , 0.95        , 3           , 50          , 0           , 0
-0.095062   , 0.09030214  , -9.784453   , -0.000218306566, 0.000591500546, -0.0009576882, -0.223742753, -0.130241334, 0.4536875   , -0.00997144 , -0.009100804, 2.635731    , 0.96        , 3           , 11          , 0.008913893 , 0.008913893
-0.102089629, 0.103953481 , -9.7939415  , 0.00176468387, -0.0004509951, 0.00039195604, -0.2234731  , -0.13037616 , 0.4537549   , -0.009953829, -0.009105275, 2.63573527  , 0.97        , 3           , 12          , 0.03640196  , 0
-0.08292193 , 0.0833943859, -9.785293   , -0.000200210285, -0.002857667, 0.000802855357, -0.2234731  , -0.13037616 , 0.4537549   , -0.009955907, -0.00913377 , 2.63574338  , 0.98        , 3           , 50          , 0           , 0
-0.07774793 , 0.09018785  , -9.810536   , 0.00105824613, -0.000314985838, 0.0009539556, -0.2234731  , -0.130510986, 0.453620076 , -0.009945411, -0.009136826, 2.635753    , 0.99        , 3           , 11          , 0.008913893 , 0.008913893
-0.09447774 , 0.0966522545, -9.796173   , 0.00036292267, -0.00154082116, 0.00144260738, -0.223607928, -0.1300391  , 0.453620076 , -0.009848084, -0.009093815, 2.63576674  , 1           , 3           , 12          , 0.0368512   , 0
-0.08985904 , 0.106046058 , -9.787965   , 0.0007125528, -0.000834520732, 0.00158660719, -0.223607928, -0.130241334, 0.45348525  , -0.009841104, -0.009102004, 2.63578248  , 1.01        , 3           , 50          , 0           , 0
-0.102708109, 0.09668293  , -9.776802   , 0.0003541988, -0.000133004287, -0.00159250083, -0.223607928, -0.130241334, 0.45348525  , -0.009837416, -0.00910349 , 2.63576674  , 1.02        , 3           , 11          , 0.008638344 , 0.008638347
-0.124050327, 0.08706337  , -9.793728   , 0.00183351024, 0.000792114763, 0.000322951266, -0.223607928, -0.130173922, 0.453620076 , -0.009819111, -0.009095538, 2.63577     , 1.03        , 3           , 12          , 0.0368512   , 0
-0.08881909 , 0.0736349151, -9.814305   , 0.00154774659, 0.00128293957, -0.00123156246, -0.223540515, -0.130106509, 0.4536875   , -0.00980352052, -0.00908283 , 2.63575768  , 1.04        , 3           , 50          , 0           , 0
-0.08291595 , 0.111445144 , -9.807324   , 0.000425009377, -0.00013252582, -0.00123899989, -0.2234731  , -0.130241334, 0.453620076 , -0.009799157, -0.009084277, 2.63574529  , 1.05        , 3           , 11          , 0.008638344 , 0.008638347
-0.09987596 , 0.09897633  , -9.797562   , 0.000570849748, -0.000835478131, 0.0007383362, -0.2234731  , -0.130241334, 0.453620076 , -0.009793518, -0.009092559, 2.635753    , 1.06        , 3           , 12          , 0.0368512   , 0
-0.05943996 , 0.116469167 , -9.773225   , 0.0019692108, 0.00184893783, -0.000169203471, -0.223742753, -0.130173922, 0.4536875   , -0.009773808, -0.009074087, 2.635751    , 1.07        , 3           , 50          , 0           , 0
-0.0518228039, 0.108725868 , -9.778172   , -0.00268095545, -1.27459771E-05, 0.001218934 , -0.22367534 , -0.130241334, 0.4538223   , -0.009800729, -0.009074095, 2.635763    , 1.08        , 3           , 11          , 0.008638344 , 0.008638347
-0.07914481 , 0.09106528  , -9.798341   , -0.00162267394, 0.00013519825, 0.00101218617, -0.223742753, -0.130173922, 0.4538223   , -0.009817048, -0.0090726465, 2.635773    , 1.09        , 3           , 12          , 0.0368512   , 0
-0.09213769 , 0.103828974 , -9.791607   , -0.00178977416, -0.00152576272, 0.000515679771, -0.223742753, -0.130173922, 0.4538223   , -0.009875329, -0.00897056051, 2.63577867  , 1.1         , 3           , 50          , 0           , 0
-0.0812353  , 0.106408313 , -9.79151249 , -0.000248231081, 0.0007372595, -0.0006037554, -0.223540515, -0.13037616 , 0.453552663 , -0.009877757, -0.008963249, 2.635773    , 1.11        , 3           , 11          , 0.008482935 , 0.008482929
-0.0784953  , 0.105056226 , -9.801441   , -0.00215784856, 0.00128749525, -0.00138875493, -0.22367534 , -0.12990427 , 0.4537549   , -0.009899209, -0.008950511, 2.63575864  , 1.12        , 3           , 12          , 0.0373451263, 0
-0.08120017 , 0.105990425 , -9.801458   , -0.00110330444, 0.002420923 , 0.000383778446, -0.22367534 , -0.130308747, 0.4536875   , -0.009910274, -0.008926264, 2.63576245  , 1.13        , 3           , 50          , 0           , 0
-0.06945207 , 0.07823293  , -9.77346    , 0.000593959354, 0.00201003812, 0.00145054481, -0.22367534 , -0.130308747, 0.4536875   , -0.009904462, -0.008906024, 2.63577676  , 1.14        , 3           , 11          , 0.008482935 , 0.008482929
-0.08181154 , 0.105867222 , -9.763044   , 0.0001048805, 0.000880433246, 0.0007401606, -0.223742753, -0.130241334, 0.4538223   , -0.009903478, -0.008897145, 2.635784    , 1.15        , 3           , 12          , 0.0373451263, 0
-0.108713016, 0.08237265  , -9.794083   , -0.000397233816, 0.00228491169, -0.0008139303, -0.223742753, -0.130106509, 0.4536875   , -0.009907376, -0.008874377, 2.6357758   , 1.16        , 3           , 50          , 0           , 0
-0.08444239 , 0.09838074  , -9.808294   , 0.001236167 , 0.000536116 , 0.000462348456, -0.223742753, -0.130241334, 0.4537549   , -0.009895056, -0.008868971, 2.63578057  , 1.17        , 3           , 11          , 0.008482935 , 0.008482929
-0.08115067 , 0.107369587 , -9.809135   , 0.00286514848, -0.000649557565, -0.00108587963, -0.223742753, -0.130241334, 0.4537549   , -0.009866309, -0.008875576, 2.63576913  , 1.18        , 3           , 12          , 0.0373451263, 0
-0.0888835341, 0.07983159  , -9.778574   , 0.00088862807, -0.0005925322, 0.00031769785, -0.223810166, -0.12990427 , 0.45348525  , -0.009857452, -0.008881467, 2.635773    , 1.19        , 3           , 50          , 0           , 0
-0.08837181 , 0.0838911757, -9.779908   , -0.0007263262, 0.000129701264, -0.0008893716, -0.223742753, -0.1300391  , 0.4537549   , -0.009849642, -0.008846917, 2.635764    , 1.2         , 3           , 11          , 0.008403378 , 0.008403368
-0.08253345 , 0.0770880654, -9.789836   , -0.000377230026, 0.0009767851, -0.000462617347, -0.223810166, -0.130241334, 0.45348525  , -0.009853373, -0.008837195, 2.635759    , 1.21        , 3           , 12          , 0.03788159  , 0
-0.09372254 , 0.09250264  , -9.772682   , -0.000375179749, 0.0005544373, -0.000533902552, -0.223810166, -0.130241334, 0.45348525  , -0.009857076, -0.008831706, 2.63575387  , 1.22        , 3           , 50          , 0           , 0
-0.07936391 , 0.112238415 , -9.787406   , 0.00146807649, -0.00091136375, -0.000245083182, -0.22367534 , -0.130308747, 0.45348525  , -0.009842377, -0.008840842, 2.63575149  , 1.23        , 3           , 11          , 0.008403378 , 0.008403368
-0.07939638 , 0.1086413   , -9.791038   , 0.003161117 , -0.000477553578, 0.0007523504, -0.2240124  , -0.12990427 , 0.453417838 , -0.009810833, -0.00884554349, 2.63575864  , 1.24        , 3           , 12          , 0.03788159  , 0
-0.0939254  , 0.09762031  , -9.81740952 , 0.000339555321, -0.00105978386, 0.000597044243, -0.223944992, -0.130173922, 0.453417838 , -0.00980749 , -0.008856081, 2.63576531  , 1.25        , 3           , 50          , 0           , 0
-0.0540186837, 0.107468531 , -9.798984   , -0.0005180913, 0.00076465297, -0.00166438555, -0.223944992, -0.130173922, 0.453417838 , -0.009812525, -0.008848599, 2.63574815  , 1.26        , 3           , 11          , 0.008403378 , 0.008403368
-0.0749634355, 0.09869153  , -9.799632   , -0.000449664367, 0.00146904949, 0.000597328239, -0.223944992, -0.13037616 , 0.453350425 , -0.009817071, -0.008833851, 2.63575435  , 1.27        , 3           , 12          , 0.03788159  , 0
-0.105550073, 0.1161786   , -9.79437    , -0.00172400707, 0.00209397473, 9.793788E-05, -0.223877579, -0.1300391  , 0.453417838 , -0.009834319, -0.0088129025, 2.63575482  , 1.28        , 3           , 50          , 0           , 0
-0.08346366 , 0.1091418   , -9.791517   , -0.00256517739, 0.000821201131, -0.000190503066, -0.223742753, -0.130443573, 0.453552663 , -0.009859953, -0.008804709, 2.635753    , 1.29        , 3           , 11          , 0.008403378 , 0.008403368
-0.07717404 , 0.102778479 , -9.799632   , -0.004275369, -6.944465E-05, 0.00135564571, -0.223742753, -0.130443573, 0.453552663 , -0.0100061521, -0.008765337, 2.6357677   , 1.3         , 3           , 12          , 0.0384584256, 0
-0.07998128 , 0.101397946 , -9.782032   , -0.00117715658, 0.00150016893, -4.016863E-05, -0.223877579, -0.130106509, 0.4532156   , -0.0100179184, -0.00875034 , 2.63576722  , 1.31        , 3           , 50          , 0           , 0
-0.07342323 , 0.08773833  , -9.768478   , 2.0491947E-05, 0.002071417 , 0.000178199189, -0.223877579, -0.1300391  , 0.453350425 , -0.0100177275, -0.008729608, 2.63576865  , 1.32        , 3           , 11          , 0.008365312 , 0.008365304
-0.0823900253, 0.08702399  , -9.792957   , 0.000464159821, -0.00193801941, 0.000456528418, -0.223877579, -0.130241334, 0.453350425 , -0.0100131277, -0.008748942, 2.635773    , 1.33        , 3           , 12          , 0.0384584256, 0
-0.08162919 , 0.07529097  , -9.79526    , -0.002356134, -0.00266102958, 0.00128988666, -0.223944992, -0.130173922, 0.4532156   , -0.0100368047, -0.008775423, 2.63578629  , 1.34        , 3           , 50          , 0           , 0
-0.0767273754, 0.09696565  , -9.816829   , -0.00102655566, -0.000329047383, 0.0005227441, -0.223944992, -0.130173922, 0.4532156   , -0.0100471182, -0.00877866 , 2.635792    , 1.35        , 3           , 11          , 0.008365312 , 0.008365304
-0.0931865  , 0.08140603  , -9.828771   , -0.002151343, -0.00132216467, 0.000586592 , -0.223944992, -0.130106509, 0.453417838 , -0.010068683, -0.008791822, 2.63579774  , 1.36        , 3           , 12          , 0.0384584256, 0
-0.0811657161, 0.112267233 , -9.789679   , 0.00144662941, -0.000805076445, -0.000314104429, -0.223877579, -0.130241334, 0.453552663 , -0.01005419 , -0.008799903, 2.63579488  , 1.37        , 3           , 50          , 0           , 0
-0.06614109 , 0.1206395   , -9.782298   , 0.002646532 , -0.000656175136, 0.000186149933, -0.22367534 , -0.130308747, 0.453350425 , -0.01002774 , -0.008806446, 2.63579679  , 1.38        , 3           , 11          , 0.008365312 , 0.008365304
-0.0767988339, 0.0986931548, -9.793771   , 0.00066329306, 0.0005271051, -0.0003862992, -0.22367534 , -0.130308747, 0.453350425 , -0.0100210737, -0.008801214, 2.63579249  , 1.39        , 3           , 12          , 0.0384584256, 0
-0.0960309  , 0.09293955  , -9.760494   , 0.00234801415, -0.001469701, 0.00103226362, -0.223742753, -0.129971683, 0.453350425 , -0.0100216512, -0.008698328, 2.63580346  , 1.4         , 3           , 50          , 0           , 0
-0.0786830261, 0.0906209052, -9.801954   , -0.000262383459, -0.00190971571, 0.000948796631, -0.223810166, -0.130173922, 0.453552663 , -0.01002436 , -0.008717332, 2.635813    , 1.41        , 3           , 11          , 0.00834646448, 0.00834646
-0.08361902 , 0.0956254   , -9.796999   , -0.0003455546, 0.0005534993, 0.000316554826, -0.223877579, -0.130241334, 0.453350425 , -0.0100278417, -0.008711765, 2.63581634  , 1.42        , 3           , 12          , 0.0390734747, 0
-0.09230347 , 0.09387493  , -9.783062   , 0.00170427561, 7.460672E-05, -2.78284588E-05, -0.223877579, -0.130241334, 0.453350425 , -0.0100107966, -0.008711021, 2.63581586  , 1.43        , 3           , 50          , 0           , 0
-0.08246306 , 0.114118017 , -9.798721   , 0.00353035447, 0.0019875844, -0.00051077985, -0.223742753, -0.130106509, 0.453350425 , -0.009975446, -0.008691197, 2.63581061  , 1.44        , 3           , 11          , 0.00834646448, 0.00834646
-0.07154237 , 0.0810783058, -9.806911   , 0.0033234728, 0.00107106741, 0.00019316563, -0.223540515, -0.1300391  , 0.453552663 , -0.009942228, -0.00868046749, 2.63581252  , 1.45        , 3           , 12          , 0.0390734747, 0
-0.0805325955, 0.0941818357, -9.781162   , -0.001966799, -0.00016139941, -0.00103415537, -0.223607928, -0.130308747, 0.453417838 , -0.009961805, -0.008682185, 2.635802    , 1.46        , 3           , 50          , 0           , 0
-0.08018652 , 0.118565157 , -9.787386   , -0.0021725758, -0.00121869694, 0.000375917 , -0.223607928, -0.130308747, 0.453417838 , -0.009983565, -0.008694335, 2.63580585  , 1.47        , 3           , 11          , 0.00834646448, 0.00834646
-0.0956689045, 0.111086905 , -9.7907     , -0.00040939523, -0.00085480453, -3.91157773E-05, -0.223540515, -0.129971683, 0.453552663 , -0.009987655, -0.008702884, 2.63580585  , 1.48        , 3           , 12          , 0.0390734747, 0
-0.0782989562, 0.09100626  , -9.783871   , -0.00253147073, -9.482546E-05, -0.000118433745, -0.2234731  , -0.129702032, 0.4537549   , -0.01001296 , -0.008703844, 2.63580441  , 1.49        , 3           , 50          , 0           , 0
-0.07762095 , 0.07563532  , -9.7776     , -0.00227820943, 0.000508347061, -0.00152828859, -0.223270863, -0.129971683, 0.453552663 , -0.0100651793, -0.008654794, 2.63579     , 1.5         , 3           , 11          , 0.008329968 , 0.008329962
-0.0914736  , 0.0821978748, -9.802087   , -0.00113112153, -0.00286279083, -0.000398078031, -0.223270863, -0.129971683, 0.453552663 , -0.0100764586, -0.008683461, 2.63578629  , 1.51        , 3           , 12          , 0.0397245958, 0
-0.08718018 , 0.100180954 , -9.79746    , -0.00339669059, -0.00147024123, 0.00100624328, -0.223607928, -0.129836857, 0.453552663 , -0.0101105133, -0.008698061, 2.63579583  , 1.52        , 3           , 50          , 0           , 0
-0.0793749839, 0.107319586 , -9.800534   , -0.00172836357, 0.00360938464, -0.000955806347, -0.223405689, -0.129634619, 0.4536875   , -0.0101277111, -0.008662066, 2.63578629  , 1.53        , 3           , 11          , 0.008329968 , 0.008329962
-0.07894602 , 0.110419422 , -9.78469849 , -0.00198774482, -0.00117913494, -0.00209465018, -0.2234731  , -0.129702032, 0.453552663 , -0.0101474077, -0.008674069, 2.63576531  , 1.54        , 3           , 12          , 0.0397245958, 0
-0.0862021744, 0.09978267  , -9.816438   , 0.0011218125, -0.00143968291, 0.000462239375, -0.2234731  , -0.129702032, 0.453552663 , -0.0101362318, -0.008688418, 2.63577     , 1.55        , 3           , 50          , 0           , 0
-0.104586676, 0.0810272843, -9.81078    , -0.003115984, -0.00118676783, 0.000442919234, -0.223405689, -0.129836857, 0.45348525  , -0.0101674311, -0.00870024 , 2.63577485  , 1.56        , 3           , 11          , 0.008329968 , 0.008329962
-0.07862631 , 0.09423767  , -9.804198   , 0.0005420398, 0.00137214269, -0.00123127992, -0.223540515, -0.129836857, 0.4537549   , -0.0101619  , -0.008686645, 2.63576245  , 1.57        , 3           , 12          , 0.0397245958, 0
-0.102103122, 0.10081809  , -9.800735   , 0.000277898274, -0.0022901122, -0.0009557005, -0.223405689, -0.12990427 , 0.4537549   , -0.0101590417, -0.008709642, 2.635753    , 1.58        , 3           , 50          , 0           , 0
-0.10196992 , 0.112084776 , -9.797071   , 0.0008435677, -0.00228628842, 0.0004596206, -0.223405689, -0.12990427 , 0.4537549   , -0.0101506468, -0.008732456, 2.63575768  , 1.59        , 3           , 11          , 0.008329968 , 0.008329962
-0.0557481162, 0.07951008  , -9.798208   , -0.0002928954, 0.000175705674, 0.00187029236, -0.223540515, -0.129836857, 0.453620076 , -0.0101478314, -0.008807083, 2.63577676  , 1.6         , 3           , 12          , 0.0404096879, 0
-0.08498504 , 0.09027894  , -9.812399   , 0.00224682526, 0.000192885229, -0.00179084239, -0.223405689, -0.129702032, 0.4536875   , -0.0101252049, -0.008805335, 2.63575864  , 1.61        , 3           , 50          , 0           , 0
-0.0989543051, 0.113261946 , -9.755461   , -0.00339006982, -0.0020978325, -0.00097304 , -0.2234731  , -0.129634619, 0.4537549   , -0.0101590231, -0.00882641 , 2.635749    , 1.62        , 3           , 11          , 0.008308635 , 0.008308623
-0.09439428 , 0.108771354 , -9.777592   , -0.00423137425, -0.00294824876, 0.00212961948, -0.2234731  , -0.129634619, 0.4537549   , -0.0102015277, -0.008855674, 2.635771    , 1.63        , 3           , 12          , 0.0404096879, 0
-0.0931824446, 0.08185567  , -9.828317   , -0.00113852986, -0.0003931599, -0.00011228845, -0.223338276, -0.129702032, 0.453552663 , -0.0102129038, -0.008859618, 2.63576961  , 1.64        , 3           , 50          , 0           , 0
-0.07559625 , 0.082036    , -9.809198   , 0.0005504549, 0.000744560268, -0.0001026511, -0.2234731  , -0.129702032, 0.453552663 , -0.0102073895, -0.008852183, 2.63576818  , 1.65        , 3           , 11          , 0.008308635 , 0.008308623
-0.09984068 , 0.0936487   , -9.823347   , 0.00166359753, 0.004130982 , 0.000190361083, -0.223540515, -0.1294998  , 0.453417838 , -0.0101907654, -0.008810855, 2.63577     , 1.66        , 3           , 12          , 0.0404096879, 0
-0.080429   , 0.09560483  , -9.801947   , 0.00336833159, 0.00188991637, -0.00150043354, -0.223540515, -0.1294998  , 0.453417838 , -0.0101569491, -0.008792111, 2.63575482  , 1.67        , 3           , 50          , 0           , 0
-0.100399628, 0.0989242047, -9.780392   , -1.54663E-05, 0.001022307 , 0.0004602237, -0.223405689, -0.129769444, 0.453283    , -0.0101571437, -0.008781841, 2.63575959  , 1.68        , 3           , 11          , 0.008308635 , 0.008308623
-0.08687133 , 0.0844367445, -9.812889   , 0.000839525543, -0.00066135684, -0.0006685788, -0.22367534 , -0.129702032, 0.45348525  , -0.010148691, -0.008788522, 2.635753    , 1.69        , 3           , 12          , 0.0404096879, 0
-0.07406015 , 0.0955546   , -9.80913    , -0.00417045737, 0.000671333866, 0.000438982272, -0.2234731  , -0.1294998  , 0.453283    , -0.0100922957, -0.008831756, 2.63575673  , 1.7         , 3           , 50          , 0           , 0
-0.09416036 , 0.0849321261, -9.80074    , 0.0006408828, -0.00126715074, 0.00102340756, -0.223338276, -0.1294998  , 0.453350425 , -0.0100859795, -0.008844327, 2.63576674  , 1.71        , 3           , 11          , 0.008276738 , 0.008276724
-0.06620708 , 0.0845058   , -9.771601   , 0.000648342248, -0.0026749738, 0.00186885044, -0.223338276, -0.1294998  , 0.453350425 , -0.0100796632, -0.008870886, 2.63578582  , 1.72        , 3           , 12          , 0.0411266871, 0
-0.101611972, 0.112448975 , -9.772659   , -0.00360814 , 0.0009567134, -0.00153571216, -0.223540515, -0.129702032, 0.453552663 , -0.0101156086, -0.008861474, 2.63577     , 1.73        , 3           , 50          , 0           , 0
-0.08763321 , 0.102417827 , -9.790222   , -0.001616485, -0.001563992, 0.002142588 , -0.22367534 , -0.129769444, 0.45348525  , -0.0101319645, -0.00887689553, 2.635792    , 1.74        , 3           , 11          , 0.008276738 , 0.008276724
-0.0895985  , 0.08803098  , -9.798885   , -0.00304804626, 0.0020867975, -0.000118655065, -0.22367534 , -0.129769444, 0.453417838 , -0.0101624327, -0.00885604 , 2.63579059  , 1.75        , 3           , 12          , 0.0411266871, 0
-0.08970546 , 0.0794636458, -9.800277   , -0.0024622085, -0.00185128651, 0.002420741 , -0.22367534 , -0.129769444, 0.453417838 , -0.01018727 , -0.008874306, 2.635815    , 1.76        , 3           , 50          , 0           , 0
-0.0827826858, 0.0902024657, -9.797468   , -0.00360502582, 0.000393584836, -0.000971505069, -0.223540515, -0.129769444, 0.453350425 , -0.0102232341, -0.00887046847, 2.63580537  , 1.77        , 3           , 11          , 0.008276738 , 0.008276724
-0.08679719 , 0.09654829  , -9.792048   , 0.0009197804, -0.000420542259, 0.00215617614, -0.223877579, -0.129634619, 0.453620076 , -0.0102142273, -0.008874454, 2.63582635  , 1.78        , 3           , 12          , 0.0411266871, 0
-0.0593432225, 0.108513236 , -9.822523   , -0.00189710269, -0.002129037, 0.000445178332, -0.223607928, -0.129702032, 0.453283    , -0.0102332393, -0.008895698, 2.635831    , 1.79        , 3           , 50          , 0           , 0
-0.07099721 , 0.09007485  , -9.800542   , -0.00241195248, 0.00102180941, -0.00124784024, -0.223607928, -0.129702032, 0.453283    , -0.0101729967, -0.008812629, 2.63581872  , 1.8         , 3           , 11          , 0.008232338 , 0.008232322
-0.08276461 , 0.09959047  , -9.771665   , 0.0004141993, 0.000759346352, -0.000387492415, -0.223742753, -0.129769444, 0.453283    , -0.01016882 , -0.008805076, 2.63581443  , 1.81        , 3           , 12          , 0.0418736152, 0
-0.08594901 , 0.09202765  , -9.792512   , 0.00125655648, 0.00189133978, 0.0007483439, -0.2234731  , -0.12990427 , 0.453417838 , -0.0101563176, -0.008786087, 2.63582158  , 1.82        , 3           , 50          , 0           , 0
-0.0760912  , 0.08557796  , -9.787492   , 0.0009852073, -0.0006446632, -0.0017997158, -0.223405689, -0.129971683, 0.453350425 , -0.0101463078, -0.008792714, 2.635804    , 1.83        , 3           , 11          , 0.008232338 , 0.008232322
-0.09671436 , 0.1033962   , -9.781248   , -0.0009914541, -0.000658031262, -0.00124385918, -0.223405689, -0.129971683, 0.453350425 , -0.0101561127, -0.008799421, 2.63579154  , 1.84        , 3           , 12          , 0.0418736152, 0
-0.110053927, 0.08329543  , -9.79544449 , -0.000430129963, 0.000190487044, -0.000109773595, -0.223405689, -0.129769444, 0.453552663 , -0.0101604052, -0.008797526, 2.63579059  , 1.85        , 3           , 50          , 0           , 0
-0.08337714 , 0.08518314  , -9.778961   , 0.0026668075, 0.00218245224, -9.224977E-05, -0.22367534 , -0.12990427 , 0.453283    , -0.0101337265, -0.008775712, 2.63578916  , 1.86        , 3           , 11          , 0.008232338 , 0.008232322
-0.06410847 , 0.105249584 , -9.775115   , -0.0012831497, 0.00131101662, -0.0003945261, -0.223405689, -0.129769444, 0.45348525  , -0.010146522, -0.008762643, 2.63578534  , 1.87        , 3           , 12          , 0.0418736152, 0
-0.09002397 , 0.09475368  , -9.783945   , 0.0009889742, -0.00120778847, -0.000105358587, -0.223405689, -0.129769444, 0.45348525  , -0.0101366248, -0.008774731, 2.63578439  , 1.88        , 3           , 50          , 0           , 0
-0.102563366, 0.10081736  , -9.79893    , -0.00379933533, -0.00349276979, 0.00297669414, -0.223405689, -0.129702032, 0.453417838 , -0.0101748826, -0.008809354, 2.63581443  , 1.89        , 3           , 11          , 0.008232338 , 0.008232322
-0.096931085, 0.08759837  , -9.779055   , -9.575041E-05, 0.0007427232, 0.000174396031, -0.223607928, -0.129702032, 0.453417838 , -0.0101038832, -0.008818803, 2.63581586  , 1.9         , 3           , 12          , 0.0426485576, 0
-0.08551982 , 0.09289592  , -9.783917   , 0.000746117148, 0.00187471416, 0.000462620024, -0.2234731  , -0.129634619, 0.453620076 , -0.0100964624, -0.00880001 , 2.63582015  , 1.91        , 3           , 50          , 0           , 0
-0.104056589, 0.0949214846, -9.784955   , -0.00236745924, 0.002979959 , -0.0018104302, -0.2234731  , -0.129634619, 0.453620076 , -0.0101199746, -0.008770394, 2.63580155  , 1.92        , 3           , 11          , 0.00817701  , 0.008176999
-0.08320718 , 0.0982650146, -9.778454   , -0.00235606963, 0.001009011 , 0.001011907 , -0.223607928, -0.130173922, 0.453350425 , -0.0101436218, -0.008760202, 2.635812    , 1.93        , 3           , 12          , 0.0426485576, 0
-0.0490418747, 0.104728848 , -9.806641   , -0.00347102084, -0.00181427575, 0.00241498742, -0.223607928, -0.129634619, 0.453620076 , -0.0101785464, -0.008778101, 2.635836    , 1.94        , 3           , 50          , 0           , 0
-0.09968357 , 0.08715491  , -9.771847   , -0.0006703621, 0.002709859 , 0.0001747997, -0.223607928, -0.129836857, 0.453417838 , -0.0101852622, -0.008750984, 2.63583779  , 1.95        , 3           , 11          , 0.00817701  , 0.008176999
-0.0968992859, 0.09789017  , -9.753701   , -0.00235697418, 0.00129057816, 0.00185995339, -0.223607928, -0.129836857, 0.453417838 , -0.0102089942, -0.008737889, 2.635856    , 1.96        , 3           , 12          , 0.0426485576, 0
-0.10042157 , 0.0944429338, -9.789449   , -8.69713E-05, -0.00122823706, -0.0015238662, -0.223607928, -0.129702032, 0.4532156   , -0.01020973 , -0.008750327, 2.63584065  , 1.97        , 3           , 50          , 0           , 0
-0.09126797 , 0.100664832 , -9.792969   , -0.00263865921, 0.0010071001, 0.0007280526, -0.22367534 , -0.129702032, 0.453350425 , -0.0102361795, -0.008740182, 2.63584828  , 1.98        , 3           , 11          , 0.00817701  , 0.008176999
-0.0874193758, 0.08168677  , -9.798441   , -0.002624141, -0.00209011952, -0.0006894079, -0.223607928, -0.130106509, 0.45348525  , -0.0102623608, -0.008761153, 2.63584161  , 1.99        , 3           , 12          , 0.0426485576, 0
-0.09301831 , 0.09716457  , -9.819212   , -1.34402362E-05, -0.000426337472, -0.00011095099, -0.223607928, -0.130106509, 0.45348525  , -0.0101571027, -0.008824096, 2.6358397   , 2           , 3           , 50          , 0           , 0
-0.0946703255, 0.08578381  , -9.784017   , -0.0005736224, -0.00127485034, 0.0007327256, -0.22367534 , -0.12990427 , 0.453350425 , -0.0101629049, -0.008836769, 2.63584733  , 2.01        , 3           , 11          , 0.008114354 , 0.008114341
-0.07420019 , 0.09276302  , -9.783832   , 0.00252700737, -0.000127582636, -9.866465E-05, -0.22367534 , -0.129836857, 0.45348525  , -0.0101376269, -0.008838056, 2.63584638  , 2.02        , 3           , 12          , 0.043449685 , 0
-0.08166328 , 0.112236261 , -9.778836   , 0.00168054237, -0.00013330864, 0.00131007179, -0.223944992, -0.129836857, 0.453552663 , -0.0101209376, -0.008839257, 2.63585925  , 2.03        , 3           , 50          , 0           , 0
-0.07339096 , 0.0859790742, -9.782046   , 0.0005432125, 0.00126687367, 0.000176823727, -0.223944992, -0.129836857, 0.453552663 , -0.01011552 , -0.00882657 , 2.63586068  , 2.04        , 3           , 11          , 0.008114354 , 0.008114341
-0.0919268355, 0.0866663158, -9.787609   , -0.004528903, -0.00130159617, -0.00154601119, -0.22367534 , -0.1300391  , 0.4531482   , -0.0101606734, -0.008839742, 2.63584542  , 2.05        , 3           , 12          , 0.043449685 , 0
-0.09444728 , 0.105157614 , -9.776252   , 0.00252454565, 0.000435549067, 0.000467277918, -0.223742753, -0.129971683, 0.453350425 , -0.010135469, -0.008835341, 2.63585019  , 2.06        , 3           , 50          , 0           , 0
-0.0867538452, 0.09970785  , -9.792486   , 0.0002750521, -0.00155068538, 0.0007362425, -0.2234731  , -0.129971683, 0.45348525  , -0.0101327868, -0.008850772, 2.63585782  , 2.07        , 3           , 11          , 0.008114354 , 0.008114341
-0.118064187, 0.0986803547, -9.780527   , 0.000274562626, -0.00155068783, -0.0001113698, -0.22367534 , -0.130308747, 0.453283    , -0.0101300338, -0.00886629149, 2.63585687  , 2.08        , 3           , 12          , 0.043449685 , 0
-0.101349995, 0.0988985449, -9.769549   , 0.00166841154, 0.00211920729, -0.000381681457, -0.22367534 , -0.130308747, 0.453283    , -0.0101133129, -0.008845137, 2.635853    , 2.09        , 3           , 50          , 0           , 0
-0.106768683, 0.09361806  , -9.790405   , 0.00028239  , 0.001469894 , -0.00265041785, -0.223877579, -0.129836857, 0.45348525  , -0.0100751584, -0.008939904, 2.63582587  , 2.1         , 3           , 11          , 0.008039467 , 0.008039462
-0.104656935, 0.08186307  , -9.79089    , -0.00113368861, 0.00258661225, 0.00017010796, -0.2240124  , -0.12990427 , 0.45348525  , -0.0100865094, -0.008914022, 2.6358273   , 2.11        , 3           , 12          , 0.0442752428, 0
-0.09737067 , 0.08270451  , -9.798062   , -0.00197743974, 0.001736184 , -0.0009652944, -0.223742753, -0.1300391  , 0.453350425 , -0.0101061948, -0.008896759, 2.63581777  , 2.12        , 3           , 50          , 0           , 0
-0.09683241 , 0.08991006  , -9.795768   , -0.002548937, 0.00314019085, -0.000400683552, -0.223742753, -0.1300391  , 0.453350425 , -0.0101316478, -0.0088654  , 2.635813    , 2.13        , 3           , 11          , 0.008039467 , 0.008039462
-0.08784506 , 0.0830531046, -9.800699   , 0.000281811837, 0.001751463 , -0.00123729638, -0.223810166, -0.130241334, 0.45348525  , -0.010128716, -0.00884801149, 2.6358006   , 2.14        , 3           , 12          , 0.0442752428, 0
-0.07537628 , 0.102300011 , -9.797813   , 0.00142815837, -0.00133810681, 0.00102349778, -0.223810166, -0.12990427 , 0.45348525  , -0.0101145264, -0.008861288, 2.635811    , 2.15        , 3           , 50          , 0           , 0
-0.0855852  , 0.08257689  , -9.801136   , -0.0005578461, 0.00033791078, -0.000113266869, -0.223540515, -0.129836857, 0.453283    , -0.0101200938, -0.008857919, 2.63581014  , 2.16        , 3           , 11          , 0.008039467 , 0.008039462
-0.08220604 , 0.101456285 , -9.79154    , 0.00198088121, 0.000918229169, -0.0006656216, -0.223540515, -0.129836857, 0.453283    , -0.0101002268, -0.008848805, 2.635803    , 2.17        , 3           , 12          , 0.0442752428, 0
-0.102239847, 0.09490475  , -9.786297   , -0.00140791456, 0.00089531095, -0.000116349795, -0.223810166, -0.129702032, 0.453417838 , -0.0101142935, -0.008839864, 2.63580155  , 2.18        , 3           , 50          , 0           , 0
-0.09175512 , 0.0970715061, -9.796152   , 0.00198243838, 0.0006366648, -0.000383518, -0.22367534 , -0.129769444, 0.45348525  , -0.010094435, -0.008833536, 2.63579774  , 2.19        , 3           , 11          , 0.008039467 , 0.008039462
-0.06816396 , 0.09638628  , -9.80863    , -0.000520759146, 0.00366224628, -0.00152172148, -0.22367534 , -0.129971683, 0.45348525  , -0.01001855 , -0.008877748, 2.635782    , 2.2         , 3           , 12          , 0.0451235734, 0
-0.08550787 , 0.0964764059, -9.775314   , -0.0007787465, -0.00140783831, -0.00266099931, -0.22367534 , -0.129971683, 0.45348525  , -0.0100261029, -0.008892092, 2.63575578  , 2.21        , 3           , 50          , 0           , 0
-0.0667610839, 0.106226116 , -9.78778648 , -0.0005143674, 0.00253599  , -0.000110769623, -0.223742753, -0.1295672  , 0.453350425 , -0.0100312345, -0.008866745, 2.63575387  , 2.22        , 3           , 11          , 0.007957018 , 0.007957004
-0.0765347555, 0.08291265  , -9.798354   , -0.000216932836, -0.000559317647, -0.0006793009, -0.223742753, -0.12990427 , 0.453620076 , -0.0100333439, -0.008872405, 2.63574719  , 2.23        , 3           , 12          , 0.0451235734, 0
-0.08385556 , 0.1158917   , -9.784714   , -0.00332453242, -0.000298759784, 0.000154258945, -0.223742753, -0.129702032, 0.45348525  , -0.0100666033, -0.008875379, 2.635749    , 2.24        , 3           , 50          , 0           , 0
-0.08934833 , 0.1087658   , -9.793372   , -0.0013472928, -0.0005669606, -0.00181471882, -0.223742753, -0.129702032, 0.45348525  , -0.0100799156, -0.008881231, 2.635731    , 2.25        , 3           , 11          , 0.007957018 , 0.007957004
-0.0808249637, 0.101905085 , -9.795595   , -0.00247971341, 0.000270101766, 0.000724152662, -0.223810166, -0.129836857, 0.453620076 , -0.0101047782, -0.0088784555, 2.63573813  , 2.26        , 3           , 12          , 0.0451235734, 0
-0.104824573, 0.10709507  , -9.779487   , -0.00219433568, -0.000291117583, 0.0010071391, -0.223607928, -0.12943238 , 0.4536875   , -0.0101268105, -0.008881264, 2.63574815  , 2.27        , 3           , 50          , 0           , 0
-0.0884761959, 0.07889677  , -9.770439   , -0.0007854047, 0.0005631321, 0.00271025021, -0.2234731  , -0.1295672  , 0.45348525  , -0.0101349046, -0.00887536 , 2.63577533  , 2.28        , 3           , 11          , 0.007957018 , 0.007957004
-0.0765303448, 0.118996471 , -9.794136   , 0.000913842 , -0.0008332444, -0.00123954215, -0.2234731  , -0.1295672  , 0.45348525  , -0.0101256575, -0.008883817, 2.635763    , 2.29        , 3           , 12          , 0.0451235734, 0
-0.08172777 , 0.100578904 , -9.80058    , 3.76691751E-05, 0.00170860114, -0.000956682663, -0.22367534 , -0.129836857, 0.453552663 , -0.010150631, -0.008846046, 2.63575387  , 2.3         , 3           , 50          , 0           , 0
-0.104850717, 0.07188634  , -9.775565   , -0.000525790441, 0.001423216 , -0.0009597504, -0.22367534 , -0.129769444, 0.4537549   , -0.0101558035, -0.00883191451, 2.63574433  , 2.31        , 3           , 11          , 0.007868401 , 0.007868392
-0.09333544 , 0.0817316845, -9.791256   , -0.00278176437, 0.000844809343, 0.000158995914, -0.2234731  , -0.129769444, 0.4536875   , -0.0101836342, -0.00882345 , 2.63574576  , 2.32        , 3           , 12          , 0.0459931046, 0
-0.06785    , 0.09269768  , -9.786495   , 0.000323210319, 0.00114738243, -0.0003911586, -0.2234731  , -0.129769444, 0.4536875   , -0.0101803653, -0.008812016, 2.63574147  , 2.33        , 3           , 50          , 0           , 0
-0.09013818 , 0.08394872  , -9.79077    , 3.92263464E-05, 0.00142703671, -0.00067457906, -0.223338276, -0.1295672  , 0.453552663 , -0.0101799127, -0.008797815, 2.6357348   , 2.34        , 3           , 11          , 0.007868401 , 0.007868392
-0.0978662446, 0.07776529  , -9.80351    , -0.0007964126, -0.0008312114, 0.000165610865, -0.2234731  , -0.129364967, 0.4537549   , -0.0101878932, -0.008806109, 2.6357367   , 2.35        , 3           , 12          , 0.0459931046, 0
-0.07564421 , 0.08021174  , -9.80333    , 5.923183E-05, -0.002514872, 0.000166958052, -0.22367534 , -0.1295672  , 0.453620076 , -0.0101873167, -0.008831239, 2.63573861  , 2.36        , 3           , 50          , 0           , 0
-0.06363735 , 0.104812771 , -9.780989   , -0.0022081316, -0.001122331, -0.00153663266, -0.22367534 , -0.1295672  , 0.453620076 , -0.0102092642, -0.008842619, 2.63572335  , 2.37        , 3           , 11          , 0.007868401 , 0.007868392
-0.0776577443, 0.09874158  , -9.805078   , -0.00334464572, 0.000277855375, -0.001257193, -0.223405689, -0.1295672  , 0.453552663 , -0.0102425991, -0.00883996952, 2.635711    , 2.38        , 3           , 12          , 0.0459931046, 0
-0.09324129 , 0.08805688  , -9.79394    , -0.0019363676, 0.001132102 , -0.0006842315, -0.223405689, -0.129230142, 0.4538223   , -0.0102619017, -0.008828718, 2.6357038   , 2.39        , 3           , 50          , 0           , 0
-0.07933082 , 0.0815411955, -9.783465   , -0.00269894558, 0.000307280221, -0.0009723413, -0.223405689, -0.129364967, 0.4537549   , -0.0101596592, -0.008784761, 2.63569379  , 2.4         , 3           , 11          , 0.00777591  , 0.007775909
-0.08307922 , 0.102385849 , -9.79651451 , 0.00266052061, 0.00175139657, -0.000380074867, -0.223405689, -0.129364967, 0.4537549   , -0.01013302 , -0.008767286, 2.6356895   , 2.41        , 3           , 12          , 0.0468823463, 0
-0.102606066, 0.10613896  , -9.77133751 , 0.000423321035, -0.00248735328, 0.00186318031, -0.22367534 , -0.12943238 , 0.453552663 , -0.0101289507, -0.008791969, 2.635708    , 2.42        , 3           , 50          , 0           , 0
-0.108032666, 0.09772764  , -9.800342   , -0.000159565854, 0.000887601753, -0.000394546048, -0.2234731  , -0.1294998  , 0.4538223   , -0.0101305125, -0.008783133, 2.63570428  , 2.43        , 3           , 11          , 0.00777591  , 0.007775909
-0.09288056 , 0.07949632  , -9.798944   , -0.002702223, 0.000870408 , -0.0018190858, -0.22367534 , -0.1294998  , 0.4537549   , -0.0101573737, -0.008774613, 2.63568616  , 2.44        , 3           , 12          , 0.0468823463, 0
-0.08435745 , 0.08245511  , -9.769488   , 0.001533275 , 0.00118062494, -0.0009512855, -0.2234731  , -0.1295672  , 0.4537549   , -0.0101419576, -0.00876290351, 2.63567662  , 2.45        , 3           , 50          , 0           , 0
-0.09261794 , 0.109614596 , -9.766274   , 0.002392197 , -0.00106616342, -0.000103193655, -0.2234731  , -0.1295672  , 0.4537549   , -0.0101180263, -0.008773576, 2.63567567  , 2.46        , 3           , 11          , 0.00777591  , 0.007775909
-0.105516873, 0.08815958  , -9.78183    , 0.0006987034, -0.00135918986, -0.0006766042, -0.22367534 , -0.129364967, 0.453889728 , -0.0101109818, -0.008787235, 2.635669    , 2.47        , 3           , 12          , 0.0468823463, 0
-0.0976165161, 0.09537533  , -9.807955   , -0.0009992237, -0.0005259505, 0.0007294832, -0.223540515, -0.12943238 , 0.4537549   , -0.0101210382, -0.008792421, 2.63567615  , 2.48        , 3           , 50          , 0           , 0
-0.0917525962, 0.0979662538, -9.793888   , -0.0015659607, -0.000248207652, -0.00012032895, -0.223338276, -0.129162729, 0.4536875   , -0.0101366853, -0.008794914, 2.63567519  , 2.49        , 3           , 11          , 0.00777591  , 0.007775909
-0.0841705352, 0.08305291  , -9.813327   , 0.00187234627, -0.0014087396, -0.00123728369, -0.223338276, -0.129162729, 0.4536875   , -0.0100442711, -0.008904183, 2.63566232  , 2.5         , 3           , 12          , 0.0477899052, 0
-0.08252461 , 0.106480196 , -9.808246   , 0.000728861953, 0.00139927189, -0.000955674564, -0.223540515, -0.129634619, 0.4537549   , -0.0100368951, -0.008890288, 2.63565278  , 2.51        , 3           , 50          , 0           , 0
-0.0777120963, 0.10092929  , -9.784728   , -0.00151793216, -0.000868521456, 0.00157315575, -0.223607928, -0.12943238 , 0.4538223   , -0.0100522162, -0.008898814, 2.635669    , 2.52        , 3           , 11          , 0.007681021 , 0.0076810224
-0.08527362 , 0.07308379  , -9.797105   , -0.00122844661, -0.002556008, -0.000688430737, -0.223540515, -0.1294998  , 0.4536875   , -0.0100644417, -0.008924442, 2.63566232  , 2.53        , 3           , 12          , 0.0477899052, 0
-0.07729502 , 0.06793927  , -9.771302   , 0.0001756498, -0.000857066247, -0.000114167451, -0.223540515, -0.1294998  , 0.4536875   , -0.0100626759, -0.00893302448, 2.63566136  , 2.54        , 3           , 50          , 0           , 0
-0.0752709061, 0.08371283  , -9.772576   , 0.00355255185, 0.00169994077, 0.0004706159, -0.22367534 , -0.12943238 , 0.453620076 , -0.0100271916, -0.00891597848, 2.63566566  , 2.55        , 3           , 11          , 0.007681021 , 0.0076810224
-0.09606247 , 0.08041618  , -9.79309    , -0.0001249734, 0.002519798 , -0.00265311473, -0.22367534 , -0.129702032, 0.4538223   , -0.0100282021, -0.008891048, 2.63563848  , 2.56        , 3           , 12          , 0.0477899052, 0
-0.09710624 , 0.102558196 , -9.798882   , 0.00215426926, -0.0008436886, 0.0027204256, -0.223540515, -0.129702032, 0.4536875   , -0.0100069037, -0.008899212, 2.63566613  , 2.57        , 3           , 50          , 0           , 0
-0.107264034, 0.0864473   , -9.803094   , 0.0010308791, -0.002259157, 0.00158283836, -0.223540515, -0.129702032, 0.4536875   , -0.009996737, -0.008921644, 2.63568234  , 2.58        , 3           , 11          , 0.007681021 , 0.0076810224
-0.09782006 , 0.0822662339, -9.800327   , 0.0007340229, 0.000554581464, 0.000738248345, -0.2234731  , -0.1295672  , 0.4536875   , -0.009989463, -0.008916025, 2.6356895   , 2.59        , 3           , 12          , 0.0477899052, 0
-0.08097078 , 0.0937526152, -9.78613949 , -0.000320950465, 0.001917195 , 0.000451590226, -0.223338276, -0.12943238 , 0.453889728 , -0.009851491, -0.008961615, 2.63569283  , 2.6         , 3           , 50          , 0           , 0
-0.0928922147, 0.0839503855, -9.781751   , 0.00137951283, 0.0008023963, 0.00102283107, -0.223405689, -0.1294998  , 0.4537549   , -0.009837787, -0.008953489, 2.63570333  , 2.61        , 3           , 11          , 0.007584494 , 0.00758448849
-0.112537727, 0.0657361746, -9.798248   , 0.00192821643, 0.003903428 , -0.000382448954, -0.223405689, -0.1294998  , 0.4537549   , -0.009818467, -0.008914495, 2.63569856  , 2.62        , 3           , 12          , 0.0487144478, 0
-0.112477764, 0.09874055  , -9.817546   , 0.00476863468, 0.000825316 , 0.00103863433, -0.2234731  , -0.12943238 , 0.453620076 , -0.009770874, -0.00890614 , 2.635709    , 2.63        , 3           , 50          , 0           , 0
-0.09155137 , 0.07276148  , -9.813426   , -0.000297905, -0.00286941417, -0.0006859363, -0.2234731  , -0.12943238 , 0.4536875   , -0.009773794, -0.0089349  , 2.63570237  , 2.64        , 3           , 11          , 0.007584494 , 0.00758448849
-0.09566418 , 0.06965429  , -9.814375   , 0.0008209765, -0.000609252253, -0.000112122143, -0.223338276, -0.129364967, 0.4538223   , -0.009765576, -0.008941003, 2.63570142  , 2.65        , 3           , 12          , 0.0487144478, 0
-0.09490516 , 0.09310733  , -9.81382    , -0.000295932754, -0.00343254814, -0.00209949166, -0.223338276, -0.129364967, 0.4538223   , -0.009768348, -0.008975531, 2.635681    , 2.66        , 3           , 50          , 0           , 0
-0.098267816, 0.0916489661, -9.771365   , 0.000250710058, 0.000513188948, 0.000169516949, -0.223607928, -0.1294998  , 0.453552663 , -0.009765857, -0.00897038449, 2.63568234  , 2.67        , 3           , 11          , 0.007584494 , 0.00758448849
-0.081105426, 0.08560922  , -9.779394   , 0.000803269562, 0.00276952446, -0.00180213992, -0.223338276, -0.129230142, 0.4539571   , -0.00975766 , -0.008942867, 2.63566422  , 2.68        , 3           , 12          , 0.0487144478, 0
-0.109423712, 0.09637803  , -9.79674149 , -0.00257002888, -0.000350609043, -0.000975103932, -0.223338276, -0.1295672  , 0.453889728 , -0.009783275, -0.008946466, 2.63565469  , 2.69        , 3           , 50          , 0           , 0
-0.104987644, 0.120725624 , -9.80655    , 0.00230130646, -0.00122779212, -0.00208534976, -0.223338276, -0.1295672  , 0.453889728 , -0.009641036, -0.009075114, 2.63563275  , 2.7         , 3           , 11          , 0.007487251 , 0.00748723373
-0.0973209143, 0.117039658 , -9.810575   , 0.0042785313, -0.000932849362, 0.0007496773, -0.223607928, -0.1294998  , 0.4538223   , -0.009598319, -0.009084369, 2.63564038  , 2.71        , 3           , 12          , 0.04965475  , 0
-0.09628451 , 0.09756978  , -9.794376   , -0.0007882602, -0.00434600841, 0.00100330275, -0.223607928, -0.129364967, 0.453889728 , -0.009606298, -0.0091277305, 2.63565087  , 2.72        , 3           , 50          , 0           , 0
-0.07792349 , 0.07710143  , -9.809688   , 5.47640266E-05, -0.003777156, -0.00153471576, -0.2234731  , -0.12943238 , 0.4538223   , -0.009605614, -0.009165648, 2.635636    , 2.73        , 3           , 11          , 0.007487251 , 0.00748723373
-0.08473043 , 0.0794006363, -9.798883   , 0.00116356113, 0.0004539601, -0.00152293907, -0.2234731  , -0.12943238 , 0.4538223   , -0.009593838, -0.009161253, 2.63562131  , 2.74        , 3           , 12          , 0.04965475  , 0
-0.09371291 , 0.117878266 , -9.804216   , 0.00284532458, 0.003281077 , 0.0004670641, -0.223270863, -0.1295672  , 0.4536875   , -0.009565424, -0.009128399, 2.63562512  , 2.75        , 3           , 50          , 0           , 0
-0.07351368 , 0.106337614 , -9.797329   , 0.00342748431, -0.000375453761, -0.0009486304, -0.223607928, -0.129364967, 0.453889728 , -0.009531062, -0.009132244, 2.63561559  , 2.76        , 3           , 11          , 0.007487251 , 0.00748723373
-0.100594595, 0.0822512656, -9.786337   , 0.003413218 , 0.00244019553, -0.001509366, -0.223607928, -0.12943238 , 0.454024523 , -0.00949679 , -0.009107987, 2.63560033  , 2.77        , 3           , 12          , 0.04965475  , 0
-0.09249227 , 0.110609137 , -9.79384    , -0.0008129371, 0.000440592674, -0.0006845451, -0.223607928, -0.12943238 , 0.454024523 , -0.009504858, -0.009103646, 2.63559365  , 2.78        , 3           , 50          , 0           , 0
-0.06307903 , 0.116498083 , -9.769184   , 0.00341944653, 0.00131393818, -0.000380951766, -0.223540515, -0.1295672  , 0.453620076 , -0.009470627, -0.009090543, 2.63558984  , 2.79        , 3           , 11          , 0.007487251 , 0.00748723373
-0.07725295 , 0.104499929 , -9.774766   , 0.003638991 , 0.00329962419, -0.0006584491, -0.2234731  , -0.129230142, 0.4537549   , -0.009532319, -0.009033859, 2.635584    , 2.8         , 3           , 12          , 0.0506096333, 0
-0.08536479 , 0.105965689 , -9.779794   , 0.00111404108, -9.634568E-05, -0.00039297124, -0.223742753, -0.129297554, 0.4539571   , -0.009521144, -0.009034859, 2.6355803   , 2.81        , 3           , 50          , 0           , 0
-0.07685575 , 0.08972001  , -9.808724   , -0.0011354523, -0.00208258 , -0.000124006765, -0.223742753, -0.129297554, 0.4539571   , -0.009532488, -0.009055698, 2.63557935  , 2.82        , 3           , 11          , 0.007390753 , 0.00739073148
-0.08640385 , 0.08667509  , -9.80926    , -0.00199897145, 0.00129047316, 0.0007248619, -0.223540515, -0.12943238 , 0.4536875   , -0.009552542, -0.009042723, 2.6355865   , 2.83        , 3           , 12          , 0.0506096333, 0
-0.0865748152, 0.0798413   , -9.789404   , -1.32044224E-05, -0.000667117245, -0.000964181847, -0.223540515, -0.12943238 , 0.4537549   , -0.009552588, -0.009049487, 2.635577    , 2.84        , 3           , 50          , 0           , 0
-0.07251423 , 0.07969618  , -9.795173   , 0.00111805985, -0.000941041741, -0.0006768105, -0.223338276, -0.129297554, 0.4538223   , -0.009541345, -0.009058961, 2.63557029  , 2.85        , 3           , 11          , 0.007390753 , 0.00739073148
-0.09790305 , 0.108459488 , -9.806547   , -0.00113872974, -0.00151945243, -0.0009707514, -0.223540515, -0.129364967, 0.4536875   , -0.0095526455, -0.00907424651, 2.63556075  , 2.86        , 3           , 12          , 0.0506096333, 0
-0.0935815  , 0.09663406  , -9.793907   , -0.000863925554, -0.00010972016, -0.00209741481, -0.223540515, -0.129364967, 0.4536875   , -0.00956109352, -0.009075543, 2.63553977  , 2.87        , 3           , 50          , 0           , 0
-0.08356023 , 0.104600057 , -9.782498   , -0.000296372658, -0.000387458946, 0.0001650849, -0.223405689, -0.129297554, 0.4539571   , -0.009564074, -0.009079404, 2.6355412   , 2.88        , 3           , 11          , 0.007390753 , 0.00739073148
-0.081311   , 0.102329805 , -9.786107   , -0.0022673693, -0.00180865871, -0.001541528, -0.2234731  , -0.129297554, 0.4537549   , -0.009586609, -0.009097636, 2.63552642  , 2.89        , 3           , 12          , 0.0506096333, 0
-0.0726766661, 0.09421996  , -9.819522   , -0.00116918213, -0.00036852638, -0.000968431239, -0.223405689, -0.129162729, 0.4536875   , -0.009645944, -0.009054105, 2.63551784  , 2.9         , 3           , 50          , 0           , 0
-0.1043623  , 0.09459962  , -9.822021   , 0.00134666264, 0.00499840267, -0.000100721663, -0.223405689, -0.129162729, 0.4536875   , -0.009632465, -0.009004134, 2.63551641  , 2.91        , 3           , 11          , 0.00729545066, 0.007295416
-0.101850696, 0.08949168  , -9.788124   , -0.0011685295, -0.000368523237, 0.0001617184, -0.223405689, -0.129230142, 0.4539571   , -0.009644165, -0.009007803, 2.63551784  , 2.92        , 3           , 12          , 0.05157801  , 0
-0.113261513, 0.08731892  , -9.773305   , -4.89065933E-05, 0.00161007047, -0.000395051029, -0.2234731  , -0.1294998  , 0.4538223   , -0.009644615, -0.008991741, 2.63551354  , 2.93        , 3           , 50          , 0           , 0
-0.0837077945, 0.09153633  , -9.788429   , 0.0007987889, 0.00133423065, -0.002086759, -0.223136038, -0.129702032, 0.453620076 , -0.009636439, -0.008978601, 2.63549256  , 2.94        , 3           , 11          , 0.00729545066, 0.007295416
-0.07501964 , 0.100877747 , -9.778833   , 0.00137003441, 0.00021179422, -0.0006731735, -0.223136038, -0.129702032, 0.453620076 , -0.009622678, -0.008976546, 2.635486    , 2.95        , 3           , 12          , 0.05157801  , 0
-0.07438888 , 0.112175405 , -9.786013   , -0.00202375883, 0.00103356736, -0.00153528748, -0.2234731  , -0.129297554, 0.4536875   , -0.009642777, -0.008966359, 2.63547063  , 2.96        , 3           , 50          , 0           , 0
-0.08219045 , 0.102361605 , -9.79244    , -4.07057159E-05, -7.93206855E-05, -0.0006801921, -0.22320345 , -0.129230142, 0.453889728 , -0.009643124, -0.008967218, 2.635464    , 2.97        , 3           , 11          , 0.00729545066, 0.007295416
-0.0881399661, 0.09746957  , -9.792958   , -0.00202236488, 0.0007520024, -0.00153572136, -0.22367534 , -0.129297554, 0.4537549   , -0.009663208, -0.008959847, 2.63544869  , 2.98        , 3           , 12          , 0.05157801  , 0
-0.08106604 , 0.09099734  , -9.77168751 , 0.004199389 , -0.00089536875, -0.00150935247, -0.22367534 , -0.129297554, 0.4537549   , -0.009621081, -0.008968946, 2.63543344  , 2.99        , 3           , 50          , 0           , 0
-0.123201266, 0.0812044   , -9.7987175  , 0.0005170522, -0.00231323577, -0.000680589234, -0.223136038, -0.12943238 , 0.4538223   , -0.009652067, -0.008962813, 2.63542771  , 3           , 3           , 11          , 0.007200927 , 0.00720089674
-0.09356911 , 0.09575142  , -9.799787   , -0.0009175491, 0.0021822548, -0.000962768449, -0.2234731  , -0.1294998  , 0.4539571   , -0.009661155, -0.008941084, 2.63541818  , 3.01        , 3           , 12          , 0.0525588766, 0
-0.06704558 , 0.08189268  , -9.796478   , -0.00174687093, -0.00148382189, -0.00125489791, -0.223338276, -0.1294998  , 0.4537549   , -0.009678512, -0.008956043, 2.63540578  , 3.02        , 3           , 50          , 0           , 0
-0.0891442746, 0.0924903154, -9.784851   , -0.00232345471, 0.00104644778, 0.000159060874, -0.223338276, -0.1294998  , 0.4537549   , -0.009701762, -0.008945565, 2.63540721  , 3.03        , 3           , 11          , 0.007200927 , 0.00720089674
-0.100211114, 0.109343015 , -9.793002   , 0.003036753 , 0.002208996 , -0.00037925638, -0.223405689, -0.12943238 , 0.453889728 , -0.009671357, -0.008923511, 2.635403    , 3.04        , 3           , 12          , 0.0525588766, 0
-0.08960837 , 0.0898083746, -9.790742   , 0.00107772369, -0.0014647207, -0.0006766536, -0.223742753, -0.129634619, 0.454159349 , -0.009660521, -0.008938224, 2.63539624  , 3.05        , 3           , 50          , 0           , 0
-0.08559157 , 0.0865888745, -9.786657   , 0.00164799043, -0.00258716173, -0.0009582929, -0.223607928, -0.129634619, 0.453889728 , -0.009643958, -0.008964186, 2.63538718  , 3.06        , 3           , 11          , 0.007200927 , 0.00720089674
-0.09414742 , 0.08985246  , -9.788064   , -0.0009029565, -0.000633392832, 0.000163041928, -0.223607928, -0.129634619, 0.453889728 , -0.009653003, -0.008970504, 2.63538861  , 3.07        , 3           , 12          , 0.0525588766, 0
-0.0892922  , 0.07897996  , -9.79214    , 0.0010778869, -0.00146471988, -0.000394116068, -0.223607928, -0.1295672  , 0.4539571   , -0.00964219 , -0.008985189, 2.6353848   , 3.08        , 3           , 50          , 0           , 0
-0.08011789 , 0.09057486  , -9.783434   , 0.000799315865, -0.00231132633, -0.0009618099, -0.2234731  , -0.1295672  , 0.453889728 , -0.009634111, -0.009008393, 2.63537574  , 3.09        , 3           , 11          , 0.007200927 , 0.00720089674
-0.101201609, 0.100357831 , -9.801182   , -0.000309816, -0.00175673666, 0.00101144018, -0.223405689, -0.1295672  , 0.4539571   , -0.009591735, -0.009027709, 2.63538623  , 3.1         , 3           , 12          , 0.0535512641, 0
-0.112130776, 0.0968641043, -9.797665   , -0.00117201544, 0.00105317915, -0.000683396, -0.223405689, -0.1295672  , 0.4539571   , -0.009603392, -0.009017245, 2.635379    , 3.11        , 3           , 50          , 0           , 0
-0.08411822 , 0.09336136  , -9.792945   , -0.00202208385, 0.00161057943, -0.0006864789, -0.223540515, -0.129297554, 0.4539571   , -0.009623551, -0.009001206, 2.6353724   , 3.12        , 3           , 11          , 0.00710869068, 0.007108669
-0.08197083 , 0.0869914442, -9.78482    , 0.0024963303, 0.00192270882, 0.00103025057, -0.223540515, -0.129297554, 0.453889728 , -0.009598679, -0.008981881, 2.635382    , 3.13        , 3           , 12          , 0.0535512641, 0
-0.0997488648, 0.1044355   , -9.811097   , 0.000246599258, -0.0003450986, -0.00152659346, -0.223540515, -0.12943238 , 0.4539571   , -0.009596077, -0.0089854775, 2.63536668  , 3.14        , 3           , 50          , 0           , 0
-0.06655077 , 0.08326048  , -9.802343   , -0.0008840126, -7.117112E-05, -0.0006838148, -0.223540515, -0.12943238 , 0.4539571   , -0.009604854, -0.008986255, 2.63536     , 3.15        , 3           , 11          , 0.00710869068, 0.007108669
-0.093770124, 0.08353707  , -9.789896   , 0.00109330134, -5.779977E-05, -0.000109521287, -0.2234731  , -0.1295672  , 0.4538223   , -0.00959391147, -0.008986844, 2.635359    , 3.16        , 3           , 12          , 0.0535512641, 0
-0.09632981 , 0.0917305052, -9.802085   , 0.00334960222, 0.0005206086, -0.0006631929, -0.2234731  , -0.129230142, 0.454024523 , -0.009560356, -0.008981703, 2.63535237  , 3.17        , 3           , 50          , 0           , 0
-0.08900341 , 0.101531476 , -9.790237   , 0.00616262946, 0.00307380082, 0.00161418156, -0.2234731  , -0.129364967, 0.453889728 , -0.009498872, -0.008950812, 2.635368    , 3.18        , 3           , 11          , 0.00710869068, 0.007108669
-0.100456461, 0.0926292539, -9.786745   , -0.000324734952, 0.00105890911, -0.000679445162, -0.2234731  , -0.129364967, 0.453889728 , -0.009502057, -0.008940288, 2.63536143  , 3.19        , 3           , 12          , 0.0535512641, 0
-0.112112157, 0.104467154 , -9.777746   , -0.001449812, 0.0004657237, -0.00125076494, -0.2234731  , -0.12943238 , 0.453889728 , -0.00951184 , -0.008983209, 2.63534951  , 3.2         , 3           , 50          , 0           , 0
-0.111672625, 0.0990948752, -9.791776   , 0.00280855387, -0.003447526, 0.00300097582, -0.22367534 , -0.129836857, 0.453889728 , -0.009484027, -0.009017398, 2.63537955  , 3.21        , 3           , 11          , 0.007016901 , 0.00701687252
-0.105890088, 0.08733669  , -9.803984   , 0.003926456 , -0.00118736876, 0.0018795653, -0.223405689, -0.12943238 , 0.4539571   , -0.009444932, -0.009029093, 2.63539863  , 3.22        , 3           , 12          , 0.05455428  , 0
-0.0880781  , 0.105554    , -9.782078   , 0.00222197454, 0.000772126252, 0.00159216381, -0.223540515, -0.129769444, 0.4537549   , -0.00942285452, -0.009021221, 2.63541436  , 3.23        , 3           , 50          , 0           , 0
-0.09021382 , 0.0825484   , -9.776766   , 0.0005314321, -8.402963E-05, 0.00130042294, -0.223540515, -0.129769444, 0.4537549   , -0.009417658, -0.009021939, 2.63542771  , 3.24        , 3           , 11          , 0.007016901 , 0.00701687252
-0.09189665 , 0.08713712  , -9.793482   , 0.00419036  , 0.00219331356, -0.00122182269, -0.223405689, -0.12943238 , 0.454159349 , -0.009375642, -0.009000122, 2.63541532  , 3.25        , 3           , 12          , 0.05455428  , 0
-0.08988617 , 0.104685046 , -9.78571    , 0.00166360114, -0.0006395215, 0.0007397478, -0.2234731  , -0.129364967, 0.453889728 , -0.009359075, -0.009006448, 2.63542247  , 3.26        , 3           , 50          , 0           , 0
-0.0849344  , 0.105942227 , -9.774367   , 0.003918507 , 0.000220451955, 0.00018651002, -0.223405689, -0.1295672  , 0.4539571   , -0.009319906, -0.009004227, 2.635424    , 3.27        , 3           , 11          , 0.007016901 , 0.00701687252
-0.07611301 , 0.07618694  , -9.812389   , 0.00165720948, 0.000486734934, -0.0006712037, -0.223405689, -0.1295672  , 0.4539571   , -0.009303274, -0.008999421, 2.63541722  , 3.28        , 3           , 12          , 0.05455428  , 0
-0.091967   , 0.0852947161, -9.78219    , 0.0008087723, 0.001044143 , 0.00215108786, -0.22367534 , -0.1294998  , 0.453889728 , -0.009295378, -0.008988781, 2.63543916  , 3.29        , 3           , 50          , 0           , 0
-0.0997302458, 0.112038553 , -9.791179   , 0.0005247837, 0.000183984142, 0.00073581544, -0.223742753, -0.1294998  , 0.4539571   , -0.00930096 , -0.009016476, 2.63544679  , 3.3         , 3           , 11          , 0.006926573 , 0.006926544
-0.0988943651, 0.111078754 , -9.777164   , -0.00257452624, -0.00152642082, -0.00097649917, -0.2234731  , -0.1294998  , 0.4539571   , -0.00932662 , -0.009031831, 2.63543725  , 3.31        , 3           , 12          , 0.05556709  , 0
-0.08514635 , 0.0838993341, -9.793444   , -0.0008791496, -0.001514957, 0.000444089615, -0.2234731  , -0.1294998  , 0.4539571   , -0.009335451, -0.009046937, 2.635442    , 3.32        , 3           , 50          , 0           , 0
-0.06428893 , 0.08546394  , -9.794633   , -0.00174397393, 0.00185809  , -0.000967341242, -0.223540515, -0.129634619, 0.454024523 , -0.009352801, -0.009028448, 2.63543248  , 3.33        , 3           , 11          , 0.006926573 , 0.006926544
-0.0898792148, 0.09888812  , -9.806072   , -0.00175266422, 0.00354747917, -0.00152981246, -0.223405689, -0.12943238 , 0.454091936 , -0.009370186, -0.008993118, 2.63541627  , 3.34        , 3           , 12          , 0.05556709  , 0
-0.0858597  , 0.101919718 , -9.782526   , 0.00137313188, -9.185259E-05, 0.0001742573, -0.223338276, -0.1295672  , 0.453889728 , -0.009356471, -0.00899402 , 2.63541818  , 3.35        , 3           , 50          , 0           , 0
-0.106422871, 0.08504542  , -9.791794   , 0.001363789 , 0.00159753312, -0.00151836383, -0.223338276, -0.1295672  , 0.453889728 , -0.009342696, -0.008978187, 2.635403    , 3.36        , 3           , 11          , 0.006926573 , 0.006926544
-0.08589788 , 0.09563989  , -9.793401   , 0.000257690845, -0.00291514164, 0.00072972523, -0.223405689, -0.1295672  , 0.4539571   , -0.009340185, -0.00900726952, 2.63541055  , 3.37        , 3           , 12          , 0.05556709  , 0
-0.08940178 , 0.109615192 , -9.77755    , 0.00108201464, 0.00159562624, -0.00038953076, -0.223540515, -0.129297554, 0.454159349 , -0.009329328, -0.00899134949, 2.63540673  , 3.38        , 3           , 50          , 0           , 0
-0.108561724, 0.0954394042, -9.789056   , 0.00250316574, -8.421115E-05, 0.0007446   , -0.223270863, -0.129836857, 0.4539571   , -0.009304364, -0.00899212249, 2.635414    , 3.39        , 3           , 11          , 0.006926573 , 0.006926544
-0.0829239041, 0.08071468  , -9.79344    , 0.003322203 , -0.000101666141, -0.00122910459, -0.223270863, -0.129836857, 0.4539571   , -0.00933207851, -0.00904548 , 2.635403    , 3.4         , 3           , 12          , 0.05658891  , 0
-0.0966490656, 0.103449129 , -9.797066   , 0.00162952556, -0.000394688657, -0.000389827619, -0.223338276, -0.12943238 , 0.4539571   , -0.009315748, -0.009049463, 2.635399    , 3.41        , 3           , 50          , 0           , 0
-0.09245419 , 0.11421077  , -9.791566   , 0.00162550667, 0.000450007356, -0.000105988322, -0.22367534 , -0.12943238 , 0.454024523 , -0.009299482, -0.009044972, 2.63539815  , 3.42        , 3           , 11          , 0.006838742 , 0.006838701
-0.09237029 , 0.08667919  , -9.789872   , 0.00247434434, 0.00017417295, 0.0001800658, -0.2234731  , -0.129364967, 0.454024523 , -0.009274756, -0.009043214, 2.63539958  , 3.43        , 3           , 12          , 0.05658891  , 0
-0.106280774, 0.0931948647, -9.800346   , 0.00162632228, 0.000450011226, 0.00130669889, -0.2234731  , -0.129364967, 0.454024523 , -0.00925861 , -0.009038593, 2.63541245  , 3.44        , 3           , 50          , 0           , 0
-0.08657489 , 0.112350672 , -9.795596   , 0.00162427593, 0.0007315732, 0.000176982867, -0.223540515, -0.1294998  , 0.454024523 , -0.009242382, -0.009031261, 2.63541436  , 3.45        , 3           , 11          , 0.006838742 , 0.006838701
-0.0694353059, 0.103167996 , -9.808159   , 0.002211923 , -0.003769645, 0.00102028623, -0.22367534 , -0.129364967, 0.454024523 , -0.009220359, -0.009068862, 2.63542485  , 3.46        , 3           , 12          , 0.05658891  , 0
-0.07858847 , 0.100070879 , -9.7946825  , -0.00118949311, -0.00154005038, -0.0009698078, -0.2234731  , -0.1295672  , 0.454091936 , -0.009232167, -0.009084352, 2.63541532  , 3.47        , 3           , 50          , 0           , 0
-0.100271255, 0.106169835 , -9.788495   , 0.000501049 , -0.000683894439, -0.000678066746, -0.2234731  , -0.1295672  , 0.454091936 , -0.009227095, -0.009091252, 2.63540864  , 3.48        , 3           , 11          , 0.006838742 , 0.006838701
-0.0961381942, 0.0839256048, -9.763245   , 0.00330916746, 0.00243241736, -0.00207281159, -0.2234731  , -0.12943238 , 0.453889728 , -0.009193813, -0.00906712 , 2.63538766  , 3.49        , 3           , 12          , 0.05658891  , 0
-0.06989715 , 0.07601273  , -9.782512   , -0.002360506, -0.000712020556, -0.00125592877, -0.223540515, -0.129364967, 0.454024523 , -0.00930309948, -0.009095315, 2.63537669  , 3.5         , 3           , 50          , 0           , 0
-0.08411852 , 0.1281023   , -9.791896   , -0.00152511906, 0.00182779809, -0.000117922616, -0.223607928, -0.1294998  , 0.454091936 , -0.00931834 , -0.009077049, 2.63537526  , 3.51        , 3           , 11          , 0.00675302744, 0.00675299345
-0.0975840539, 0.106560372 , -9.779885   , -0.00095501577, 0.000705356244, -0.0006820995, -0.223607928, -0.1294998  , 0.454091936 , -0.009327827, -0.009070059, 2.63536859  , 3.52        , 3           , 12          , 0.0576190166, 0
-0.0962912962, 0.09845697  , -9.789853   , -0.0009590346, 0.0015500522, -0.0003982602, -0.223540515, -0.1295672  , 0.4538223   , -0.00933738053, -0.009054597, 2.63536429  , 3.53        , 3           , 50          , 0           , 0
-0.0838503242, 0.08026207  , -9.789834   , 0.00159379561, -0.0006852795, -0.000672416762, -0.223405689, -0.129230142, 0.454024523 , -0.009321381, -0.00906151347, 2.63535762  , 3.54        , 3           , 11          , 0.00675302744, 0.00675299345
-0.102360837, 0.07739906  , -9.813037   , 0.00186416588, 0.0018507184, 0.000180417832, -0.223405689, -0.1294998  , 0.454091936 , -0.009302755, -0.009042989, 2.635359    , 3.55        , 3           , 12          , 0.0576190166, 0
-0.08502816 , 0.0848878   , -9.81920052 , -0.000398852455, 0.00239856518, -0.00124193693, -0.223405689, -0.1294998  , 0.454091936 , -0.009306628, -0.009019121, 2.63534665  , 3.56        , 3           , 50          , 0           , 0
-0.112174876, 0.09013313  , -9.80854    , 0.00102926826, -0.000689097855, -0.000109975626, -0.223540515, -0.129634619, 0.4536875   , -0.009296327, -0.009026021, 2.6353457   , 3.57        , 3           , 11          , 0.00675302744, 0.00675299345
-0.09322667 , 0.08003443  , -9.823353   , -0.000392460672, 0.00127230852, 0.000169014485, -0.223405689, -0.129297554, 0.454024523 , -0.009300265, -0.009013283, 2.63534713  , 3.58        , 3           , 12          , 0.0576190166, 0
-0.08862843 , 0.09967771  , -9.777133   , 0.00103828486, -0.00237848517, 0.0010175705, -0.223540515, -0.129769444, 0.454024523 , -0.009289976, -0.009036972, 2.63535762  , 3.59        , 3           , 50          , 0           , 0
-0.0936068445, 0.09259638  , -9.800705   , -0.00207738671, -0.001573342, -0.00125593983, -0.223405689, -0.12943238 , 0.4539571   , -0.009318967, -0.009097118, 2.6353457   , 3.6         , 3           , 11          , 0.00667039258, 0.00667034741
-0.09837968 , 0.06879447  , -9.817561   , -0.00038856492, -0.000435622584, -0.00152884 , -0.223405689, -0.12943238 , 0.4539571   , -0.009322714, -0.009101616, 2.63533044  , 3.61        , 3           , 12          , 0.0586567223, 0
-0.09884335 , 0.07682525  , -9.789058   , 0.0004477267, 0.00182262866, -0.00123888021, -0.223742753, -0.1295672  , 0.454024523 , -0.009318122, -0.009083506, 2.635318    , 3.62        , 3           , 50          , 0           , 0
-0.08136665 , 0.102731049 , -9.77119    , 0.0001617704, 0.00266541727, -0.000108745466, -0.223405689, -0.129364967, 0.454091936 , -0.009316491, -0.009056862, 2.63531661  , 3.63        , 3           , 11          , 0.00667039258, 0.00667034741
-0.07572046 , 0.07033026  , -9.81648    , -0.0006741949, 0.000407167274, 0.0001663695, -0.223540515, -0.129634619, 0.453889728 , -0.009323249, -0.009052775, 2.635318    , 3.64        , 3           , 12          , 0.0586567223, 0
-0.08883214 , 0.116399832 , -9.784298   , -0.000102860657, -0.0009968405, -0.0006807785, -0.223540515, -0.129634619, 0.453889728 , -0.009324215, -0.009062809, 2.63531137  , 3.65        , 3           , 50          , 0           , 0
-0.0911968946, 0.106078647 , -9.792946   , 0.000167020116, 0.00153915514, -0.0006755562, -0.223405689, -0.12943238 , 0.4539571   , -0.009322483, -0.009047481, 2.63530469  , 3.66        , 3           , 11          , 0.00667039258, 0.00667034741
-0.08530017 , 0.112713315 , -9.77389    , -0.00265150866, 0.000393795926, -0.000407923741, -0.2234731  , -0.129297554, 0.454091936 , -0.00934896152, -0.00904358 , 2.63530087  , 3.67        , 3           , 12          , 0.0586567223, 0
-0.0745137259, 0.09957643  , -9.796009   , 0.00439849868, 0.00269406848, 0.000476083253, -0.223810166, -0.129702032, 0.4538223   , -0.009305017, -0.009016595, 2.63530469  , 3.68        , 3           , 50          , 0           , 0
-0.0659450442, 0.09855498  , -9.79052448 , -0.000674847455, 0.0004071642, -0.0009637803, -0.223810166, -0.129702032, 0.4538223   , -0.009311679, -0.009012613, 2.63529515  , 3.69        , 3           , 11          , 0.00667039258, 0.00667034741
-0.0613226146, 0.107951827 , -9.783218   , 0.002975921 , -0.000111271016, 0.00159579783, -0.223742753, -0.12943238 , 0.4539571   , -0.009343641, -0.008964762, 2.63531232  , 3.7         , 3           , 12          , 0.05970139  , 0
-0.07259352 , 0.105892465 , -9.802296   , -0.000696606759, -0.000136105315, -0.000116547177, -0.223338276, -0.12943238 , 0.454226762 , -0.009350596, -0.008966134, 2.63531137  , 3.71        , 3           , 50          , 0           , 0
-0.0829475  , 0.08158826  , -9.784849   , 0.00184490823, -0.000118917138, -0.0006697697, -0.223405689, -0.12943238 , 0.4538223   , -0.009332087, -0.008967386, 2.63530469  , 3.72        , 3           , 11          , 0.00658882363, 0.00658878731
-0.103308894, 0.0804997161, -9.792692   , 0.002689149 , 0.0007315135, 0.001313245 , -0.223405689, -0.12943238 , 0.4538223   , -0.009305311, -0.008959948, 2.63531756  , 3.73        , 3           , 12          , 0.05970139  , 0
-0.09426625 , 0.08038282  , -9.78946    , -0.00183353608, 0.00154565077, 0.001858551 , -0.2234731  , -0.129364967, 0.453889728 , -0.009323812, -0.00894432 , 2.63533616  , 3.74        , 3           , 50          , 0           , 0
-0.100556634, 0.08317473  , -9.792661   , -0.00211169221, 0.000417474221, -0.0004048015, -0.22367534 , -0.1294998  , 0.454159349 , -0.00934489351, -0.008940183, 2.63533187  , 3.75        , 3           , 11          , 0.00658882363, 0.00658878731
-0.109265879, 0.075601615 , -9.791403   , -0.00127884117, 0.00323885283, -0.00124412379, -0.22367534 , -0.1295672  , 0.453889728 , -0.009357569, -0.008907911, 2.635319    , 3.76        , 3           , 12          , 0.05970139  , 0
-0.108209759, 0.08508633  , -9.797684   , 0.00383025943, -0.00179493753, -0.000663154759, -0.22367534 , -0.1295672  , 0.453889728 , -0.009319209, -0.008925922, 2.6353128   , 3.77        , 3           , 50          , 0           , 0
-0.103050545, 0.06962443  , -9.780081   , 0.000998933 , -0.000124640792, 0.00158657914, -0.223405689, -0.1295672  , 0.453889728 , -0.009309362, -0.00892702 , 2.63532853  , 3.78        , 3           , 11          , 0.00658882363, 0.00658878731
-0.08113833 , 0.0788873   , -9.792981   , -0.00125416415, -0.00154774915, 0.000443724 , -0.223607928, -0.129297554, 0.454159349 , -0.009321943, -0.008942457, 2.6353333   , 3.79        , 3           , 12          , 0.05970139  , 0
-0.07925333 , 0.08294304  , -9.797922   , -0.000105022948, 0.00040939363, 0.0007342892, -0.22367534 , -0.12943238 , 0.453889728 , -0.009249663, -0.008992512, 2.635341    , 3.8         , 3           , 50          , 0           , 0
-0.06393478 , 0.0755590051, -9.802356   , 0.00243107951, 0.00155284291, 0.000465339777, -0.22367534 , -0.12943238 , 0.453889728 , -0.009225394, -0.008976943, 2.6353457   , 3.81        , 3           , 11          , 0.00650908  , 0.00650905538
-0.09349191 , 0.0717852   , -9.784971   , 0.003543569 , 0.00493926136, -0.0003717975, -0.223607928, -0.1295672  , 0.453889728 , -0.0091899205, -0.008927586, 2.635341    , 3.82        , 3           , 12          , 0.06075241  , 0
-0.0858103  , 0.1006207   , -9.798803   , 0.000740374031, 0.0006966863, -0.000108938359, -0.2234731  , -0.129634619, 0.454091936 , -0.009182505, -0.00892062951, 2.63534     , 3.83        , 3           , 50          , 0           , 0
-0.07983271 , 0.108213596 , -9.796467   , -0.000662906561, -0.00100225175, 0.000729485648, -0.223540515, -0.1295672  , 0.454226762 , -0.00918920152, -0.008930584, 2.6353476   , 3.84        , 3           , 11          , 0.00650908  , 0.00650905538
-0.104037374, 0.09315166  , -9.795358   , 0.00385378674, -0.0004085589, 0.00188157428, -0.223540515, -0.1295672  , 0.454226762 , -0.009150832, -0.008934499, 2.6353662   , 3.85        , 3           , 12          , 0.06075241  , 0
-0.09434808 , 0.0704968   , -9.801253   , 0.00215406553, 0.000424671773, 0.000179749622, -0.22367534 , -0.12943238 , 0.453889728 , -0.009129306, -0.008930235, 2.635368    , 3.86        , 3           , 50          , 0           , 0
-0.09278183 , 0.092074126 , -9.78262    , 0.0004514667, 0.00210260414, 0.0007395267, -0.2234731  , -0.1294998  , 0.454024523 , -0.00912485551, -0.00890914351, 2.63537526  , 3.87        , 3           , 11          , 0.00650908  , 0.00650905538
-0.09846514 , 0.104359083 , -9.793009   , 0.00216570683, -0.00182784651, 0.00102389057, -0.223405689, -0.1295672  , 0.454024523 , -0.009103292, -0.008927328, 2.63538575  , 3.88        , 3           , 12          , 0.06075241  , 0
-0.103104569, 0.08959229  , -9.813444   , 0.000183469325, -0.000714954338, 0.00158148294, -0.223405689, -0.1295672  , 0.454024523 , -0.00910159852, -0.008934332, 2.63540149  , 3.89        , 3           , 50          , 0           , 0
-0.0944419652, 0.0971276   , -9.803404   , -0.00236674561, 0.000371750968, -0.000688970962, -0.2234731  , -0.129230142, 0.453889728 , -0.009129075, -0.00898875 , 2.63539529  , 3.9         , 3           , 11          , 0.00643170858, 0.00643168157
-0.1011076  , 0.11159277  , -9.788028   , -0.00150462054, -0.00271973712, -0.00153740589, -0.223540515, -0.129702032, 0.454294175 , -0.009143985, -0.009016087, 2.63538     , 3.91        , 3           , 12          , 0.06180924  , 0
-0.09421277 , 0.11472097  , -9.802876   , 0.00185834127, 0.00265292078, -0.000948283, -0.223742753, -0.1295672  , 0.454024523 , -0.009125314, -0.008989646, 2.63537049  , 3.92        , 3           , 50          , 0           , 0
-0.103362277, 0.108948737 , -9.798903   , 0.000450263557, 0.00193946052, 3.29286668E-05, -0.223742753, -0.1295672  , 0.454024523 , -0.009120814, -0.00897024851, 2.63537049  , 3.93        , 3           , 11          , 0.00643170858, 0.00643168157
-0.08370956 , 0.094212994 , -9.779379   , 2.73646274E-05, 0.00165502739, -0.00109963049, -0.223742753, -0.129297554, 0.453889728 , -0.009120439, -0.00895379949, 2.63535953  , 3.94        , 3           , 12          , 0.06180924  , 0
-0.08406983 , 0.09831041  , -9.788856   , -0.000107412692, 0.000387030334, -0.0008197042, -0.223540515, -0.1295672  , 0.454091936 , -0.00912144 , -0.008950004, 2.63535142  , 3.95        , 3           , 50          , 0           , 0
-0.0822281837, 0.09920658  , -9.793358   , -0.00165944768, 9.496002E-05, -0.00096865 , -0.2234731  , -0.129634619, 0.454024523 , -0.009137948, -0.008949143, 2.635342    , 3.96        , 3           , 11          , 0.00643170858, 0.00643168157
-0.06525827 , 0.0849765539, -9.780632   , -0.00110427057, 0.002069736 , -0.000821709866, -0.2234731  , -0.12943238 , 0.4539571   , -0.009148915, -0.008928522, 2.6353333   , 3.97        , 3           , 12          , 0.06180924  , 0
-0.08458341 , 0.09424932  , -9.787068   , -0.0015234024, 0.00122217718, -0.000259912078, -0.2234731  , -0.12943238 , 0.4539571   , -0.009164126, -0.008916325, 2.63533044  , 3.98        , 3           , 50          , 0           , 0
-0.08651513 , 0.07988968  , -9.803865   , -0.0010971817, 0.000802697148, 0.000589024741, -0.223405689, -0.1294998  , 0.4539571   , -0.009175149, -0.008908245, 2.63533616  , 3.99        , 3           , 11          , 0.00643170858, 0.00643168157
-0.0821476951, 0.07211859  , -9.789402   , 0.00100285816, 0.00180524029, 0.0003181246, -0.223607928, -0.12943238 , 0.454226762 , -0.009200143, -0.008882853, 2.63534045  , 4           , 3           , 12          , 0.06287136  , 0
-0.08864682 , 0.0898431   , -9.804293   , 0.00114341918, 0.001806192 , -0.0008113668, -0.223540515, -0.1295672  , 0.454091936 , -0.009188634, -0.0088648675, 2.63533235  , 4.01        , 3           , 50          , 0           , 0
-0.0977514  , 0.09705141  , -9.76953    , 0.000865500653, 0.000959588331, -0.000248910685, -0.223540515, -0.1295672  , 0.454091936 , -0.009179957, -0.008855294, 2.63532948  , 4.02        , 3           , 11          , 0.006356358 , 0.00635632547
-0.09979493 , 0.0776913241, -9.77505    , 0.00116002117, -0.00143180357, 0.000172524073, -0.223338276, -0.1294998  , 0.454024523 , -0.009168373, -0.008869596, 2.63533139  , 4.03        , 3           , 12          , 0.06287136  , 0
-0.0617356636, 0.106203929 , -9.798596   , 0.00158349832, -0.0014289394, -0.000108037879, -0.223540515, -0.1294998  , 0.454024523 , -0.009152531, -0.008883894, 2.63533044  , 4.04        , 3           , 50          , 0           , 0
-0.0767865255, 0.09513231  , -9.808249   , 0.000172061162, -0.00157927186, -0.000114839509, -0.223405689, -0.12943238 , 0.4539571   , -0.009150801, -0.008899698, 2.63532948  , 4.05        , 3           , 11          , 0.006356358 , 0.00635632547
-0.0842349455, 0.0816616639, -9.802033   , 0.0011556762, -0.00058710936, -0.000108711472, -0.223405689, -0.12943238 , 0.4539571   , -0.009139235, -0.008905578, 2.63532853  , 4.06        , 3           , 12          , 0.06287136  , 0
-0.08584857 , 0.0916626751, -9.818275   , 0.000448704668, -0.000310316856, 0.0007360425, -0.22367534 , -0.12943238 , 0.454024523 , -0.009134813, -0.00890861452, 2.63533568  , 4.07        , 3           , 50          , 0           , 0
-0.09640375 , 0.08497533  , -9.80573    , -0.000533887069, -0.00144326058, 0.00129477237, -0.22367534 , -0.129634619, 0.454091936 , -0.009140269, -0.008922928, 2.63534856  , 4.08        , 3           , 11          , 0.006356358 , 0.00635632547
-0.0838443  , 0.0833914056, -9.781233   , 0.0004539097, -0.0012957931, 0.0012995986, -0.223607928, -0.1294998  , 0.454024523 , -0.009135847, -0.008935766, 2.635362    , 4.09        , 3           , 12          , 0.06287136  , 0
-0.08208177 , 0.0806526542, -9.778067   , -0.002366669, -0.00159080117, 0.00128611724, -0.223607928, -0.1294998  , 0.454024523 , -0.009153352, -0.008936073, 2.63537526  , 4.1         , 3           , 50          , 0           , 0
-0.09380047 , 0.112897448 , -9.798814   , -0.00321529922, -0.00145575183, 0.00015223345, -0.223540515, -0.129364967, 0.4539571   , -0.00918552 , -0.008950613, 2.63537717  , 4.11        , 3           , 11          , 0.00628305  , 0.00628303364
-0.07390391 , 0.107732654 , -9.808174   , -0.0008168435, -0.00101716979, 2.28096051E-05, -0.223540515, -0.12943238 , 0.453889728 , -0.009193691, -0.008960783, 2.63537717  , 4.12        , 3           , 12          , 0.06393826  , 0
-0.08055806 , 0.09505389  , -9.772119   , 0.000170419575, -0.000728919, 0.0003103903, -0.2234731  , -0.12943238 , 0.454159349 , -0.009192015, -0.008968043, 2.63538051  , 4.13        , 3           , 50          , 0           , 0
-0.0897976756, 0.0834060758, -9.765006   , -0.000539703469, -2.97839288E-05, -0.0006806983, -0.2234731  , -0.12943238 , 0.454159349 , -0.009197352, -0.00896840449, 2.63537335  , 4.14        , 3           , 11          , 0.00628305  , 0.00628303364
-0.0807946846, 0.105054088 , -9.792871   , 0.000166237631, 0.000115776245, 0.000311692129, -0.223540515, -0.129702032, 0.454024523 , -0.009195717, -0.008967218, 2.63537717  , 4.15        , 3           , 12          , 0.06393826  , 0
-0.09465003 , 0.08803199  , -9.781748   , -0.000399765326, 0.000393522554, 0.0007332984, -0.223540515, -0.129230142, 0.454091936 , -0.00919977948, -0.008963215, 2.63538384  , 4.16        , 3           , 50          , 0           , 0
-0.09205319 , 0.1097      , -9.79339    , 2.18284185E-05, 0.0006779494, -0.000394442177, -0.22367534 , -0.129297554, 0.454159349 , -0.009199525, -0.008956472, 2.63538     , 4.17        , 3           , 11          , 0.00628305  , 0.00628303364
-0.09331687 , 0.07906863  , -9.804374   , 0.0001654591, 0.000256558385, 0.000170640313, -0.22367534 , -0.129297554, 0.454159349 , -0.009197886, -0.008953891, 2.635382    , 4.18        , 3           , 12          , 0.06393826  , 0
-0.0868423656, 0.08579928  , -9.815596   , -0.000963343831, -3.2648928E-05, -0.000682673941, -0.223405689, -0.12943238 , 0.4539571   , -0.009207459, -0.008954279, 2.63537526  , 4.19        , 3           , 50          , 0           , 0
-0.08204858 , 0.112742618 , -9.793752   , -0.0005442572, -0.0005929504, -0.002094076, -0.223405689, -0.129162729, 0.454024523 , -0.00923103653, -0.008960492, 2.63535523  , 4.2         , 3           , 11          , 0.0062118466, 0.00621182
-0.0803953558, 0.105898157 , -9.777045   , -0.000546718948, -2.98186933E-05, -0.001528133, -0.223607928, -0.1294998  , 0.454091936 , -0.009236369, -0.00896093 , 2.63534     , 4.21        , 3           , 12          , 0.06500948  , 0
-0.08975106 , 0.108365335 , -9.806937   , -0.0009712636, 0.000248883822, -0.000682062062, -0.223607928, -0.1294998  , 0.454091936 , -0.00924602 , -0.008958504, 2.63533282  , 4.22        , 3           , 50          , 0           , 0
-0.09191434 , 0.08846185  , -9.784889   , -0.000122262732, -2.69497377E-05, -0.000113470312, -0.2234731  , -0.129702032, 0.4539571   , -0.009247232, -0.008958784, 2.63533187  , 4.23        , 3           , 11          , 0.0062118466, 0.00621182
-0.10197261 , 0.08091225  , -9.785901   , 0.00114214025, 0.00124868681, -0.00052939757, -0.22367534 , -0.129230142, 0.453889728 , -0.009235761, -0.008946346, 2.63532662  , 4.24        , 3           , 12          , 0.06500948  , 0
-0.100471161, 0.090385586 , -9.79037    , -0.000129559208, 0.001380874 , -0.000676375465, -0.2234731  , -0.129634619, 0.453889728 , -0.009236996, -0.008932601, 2.63531947  , 4.25        , 3           , 50          , 0           , 0
-0.08535402 , 0.102849968 , -9.792463   , -0.0009774179, 0.0016567132, 0.000732795 , -0.2234731  , -0.129634619, 0.453889728 , -0.009246835, -0.008915966, 2.63532662  , 4.26        , 3           , 11          , 0.0062118466, 0.00621182
-0.06442891 , 0.110272    , -9.79136848 , -0.00140113977, 0.00165384775, 0.0005895508, -0.223405689, -0.12943238 , 0.4538223   , -0.00926089752, -0.008899374, 2.63533235  , 4.27        , 3           , 12          , 0.06500948  , 0
-0.07912145 , 0.0924232751, -9.79969    , -0.00223730528, -0.0007451887, -0.000689507, -0.2234731  , -0.1294998  , 0.454159349 , -0.009283209, -0.008906889, 2.63532567  , 4.28        , 3           , 50          , 0           , 0
-0.0887319744, 0.0830788538, -9.805225   , 0.0005851611, -0.0004445259, -0.00138224754, -0.223540515, -0.12943238 , 0.454159349 , -0.009277235, -0.008911463, 2.63531137  , 4.29        , 3           , 11          , 0.0062118466, 0.00621182
-0.103635393, 0.08998072  , -9.793108   , 0.003105988 , 0.00140777591, -0.00122603658, -0.223540515, -0.12943238 , 0.454159349 , -0.009280706, -0.00888329 , 2.6353004   , 4.3         , 3           , 12          , 0.0660846   , 0
-0.0980220661, 0.06871204  , -9.794509   , 0.00226415764, 0.000416571042, -0.00024262497, -0.2234731  , -0.12943238 , 0.4538223   , -0.009258043, -0.008879146, 2.635298    , 4.31        , 3           , 50          , 0           , 0
-0.101035088, 0.0786957443, -9.800818   , 0.00198669126, -0.000570816337, -0.000104191946, -0.22367534 , -0.129297554, 0.454226762 , -0.009238168, -0.008884864, 2.635297    , 4.32        , 3           , 11          , 0.00614249427, 0.00614247238
-0.104438692, 0.0972158238, -9.794891   , 0.00197972124, 0.0008370091, -0.0001020223, -0.22367534 , -0.1294998  , 0.454226762 , -0.00921836 , -0.00887650251, 2.635296    , 4.33        , 3           , 12          , 0.0660846   , 0
-0.0714951  , 0.08959727  , -9.791056   , 0.0009849543, 0.002097367 , -0.000104678853, -0.22367534 , -0.1294998  , 0.454226762 , -0.0092085  , -0.00885554 , 2.63529468  , 4.34        , 3           , 50          , 0           , 0
-0.07178297 , 0.100894958 , -9.795079   , -0.00126625947, 0.0003926959, -0.0004003553, -0.223338276, -0.129634619, 0.454091936 , -0.009221126, -0.00885165 , 2.63529038  , 4.35        , 3           , 11          , 0.00614249427, 0.00614247238
-0.08204461 , 0.110514067 , -9.801897   , -0.000269238459, -0.00129000889, -0.000115812261, -0.223607928, -0.129364967, 0.454159349 , -0.00922381 , -0.008864561, 2.63528943  , 4.36        , 3           , 12          , 0.0660846   , 0
-0.0809140652, 0.09736939  , -9.78838348 , 0.0018465824, -0.000712551933, 0.0006012762, -0.223540515, -0.12943238 , 0.454159349 , -0.009205398, -0.00887163 , 2.635296    , 4.37        , 3           , 50          , 0           , 0
-0.08905048 , 0.09836889  , -9.788894   , 2.34285835E-07, 0.001245985 , -0.0008169338, -0.223540515, -0.129836857, 0.453889728 , -0.009205323, -0.008859246, 2.63528752  , 4.38        , 3           , 11          , 0.00614249427, 0.00614247238
-0.0935446545, 0.101127446 , -9.7884655  , -2.754041E-06, 0.00166832842, -0.002370239, -0.223540515, -0.129836857, 0.453889728 , -0.009205139, -0.008842782, 2.63526368  , 4.39        , 3           , 12          , 0.0660846   , 0
-0.07953321 , 0.100049764 , -9.785198   , 0.00125656941, 0.000407711574, -0.00123587449, -0.2234731  , -0.129364967, 0.454091936 , -0.00924707949, -0.008845228, 2.63525224  , 4.4         , 3           , 50          , 0           , 0
-0.08096215 , 0.100454874 , -9.766676   , 0.0009774201, -0.000157326213, -0.000390446774, -0.223540515, -0.1295672  , 0.454159349 , -0.009237271, -0.008846836, 2.63524842  , 4.41        , 3           , 11          , 0.006075136 , 0.00607512332
-0.0942445546, 0.08709566  , -9.773161   , 0.0009793481, -0.00057967467, -0.000673635164, -0.2234731  , -0.129634619, 0.453889728 , -0.009227419, -0.008852694, 2.63524175  , 4.42        , 3           , 12          , 0.06716321  , 0
-0.102628767, 0.09808627  , -9.791711   , 0.0009815205, -0.001002022, -0.00053301733, -0.2234731  , -0.129634619, 0.453889728 , -0.009217557, -0.008862765, 2.6352365   , 4.43        , 3           , 50          , 0           , 0
-0.07914963 , 0.08704421  , -9.810107   , 0.0025290472, 0.000134742048, -0.000947844761, -0.2234731  , -0.129364967, 0.4539571   , -0.009192182, -0.008861506, 2.63522744  , 4.44        , 3           , 11          , 0.006075136 , 0.00607512332
-0.09053621 , 0.08489111  , -9.801164   , 0.00195730547, 0.00153874792, -0.0008070403, -0.223405689, -0.1294998  , 0.454024523 , -0.009172536, -0.008846192, 2.63521886  , 4.45        , 3           , 12          , 0.06716321  , 0
-0.09152664 , 0.111093491 , -9.806939   , 0.000131570763, -0.000303835172, 0.000876803941, -0.22320345 , -0.129769444, 0.453889728 , -0.009171298, -0.00884915 , 2.63522744  , 4.46        , 3           , 50          , 0           , 0
-0.101446487, 0.07918093  , -9.809407   , -0.000703615835, -0.002702867, 0.001292971 , -0.22320345 , -0.129769444, 0.453889728 , -0.009178451, -0.00887606 , 2.63524079  , 4.47        , 3           , 11          , 0.006075136 , 0.00607512332
-0.093849346, 0.07722399  , -9.790826   , 0.000139934942, -0.00199322542, 0.0008742003, -0.22367534 , -0.129634619, 0.454091936 , -0.009177131, -0.008895911, 2.63524985  , 4.48        , 3           , 12          , 0.06716321  , 0
-0.104289688, 0.107156254 , -9.79937    , -0.000151019136, -0.000305745925, 0.000592949567, -0.223607928, -0.129364967, 0.454091936 , -0.009178694, -0.008898914, 2.635256    , 4.49        , 3           , 50          , 0           , 0
-0.0958856046, 0.0952890441, -9.788507   , -0.00129084731, -0.0003307386, 0.000305331167, -0.2234731  , -0.1294998  , 0.4538223   , -0.009221687, -0.008954575, 2.63526082  , 4.5         , 3           , 11          , 0.00600995729, 0.00600993773
-0.06270006 , 0.104827859 , -9.788667   , -1.3490353E-05, -0.00158918591, 0.000591842167, -0.2234731  , -0.1294998  , 0.4538223   , -0.009221876, -0.008970412, 2.63526654  , 4.51        , 3           , 12          , 0.06824491  , 0
-0.08367454 , 0.09111692  , -9.797922   , -0.000149743151, -0.00257561821, 0.000730933738, -0.22367534 , -0.1295672  , 0.453889728 , -0.009223441, -0.008996099, 2.63527417  , 4.52        , 3           , 50          , 0           , 0
-0.08662097 , 0.110527933 , -9.790181   , -0.00072132214, -0.0011716116, 0.00115427561, -0.22367534 , -0.12943238 , 0.454294175 , -0.00923076 , -0.009007708, 2.63528562  , 4.53        , 3           , 11          , 0.00600995729, 0.00600993773
-0.106238678, 0.104834087 , -9.773179   , -0.00185242342, -0.0008976863, 0.00114944193, -0.223810166, -0.129364967, 0.4539571   , -0.009249389, -0.009016579, 2.63529754  , 4.54        , 3           , 12          , 0.06824491  , 0
-0.07952804 , 0.0969295   , -9.796511   , -0.0018538544, -0.0007569072, -0.000121759695, -0.223810166, -0.129364967, 0.4539571   , -0.009267917, -0.00902416 , 2.635296    , 4.55        , 3           , 50          , 0           , 0
-0.07107741 , 0.0824219   , -9.805546   , -0.0003112884, 0.0013653338, -0.000676336931, -0.22367534 , -0.129364967, 0.454024523 , -0.009270968, -0.009010569, 2.63528943  , 4.56        , 3           , 11          , 0.00600995729, 0.00600993773
-0.07518144 , 0.0811072141, -9.80287    , 0.000108496126, 0.00221289578, -0.000107984852, -0.223607928, -0.12943238 , 0.4539571   , -0.009269871, -0.008988454, 2.63528848  , 4.57        , 3           , 12          , 0.06824491  , 0
-0.07920364 , 0.0896785557, -9.788403   , 0.00152588007, 0.0010961839, -0.000668211, -0.2234731  , -0.129836857, 0.4538223   , -0.00925455149, -0.008977553, 2.63528132  , 4.58        , 3           , 50          , 0           , 0
-0.08732733 , 0.09024201  , -9.793433   , 0.00125087553, -0.000454335328, -0.00109572068, -0.2234731  , -0.129836857, 0.4538223   , -0.009241945, -0.008982197, 2.63527036  , 4.59        , 3           , 11          , 0.00600995729, 0.00600993773
-0.102027357, 0.07997517  , -9.77551    , -0.000445518177, -0.00101841951, -0.000115451257, -0.223540515, -0.129364967, 0.4539571   , -0.009262439, -0.008959941, 2.6352694   , 4.6         , 3           , 12          , 0.0693293959, 0
-0.122990377, 0.09922929  , -9.792314   , 0.000258539425, -0.000591296644, 2.9760733E-05, -0.223810166, -0.129297554, 0.454091936 , -0.009259858, -0.008965851, 2.63527036  , 4.61        , 3           , 50          , 0           , 0
-0.109982178, 0.08960248  , -9.79270649 , -0.00101057941, -0.000881454442, 0.0007297444, -0.223540515, -0.1295672  , 0.4539571   , -0.009270028, -0.008974595, 2.63527751  , 4.62        , 3           , 11          , 0.00594614865, 0.005946115
-0.08719082 , 0.09838694  , -9.800631   , -0.00214106543, -0.0007483122, 0.000583424757, -0.223540515, -0.1295672  , 0.4539571   , -0.009291494, -0.008982024, 2.63528371  , 4.63        , 3           , 12          , 0.0693293959, 0
-0.09630293 , 0.0953230858, -9.797097   , -0.0001768683, 0.00179914245, 0.000172742541, -0.223742753, -0.12943238 , 0.4538223   , -0.009293277, -0.008964017, 2.63528466  , 4.64        , 3           , 50          , 0           , 0
-0.08734497 , 0.08397882  , -9.809279   , 0.000806501834, 0.002791304 , -0.000244935683, -0.223607928, -0.129364967, 0.4539571   , -0.009285187, -0.00893612951, 2.63528228  , 4.65        , 3           , 11          , 0.00594614865, 0.005946115
-0.110331714, 0.0981721   , -9.790414   , -0.000313818047, 0.000953492359, 0.000312050921, -0.223540515, -0.1294998  , 0.454024523 , -0.009288354, -0.008926565, 2.63528562  , 4.66        , 3           , 12          , 0.0693293959, 0
-0.0736423954, 0.09864537  , -9.790583   , -2.40948339E-05, -0.000452421547, 0.000876273261, -0.223540515, -0.1294998  , 0.454024523 , -0.009288672, -0.008931007, 2.6352942   , 4.67        , 3           , 50          , 0           , 0
-0.09000486 , 0.09030567  , -9.802946   , 0.000824950344, -0.00086904096, 0.000314498175, -0.223405689, -0.12943238 , 0.453889728 , -0.009280451, -0.008939669, 2.635297    , 4.68        , 3           , 11          , 0.00594614865, 0.005946115
-0.122684315, 0.0924098343, -9.778328   , -0.0008619437, -0.00242910837, 0.000304209942, -0.223742753, -0.12943238 , 0.454091936 , -0.0092891  , -0.00896393 , 2.63530087  , 4.69        , 3           , 12          , 0.0693293959, 0
-0.113020435, 0.0982266739, -9.797213   , 0.000115358038, -0.0013201331, -0.0003956353, -0.223540515, -0.1294998  , 0.454091936 , -0.009304372, -0.009052918, 2.635299    , 4.7         , 3           , 50          , 0           , 0
-0.06303795 , 0.108943418 , -9.803566   , 0.000395612471, -0.000895876, -0.000534936262, -0.223540515, -0.1294998  , 0.454091936 , -0.009300367, -0.009061926, 2.63529325  , 4.71        , 3           , 11          , 0.00588419847, 0.00588416634
-0.0701227039, 0.09093175  , -9.790136   , -0.00086993986, -0.00188994617, 0.0003052311, -0.223405689, -0.1295672  , 0.4539571   , -0.009309096, -0.009080799, 2.635297    , 4.72        , 3           , 12          , 0.07041628  , 0
-0.07565861 , 0.08600263  , -9.781159   , -0.0007331161, -0.000903511245, 0.00115502079, -0.22367534 , -0.129634619, 0.453889728 , -0.009316534, -0.009089724, 2.6353085   , 4.73        , 3           , 50          , 0           , 0
-0.08186595 , 0.09778884  , -9.775734   , 0.00138303812, -0.0006076245, 3.518185E-05, -0.22367534 , -0.12943238 , 0.454091936 , -0.009302706, -0.009095797, 2.635309    , 4.74        , 3           , 11          , 0.00588419847, 0.00588416634
-0.07766162 , 0.1036483   , -9.788332   , 0.000816093641, -0.000189096783, 3.319892E-05, -0.2234731  , -0.129634619, 0.453889728 , -0.009294549, -0.009097685, 2.63530946  , 4.75        , 3           , 12          , 0.07041628  , 0
-0.0777775943, 0.09552002  , -9.786108   , -0.00116265868, 0.000219882611, 0.0005897063, -0.2234731  , -0.129634619, 0.453889728 , -0.00930623 , -0.009095431, 2.63531518  , 4.76        , 3           , 50          , 0           , 0
-0.0736222  , 0.09821537  , -9.796911   , 0.0005313313, 0.000231339669, -0.000391273235, -0.2234731  , -0.1294998  , 0.454159349 , -0.00930088 , -0.009093154, 2.63531137  , 4.77        , 3           , 11          , 0.00588419847, 0.00588416634
-0.09577542 , 0.09805643  , -9.806574   , 0.0001085512, 8.769297E-05, -0.000110928231, -0.2234731  , -0.12943238 , 0.454091936 , -0.009299785, -0.009092288, 2.63531041  , 4.78        , 3           , 12          , 0.07041628  , 0
-0.08081333 , 0.105038963 , -9.788351   , -0.000458311843, 0.000506221 , 2.83575228E-05, -0.223540515, -0.1295672  , 0.4538223   , -0.009304371, -0.009087222, 2.63531041  , 4.79        , 3           , 50          , 0           , 0
-0.08124045 , 0.109528579 , -9.7802     , 9.034034E-05, 0.00024105412, -0.000957996061, -0.223540515, -0.1295672  , 0.4538223   , -0.009358414, -0.009044243, 2.63530183  , 4.8         , 3           , 11          , 0.00582409836, 0.005824068
-0.08287761 , 0.08789379  , -9.781658   , -0.000191226311, 9.836242E-05, -0.0006769926, -0.22367534 , -0.1295672  , 0.4539571   , -0.009360265, -0.009043321, 2.63529515  , 4.81        , 3           , 12          , 0.071505256 , 0
-0.09781795 , 0.0800361857, -9.808021   , -0.0007476788, -0.001454062, 0.0005894055, -0.223607928, -0.1295672  , 0.454091936 , -0.009367796, -0.009057806, 2.63530087  , 4.82        , 3           , 50          , 0           , 0
-0.09727498 , 0.0885846   , -9.802557   , -0.00200789957, -0.00357439346, 0.00100403093, -0.223338276, -0.1294998  , 0.4539571   , -0.00938797 , -0.009093455, 2.63531137  , 4.83        , 3           , 11          , 0.00582409836, 0.005824068
-0.09743026 , 0.0777463838, -9.799439   , -0.001596064, -0.00131901144, -0.000120671939, -0.223338276, -0.1294998  , 0.4539571   , -0.009403919, -0.009106656, 2.63531041  , 4.84        , 3           , 12          , 0.071505256 , 0
-0.09763628 , 0.09893011  , -9.791669   , -0.0009022541, 0.00107906479, -0.0008200347, -0.223540515, -0.12943238 , 0.454091936 , -0.009412866, -0.009095943, 2.63530183  , 4.85        , 3           , 50          , 0           , 0
-0.0962012261, 0.104332507 , -9.792992   , -0.00160922576, 0.00135585724, 2.471918E-05, -0.2234731  , -0.1294998  , 0.4539571   , -0.00942896 , -0.009082382, 2.63530183  , 4.86        , 3           , 11          , 0.00582409836, 0.005824068
-0.113085017, 0.08389113  , -9.827557   , 0.00192164362, 0.00123894855, -0.000241573623, -0.2234731  , -0.1294998  , 0.454091936 , -0.009409722, -0.009070016, 2.6353      , 4.87        , 3           , 12          , 0.071505256 , 0
-0.102381714, 0.08452374  , -9.784986   , 0.003758975 , 0.000969799061, 4.90900238E-05, -0.2234731  , -0.1294998  , 0.454091936 , -0.009372137, -0.009060313, 2.6353      , 4.88        , 3           , 50          , 0           , 0
-0.107549079, 0.106674284 , -9.779057   , 0.00121901708, 0.00067104667, 0.000884416047, -0.2234731  , -0.1294998  , 0.454024523 , -0.009360024, -0.009053523, 2.6353085   , 4.89        , 3           , 11          , 0.00582409836, 0.005824068
-0.0835287049, 0.09926938  , -9.80738    , 0.000793506741, -5.780261E-05, 0.0008815105, -0.223405689, -0.129162729, 0.454159349 , -0.00936985947, -0.00912691653, 2.63532     , 4.9         , 3           , 12          , 0.07259603  , 0
-0.0863528252, 0.08760914  , -9.818748   , 0.000376591866, -0.00146849407, 0.000453559245, -0.2234731  , -0.12943238 , 0.4539571   , -0.009366136, -0.009141559, 2.63532424  , 4.91        , 3           , 50          , 0           , 0
-0.111635856, 0.100910082 , -9.794931   , -0.00230781268, -0.00134585937, -0.0006888845, -0.2234731  , -0.12943238 , 0.4539571   , -0.009389152, -0.009155081, 2.63531756  , 4.92        , 3           , 11          , 0.005765345 , 0.00576530956
-0.117618963, 0.09599082  , -9.787314   , -0.00174718571, -0.000356558536, 0.000445417943, -0.22367534 , -0.12943238 , 0.454024523 , -0.00940666348, -0.009158605, 2.63532186  , 4.93        , 3           , 12          , 0.07259603  , 0
-0.0871758  , 0.101077206 , -9.795648   , 0.000651803741, -5.87599061E-05, 3.32395757E-05, -0.223607928, -0.129297554, 0.454294175 , -0.00940015 , -0.009159191, 2.63532233  , 4.94        , 3           , 50          , 0           , 0
-0.08372665 , 0.08616485  , -9.801107   , 0.0006509065, -5.87642062E-05, -0.00152071647, -0.223338276, -0.129364967, 0.453889728 , -0.009393501, -0.009159921, 2.635307    , 4.95        , 3           , 11          , 0.005765345 , 0.00576530956
-0.0941684842, 0.08403285  , -9.801647   , 0.000516700267, -0.0013267583, -0.000251909078, -0.223338276, -0.129364967, 0.453889728 , -0.009388312, -0.009173212, 2.63530469  , 4.96        , 3           , 12          , 0.07259603  , 0
-0.08834563 , 0.111511983 , -9.808269   , 0.00150748552, -0.00160163443, 0.00130622229, -0.2234731  , -0.129634619, 0.4538223   , -0.009373358, -0.009189106, 2.635318    , 4.97        , 3           , 50          , 0           , 0
-0.0796939358, 0.08429727  , -9.796565   , 0.00319675962, -0.000604698842, 0.000609299168, -0.22367534 , -0.129364967, 0.454159349 , -0.009341448, -0.009195094, 2.63532376  , 4.98        , 3           , 11          , 0.005765345 , 0.00576530956
-0.106130511, 0.07732215  , -9.777361   , 0.00178504072, -0.000895818463, -0.00109294441, -0.223405689, -0.1295672  , 0.454024523 , -0.009323498, -0.009204155, 2.63531327  , 4.99        , 3           , 12          , 0.07259603  , 0
-0.09082697 , 0.06724784  , -9.786776   , 0.0008052599, -0.002601502, -0.000676235242, -0.223405689, -0.1295672  , 0.454024523 , -0.009315034, -0.009262652, 2.635308    , 5           , 3           , 50          , 0           , 0
-0.09589873 , 0.08501236  , -9.81838    , 0.00221177377, -0.00132490625, 0.000462452 , -0.2234731  , -0.12943238 , 0.453889728 , -0.009292962, -0.009275858, 2.63531232  , 5.01        , 3           , 11          , 0.005708242 , 0.00570820551
-0.09364884 , 0.0836353451, -9.819273   , 0.00262053171, 0.00163439079, 4.517747E-05, -0.2234731  , -0.129634619, 0.454024523 , -0.009266758, -0.009259512, 2.6353128   , 5.02        , 3           , 12          , 0.07368833  , 0
-0.0833192  , 0.08790819  , -9.784373   , 0.002479934 , 0.00149265293, -9.696666E-05, -0.223607928, -0.129364967, 0.454024523 , -0.009241948, -0.009244595, 2.63531184  , 5.03        , 3           , 50          , 0           , 0
-0.0891731456, 0.08621803  , -9.797984   , 0.000935973832, -0.000348023575, 0.0004580445, -0.223607928, -0.129364967, 0.454024523 , -0.009232631, -0.009248033, 2.63531613  , 5.04        , 3           , 11          , 0.005708242 , 0.00570820551
-0.11585433 , 0.0910220146, -9.791841   , -5.38327658E-05, -7.31431137E-05, 0.0005951379, -0.223540515, -0.129364967, 0.4537549   , -0.009233225, -0.009248709, 2.63532233  , 5.05        , 3           , 12          , 0.07368833  , 0
-0.0950189754, 0.0930151045, -9.786249   , -0.000203573363, 0.00161529169, 0.000314545672, -0.223742753, -0.129297554, 0.454024523 , -0.009235288, -0.009232528, 2.63532519  , 5.06        , 3           , 50          , 0           , 0
-0.103725217, 0.117061153 , -9.794805   , 0.0005075803, 0.000493804 , -0.0005315101, -0.223607928, -0.1294998  , 0.454091936 , -0.009230164, -0.009227639, 2.63532     , 5.07        , 3           , 11          , 0.005708242 , 0.00570820551
-0.1152364  , 0.1000775   , -9.803098   , 0.001499396 , -0.0002034246, -0.000810523168, -0.223607928, -0.1294998  , 0.454091936 , -0.009215094, -0.00922974851, 2.63531184  , 5.08        , 3           , 12          , 0.07368833  , 0
-0.101493955, 0.0907475948, -9.760546   , -0.0001942231, -0.0003556658, -0.000394835632, -0.223607928, -0.129364967, 0.4538223   , -0.009216999, -0.009233341, 2.635308    , 5.09        , 3           , 50          , 0           , 0
