Acc X       , Acc Y       , Acc Z       , Gyro X      , Gyro Y      , Gyro Z      , Magn X      , Magn Y      , Magn Z      , Euler X     , Euler Y     , Euler Z     , Time        , Status      , LowRate X   , LowRate Y   , LowRate Z    
-0.0792654157, 0.08427231  , -9.790685   , -0.00315054716, -0.00244003162, -0.0001011159, -0.224079818, -0.130645812, 0.453417838 , -0.00970378 , -0.009000029, 2.63615823  , 0           , 3           , 11          , 0.0346410163, 0.0346410163
-0.08595954 , 0.09291181  , -9.787086   , -0.003168788, 0.001079528 , -0.001508379, -0.224079818, -0.1305784  , 0.4532156   , -0.009735333, -0.008989382, 2.636143    , 0.01        , 3           , 12          , 0.0346410163, 0
-0.0702777  , 0.113049522 , -9.791853   , -0.000772876141, 0.00208124123, -0.00121312891, -0.223742753, -0.130510986, 0.45348525  , -0.009742949, -0.008968688, 2.636131    , 0.02        , 3           , 50          , 0           , 0
-0.09731164 , 0.0894476   , -9.790802   , -5.48413955E-05, -0.000166500467, 0.0001993793, -0.223742753, -0.130510986, 0.45348525  , -0.009743515, -0.008970333, 2.636133    , 0.03        , 3           , 11          , 0.0346410163, 0.0346410163
-0.09402462 , 0.09709355  , -9.794813   , -0.0006145713, -0.00115579693, 0.0006190327, -0.223944992, -0.130915463, 0.45348525  , -0.009749717, -0.008981831, 2.63613915  , 0.04        , 3           , 12          , 0.0346410163, 0
-0.08493216 , 0.09880243  , -9.797901   , -0.00118356256, -0.000455707428, -0.0005126662, -0.2240124  , -0.1305784  , 0.4537549   , -0.009761507, -0.008986437, 2.63613439  , 0.05        , 3           , 50          , 0           , 0
-0.06786237 , 0.08599239  , -9.805054   , -5.836355E-05, 0.000396626041, -0.00107117137, -0.2240124  , -0.130645812, 0.453552663 , -0.009761994, -0.008982575, 2.636124    , 0.06        , 3           , 11          , 0.0346410163, 0.0346410163
-0.099550955, 0.0823525041, -9.819776   , 0.0005014035, 0.00152670871, -0.0002191895, -0.2240124  , -0.130645812, 0.453552663 , -0.009756958, -0.00896733 , 2.636121    , 0.07        , 3           , 12          , 0.0346410163, 0
-0.10520643 , 0.0995699   , -9.821102   , -0.000209461, 0.002507412 , -7.969431E-05, -0.224079818, -0.130713224, 0.453417838 , -0.009759044, -0.008942265, 2.63612     , 0.08        , 3           , 50          , 0           , 0
-0.09862623 , 0.0957479   , -9.781294   , 0.000493328669, 0.003075315 , -0.0009231465, -0.223742753, -0.130308747, 0.453620076 , -0.009754025, -0.008911603, 2.63611054  , 0.09        , 3           , 11          , 0.0346410163, 0.0346410163
-0.08811365 , 0.102847084 , -9.782088   , 0.000221312541, 0.00110245228, 0.000202649564, -0.2240124  , -0.130510986, 0.45348525  , -0.009751828, -0.00890056 , 2.63611245  , 0.1         , 3           , 12          , 0.0346410163, 0
-0.08033577 , 0.06808079  , -9.802512   , -5.44779141E-05, -2.57128831E-05, 0.00203609047, -0.2240124  , -0.130510986, 0.45348525  , -0.009752556, -0.008900619, 2.636133    , 0.11        , 3           , 50          , 0           , 0
-0.0807784945, 0.07925302  , -9.769022   , 0.001639223 , 0.000126528656, 0.0017616715, -0.223877579, -0.130443573, 0.45348525  , -0.00973632 , -0.00889918 , 2.6361506   , 0.12        , 3           , 11          , 0.0346410163, 0.0346410163
-0.07873385 , 0.08745528  , -9.799707   , 0.000651922659, -0.000302508124, 0.0002024553, -0.224214643, -0.130443573, 0.453620076 , -0.009729818, -0.008902186, 2.63615251  , 0.13        , 3           , 12          , 0.0346410163, 0
-0.09838421 , 0.07280796  , -9.80353451 , 7.80523842E-05, 0.00138305954, -0.0009277248, -0.2240124  , -0.130780637, 0.4536875   , -0.009728955, -0.008888448, 2.636143    , 0.14        , 3           , 50          , 0           , 0
-0.0995203853, 0.0935360342, -9.791254   , 0.00105695135, 0.00336070079, -0.0006375406, -0.2240124  , -0.130780637, 0.4536875   , -0.009718326, -0.008854903, 2.63613629  , 0.15        , 3           , 11          , 0.0346410163, 0.0346410163
-0.09258553 , 0.102945596 , -9.795681   , -0.000773617765, 0.00236280961, -8.254447E-05, -0.223742753, -0.130780637, 0.45348525  , -0.009726054, -0.008831284, 2.63613534  , 0.16        , 3           , 12          , 0.0346410163, 0
-0.10582006 , 0.0887324661, -9.816632   , 0.0006520039, -0.000302507717, 0.000343724 , -0.2240124  , -0.130510986, 0.453620076 , -0.009719565, -0.008834277, 2.63613915  , 0.17        , 3           , 50          , 0           , 0
-0.100579195, 0.112987787 , -9.802029   , 0.00221330766, -0.0019813953, -0.000357980229, -0.224214643, -0.130510986, 0.4536875   , -0.009697401, -0.008854124, 2.63613534  , 0.18        , 3           , 11          , 0.0346410163, 0.0346410163
-0.0897428542, 0.111942776 , -9.79743    , 0.0007980595, -0.00142781658, -0.0009287718, -0.223810166, -0.130645812, 0.453417838 , -0.009689338, -0.008868491, 2.63612676  , 0.19        , 3           , 12          , 0.0346410163, 0
-0.0550554842, 0.09889217  , -9.794507   , 0.000231069658, -0.0008685066, 0.000199610848, -0.223810166, -0.130645812, 0.453417838 , -0.009687068, -0.008877258, 2.63612866  , 0.2         , 3           , 50          , 0           , 0
-0.07910328 , 0.104489438 , -9.765289   , 0.0008049843, -0.0026948594, 0.000199424161, -0.223944992, -0.1305784  , 0.453620076 , -0.009679037, -0.008904185, 2.63613057  , 0.21        , 3           , 11          , 0.0346699134, 0.0346699171
-0.0860179141, 0.08706197  , -9.79163    , 0.00151019148, -0.002549303, -7.960406E-05, -0.223944992, -0.130780637, 0.4537549   , -0.00966393 , -0.008929685, 2.63613     , 0.22        , 3           , 12          , 0.0346687734, 0
-0.0744695  , 0.101397663 , -9.800973   , 0.000658773235, -0.00185112318, -0.00121261983, -0.224079818, -0.130645812, 0.45348525  , -0.009657236, -0.008948315, 2.63611817  , 0.23        , 3           , 50          , 0           , 0
-0.0956334546, 0.11111562  , -9.799287   , -5.09864039E-05, -0.0010112006, -0.000366997847, -0.224079818, -0.130645812, 0.45348525  , -0.009657713, -0.008958462, 2.63611436  , 0.24        , 3           , 11          , 0.0346699134, 0.0346699171
-0.1031374  , 0.09313649  , -9.793995   , -0.00104636862, 0.000389940222, -0.000228168763, -0.2240124  , -0.130443573, 0.4536875   , -0.009668156, -0.008954583, 2.63611245  , 0.25        , 3           , 12          , 0.0346687734, 0
-0.09676626 , 0.09621257  , -9.791674   , -0.000900765765, -0.000594584853, -0.00107664161, -0.223810166, -0.130713224, 0.4538223   , -0.00967706647, -0.008960632, 2.636102    , 0.26        , 3           , 50          , 0           , 0
-0.08869122 , 0.117853068 , -9.814121   , -4.56995076E-05, -0.00199667644, 0.0003378268, -0.2240124  , -0.1305784  , 0.453620076 , -0.009677555, -0.008980566, 2.6361053   , 0.27        , 3           , 11          , 0.0346699134, 0.0346699171
-0.07625072 , 0.111709237 , -9.775181   , 0.0005118578, -0.0005850325, -0.000222444578, -0.2240124  , -0.1305784  , 0.453620076 , -0.009672417, -0.00898644 , 2.636103    , 0.28        , 3           , 12          , 0.0346687734, 0
-0.05462957 , 0.09529428  , -9.799491   , 0.00106863643, 0.0009673932, -0.0009237677, -0.223944992, -0.130713224, 0.4537549   , -0.009661647, -0.00897685252, 2.63609385  , 0.29        , 3           , 50          , 0           , 0
-0.0837522149, 0.08435872  , -9.800663   , 6.03289664E-05, -0.000285937131, -0.00149497832, -0.223810166, -0.1305784  , 0.453889728 , -0.0101915458, -0.008559654, 2.63608336  , 0.3         , 3           , 11          , 0.03475342  , 0.03475342
-0.09414083 , 0.09119684  , -9.785347   , -0.00121378759, 0.000268596166, -0.00220638048, -0.223877579, -0.130645812, 0.4537549   , -0.0102034947, -0.008557192, 2.63606143  , 0.31        , 3           , 12          , 0.0347538   , 0
-0.08544332 , 0.09295791  , -9.802448   , -0.0009337409, 0.000833638245, -0.00149785192, -0.223877579, -0.130645812, 0.4537549   , -0.0102127027, -0.00854901 , 2.63604617  , 0.32        , 3           , 50          , 0           , 0
-0.09967482 , 0.07109338  , -9.825699   , 0.000766737445, -6.998172E-05, 0.000910208037, -0.224079818, -0.130510986, 0.453552663 , -0.0102051152, -0.008549616, 2.63605523  , 0.33        , 3           , 11          , 0.03475342  , 0.03475342
-0.0945787  , 0.0912142545, -9.788965   , 0.00359201012, -0.000262056041, 0.00085241755, -0.2240124  , -0.13037616 , 0.4537549   , -0.0101692667, -0.00855215 , 2.63606381  , 0.34        , 3           , 12          , 0.0347538   , 0
-0.09704667 , 0.107516319 , -9.797504   , 0.00105274923, -0.0007015912, 0.00168752659, -0.223810166, -0.130645812, 0.453552663 , -0.0101588853, -0.008558993, 2.636081    , 0.35        , 3           , 50          , 0           , 0
-0.0804736838, 0.09824672  , -9.782501   , -0.0007160664, -9.616497E-06, 0.00139784324, -0.223810166, -0.130645812, 0.453552663 , -0.0101661645, -0.008558948, 2.63609481  , 0.36        , 3           , 11          , 0.03475342  , 0.03475342
-0.07082079 , 0.10941086  , -9.781477   , -0.0009244867, -0.0005741762, 0.002455503 , -0.223944992, -0.130645812, 0.453889728 , -0.0101756211, -0.008564439, 2.6361196   , 0.37        , 3           , 12          , 0.0347538   , 0
-0.09126369 , 0.0988829   , -9.799757   , -0.0030365556, -0.00192593725, 0.00159595243, -0.223877579, -0.130780637, 0.4536875   , -0.0102061257, -0.008583534, 2.63613582  , 0.38        , 3           , 50          , 0           , 0
-0.09197304 , 0.08216539  , -9.79079151 , 6.48746645E-05, -0.0009898447, 0.0003404303, -0.223810166, -0.130713224, 0.4537549   , -0.0102055082, -0.008593398, 2.63613915  , 0.39        , 3           , 11          , 0.03475342  , 0.03475342
-0.08832623 , 0.115098491 , -9.801474   , 7.70766856E-05, 0.00110722869, 0.00154412992, -0.223810166, -0.130713224, 0.4537549   , -0.010002899, -0.00871707 , 2.63615251  , 0.4         , 3           , 12          , 0.03489524  , 0
-0.07073752 , 0.116173573 , -9.780092   , 0.000726028346, -0.00170412683, 0.0007657756, -0.2240124  , -0.130645812, 0.4536875   , -0.009995706, -0.008734033, 2.63616061  , 0.41        , 3           , 50          , 0           , 0
-0.0774660558, 0.09361485  , -9.757638   , 0.0031890024, -6.84166E-05, 0.000355987635, -0.223877579, -0.13037616 , 0.4537549   , -0.009963848, -0.008734683, 2.636164    , 0.42        , 3           , 11          , 0.01769913  , 0.0176992379
-0.08299795 , 0.07128133  , -9.805683   , 0.001345072 , 0.00146777427, -0.0004977981, -0.2240124  , -0.130780637, 0.4536875   , -0.009950352, -0.008720056, 2.63615918  , 0.43        , 3           , 12          , 0.03489524  , 0
-0.06858866 , 0.09909245  , -9.806813   , -0.000136730669, 0.0014577515, 0.00111987849, -0.2240124  , -0.130780637, 0.4536875   , -0.009951815, -0.008705366, 2.63617063  , 0.44        , 3           , 50          , 0           , 0
-0.103977136, 0.099003    , -9.79126549 , 0.0024076167, 0.000771023857, -0.000564578746, -0.224079818, -0.131185114, 0.4536875   , -0.00992769 , -0.008697714, 2.636165    , 0.45        , 3           , 11          , 0.01769913  , 0.0176992379
-0.09061225 , 0.080366    , -9.797116   , 0.00205776049, 0.000135115071, -0.0004965668, -0.2240124  , -0.130780637, 0.453620076 , -0.009907067, -0.008696411, 2.63615966  , 0.46        , 3           , 12          , 0.03489524  , 0
-0.09312159 , 0.09618819  , -9.79707    , 0.003323079 , 0.00148114911, 0.00127727969, -0.223810166, -0.130780637, 0.4538223   , -0.009873944, -0.008681473, 2.63617253  , 0.47        , 3           , 50          , 0           , 0
-0.0734518  , 0.114422038 , -9.78644848 , 0.00262224372, 0.000279719185, 7.135889E-05, -0.223810166, -0.130780637, 0.4538223   , -0.00984772947, -0.00867867 , 2.636173    , 0.48        , 3           , 11          , 0.01769913  , 0.0176992379
-0.07179348 , 0.09419119  , -9.814091   , -0.00055536587, 0.0003286235, 0.000127286112, -0.223944992, -0.130982876, 0.453620076 , -0.009853295, -0.008675371, 2.63617444  , 0.49        , 3           , 12          , 0.03489524  , 0
-0.07832524 , 0.12081629  , -9.792335   , -0.000208500933, 0.0009795862, 0.0001300769, -0.223944992, -0.130308747, 0.453620076 , -0.00986996852, -0.008593177, 2.63617539  , 0.5         , 3           , 50          , 0           , 0
-0.0868638  , 0.0947089046, -9.781661   , -0.00190742547, 0.00174242782, -0.000794878, -0.22414723 , -0.1305784  , 0.4537549   , -0.009888972, -0.008575833, 2.63616729  , 0.51        , 3           , 11          , 0.0134360138, 0.013436039
-0.08145625 , 0.08480446  , -9.806972   , -0.002397042, 0.0008943923, -2.15065156E-05, -0.22414723 , -0.1305784  , 0.4537549   , -0.009912941, -0.008566893, 2.63616681  , 0.52        , 3           , 12          , 0.035091985 , 0
-0.08245678 , 0.107427865 , -9.821801   , 0.000862222631, -0.00133616256, 0.0003433386, -0.2240124  , -0.130713224, 0.453552663 , -0.009904347, -0.008580219, 2.63617063  , 0.53        , 3           , 50          , 0           , 0
-0.09226548 , 0.08721046  , -9.813824   , 0.004453388 , 0.000588752038, -0.000272650621, -0.224079818, -0.130510986, 0.4536875   , -0.00985979 , -0.008574357, 2.63616776  , 0.54        , 3           , 11          , 0.0134360138, 0.013436039
-0.100547113, 0.08853865  , -9.777723   , 0.0023252212, 0.0026861676, 0.000568339252, -0.223944992, -0.130713224, 0.453889728 , -0.009836583, -0.008547442, 2.63617349  , 0.55        , 3           , 12          , 0.035091985 , 0
-0.08790769 , 0.114172749 , -9.796051   , -0.0007767765, 0.00160928618, -0.000366021035, -0.223944992, -0.130713224, 0.453889728 , -0.009844319, -0.008531385, 2.63616967  , 0.56        , 3           , 50          , 0           , 0
-0.06805305 , 0.110313006 , -9.790944   , -0.00168096856, -0.001212573, -0.000798446534, -0.224079818, -0.130780637, 0.453350425 , -0.009861063, -0.00854359 , 2.63616157  , 0.57        , 3           , 11          , 0.0134360138, 0.013436039
-0.0844910443, 0.103251182 , -9.780703   , -0.000266480056, -0.00155497645, 0.0002671111, -0.22414723 , -0.130713224, 0.453620076 , -0.00986375 , -0.00855911151, 2.63616443  , 0.58        , 3           , 12          , 0.035091985 , 0
-0.08279192 , 0.0928731   , -9.78661    , 0.0004360798, -0.000775896129, 0.000836671563, -0.224079818, -0.130780637, 0.4536875   , -0.009859462, -0.008566788, 2.63617253  , 0.59        , 3           , 50          , 0           , 0
-0.08207104 , 0.102458373 , -9.821366   , 0.00131826731, 0.0009204885, -0.0009927064, -0.223944992, -0.130645812, 0.453552663 , -0.009924672, -0.008555308, 2.63616347  , 0.6         , 3           , 11          , 0.0113499882, 0.0113499984
-0.0818819553, 0.09375872  , -9.78479    , 0.0005340488, 0.0024638446, -0.000782038143, -0.223944992, -0.130645812, 0.453552663 , -0.009919263, -0.00853075 , 2.63615537  , 0.61        , 3           , 12          , 0.0353426747, 0
-0.08989623 , 0.101106077 , -9.794765   , -0.00108472223, 0.00153777876, 0.000339128921, -0.224214643, -0.130645812, 0.453552663 , -0.009930139, -0.00851533748, 2.63615823  , 0.62        , 3           , 50          , 0           , 0
-0.0968295857, 0.09883934  , -9.767708   , -0.00128174212, -0.00142008613, 0.0006161224, -0.2240124  , -0.13037616 , 0.4537549   , -0.009943008, -0.008529478, 2.636165    , 0.63        , 3           , 11          , 0.0113499882, 0.0113499984
-0.07133437 , 0.105349742 , -9.779691   , -0.00143506809, 0.000901867868, -0.000440471573, -0.2240124  , -0.130645812, 0.453620076 , -0.009957322, -0.00852050353, 2.63616014  , 0.64        , 3           , 12          , 0.0353426747, 0
-0.0868253  , 0.0938474238, -9.793867   , 0.00145369722, 0.00218848861, -0.000142482939, -0.2240124  , -0.130645812, 0.453620076 , -0.009942771, -0.008498634, 2.6361587   , 0.65        , 3           , 50          , 0           , 0
-0.10673552 , 0.0905204862, -9.808496   , 0.0007586598, -6.880748E-05, -0.000361149723, -0.224214643, -0.1305784  , 0.4536875   , -0.009935154, -0.008499359, 2.63615537  , 0.66        , 3           , 11          , 0.0113499882, 0.0113499984
-0.09095936 , 0.0871522   , -9.801159   , -0.00150223065, 0.0001974775, -0.000512519968, -0.223877579, -0.130780637, 0.4539571   , -0.00995013 , -0.008497436, 2.63614964  , 0.67        , 3           , 12          , 0.0353426747, 0
-0.09612917 , 0.07589862  , -9.791301   , -0.0016450641, 0.0005484795, -0.000300732878, -0.223810166, -0.130780637, 0.4536875   , -0.009966556, -0.008491981, 2.63614678  , 0.68        , 3           , 50          , 0           , 0
-0.09358534 , 0.0939528644, -9.801602   , -0.00128362572, -0.00113852322, -0.00023105595, -0.223810166, -0.130780637, 0.4536875   , -0.009979374, -0.008503389, 2.63614488  , 0.69        , 3           , 11          , 0.0113499882, 0.0113499984
-0.08733666 , 0.09023446  , -9.791174   , -0.0007362849, -0.00240252842, 0.000192098989, -0.223877579, -0.130645812, 0.453552663 , -0.009887494, -0.008676942, 2.63614583  , 0.7         , 3           , 12          , 0.03564575  , 0
-0.09064519 , 0.08123202  , -9.786264   , 0.000882278662, -0.00133567792, -8.123873E-05, -0.223944992, -0.13037616 , 0.4537549   , -0.009878667, -0.008690306, 2.63614488  , 0.71        , 3           , 50          , 0           , 0
-0.132121354, 0.09079397  , -9.801458   , 0.00179393357, -6.242763E-05, -4.37173367E-06, -0.223877579, -0.130645812, 0.4536875   , -0.009860725, -0.008690931, 2.63614488  , 0.72        , 3           , 11          , 0.0101307454, 0.0101307528
-0.106179647, 0.06880167  , -9.792764   , 0.00278218649, -0.000196529756, -0.00162456988, -0.223877579, -0.130645812, 0.4536875   , -0.009832764, -0.008693057, 2.63612866  , 0.73        , 3           , 12          , 0.03564575  , 0
-0.09268658 , 0.09482942  , -9.797071   , 0.001584946 , -0.000767776044, -0.0011365941, -0.223944992, -0.1305784  , 0.453620076 , -0.009816815, -0.008700846, 2.63611722  , 0.74        , 3           , 50          , 0           , 0
-0.106629953, 0.09462318  , -9.821135   , -0.002498153, -0.00304798642, 0.000465429272, -0.2240124  , -0.1305784  , 0.453889728 , -0.009841839, -0.008731279, 2.63612247  , 0.75        , 3           , 11          , 0.0101307454, 0.0101307528
-0.0919728056, 0.0799338147, -9.798032   , 0.000950546237, -0.000772068335, 0.000696936331, -0.223944992, -0.130645812, 0.4536875   , -0.009832395, -0.008738929, 2.63612962  , 0.76        , 3           , 12          , 0.03564575  , 0
-0.09556514 , 0.08267872  , -9.796692   , 0.002493257 , 0.00127978087, -0.0002109212, -0.223944992, -0.130645812, 0.4536875   , -0.009807443, -0.008726154, 2.63612723  , 0.77        , 3           , 50          , 0           , 0
-0.110073037, 0.0877434462, -9.776443   , -0.00216217386, 0.0003331802, -9.27922738E-05, -0.223877579, -0.130443573, 0.4536875   , -0.009829056, -0.0087228315, 2.63612628  , 0.78        , 3           , 11          , 0.0101307454, 0.0101307528
-0.08399896 , 0.105955794 , -9.781591   , 0.00115931488, -0.000277899817, -0.000360832026, -0.2240124  , -0.130510986, 0.4538223   , -0.009817434, -0.008725646, 2.636123    , 0.79        , 3           , 12          , 0.03564575  , 0
-0.08273957 , 0.09559361  , -9.790665   , 0.00156558712, 0.00289828563, -0.0004972856, -0.2240124  , -0.130645812, 0.4537549   , -0.00968634 , -0.00891952 , 2.63611627  , 0.8         , 3           , 50          , 0           , 0
-0.108225614, 0.111334    , -9.820173   , 0.00115149748, 0.0010652499, 0.000345530716, -0.2240124  , -0.130645812, 0.4537549   , -0.009674855, -0.008908835, 2.63612     , 0.81        , 3           , 11          , 0.009377131 , 0.009377133
-0.1149614  , 0.0941256   , -9.778714   , -0.002018482, -0.0005752397, -0.000872564153, -0.2240124  , -0.130645812, 0.453620076 , -0.009694962, -0.008914672, 2.6361115   , 0.82        , 3           , 12          , 0.0359994732, 0
-0.09471707 , 0.0830678344, -9.781317   , -0.002233235, 5.68501855E-05, -0.0005194036, -0.2240124  , -0.130780637, 0.453889728 , -0.009717247, -0.008914153, 2.63610578  , 0.83        , 3           , 50          , 0           , 0
-0.108966313, 0.09503741  , -9.802167   , -0.00110094354, -0.000498641049, -0.000868175644, -0.22367534 , -0.130780637, 0.4536875   , -0.00972818 , -0.008919224, 2.63609719  , 0.84        , 3           , 11          , 0.009377131 , 0.009377133
-0.08695618 , 0.0857070461, -9.788027   , -0.00145221583, -0.0007825918, -0.000234546518, -0.22367534 , -0.130780637, 0.4536875   , -0.009742683, -0.008927072, 2.63609529  , 0.85        , 3           , 12          , 0.0359994732, 0
-0.08750009 , 0.111006342 , -9.795157   , -0.002300134, -0.000577145955, 0.000468171871, -0.224079818, -0.130780637, 0.45348525  , -0.009765725, -0.008932798, 2.6361      , 0.86        , 3           , 50          , 0           , 0
-0.09938047 , 0.101237364 , -9.800713   , -0.0018779285, -0.0002927162, 0.000399946759, -0.223877579, -0.1305784  , 0.4538223   , -0.009784539, -0.008935686, 2.63610387  , 0.87        , 3           , 11          , 0.009377131 , 0.009377133
-0.0591368079, 0.09804224  , -9.79589748 , -0.00102661061, -0.00106128934, 0.00075587607, -0.2240124  , -0.130645812, 0.4537549   , -0.009794875, -0.008946224, 2.6361115   , 0.88        , 3           , 12          , 0.0359994732, 0
-0.06978917 , 0.07833199  , -9.801485   , -0.0008238258, 0.0005591375, -0.00100650033, -0.2240124  , -0.130645812, 0.4537549   , -0.009803023, -0.008940732, 2.63610148  , 0.89        , 3           , 50          , 0           , 0
-0.0863143355, 0.0943355858, -9.806517   , -0.00184207247, -0.000505552744, 4.61288219E-05, -0.223877579, -0.130915463, 0.453620076 , -0.009772454, -0.008948109, 2.63610148  , 0.9         , 3           , 11          , 0.008911595 , 0.00891158
-0.09897494 , 0.0927130952, -9.816564   , 0.0005640056, -0.001474793, 0.00104468525, -0.224079818, -0.130645812, 0.4538223   , -0.00976691 , -0.008962755, 2.636112    , 0.91        , 3           , 12          , 0.0364019573, 0
-0.09345869 , 0.0962872356, -9.825095   , 0.00148599688, -0.00245406735, -0.0002946065, -0.223944992, -0.130713224, 0.4538223   , -0.009752026, -0.008987323, 2.63610959  , 0.92        , 3           , 50          , 0           , 0
-0.0763521641, 0.0928803161, -9.81096649 , -0.000639459933, -0.0010605678, -0.0007967544, -0.223944992, -0.130713224, 0.4538223   , -0.009758349, -0.008998006, 2.63610148  , 0.93        , 3           , 11          , 0.008911595 , 0.00891158
-0.08667551 , 0.107359275 , -9.78703    , 0.000138852512, -0.00133687945, -0.000369760528, -0.22414723 , -0.130713224, 0.453552663 , -0.00975693 , -0.00901141 , 2.63609815  , 0.94        , 3           , 12          , 0.0364019573, 0
-0.09470158 , 0.08129497  , -9.790816   , 0.000201892413, 0.000282599416, 0.000410041743, -0.223810166, -0.130443573, 0.454024523 , -0.009754947, -0.009008543, 2.636102    , 0.95        , 3           , 50          , 0           , 0
-0.0846185163, 0.08707928  , -9.801562   , 0.00238843146, 0.0005085697, -0.0016984574, -0.224214643, -0.130915463, 0.4537549   , -0.009730909, -0.009003623, 2.63608479  , 0.96        , 3           , 11          , 0.008911595 , 0.00891158
-0.105646208, 0.07198617  , -9.802238   , 0.00316971354, -0.00026047806, -0.0003539764, -0.223944992, -0.130510986, 0.453620076 , -0.009699182, -0.009006262, 2.63608146  , 0.97        , 3           , 12          , 0.0364019573, 0
-0.108426452, 0.06928848  , -9.79549    , -0.000846096955, -0.00197708374, 0.00033099734, -0.223944992, -0.130510986, 0.453620076 , -0.009707673, -0.009025999, 2.63608479  , 0.98        , 3           , 50          , 0           , 0
-0.07501424 , 0.09552591  , -9.797386   , -0.000493148633, -0.00183391059, 0.001392376 , -0.2240124  , -0.13084805 , 0.4536875   , -0.009712734, -0.009044203, 2.636099    , 0.99        , 3           , 11          , 0.008911595 , 0.00891158
-0.08784254 , 0.08394784  , -9.798436   , -0.000883445435, -0.00144382636, 0.00110695837, -0.223944992, -0.130510986, 0.4538223   , -0.009588456, -0.009094815, 2.636109    , 1           , 3           , 12          , 0.0368512   , 0
-0.09347908 , 0.0740273446, -9.780892   , 0.000456076028, -0.00115319178, 5.41324262E-05, -0.223944992, -0.130713224, 0.4536875   , -0.009583902, -0.00910634 , 2.63610959  , 1.01        , 3           , 50          , 0           , 0
-0.06929582 , 0.09041099  , -9.772504   , -0.00026064628, 0.0008129847, -0.00150007836, -0.223944992, -0.130713224, 0.4536875   , -0.00958637148, -0.009098355, 2.63609433  , 1.02        , 3           , 11          , 0.00863450952, 0.008634501
-0.0801867545, 0.07802124  , -9.80699    , -0.000257821055, 0.000390640576, -0.000229310856, -0.2240124  , -0.130713224, 0.4537549   , -0.009588926, -0.00909447 , 2.63609242  , 1.03        , 3           , 12          , 0.0368512   , 0
-0.08442354 , 0.103752226 , -9.795616   , 0.00137342943, -0.001006201, 0.000341166742, -0.223877579, -0.130645812, 0.4537549   , -0.009575225, -0.009104499, 2.63609576  , 1.04        , 3           , 50          , 0           , 0
-0.08949361 , 0.09882838  , -9.7898     , 0.00017645958, -0.00178862456, -0.000513235864, -0.224079818, -0.130645812, 0.453620076 , -0.009573417, -0.009122434, 2.636091    , 1.05        , 3           , 11          , 0.00863450952, 0.008634501
-0.07322395 , 0.0950414   , -9.793758   , -0.0003828217, -0.002777919, 0.0006833958, -0.224079818, -0.130645812, 0.453620076 , -0.009577311, -0.009150146, 2.63609815  , 1.06        , 3           , 12          , 0.0368512   , 0
-0.094442   , 0.104715541 , -9.778965   , 0.0006695943, -0.00136292982, 0.00118494453, -0.223944992, -0.13084805 , 0.4537549   , -0.00957072247, -0.009163662, 2.63611     , 1.07        , 3           , 50          , 0           , 0
-0.08715059 , 0.110024638 , -9.773012   , -0.00110346649, 0.000244132651, 0.001391112 , -0.2240124  , -0.130780637, 0.4538223   , -0.009581884, -0.009161088, 2.636124    , 1.08        , 3           , 11          , 0.00863450952, 0.008634501
-0.08902992 , 0.09079759  , -9.818304   , 0.00200251676, 0.000194745939, -0.0004310038, -0.2240124  , -0.130780637, 0.453620076 , -0.009561821, -0.009159181, 2.6361196   , 1.09        , 3           , 12          , 0.0368512   , 0
-0.08501349 , 0.094719395 , -9.791138   , 0.00156775734, -0.000326031528, -9.480345E-06, -0.2240124  , -0.130780637, 0.453620076 , -0.009562774, -0.009109302, 2.6361196   , 1.1         , 3           , 50          , 0           , 0
-0.07472964 , 0.122537546 , -9.780096   , -0.000907681533, 0.00057234423, 0.0005454817, -0.224079818, -0.13084805 , 0.4538223   , -0.009571901, -0.009103527, 2.63612485  , 1.11        , 3           , 11          , 0.008480362 , 0.008480342
-0.104678705, 0.1076596   , -9.813382   , 0.0009974316, 0.000726016355, -0.0004342931, -0.223944992, -0.130443573, 0.4537549   , -0.009561886, -0.00909631047, 2.63612056  , 1.12        , 3           , 12          , 0.0373451225, 0
-0.09577741 , 0.102964677 , -9.790282   , 0.00205519749, 0.001085137 , 0.00027753145, -0.2240124  , -0.130713224, 0.4536875   , -0.009541359, -0.009085433, 2.63612342  , 1.13        , 3           , 50          , 0           , 0
-0.07133821 , 0.102668561 , -9.787384   , 0.00424905075, -2.63235052E-05, -0.0006322448, -0.2240124  , -0.130713224, 0.4536875   , -0.00949881 , -0.009085756, 2.63611722  , 1.14        , 3           , 11          , 0.008480362 , 0.008480342
-0.0953359157, 0.100272089 , -9.796165   , 0.0002959321, -5.305899E-05, 0.00083264  , -0.22414723 , -0.131050289, 0.4537549   , -0.009495926, -0.009086206, 2.63612533  , 1.15        , 3           , 12          , 0.0373451225, 0
-0.08744052 , 0.115964457 , -9.793781   , -0.0008416017, 0.00134712225, -0.0006537799, -0.2240124  , -0.130645812, 0.4537549   , -0.009504282, -0.009072797, 2.63611865  , 1.16        , 3           , 50          , 0           , 0
-0.09840472 , 0.115566805 , -9.771719   , 0.0003632205, 0.0005105461, -8.440991E-05, -0.223944992, -0.1305784  , 0.4538223   , -0.00950064 , -0.009067699, 2.6361177   , 1.17        , 3           , 11          , 0.008480362 , 0.008480342
-0.106145479, 0.1022315   , -9.804377   , 0.001141863 , 9.345033E-05, -0.000293342222, -0.223944992, -0.1305784  , 0.4538223   , -0.009489195, -0.009066792, 2.63611484  , 1.18        , 3           , 12          , 0.0373451225, 0
-0.0919333249, 0.08800011  , -9.781727   , 0.00106799742, 0.000726493658, -0.000504598138, -0.224079818, -0.130915463, 0.4537549   , -0.009478469, -0.009059575, 2.63610959  , 1.19        , 3           , 50          , 0           , 0
-0.102030478, 0.1057868   , -9.802522   , 1.03854636E-05, 0.0004600161, -0.001144144, -0.223810166, -0.130713224, 0.4537549   , -0.009637964, -0.00911091547, 2.63609958  , 1.2         , 3           , 11          , 0.008401433 , 0.008401412
-0.110204309, 0.1040779   , -9.802591   , -0.00026704 , -0.000527371, -0.000935076561, -0.223877579, -0.130645812, 0.4537549   , -0.00964055 , -0.009116279, 2.63609052  , 1.21        , 3           , 12          , 0.03788158  , 0
-0.103375338, 0.108938143 , -9.795739   , -0.00175316562, 0.000236907727, -0.000163819263, -0.223877579, -0.130645812, 0.4537549   , -0.009658065, -0.00911392551, 2.63608861  , 1.22        , 3           , 50          , 0           , 0
-0.07570399 , 0.06989726  , -9.821905   , 8.09885E-05 , 0.000601279433, 5.71862947E-05, -0.224079818, -0.1305784  , 0.4537549   , -0.00965726 , -0.009107907, 2.636089    , 1.23        , 3           , 11          , 0.008401433 , 0.008401412
-0.0972957  , 0.08321161  , -9.814782   , 0.00128295983, 0.0003982259, 0.00112197339, -0.224079818, -0.130780637, 0.453889728 , -0.009644532, -0.00910382 , 2.63610053  , 1.24        , 3           , 12          , 0.03788158  , 0
-0.09824037 , 0.0858686641, -9.79670048 , -0.00153263682, -0.00138065557, 0.00103545759, -0.2240124  , -0.130915463, 0.4536875   , -0.009659953, -0.009117523, 2.63611054  , 1.25        , 3           , 50          , 0           , 0
-0.08189224 , 0.08482337  , -9.811043   , -0.0021028365, -0.000469392951, -0.00037845326, -0.2240124  , -0.130915463, 0.4536875   , -0.009680948, -0.009122254, 2.63610721  , 1.26        , 3           , 11          , 0.008401433 , 0.008401412
-0.07849347 , 0.06987019  , -9.804298   , -0.002180988, 0.0010787379, -0.000164492827, -0.223944992, -0.130713224, 0.453620076 , -0.009702742, -0.009111483, 2.6361053   , 1.27        , 3           , 12          , 0.03788158  , 0
-0.08344284 , 0.07441749  , -9.797538   , 0.0002850008, 0.00208092621, -0.000787160243, -0.224079818, -0.130713224, 0.4536875   , -0.009699818, -0.009090751, 2.63609719  , 1.28        , 3           , 50          , 0           , 0
-0.07284537 , 0.09810041  , -9.765719   , -0.000130561035, 0.000388669519, -0.00128617976, -0.224214643, -0.1305784  , 0.4537549   , -0.009701006, -0.009086989, 2.63608432  , 1.29        , 3           , 11          , 0.008401433 , 0.008401412
-0.0948105156, 0.105235487 , -9.797949   , -0.00299508846, -0.0006551467, -0.000949003, -0.224214643, -0.1305784  , 0.4537549   , -0.009623222, -0.00905745849, 2.6360743   , 1.3         , 3           , 12          , 0.0384584181, 0
-0.101751931, 0.09448156  , -9.796239   , -0.00130872463, 0.000904918532, -0.0018569614, -0.223944992, -0.130780637, 0.453552663 , -0.00963614 , -0.009048588, 2.63605523  , 1.31        , 3           , 50          , 0           , 0
-0.07334617 , 0.08601536  , -9.792892   , -0.00256935717, -0.00107462937, -0.0009476784, -0.2240124  , -0.130645812, 0.4537549   , -0.009661749, -0.00905942451, 2.63604569  , 1.32        , 3           , 11          , 0.008363984 , 0.008363967
-0.0896122158, 0.087127164 , -9.798436   , -0.00200425857, -0.00107080827, -0.000521238369, -0.22367534 , -0.130713224, 0.4538223   , -0.009681745, -0.009070182, 2.636041    , 1.33        , 3           , 12          , 0.0384584181, 0
-0.103334524, 0.11120297  , -9.798442   , -0.004132529, 0.00109699974, 0.0007436662, -0.223944992, -0.130780637, 0.453620076 , -0.009723136, -0.00905913953, 2.63604856  , 1.34        , 3           , 50          , 0           , 0
-0.0916972  , 0.107384488 , -9.777124   , -0.00117055117, 0.001750574 , 0.000122761077, -0.223944992, -0.130780637, 0.453620076 , -0.009734851, -0.009041622, 2.63604951  , 1.35        , 3           , 11          , 0.008363984 , 0.008363967
-0.103290461, 0.0827464   , -9.789971   , -0.00157625473, -0.00184224488, 0.000397790427, -0.22414723 , -0.130510986, 0.4536875   , -0.009750652, -0.009060006, 2.63605332  , 1.36        , 3           , 12          , 0.0384584181, 0
-0.07291237 , 0.08554832  , -9.789727   , -1.69161467E-05, -0.00323957 , -0.00129236106, -0.22414723 , -0.130645812, 0.4537549   , -0.009750707, -0.00909252651, 2.636041    , 1.37        , 3           , 50          , 0           , 0
-0.07939858 , 0.108193181 , -9.791943   , 0.000676275 , -0.000559925, -0.0006492369, -0.223944992, -0.1305784  , 0.453552663 , -0.009743886, -0.009098188, 2.63603425  , 1.38        , 3           , 11          , 0.008363984 , 0.008363967
-0.08509056 , 0.121363804 , -9.797356   , -0.0006042814, 0.00140243617, -0.000440222415, -0.223944992, -0.1305784  , 0.453552663 , -0.00974988751, -0.009084208, 2.63603     , 1.39        , 3           , 12          , 0.0384584181, 0
-0.07850214 , 0.113531359 , -9.772479   , 0.00168294576, -0.0007411251, 0.000344971428, -0.224282056, -0.130713224, 0.453620076 , -0.009794444, -0.009065692, 2.63603425  , 1.4         , 3           , 50          , 0           , 0
-0.083875306, 0.111858547 , -9.792866   , -0.000362950756, -0.000966143038, 0.00146524806, -0.223944992, -0.130645812, 0.4539571   , -0.009798206, -0.0090752095, 2.63604856  , 1.41        , 3           , 11          , 0.008344788 , 0.00834478
-0.07969076 , 0.086085245 , -9.791585   , 0.00118306349, 0.000311399577, -0.000362049643, -0.2240124  , -0.130780637, 0.4537549   , -0.009786343, -0.00907213148, 2.63604522  , 1.42        , 3           , 12          , 0.0390734635, 0
-0.062776275, 0.07002492  , -9.771182   , 0.00287676463, 0.000463641161, -0.0006364685, -0.2240124  , -0.130780637, 0.4537549   , -0.009757516, -0.009067555, 2.636039    , 1.43        , 3           , 50          , 0           , 0
-0.0478396565, 0.0952130258, -9.798987   , 0.002942084 , 0.00144959451, -0.00134096434, -0.224282056, -0.130510986, 0.453552663 , -0.009727972, -0.009053191, 2.63602519  , 1.44        , 3           , 11          , 0.008344788 , 0.00834478
-0.0768391  , 0.09464337  , -9.796951   , 0.00222703745, 0.003274993 , -0.00120016723, -0.223944992, -0.130443573, 0.453889728 , -0.009705591, -0.00902055949, 2.63601327  , 1.45        , 3           , 12          , 0.0390734635, 0
-0.0987270549, 0.08540015  , -9.789926   , 0.000330844341, 0.00122075423, -0.00107093388, -0.224079818, -0.130645812, 0.4536875   , -0.009702185, -0.009008457, 2.63600183  , 1.46        , 3           , 50          , 0           , 0
-0.07530145 , 0.107716851 , -9.798693   , 0.000195414541, -4.72459542E-05, -0.00192115735, -0.224079818, -0.130645812, 0.4536875   , -0.009700058, -0.009009115, 2.63598275  , 1.47        , 3           , 11          , 0.008344788 , 0.00834478
-0.07386191 , 0.116693683 , -9.789606   , 0.000119925164, 0.00107854011, -0.000718966534, -0.22414723 , -0.130915463, 0.4536875   , -0.009698792, -0.0089984  , 2.6359756   , 1.48        , 3           , 12          , 0.0390734635, 0
-0.0895043463, 0.09435617  , -9.801569   , -0.00164692558, 0.00148895232, -2.02029914E-05, -0.223944992, -0.130443573, 0.4536875   , -0.009715259, -0.008983513, 2.63597512  , 1.49        , 3           , 50          , 0           , 0
-0.100936547, 0.08591719  , -9.801692   , -0.001405628, -8.175484E-05, -0.00122069125, -0.223742753, -0.130713224, 0.4538223   , -0.009785664, -0.008849389, 2.63596368  , 1.5         , 3           , 11          , 0.008328947 , 0.008328947
-0.09270608 , 0.0885646939, -9.812467   , -0.00260346546, -0.000441825, 4.4588025E-05, -0.223742753, -0.130713224, 0.4538223   , -0.009811703, -0.008853802, 2.63596416  , 1.51        , 3           , 12          , 0.0397245847, 0
-0.07448992 , 0.104059219 , -9.787402   , -0.00500282552, -0.0005988396, 0.00102205831, -0.223877579, -0.130443573, 0.45348525  , -0.009861821, -0.008859688, 2.63597417  , 1.52        , 3           , 50          , 0           , 0
-0.08344039 , 0.107821628 , -9.801467   , -0.00119897607, 0.00104593986, -0.0005116241, -0.2240124  , -0.130510986, 0.4537549   , -0.009873764, -0.008849281, 2.6359694   , 1.53        , 3           , 11          , 0.008328947 , 0.008328947
-0.08251901 , 0.106484734 , -9.809601   , 0.00176941964, 0.000362079125, -0.0014877622, -0.2240124  , -0.130645812, 0.4537549   , -0.009855938, -0.008845807, 2.63595414  , 1.54        , 3           , 12          , 0.0397245847, 0
-0.09342558 , 0.108365521 , -9.79431    , 0.00283420761, -0.000334660581, 0.00233034743, -0.2240124  , -0.130645812, 0.4537549   , -0.009827802, -0.008848924, 2.635978    , 1.55        , 3           , 50          , 0           , 0
-0.09346258 , 0.108781889 , -9.783912   , -0.00224553072, -0.00149530824, -0.0005204679, -0.223944992, -0.130713224, 0.453552663 , -0.009850211, -0.008863929, 2.63597226  , 1.56        , 3           , 11          , 0.008328947 , 0.008328947
-0.09017298 , 0.08481323  , -9.779468   , -0.00140554656, -8.17544642E-05, -0.00107942242, -0.224214643, -0.1305784  , 0.453889728 , -0.009864171, -0.008864853, 2.63596177  , 1.57        , 3           , 12          , 0.0397245847, 0
-0.113583162, 0.09323305  , -9.78639    , 0.0014223255, -0.000625781, 0.000345566281, -0.223607928, -0.130713224, 0.4536875   , -0.00984998047, -0.008871074, 2.63596559  , 1.58        , 3           , 50          , 0           , 0
-0.10056214 , 0.0858483762, -9.782706   , -0.000837415457, -0.000641062332, -0.0002300439, -0.223607928, -0.130713224, 0.4536875   , -0.009858335, -0.008877507, 2.6359632   , 1.59        , 3           , 11          , 0.008328947 , 0.008328947
-0.07833484 , 0.08785273  , -9.78524    , -0.000553429942, -0.0009993727, 5.26006334E-05, -0.224079818, -0.130713224, 0.45348525  , -0.009863862, -0.00898092 , 2.63596368  , 1.6         , 3           , 12          , 0.0404096656, 0
-0.0859580338, 0.100054644 , -9.764456   , -0.00196064077, -0.00213518576, -0.0010858695, -0.2240124  , -0.13037616 , 0.4537549   , -0.009883373, -0.009002377, 2.63595319  , 1.61        , 3           , 50          , 0           , 0
-0.09215836 , 0.133643538 , -9.801427   , -0.00196909346, -0.00016422398, 0.00117746787, -0.223944992, -0.130645812, 0.453889728 , -0.009903168, -0.009003904, 2.635965    , 1.62        , 3           , 11          , 0.008307673 , 0.008307672
-0.08427693 , 0.107888184 , -9.818196   , -0.00139661727, -0.00156822626, 0.002308082 , -0.223944992, -0.130645812, 0.453889728 , -0.009917345, -0.009019355, 2.63598847  , 1.63        , 3           , 12          , 0.0404096656, 0
-0.0869428962, 0.08348606  , -9.79843    , 1.57684553E-06, 0.00125697418, 0.002319006 , -0.224079818, -0.13084805 , 0.4537549   , -0.009917538, -0.009006557, 2.63601136  , 1.64        , 3           , 50          , 0           , 0
-0.08104609 , 0.09279891  , -9.770777   , -0.00168378977, -0.00100701558, -0.00108281686, -0.223877579, -0.130645812, 0.4537549   , -0.009934278, -0.009016734, 2.63600087  , 1.65        , 3           , 11          , 0.008307673 , 0.008307672
-0.075970836, 0.0946025   , -9.787906   , 0.0005707901, -0.00014704364, -0.00220112945, -0.2240124  , -0.130443573, 0.453889728 , -0.009928373, -0.009018423, 2.635979    , 1.66        , 3           , 12          , 0.0404096656, 0
-0.105790146, 0.09902276  , -9.790828   , 0.0008473889, 0.00126269716, -0.000219880472, -0.2240124  , -0.130443573, 0.453889728 , -0.009919877, -0.009005819, 2.635976    , 1.67        , 3           , 50          , 0           , 0
-0.105888873, 0.08644495  , -9.807151   , 2.48142169E-06, 0.0009754068, 0.00147095951, -0.223944992, -0.1305784  , 0.453552663 , -0.009919983, -0.008995919, 2.63599086  , 1.68        , 3           , 11          , 0.008307673 , 0.008307672
-0.102357104, 0.120177567 , -9.787097   , 0.00339267077, 0.00071675994, 0.000921253755, -0.223877579, -0.130443573, 0.4538223   , -0.009886138, -0.00898866 , 2.636       , 1.69        , 3           , 12          , 0.0404096656, 0
-0.108965538, 0.09102089  , -9.815291   , -3.9828883E-05, 0.000341453619, 0.000339667167, -0.223944992, -0.130713224, 0.453889728 , -0.009941063, -0.00907205 , 2.63600373  , 1.7         , 3           , 50          , 0           , 0
-0.103677064, 0.08146629  , -9.810318   , -2.93294434E-05, -0.0019110702, -0.00079395395, -0.223944992, -0.130713224, 0.453889728 , -0.009941286, -0.009091238, 2.635996    , 1.71        , 3           , 11          , 0.00827556  , 0.00827556
-0.07462695 , 0.09011133  , -9.798762   , -0.003408456, -0.003623372, 0.002013014 , -0.223944992, -0.1305784  , 0.45348525  , -0.009975558, -0.00912727 , 2.63601661  , 1.72        , 3           , 12          , 0.04112667  , 0
-0.09441487 , 0.09848861  , -9.805657   , -0.00285482849, -0.00164860394, -0.000524151954, -0.2240124  , -0.13084805 , 0.4538223   , -0.01000406 , -0.009143807, 2.63601136  , 1.73        , 3           , 50          , 0           , 0
-0.08725253 , 0.1205803   , -9.824946   , -0.0008668519, -0.00388775533, -0.000800942362, -0.223877579, -0.130510986, 0.453889728 , -0.0100126592, -0.009182763, 2.63600373  , 1.74        , 3           , 11          , 0.00827556  , 0.00827556
-0.107048631, 0.100458682 , -9.810718   , -0.00173446408, 4.84216871E-05, -0.00221150555, -0.2240124  , -0.1305784  , 0.453620076 , -0.0100298012, -0.009182501, 2.6359818   , 1.75        , 3           , 12          , 0.04112667  , 0
-0.1055194  , 0.0872648358, -9.784094   , -0.005117609, -0.000819184643, 0.0008793016, -0.2240124  , -0.1305784  , 0.453620076 , -0.0100810574, -0.009190602, 2.63599086  , 1.76        , 3           , 50          , 0           , 0
-0.11824207 , 0.107389078 , -9.819815   , -4.54792462E-05, 0.00118614174, -0.00220186822, -0.223810166, -0.1305784  , 0.453889728 , -0.01008131 , -0.009178963, 2.63596845  , 1.77        , 3           , 11          , 0.00827556  , 0.00827556
-0.09620876 , 0.09406035  , -9.82422    , -0.000879649946, -0.00107209943, 0.00118115928, -0.223742753, -0.130443573, 0.4539571   , -0.0100902151, -0.009189565, 2.63598084  , 1.78        , 3           , 12          , 0.04112667  , 0
-0.07731865 , 0.0937342942, -9.793344   , -0.00116642192, -0.000229314857, 0.0008986066, -0.2240124  , -0.130780637, 0.453552663 , -0.0101019628, -0.009191767, 2.63598943  , 1.79        , 3           , 50          , 0           , 0
-0.0956302  , 0.08039423  , -9.788115   , -0.00144905 , 0.00307321246, -0.00107615045, -0.2240124  , -0.130780637, 0.453552663 , -0.0100939032, -0.009255571, 2.63597846  , 1.8         , 3           , 11          , 0.008232882 , 0.00823288
-0.0928227454, 0.08713112  , -9.788518   , 0.0016664986, 0.00140483386, -0.0002166553, -0.2240124  , -0.130915463, 0.45348525  , -0.0100772167, -0.009241544, 2.635976    , 1.81        , 3           , 12          , 0.0418735929, 0
-0.08813637 , 0.10238234  , -9.778023   , 0.003657589 , -0.00139744661, 7.076113E-05, -0.224282056, -0.130780637, 0.4536875   , -0.0100406483, -0.009255512, 2.635977    , 1.82        , 3           , 50          , 0           , 0
-0.0855017155, 0.0946959853, -9.782555   , 0.00110877817, -6.810835E-06, 6.10784045E-05, -0.2240124  , -0.130713224, 0.45348525  , -0.0100295637, -0.009255573, 2.635978    , 1.83        , 3           , 11          , 0.008232882 , 0.00823288
-0.109021835, 0.09052892  , -9.80309    , -0.001720903, 0.00110035052, 0.000332182244, -0.2240124  , -0.130713224, 0.45348525  , -0.0100468025, -0.009244536, 2.63598084  , 1.84        , 3           , 12          , 0.0418735929, 0
-0.121110439, 0.101495534 , -9.801782   , -0.00200217334, 0.0005353026, -0.00249537732, -0.2240124  , -0.130780637, 0.4536875   , -0.010066594, -0.009239434, 2.635956    , 1.85        , 3           , 50          , 0           , 0
-0.116690576, 0.09912312  , -9.782774   , 0.000821190362, 0.000835969637, -0.00163416134, -0.224079818, -0.130510986, 0.4536875   , -0.01005823 , -0.00923124 , 2.63593936  , 1.86        , 3           , 11          , 0.008232882 , 0.00823288
-0.0921478644, 0.09757182  , -9.809259   , -0.00115686515, 0.0011041665, -0.00107787107, -0.223877579, -0.1305784  , 0.4536875   , -0.0100696981, -0.009220307, 2.63592839  , 1.87        , 3           , 12          , 0.0418735929, 0
-0.0890891  , 0.09655219  , -9.785286   , -0.000868536, -2.018219E-05, -0.000513214851, -0.223877579, -0.1305784  , 0.4536875   , -0.0100783361, -0.00922056 , 2.63592362  , 1.88        , 3           , 50          , 0           , 0
-0.081385605, 0.0946814   , -9.792466   , -0.00394981261, -0.00510936137, 2.95627669E-05, -0.223944992, -0.1305784  , 0.453552663 , -0.010117841, -0.009271649, 2.63592458  , 1.89        , 3           , 11          , 0.008232882 , 0.00823288
-0.09095116 , 0.0907296538, -9.791652   , -0.0025232085, -0.0006580539, -0.000240393667, -0.2240124  , -0.130510986, 0.4536875   , -0.0100943409, -0.009361694, 2.63592172  , 1.9         , 3           , 12          , 0.0426485352, 0
-0.120669842, 0.1001413   , -9.80314    , 0.00114801386, -0.0006332259, -0.0007883485, -0.223877579, -0.130645812, 0.453620076 , -0.0100827878, -0.009368104, 2.635914    , 1.91        , 3           , 50          , 0           , 0
-0.105159476, 0.107642233 , -9.806605   , -0.002540426, 0.002720725 , -0.00108279893, -0.223877579, -0.130645812, 0.453620076 , -0.0101080863, -0.009341007, 2.63590264  , 1.92        , 3           , 11          , 0.008176909 , 0.008176906
-0.06832321 , 0.0953645557, -9.772928   , 2.08425336E-05, -0.000922425359, 0.001183712 , -0.224214643, -0.130443573, 0.45348525  , -0.01010799 , -0.009350112, 2.635915    , 1.93        , 3           , 12          , 0.0426485352, 0
-0.072346136, 0.09277652  , -9.794212   , -0.00166461268, -0.00290484377, 4.262291E-05, -0.223944992, -0.130308747, 0.4536875   , -0.0101246433, -0.009379154, 2.63591552  , 1.94        , 3           , 50          , 0           , 0
-0.07116893 , 0.07966964  , -9.791998   , -0.0002902801, 0.004706962 , -0.000221613445, -0.223944992, -0.130780637, 0.4536875   , -0.0101275211, -0.009332108, 2.63591266  , 1.95        , 3           , 11          , 0.008176909 , 0.008176906
-0.07979843 , 0.08421261  , -9.771255   , -0.00338345021, 0.0021518718, 0.0014552197, -0.223944992, -0.130780637, 0.4536875   , -0.0101614874, -0.009310443, 2.635927    , 1.96        , 3           , 12          , 0.0426485352, 0
-0.08402695 , 0.105933122 , -9.774813   , -0.001980659, 0.0038508072, -0.000230816848, -0.2240124  , -0.1305784  , 0.453620076 , -0.0101812687, -0.009271961, 2.63592458  , 1.97        , 3           , 50          , 0           , 0
-0.05949963 , 0.108832859 , -9.783201   , 0.00142584357, 0.0004949491, 0.0009099288, -0.223944992, -0.130645812, 0.4537549   , -0.010167093, -0.00926691853, 2.63593316  , 1.98        , 3           , 11          , 0.008176909 , 0.008176906
-0.09888535 , 0.06786422  , -9.807627   , 0.00114276411, 0.000493036 , -0.00022153779, -0.22414723 , -0.130915463, 0.4537549   , -0.0101556461, -0.00926201 , 2.63593125  , 1.99        , 3           , 12          , 0.0426485352, 0
-0.09034395 , 0.09531295  , -9.814679   , -0.00272169476, -0.0005929626, 0.00201850571, -0.22414723 , -0.130915463, 0.4537549   , -0.0100698154, -0.009175932, 2.63595033  , 2           , 3           , 50          , 0           , 0
-0.0836572  , 0.0893455744, -9.807873   , -0.000455962727, -0.00198551128, 0.0008967216, -0.2240124  , -0.130713224, 0.453620076 , -0.01007446 , -0.009195696, 2.63595986  , 2.01        , 3           , 11          , 0.008114905 , 0.008114902
-0.08178943 , 0.09026289  , -9.818704   , -0.00129848288, -0.00311750569, -0.000521652168, -0.224214643, -0.130510986, 0.453620076 , -0.0100874007, -0.009226923, 2.63595462  , 2.02        , 3           , 12          , 0.0434496552, 0
-0.098706834, 0.120157719 , -9.793848   , 0.00150659576, 0.0008435067, 6.266698E-05, -0.224214643, -0.1305784  , 0.4538223   , -0.0100723393, -0.009218482, 2.635955    , 2.03        , 3           , 50          , 0           , 0
-0.09034301 , 0.104240723 , -9.786167   , -0.000182804462, -1.26435771E-05, 0.00174868864, -0.224214643, -0.1305784  , 0.4538223   , -0.0100743277, -0.009218431, 2.63597274  , 2.04        , 3           , 11          , 0.008114905 , 0.008114902
-0.08104343 , 0.08878391  , -9.784352   , -0.00103663991, 0.001107882 , 5.12485E-05 , -0.224079818, -0.130780637, 0.453552663 , -0.010084697, -0.009207347, 2.63597322  , 2.05        , 3           , 12          , 0.0434496552, 0
-0.0823488757, 0.08973542  , -9.794302   , 0.004331516 , 0.0008626095, 0.00120598637, -0.224416882, -0.130645812, 0.4536875   , -0.0100414921, -0.009198601, 2.63598514  , 2.06        , 3           , 50          , 0           , 0
-0.0703167543, 0.108108029 , -9.79820251 , -0.0007356903, -0.00226898026, 0.00315527082, -0.22414723 , -0.1305784  , 0.453620076 , -0.0100491429, -0.009220973, 2.636017    , 2.07        , 3           , 11          , 0.008114905 , 0.008114902
-0.0821700245, 0.09970005  , -9.806011   , -0.00130758842, -0.00114654691, 0.000611535157, -0.22414723 , -0.1305784  , 0.453620076 , -0.0100622745, -0.009232377, 2.63602281  , 2.08        , 3           , 12          , 0.0434496552, 0
-0.072013   , 0.112239532 , -9.813113   , 0.00122777256, 0.000278470572, 0.00147316977, -0.22367534 , -0.130645812, 0.45348525  , -0.0100501338, -0.009229444, 2.636038    , 2.09        , 3           , 50          , 0           , 0
-0.0796954259, 0.112342    , -9.816788   , -0.0004949096, 0.002617377 , -0.0007904199, -0.224079818, -0.130308747, 0.4538223   , -0.0100773275, -0.009063918, 2.63603     , 2.1         , 3           , 11          , 0.008038691 , 0.008038697
-0.0843508  , 0.111399129 , -9.788804   , 0.00346349971, 0.00151785067, -0.002751481, -0.223877579, -0.130443573, 0.4537549   , -0.0100424411, -0.00904902 , 2.6360023   , 2.11        , 3           , 12          , 0.04427521  , 0
-0.08080171 , 0.108172826 , -9.781107   , -0.00133661414, 0.00148538663, -0.000796106353, -0.223944992, -0.130780637, 0.4538223   , -0.0100557348, -0.009034244, 2.6359942   , 2.12        , 3           , 50          , 0           , 0
-0.06165906 , 0.0916105956, -9.753457   , -0.00247148215, 0.00232243747, -0.00249529723, -0.223944992, -0.130780637, 0.4538223   , -0.010080222, -0.009011271, 2.6359694   , 2.13        , 3           , 11          , 0.008038691 , 0.008038697
-0.0797454342, 0.08782636  , -9.772595   , -0.003312534, 0.00119045016, -0.00137083384, -0.223944992, -0.130645812, 0.4537549   , -0.0101132235, -0.008999506, 2.635955    , 2.14        , 3           , 12          , 0.04427521  , 0
-0.0937422961, 0.113390945 , -9.811465   , 0.00176966586, 0.001787966 , 0.000914038566, -0.22414723 , -0.130713224, 0.4538223   , -0.0100956066, -0.008981537, 2.63596416  , 2.15        , 3           , 50          , 0           , 0
-0.114409968, 0.09643197  , -9.795424   , 8.716152E-05, -0.0007575818, 5.46190568E-05, -0.2240124  , -0.130780637, 0.45348525  , -0.0100947414, -0.008989106, 2.63596463  , 2.16        , 3           , 11          , 0.008038691 , 0.008038697
-0.0970055759, 0.08262813  , -9.776816   , -0.000482615549, 0.000364861684, 0.00118387083, -0.2240124  , -0.130780637, 0.45348525  , -0.0100996736, -0.008985336, 2.635977    , 2.17        , 3           , 12          , 0.04427521  , 0
-0.07512419 , 0.09052697  , -9.78656    , 0.00177598349, 0.000380137528, -0.000218280853, -0.2240124  , -0.130645812, 0.453552663 , -0.0100818938, -0.008981556, 2.63597417  , 2.18        , 3           , 50          , 0           , 0
-0.08258369 , 0.07213749  , -9.793472   , 0.00149667077, -0.00018490103, 0.000344609085, -0.223944992, -0.130510986, 0.4538223   , -0.0100669581, -0.008983373, 2.635978    , 2.19        , 3           , 11          , 0.008038691 , 0.008038697
-0.07002702 , 0.09681183  , -9.794631   , -0.0018451605, 0.00150751928, -0.00023389922, -0.22414723 , -0.130713224, 0.453620076 , -0.01000244 , -0.00892987 , 2.63597512  , 2.2         , 3           , 12          , 0.04512354  , 0
-0.100065738, 0.121958613 , -9.787976   , 0.0009883763, -0.000444338919, -0.00107137987, -0.22414723 , -0.130713224, 0.453620076 , -0.00999246 , -0.008934421, 2.63596416  , 2.21        , 3           , 50          , 0           , 0
-0.0938382149, 0.109742433 , -9.799731   , 0.00127505953, -0.00100555224, 0.00147190643, -0.2240124  , -0.130780637, 0.453417838 , -0.009979841, -0.008944329, 2.635979    , 2.22        , 3           , 11          , 0.007955563 , 0.007955563
-0.11115256 , 0.101822183 , -9.799444   , 0.00156085286, -0.001848341, 5.9234022E-05, -0.2240124  , -0.130443573, 0.4537549   , -0.00996424 , -0.008962805, 2.63598     , 2.23        , 3           , 12          , 0.04512354  , 0
-0.112095237, 0.09957102  , -9.797653   , 0.00154609687, 0.0009673055, -0.00134911377, -0.2240124  , -0.130713224, 0.453620076 , -0.009948658, -0.008953267, 2.63596654  , 2.24        , 3           , 50          , 0           , 0
-0.08083985 , 0.09430507  , -9.816418   , -0.00154756254, -0.00158778753, -0.0005198931, -0.2240124  , -0.130713224, 0.453620076 , -0.009964088, -0.008969195, 2.63596129  , 2.25        , 3           , 11          , 0.007955563 , 0.007955563
-0.08682318 , 0.0916173756, -9.80156    , -0.00210553524, -0.00271786144, 0.0017360372, -0.22414723 , -0.130645812, 0.453417838 , -0.009985302, -0.008996198, 2.635979    , 2.26        , 3           , 12          , 0.04512354  , 0
-0.06931654 , 0.08503801  , -9.784731   , -0.0043786373, -0.000199060974, -0.000248355238, -0.223877579, -0.130645812, 0.4538223   , -0.0100290664, -0.008998213, 2.63597655  , 2.27        , 3           , 50          , 0           , 0
-0.107335456, 0.08058686  , -9.804475   , 0.0006998841, 0.000680009 , -0.00191857363, -0.2240124  , -0.130780637, 0.4537549   , -0.0100218942, -0.00899160653, 2.635957    , 2.28        , 3           , 11          , 0.007955563 , 0.007955563
-0.1138077  , 0.101903968 , -9.81438    , 0.00126948359, 0.000120708195, 0.00147364219, -0.2240124  , -0.130780637, 0.4537549   , -0.0100093307, -0.008990251, 2.63597226  , 2.29        , 3           , 12          , 0.04512354  , 0
-0.07864804 , 0.0951127559, -9.79606    , -0.00180580746, -0.000243028422, -0.000237411979, -0.223742753, -0.130713224, 0.45348525  , -0.009979628, -0.0090869125, 2.6359694   , 2.3         , 3           , 50          , 0           , 0
-0.09830373 , 0.113416888 , -9.803366   , -0.00239025126, 0.003413491 , -0.00277724233, -0.2240124  , -0.130713224, 0.4536875   , -0.0100032771, -0.00905306 , 2.63594079  , 2.31        , 3           , 11          , 0.007867056 , 0.007867058
-0.07482693 , 0.106836453 , -9.806829   , -0.000671918038, -0.00108008378, -0.00023344603, -0.2240124  , -0.13084805 , 0.4536875   , -0.010009977, -0.009063882, 2.635939    , 2.32        , 3           , 12          , 0.04599307  , 0
-0.08746359 , 0.079865545 , -9.793478   , -0.00236713141, -0.00109154673, -0.00137149764, -0.2240124  , -0.13084805 , 0.4536875   , -0.0100335237, -0.009074935, 2.635925    , 2.33        , 3           , 50          , 0           , 0
-0.09185145 , 0.0902982   , -9.794373   , -0.003501599, 2.70776218E-05, 3.765759E-05, -0.223877579, -0.1305784  , 0.453552663 , -0.0100685442, -0.00907466 , 2.63592553  , 2.34        , 3           , 11          , 0.007867056 , 0.007867058
-0.06233209 , 0.09850489  , -9.788237   , -0.000953114, -0.00136355974, -0.000517734443, -0.223877579, -0.13037616 , 0.4536875   , -0.0100780288, -0.009088347, 2.63592076  , 2.35        , 3           , 12          , 0.04599307  , 0
-0.07547789 , 0.09596877  , -9.793319   , 0.000464922457, -0.00248026848, 5.218925E-05, -0.223944992, -0.130713224, 0.453552663 , -0.0100733861, -0.009113143, 2.63592124  , 2.36        , 3           , 50          , 0           , 0
-0.08013907 , 0.089665    , -9.781178   , -0.00011468702, 0.000331558433, -0.00135879242, -0.223944992, -0.130713224, 0.453552663 , -0.0100744078, -0.009109965, 2.63590741  , 2.37        , 3           , 11          , 0.007867056 , 0.007867058
-0.0747989044, 0.0819376856, -9.782977   , -0.00292805512, -0.00165849132, 0.000602762855, -0.224079818, -0.1305784  , 0.453552663 , -0.0101037463, -0.009126488, 2.635914    , 2.38        , 3           , 12          , 0.04599307  , 0
-0.0638312  , 0.08456993  , -9.798702   , -0.000670850335, -0.00136165053, -0.000798955, -0.22414723 , -0.130510986, 0.4536875   , -0.01011038 , -0.009140184, 2.635906    , 2.39        , 3           , 50          , 0           , 0
-0.08916085 , 0.09024514  , -9.788025   , -0.00343689532, 0.0006833504, -0.000526181364, -0.223944992, -0.130780637, 0.4537549   , -0.0100361677, -0.008984316, 2.63589978  , 2.4         , 3           , 11          , 0.00777471438, 0.00777471
-0.0953837857, 0.101126008 , -9.7817     , -4.605337E-05, 0.000424706464, 5.42626367E-05, -0.223944992, -0.130780637, 0.4537549   , -0.0100366324, -0.008980065, 2.63590074  , 2.41        , 3           , 12          , 0.04688231  , 0
-0.07743214 , 0.09408867  , -9.764416   , -0.0005888549, -0.003802584, 0.002022882 , -0.224079818, -0.13084805 , 0.453552663 , -0.0100427074, -0.009017887, 2.63592076  , 2.42        , 3           , 50          , 0           , 0
-0.0801416859, 0.08609207  , -9.792041   , 0.00109636306, -0.00210173824, 0.000338162441, -0.223944992, -0.1305784  , 0.4536875   , -0.0100317774, -0.009038867, 2.63592458  , 2.43        , 3           , 11          , 0.00777471438, 0.00777471
-0.08995428 , 0.09570286  , -9.797952   , 0.003062036 , 0.0001641511, 6.83149847E-05, -0.223877579, -0.13084805 , 0.4536875   , -0.010001163, -0.009037219, 2.63592553  , 2.44        , 3           , 12          , 0.04688231  , 0
-0.08983183 , 0.102497339 , -9.806058   , -0.0006101656, 0.000139318363, -0.0010789549, -0.223877579, -0.13084805 , 0.4536875   , -0.0100071663, -0.009035934, 2.63591456  , 2.45        , 3           , 50          , 0           , 0
-0.07308712 , 0.103632919 , -9.799597   , 0.00137813739, -0.00209983159, -0.0007906702, -0.2240124  , -0.130645812, 0.45348525  , -0.009993316, -0.00905701 , 2.635907    , 2.46        , 3           , 11          , 0.00777471438, 0.00777471
-0.085392   , 0.101926506 , -9.78613949 , -0.0006017272, -0.0012685  , 0.00146171264, -0.224079818, -0.130510986, 0.453620076 , -0.009999467, -0.009069548, 2.63592172  , 2.47        , 3           , 12          , 0.04688231  , 0
-0.08455016 , 0.0938299149, -9.796562   , -0.00144933385, -0.00127423159, 0.000892686832, -0.223944992, -0.130713224, 0.4536875   , -0.0100140432, -0.0090822  , 2.63593078  , 2.48        , 3           , 50          , 0           , 0
-0.09071712 , 0.0695686   , -9.806201   , -0.00116969517, -0.0007091913, 0.0008948715, -0.223944992, -0.130713224, 0.4536875   , -0.0100258207, -0.009089202, 2.63593984  , 2.49        , 3           , 11          , 0.00777471438, 0.00777471
-0.09115221 , 0.103436753 , -9.812392   , 0.003108408 , 0.00132997136, -0.00134270953, -0.223877579, -0.130713224, 0.453350425 , -0.009906918, -0.009010279, 2.63592553  , 2.5         , 3           , 12          , 0.0477898568, 0
-0.0739703  , 0.103661709 , -9.805028   , -0.00225491333, 0.0007305517, -0.00136859913, -0.224079818, -0.130713224, 0.453552663 , -0.009929343, -0.009003109, 2.6359117   , 2.51        , 3           , 50          , 0           , 0
-0.05146197 , 0.102843471 , -9.774577   , -0.00337207457, -0.00181117374, -0.00137777231, -0.223944992, -0.130443573, 0.4537549   , -0.009962941, -0.009021357, 2.63589787  , 2.52        , 3           , 11          , 0.00767977769, 0.00767977769
-0.0527706  , 0.102007031 , -9.789505   , 0.00114322477, -0.000935916, -0.0002252496, -0.223944992, -0.130713224, 0.45348525  , -0.009951489, -0.009030739, 2.635896    , 2.53        , 3           , 12          , 0.0477898568, 0
-0.0689528  , 0.1080966   , -9.799547   , 0.0008599824, -0.000937829958, -0.001639254, -0.223944992, -0.130713224, 0.45348525  , -0.009942742, -0.009040279, 2.63587976  , 2.54        , 3           , 50          , 0           , 0
-0.07666586 , 0.1121914   , -9.78286648 , -0.0002831755, 0.00187018327, -0.00079257 , -0.224079818, -0.13037616 , 0.4536875   , -0.009945501, -0.00902165752, 2.63587165  , 2.55        , 3           , 11          , 0.00767977769, 0.00767977769
-0.0805794448, 0.08878766  , -9.787062   , -1.07441847E-05, 0.00356147625, -0.00361402379, -0.2240124  , -0.130713224, 0.453620076 , -0.009945279, -0.008986404, 2.635835    , 2.56        , 3           , 12          , 0.0477898568, 0
-0.04891246 , 0.0883929   , -9.78004    , -0.00196716283, -0.000112228088, 0.000609178154, -0.2240124  , -0.130645812, 0.453620076 , -0.009965006, -0.008987465, 2.63584113  , 2.57        , 3           , 50          , 0           , 0
-0.063119486, 0.107091948 , -9.789563   , 0.00227293256, -0.000928276044, -0.00021998187, -0.2240124  , -0.130645812, 0.453620076 , -0.009942258, -0.00899677 , 2.63583875  , 2.58        , 3           , 11          , 0.00767977769, 0.00767977769
-0.09371872 , 0.1201053   , -9.79562    , 0.001136166 , 0.0007534807, 0.00203765347, -0.2240124  , -0.130645812, 0.453552663 , -0.009931078, -0.008989031, 2.63585973  , 2.59        , 3           , 12          , 0.0477898568, 0
-0.06727358 , 0.106183067 , -9.773327   , 0.0005228182, 0.002272673 , 0.000343549356, -0.224079818, -0.1305784  , 0.453620076 , -0.009995841, -0.008767595, 2.63586354  , 2.6         , 3           , 50          , 0           , 0
-0.07289637 , 0.08957843  , -9.780671   , 0.00277772476, 0.00313264644, -0.0002096881, -0.223944992, -0.130713224, 0.45348525  , -0.009968041, -0.008736289, 2.63586116  , 2.61        , 3           , 11          , 0.007583352 , 0.007583343
-0.109421417, 0.0995043442, -9.787237   , 0.00249996944, 0.00228604348, 0.0006353054, -0.223944992, -0.130713224, 0.45348525  , -0.009943097, -0.008713366, 2.63586736  , 2.62        , 3           , 12          , 0.0487143956, 0
-0.119912386, 0.08885189  , -9.803181   , 0.00138141378, 2.58829659E-05, 0.0006265662, -0.224079818, -0.130713224, 0.45348525  , -0.009929337, -0.008713046, 2.63587356  , 2.63        , 3           , 50          , 0           , 0
-0.075779736, 0.07340668  , -9.79206    , -0.00369653 , -0.00113475625, 0.0008836631, -0.224079818, -0.130915463, 0.4538223   , -0.00996638 , -0.008724305, 2.63588262  , 2.64        , 3           , 11          , 0.007583352 , 0.007583343
-0.09978904 , 0.103063904 , -9.80568    , -3.129858E-05, 0.0002979021, 0.00203310279, -0.223877579, -0.13084805 , 0.4537549   , -0.009966871, -0.008721123, 2.63590264  , 2.65        , 3           , 12          , 0.0487143956, 0
-0.109866843, 0.09683752  , -9.79764652 , -0.001726349, 0.000286439958, 0.00117758883, -0.223877579, -0.13084805 , 0.4537549   , -0.009984236, -0.008718141, 2.63591456  , 2.66        , 3           , 50          , 0           , 0
-0.0684228241, 0.08412507  , -9.784727   , -0.0003119163, -0.000267142663, 0.000335693127, -0.223810166, -0.130713224, 0.453620076 , -0.009987385, -0.008720779, 2.635918    , 2.67        , 3           , 11          , 0.007583352 , 0.007583343
-0.0748699456, 0.10412351  , -9.805033   , -4.23617967E-05, 0.0022688515, -0.000224159259, -0.224214643, -0.130510986, 0.4536875   , -0.00998778548, -0.008698113, 2.63591552  , 2.68        , 3           , 12          , 0.0487143956, 0
-0.073766984, 0.119002365 , -9.805414   , -0.0008852083, 0.00113685569, -0.0022076082, -0.223877579, -0.1305784  , 0.453552663 , -0.009996445, -0.00868696347, 2.635893    , 2.69        , 3           , 50          , 0           , 0
-0.094061166, 0.0930468142, -9.798897   , -0.00343978824, 0.00169915555, 0.0008896057, -0.223877579, -0.1305784  , 0.453552663 , -0.0100519294, -0.008640644, 2.63590264  , 2.7         , 3           , 11          , 0.00748676667, 0.00748676
-0.08582435 , 0.0992702544, -9.799713   , 0.00193329132, 0.0003276195, 0.0009124579, -0.223944992, -0.130713224, 0.453620076 , -0.0100326762, -0.00863727648, 2.63591123  , 2.71        , 3           , 12          , 0.049654685 , 0
-0.06975836 , 0.087283954 , -9.780204   , -2.90149983E-05, -0.00278296927, -0.0002316837, -0.223877579, -0.13037616 , 0.453552663 , -0.0100329481, -0.008665128, 2.63590932  , 2.72        , 3           , 50          , 0           , 0
-0.08683376 , 0.100089461 , -9.771694   , -0.00143738207, -0.00335564441, 0.0014560885, -0.223944992, -0.13037616 , 0.453620076 , -0.0100474507, -0.008698537, 2.63592458  , 2.73        , 3           , 11          , 0.00748676667, 0.00748676
-0.07952883 , 0.100946024 , -9.783386   , -0.0006098553, 0.000310423522, -0.00135969417, -0.223944992, -0.13037616 , 0.453620076 , -0.0100534316, -0.00869557 , 2.63591075  , 2.74        , 3           , 12          , 0.049654685 , 0
-0.07355286 , 0.106305853 , -9.787838   , 0.000793914835, 0.00200936384, -0.001350506, -0.223944992, -0.130510986, 0.453552663 , -0.0100453738, -0.00867561251, 2.635897    , 2.75        , 3           , 50          , 0           , 0
-0.0878419057, 0.09242901  , -9.771282   , 0.00137254538, -0.0008024679, -0.00163474889, -0.224079818, -0.130443573, 0.4536875   , -0.0100315074, -0.008683801, 2.63588071  , 2.76        , 3           , 11          , 0.00748676667, 0.00748676
-0.08974497 , 0.0789852738, -9.792143   , 0.0047400156, 0.00372549635, -0.000481852854, -0.22367534 , -0.130780637, 0.453620076 , -0.009984061, -0.008646596, 2.63587546  , 2.77        , 3           , 12          , 0.049654685 , 0
-0.08196939 , 0.08386816  , -9.795228   , 0.000789896 , 0.00285406015, -0.00106666679, -0.22367534 , -0.130780637, 0.453620076 , -0.009976068, -0.008618164, 2.6358645   , 2.78        , 3           , 50          , 0           , 0
-0.07869273 , 0.09775466  , -9.776614   , -4.820475E-05, 0.00115894328, 0.0003394661, -0.223944992, -0.130713224, 0.453552663 , -0.009976578, -0.00860654 , 2.63586783  , 2.79        , 3           , 11          , 0.00748676667, 0.00748676
-0.08209281 , 0.1109214   , -9.788789   , 0.00223630853, 0.00118662976, 6.736755E-05, -0.22414723 , -0.130443573, 0.4537549   , -0.009907413, -0.008571677, 2.63586831  , 2.8         , 3           , 12          , 0.05060957  , 0
-0.105451606, 0.09580042  , -9.773211   , 0.00109979429, 0.00258681644, 0.000346806948, -0.2240124  , -0.130780637, 0.4536875   , -0.009896443, -0.008545776, 2.63587117  , 2.81        , 3           , 50          , 0           , 0
-0.11241661 , 0.07833213  , -9.787347   , -0.0005699121, -0.002774388, -0.002494714, -0.2240124  , -0.130780637, 0.4536875   , -0.009901931, -0.008573765, 2.63584638  , 2.82        , 3           , 11          , 0.00739027048, 0.00739026768
-0.08565567 , 0.08564423  , -9.774005   , -2.55678515E-05, 0.00173448178, 0.00062277494, -0.2240124  , -0.130713224, 0.45348525  , -0.009902239, -0.008556359, 2.63585258  , 2.83        , 3           , 12          , 0.05060957  , 0
-0.09917283 , 0.08987464  , -9.777254   , -0.00228530867, 0.0017192004, 4.716446E-05, -0.2240124  , -0.130780637, 0.45348525  , -0.009925095, -0.008539165, 2.635853    , 2.84        , 3           , 50          , 0           , 0
-0.104522727, 0.08688167  , -9.807591   , 0.00165481563, 0.00428001955, -0.0021907927, -0.223944992, -0.130713224, 0.453620076 , -0.009908358, -0.008496583, 2.63583064  , 2.85        , 3           , 11          , 0.00739027048, 0.00739026768
-0.08567272 , 0.112783641 , -9.793328   , 0.00139337324, 0.0003362054, 0.0003446524, -0.223944992, -0.130713224, 0.453620076 , -0.009894451, -0.008493188, 2.635834    , 2.86        , 3           , 12          , 0.05060957  , 0
-0.09125942 , 0.09710097  , -9.806543   , -0.00285327644, 0.002278509 , -0.00051967625, -0.224079818, -0.130510986, 0.453620076 , -0.00992294 , -0.008470455, 2.63582873  , 2.87        , 3           , 50          , 0           , 0
-0.109478265, 0.0932093859, -9.7935915  , 0.0005434678, 0.0008936065, 0.000624107 , -0.2240124  , -0.13037616 , 0.453620076 , -0.009917557, -0.008461457, 2.635835    , 2.88        , 3           , 11          , 0.00739027048, 0.00739026768
-0.106965542, 0.0845315456, -9.77146149 , -0.001149284, 0.0003190118, -0.00107988715, -0.223810166, -0.130780637, 0.4536875   , -0.009928958, -0.008458374, 2.635824    , 2.89        , 3           , 12          , 0.05060957  , 0
-0.08051797 , 0.08615937  , -9.810574   , -0.00168714148, 0.0005055744, 0.00145955291, -0.223877579, -0.130510986, 0.45348525  , -0.009894288, -0.008628085, 2.63583779  , 2.9         , 3           , 50          , 0           , 0
-0.073551394, 0.09559464  , -9.822686   , 0.0011339382, 0.0008062306, -0.001634756, -0.223877579, -0.130510986, 0.45348525  , -0.009882807, -0.008620185, 2.63582158  , 2.91        , 3           , 11          , 0.00729416637, 0.00729416031
-0.0816560239, 0.10688594  , -9.797841   , 2.42190436E-06, 0.00136172539, 5.60688022E-05, -0.224416882, -0.1305784  , 0.453552663 , -0.009882786, -0.008606563, 2.63582158  , 2.92        , 3           , 12          , 0.0515779443, 0
-0.09547988 , 0.09212114  , -9.787161   , 0.0002709087, 0.0041792863, 6.172508E-05, -0.224079818, -0.130443573, 0.4538223   , -0.00988008 , -0.008564766, 2.635822    , 2.93        , 3           , 50          , 0           , 0
-0.09359589 , 0.102424964 , -9.771736   , 0.00141193112, 0.00193440611, 0.0003460588, -0.223810166, -0.130713224, 0.4537549   , -0.009865988, -0.00854538847, 2.6358254   , 2.94        , 3           , 11          , 0.00729416637, 0.00729416031
-0.09386735 , 0.0781021   , -9.78359    , 2.0870255E-05, -0.002298619, 0.000615502649, -0.223810166, -0.130713224, 0.4537549   , -0.009865835, -0.008568315, 2.635832    , 2.95        , 3           , 12          , 0.0515779443, 0
-0.07959102 , 0.0924149752, -9.795626   , -0.002529083, -0.000907988753, -0.00137194223, -0.223944992, -0.130915463, 0.453620076 , -0.009891008, -0.00857752748, 2.63581824  , 2.96        , 3           , 50          , 0           , 0
-0.07445304 , 0.100964658 , -9.806399   , -0.000279100379, 0.001078248 , -0.0007932943, -0.223944992, -0.130780637, 0.453620076 , -0.009893729, -0.008566824, 2.63581014  , 2.97        , 3           , 11          , 0.00729416637, 0.00729416031
-0.093155466, 0.0881264359, -9.814731   , -0.000554067665, -0.000331484829, 5.0831306E-05, -0.224079818, -0.1311177  , 0.453620076 , -0.009899274, -0.008570134, 2.63581061  , 2.98        , 3           , 12          , 0.0515779443, 0
-0.081878975, 0.09019033  , -9.79700851 , 0.00310756  , 0.00166429952, -0.000211548249, -0.224079818, -0.1311177  , 0.453620076 , -0.009868179, -0.008553512, 2.63580823  , 2.99        , 3           , 50          , 0           , 0
-0.0948211551, 0.1110294   , -9.776682   , 0.003985847 , 0.000523404859, 0.000920360733, -0.224079818, -0.13084805 , 0.4537549   , -0.009779231, -0.008588596, 2.63581681  , 3           , 3           , 11          , 0.00719928  , 0.007199278
-0.06054062 , 0.104716606 , -9.763338   , 0.001445815 , -5.69197E-05, -0.0007875842, -0.22414723 , -0.130713224, 0.453620076 , -0.009764707, -0.008589242, 2.63580918  , 3.01        , 3           , 12          , 0.0525588058, 0
-0.06366478 , 0.103005141 , -9.780092   , -0.00194437453, 0.000201727322, -0.000237878485, -0.223944992, -0.130780637, 0.453552663 , -0.00978412852, -0.008587248, 2.63580632  , 3.02        , 3           , 50          , 0           , 0
-0.101382442, 0.0877135   , -9.79762    , -0.004194283, -0.0015029374, 0.0017267447, -0.223944992, -0.130780637, 0.453552663 , -0.009826221, -0.008602109, 2.635824    , 3.03        , 3           , 11          , 0.00719928  , 0.007199278
-0.07562513 , 0.0833516642, -9.797893   , 0.0006013225, -0.0006257798, -0.0007924029, -0.223944992, -0.130510986, 0.453552663 , -0.009820141, -0.008608444, 2.63581586  , 3.04        , 3           , 12          , 0.0525588058, 0
-0.0848775357, 0.104649261 , -9.792452   , -0.00052215613, -0.00175967673, 0.00033074338, -0.22414723 , -0.130510986, 0.4537549   , -0.009825391, -0.00862600747, 2.63581967  , 3.05        , 3           , 50          , 0           , 0
-0.105927534, 0.09221618  , -9.779105   , -0.0016569501, -0.000641054066, 0.001174824 , -0.223944992, -0.13084805 , 0.453620076 , -0.009842062, -0.008632301, 2.635831    , 3.06        , 3           , 11          , 0.00719928  , 0.007199278
-0.114294633, 0.103667021 , -9.800364   , -0.00108052918, -0.0031713245, -0.000521672366, -0.223944992, -0.13084805 , 0.453620076 , -0.009852826, -0.008664063, 2.63582635  , 3.07        , 3           , 12          , 0.0525588058, 0
-0.0761804655, 0.110873468 , -9.795071   , 0.000881777 , -6.07357324E-05, 0.0006224692, -0.224282056, -0.130982876, 0.4536875   , -0.009844062, -0.00866461 , 2.635833    , 3.08        , 3           , 50          , 0           , 0
-0.05786162 , 0.0939417556, -9.788673   , 0.00313791423, 0.0005176718, -0.000213739739, -0.2240124  , -0.130713224, 0.4537549   , -0.009812662, -0.008659456, 2.63583016  , 3.09        , 3           , 11          , 0.00719928  , 0.007199278
-0.08506364 , 0.092447    , -9.786176   , -0.000263194757, 0.000500595663, -0.000229386715, -0.22414723 , -0.130780637, 0.4536875   , -0.009839856, -0.008642491, 2.63582826  , 3.1         , 3           , 12          , 0.0535511822, 0
-0.101112887, 0.0768473   , -9.78772    , -0.000818453555, -0.00147418061, -0.0005175956, -0.22414723 , -0.130780637, 0.4536875   , -0.009847996, -0.008657282, 2.63582349  , 3.11        , 3           , 50          , 0           , 0
-0.09811648 , 0.0895398557, -9.815214   , -0.0008328086, 0.00162304  , 0.00118240237, -0.22414723 , -0.130645812, 0.45348525  , -0.009856426, -0.008640937, 2.635835    , 3.12        , 3           , 11          , 0.00710649136, 0.00710649
-0.07168905 , 0.109451711 , -9.790523   , 0.00170321937, 0.00248491741, -0.00162981823, -0.2240124  , -0.130713224, 0.4536875   , -0.00983925 , -0.008616248, 2.63581872  , 3.13        , 3           , 12          , 0.0535511822, 0
-0.110339954, 0.102182575 , -9.775482   , 0.00312207174, 0.00136821216, 0.000352793053, -0.224079818, -0.1305784  , 0.453552663 , -0.009808059, -0.008602534, 2.635822    , 3.14        , 3           , 50          , 0           , 0
-0.101355888, 0.09085947  , -9.793991   , 0.000294036261, 0.00191223773, -0.00135473313, -0.224079818, -0.1305784  , 0.453552663 , -0.009805   , -0.008583545, 2.63580823  , 3.15        , 3           , 11          , 0.00710649136, 0.00710649
-0.0799422041, 0.09875152  , -9.800122   , -0.00168304041, 0.00218043942, 0.0008967819, -0.22414723 , -0.130713224, 0.453552663 , -0.009821906, -0.008561653, 2.63581681  , 3.16        , 3           , 12          , 0.0535511822, 0
-0.08416788 , 0.1218134   , -9.800058   , -0.00169296144, 0.004151394 , 0.000617282 , -0.2240124  , -0.1305784  , 0.453620076 , -0.009838883, -0.008520081, 2.63582253  , 3.17        , 3           , 50          , 0           , 0
-0.0774203241, 0.119912416 , -9.795044   , 0.004794981 , 0.00588471675, 0.00149778766, -0.2240124  , -0.13084805 , 0.45348525  , -0.009791056, -0.008461089, 2.63583684  , 3.18        , 3           , 11          , 0.00710649136, 0.00710649
-0.09104982 , 0.08841795  , -9.774939   , 0.00256123673, 0.000519696157, 6.631989E-05, -0.2240124  , -0.13084805 , 0.45348525  , -0.009765447, -0.008455886, 2.63583779  , 3.19        , 3           , 12          , 0.0535511822, 0
-0.09392698 , 0.105653346 , -9.791161   , -0.00141713826, -0.000660298741, 0.000611162861, -0.224079818, -0.130713224, 0.45348525  , -0.009843829, -0.008519595, 2.63584447  , 3.2         , 3           , 50          , 0           , 0
-0.0646596551, 0.09312372  , -9.790086   , -5.90876152E-06, -0.000369181362, 0.00146579393, -0.2240124  , -0.130780637, 0.4536875   , -0.009844013, -0.008523141, 2.63585877  , 3.21        , 3           , 11          , 0.00701520126, 0.00701519242
-0.09045139 , 0.09120874  , -9.801589   , 0.001964361 , 0.000770443236, -0.000501014059, -0.224079818, -0.130713224, 0.4537549   , -0.009824325, -0.00851548649, 2.635854    , 3.22        , 3           , 12          , 0.0545541868, 0
-0.101872742, 0.08233221  , -9.805781   , 0.00394323142, 0.0005022503, 0.00035538277, -0.224079818, -0.130713224, 0.4537549   , -0.009784923, -0.008510429, 2.63585734  , 3.23        , 3           , 50          , 0           , 0
-0.0744207948, 0.106793344 , -9.7955265  , 0.004510221 , -5.70630618E-05, -0.0007730008, -0.223810166, -0.130645812, 0.453620076 , -0.009739754, -0.008511074, 2.63584924  , 3.24        , 3           , 11          , 0.00701520126, 0.00701519242
-0.101286091, 0.09448682  , -9.799398   , 0.00054542  , 0.00216871966, -0.000222891555, -0.224282056, -0.13037616 , 0.4538223   , -0.00973427948, -0.00848940853, 2.63584733  , 3.25        , 3           , 12          , 0.0545541868, 0
-0.105129234, 0.07560367  , -9.806287   , 0.00223907642, 0.002461747 , 0.0006330563, -0.223877579, -0.1305784  , 0.454024523 , -0.009711939, -0.008464732, 2.635853    , 3.26        , 3           , 50          , 0           , 0
-0.09197149 , 0.08172028  , -9.792602   , 0.00167684758, 0.0018947958, 0.000347017 , -0.223877579, -0.1305784  , 0.454024523 , -0.009695199, -0.008445752, 2.63585687  , 3.27        , 3           , 11          , 0.00701520126, 0.00701519242
-0.05290325 , 0.08895538  , -9.799052   , 0.00139918108, 0.0007666217, -0.00106872292, -0.2240124  , -0.130780637, 0.4537549   , -0.009681116, -0.00843818951, 2.63584542  , 3.28        , 3           , 12          , 0.0545541868, 0
-0.101169914, 0.107971475 , -9.784428   , 0.0005516486, 0.0010424623, 0.000905522436, -0.22414723 , -0.130713224, 0.4536875   , -0.009675673, -0.008427678, 2.635855    , 3.29        , 3           , 50          , 0           , 0
-0.08787871 , 0.115535259 , -9.798757   , -0.0014252906, 0.001283572 , -0.00221147644, -0.224079818, -0.130510986, 0.4537549   , -0.009682661, -0.008474219, 2.635832    , 3.3         , 3           , 11          , 0.006925517 , 0.006925515
-0.07250326 , 0.08193681  , -9.790644   , -0.000569408643, -0.000118515505, 0.0006156795, -0.2240124  , -0.130780637, 0.45348525  , -0.009688408, -0.008475344, 2.63583875  , 3.31        , 3           , 12          , 0.0555669852, 0
-0.0746860057, 0.09095618  , -9.781583   , 0.000834450242, 0.00129885343, -0.001635866, -0.2240124  , -0.130780637, 0.45348525  , -0.009679925, -0.008462513, 2.635822    , 3.32        , 3           , 50          , 0           , 0
-0.1011492  , 0.113344453 , -9.772201   , -0.0005894885, 0.00354182138, -0.00276912912, -0.223944992, -0.130713224, 0.4538223   , -0.009685582, -0.008427368, 2.635794    , 3.33        , 3           , 11          , 0.006925517 , 0.006925515
-0.0923547745, 0.120093882 , -9.796965   , -0.002277984, 0.00240410352, -0.00193115394, -0.22414723 , -0.130510986, 0.4537549   , -0.009708198, -0.008403513, 2.63577485  , 3.34        , 3           , 12          , 0.0555669852, 0
-0.08115715 , 0.108703382 , -9.803254   , -0.0002848465, -0.0006797388, -0.0005140212, -0.223944992, -0.130713224, 0.4536875   , -0.009711004, -0.008410359, 2.63576961  , 3.35        , 3           , 50          , 0           , 0
-0.0897758752, 0.110130608 , -9.795178   , 0.002251256 , 0.0004637104, -0.0007829706, -0.223944992, -0.130713224, 0.4536875   , -0.009688424, -0.008405799, 2.6357615   , 3.36        , 3           , 11          , 0.006925517 , 0.006925515
-0.09370737 , 0.09028317  , -9.783539   , -0.0008444504, -0.00180982042, -0.00108346576, -0.223944992, -0.130713224, 0.4537549   , -0.009696781, -0.008424001, 2.635751    , 3.37        , 3           , 12          , 0.0555669852, 0
-0.08489859 , 0.0988296345, -9.806036   , 0.00170378282, -0.00291888718, 0.0003393381, -0.224079818, -0.13084805 , 0.4536875   , -0.009679774, -0.008453155, 2.63575482  , 3.38        , 3           , 50          , 0           , 0
-0.104591675, 0.0895039141, -9.78227    , 0.00169107376, -0.000384802348, 6.07060028E-05, -0.223944992, -0.1305784  , 0.453552663 , -0.009662868, -0.008456998, 2.6357553   , 3.39        , 3           , 11          , 0.006925517 , 0.006925515
-0.08933563 , 0.0731422156, -9.800301   , 0.00108420593, 0.00351673714, 6.395081E-05, -0.223944992, -0.1305784  , 0.453552663 , -0.009702701, -0.008504176, 2.63575578  , 3.4         , 3           , 12          , 0.0565888   , 0
-0.09304734 , 0.06820242  , -9.794474   , 0.00222629635, 0.0009902904, -0.000217224122, -0.223944992, -0.130645812, 0.4536875   , -0.009680416, -0.008494294, 2.63575387  , 3.41        , 3           , 50          , 0           , 0
-0.07376871 , 0.0967576   , -9.765732   , 0.0005256697, 0.00210508867, -0.00107100245, -0.224079818, -0.130645812, 0.453620076 , -0.009675068, -0.008473348, 2.63574243  , 3.42        , 3           , 11          , 0.00683746161, 0.00683745043
-0.07849291 , 0.11086072  , -9.783338   , -2.196648E-05, -0.00127750984, -0.000231231068, -0.223877579, -0.130915463, 0.453552663 , -0.009675268, -0.008486145, 2.63574052  , 3.43        , 3           , 12          , 0.0565888   , 0
-0.09732999 , 0.08987908  , -9.78492451 , 0.0016710374, -0.0009844857, -0.000505433, -0.223877579, -0.130915463, 0.453552663 , -0.009658516, -0.008496039, 2.63573575  , 3.44        , 3           , 50          , 0           , 0
-0.0923290551, 0.0920688137, -9.782618   , 0.00223187241, -0.0001359698, -0.00021895986, -0.2240124  , -0.130780637, 0.453552663 , -0.00963618048, -0.008497419, 2.63573337  , 3.45        , 3           , 11          , 0.00683746161, 0.00683745043
-0.0745096952, 0.107614    , -9.771116   , 0.0028083676, -0.002384668, 0.0006278148, -0.224079818, -0.130645812, 0.453620076 , -0.00960815 , -0.008521205, 2.63573956  , 3.46        , 3           , 12          , 0.0565888   , 0
-0.03860408 , 0.08148976  , -9.775922   , -0.00171915221, -0.0007258387, 4.42724267E-05, -0.223877579, -0.13084805 , 0.4536875   , -0.009625346, -0.008528459, 2.63574052  , 3.47        , 3           , 50          , 0           , 0
-0.0646386  , 0.0561678372, -9.803346   , -0.00313563156, 0.000109305875, -0.000243547664, -0.223877579, -0.13084805 , 0.4536875   , -0.009656683, -0.00852739 , 2.63573766  , 3.48        , 3           , 11          , 0.00683746161, 0.00683745043
-0.0814477056, 0.0888285339, -9.796107   , 0.00363777741, 0.0009998372, -0.00134078937, -0.22414723 , -0.130443573, 0.453620076 , -0.00962019 , -0.008517521, 2.63572431  , 3.49        , 3           , 12          , 0.0565888   , 0
-0.07310215 , 0.100942656 , -9.804582   , 1.68623737E-05, -0.00322077144, -0.0007992587, -0.2240124  , -0.1305784  , 0.4538223   , -0.009551735, -0.008485512, 2.63571668  , 3.5         , 3           , 50          , 0           , 0
-0.05305343 , 0.11509423  , -9.78900051 , 0.00112549646, 0.00101034367, -0.00107001944, -0.223944992, -0.1305784  , 0.4539571   , -0.009540387, -0.00847551 , 2.63570571  , 3.51        , 3           , 11          , 0.00675160624, 0.006751596
-0.07633354 , 0.100483365 , -9.791048   , 0.00254033  , 0.000738334842, 0.00119643111, -0.223944992, -0.1305784  , 0.4539571   , -0.009515086, -0.008468014, 2.63571763  , 3.52        , 3           , 12          , 0.0576188937, 0
-0.09772844 , 0.09528461  , -9.780837   , -0.001136543, 0.00155819487, -0.0007971495, -0.224079818, -0.130780637, 0.4537549   , -0.009526381, -0.008452509, 2.63570952  , 3.53        , 3           , 50          , 0           , 0
-0.07628231 , 0.106773771 , -9.783337   , -0.00168622576, -0.00154284178, -0.00108709419, -0.2240124  , -0.130780637, 0.4537549   , -0.00954315253, -0.00846804 , 2.63569856  , 3.54        , 3           , 11          , 0.00675160624, 0.006751596
-0.08870844 , 0.09738114  , -9.76494    , 0.0028186636, 0.0013033686, -0.00106168387, -0.223877579, -0.1305784  , 0.4538223   , -0.009514876, -0.008455107, 2.635688    , 3.55        , 3           , 12          , 0.0576188937, 0
-0.07955659 , 0.09869178  , -9.783848   , -0.000843127258, -0.000692416448, -0.00108184153, -0.223877579, -0.1305784  , 0.4538223   , -0.009523217, -0.008462134, 2.635677    , 3.56        , 3           , 50          , 0           , 0
-0.0779577047, 0.111368559 , -9.801863   , -0.002813145, -0.00211361144, -0.00109322974, -0.223877579, -0.13084805 , 0.4538223   , -0.009551257, -0.008483374, 2.63566613  , 3.57        , 3           , 11          , 0.00675160624, 0.006751596
-0.0821424  , 0.10686405  , -9.78971    , -0.00169254316, -0.0001350131, 4.522527E-05, -0.223944992, -0.130510986, 0.453620076 , -0.009568186, -0.008484719, 2.635667    , 3.58        , 3           , 12          , 0.0576188937, 0
-0.08211758 , 0.105098754 , -9.801468   , -0.000841822068, -0.0006924102, 0.00117845822, -0.223944992, -0.130510986, 0.4537549   , -0.009576706, -0.008491531, 2.63567853  , 3.59        , 3           , 50          , 0           , 0
-0.0856355354, 0.117723614 , -9.786528   , 0.0005344364, -0.0003867057, -0.000226840988, -0.223944992, -0.130510986, 0.4537549   , -0.00965180248, -0.008460557, 2.63567662  , 3.6         , 3           , 11          , 0.00666884426, 0.006668827
-0.104918033, 0.09407517  , -9.798524   , 0.0002396267, 0.00214547059, 5.82847424E-05, -0.223944992, -0.13084805 , 0.4536875   , -0.009649409, -0.008439099, 2.63567758  , 3.61        , 3           , 12          , 0.0586565956, 0
-0.0932274759, 0.09163888  , -9.78578949 , 0.000240694411, 0.00186390406, -0.000507223944, -0.224079818, -0.130982876, 0.4538223   , -0.009646959, -0.008420509, 2.63567185  , 3.62        , 3           , 50          , 0           , 0
-0.0758037642, 0.0711554661, -9.793426   , 0.00334222871, 0.00272960449, -0.002186661, -0.2240124  , -0.130713224, 0.4537549   , -0.009613349, -0.00839342549, 2.63565     , 3.63        , 3           , 11          , 0.00666884426, 0.006668827
-0.07540509 , 0.0711063   , -9.780314   , 0.001664722 , -0.000660634832, -0.00163469475, -0.2240124  , -0.130713224, 0.4537549   , -0.009596567, -0.008400188, 2.63563371  , 3.64        , 3           , 12          , 0.0586565956, 0
-0.0772428438, 0.10049098  , -9.790151   , -0.00116045086, -0.0003981671, -0.000799817557, -0.223810166, -0.13084805 , 0.4536875   , -0.009608104, -0.00840424653, 2.6356256   , 3.65        , 3           , 50          , 0           , 0
-0.09353322 , 0.09890494  , -9.798417   , 0.00193672348, 0.001875371 , 0.00204351475, -0.223877579, -0.1305784  , 0.453889728 , -0.009588906, -0.008385299, 2.635646    , 3.66        , 3           , 11          , 0.00666884426, 0.006668827
-0.07710074 , 0.108640425 , -9.798703   , -0.0008862249, 0.00129313406, -0.000513359555, -0.224214643, -0.130443573, 0.453889728 , -0.009597726, -0.008372416, 2.63564038  , 3.67        , 3           , 12          , 0.0586565956, 0
-0.08112824 , 0.0824662745, -9.783927   , 0.003620711 , 0.00385778234, 0.0006417665, -0.223944992, -0.13084805 , 0.4536875   , -0.0095615685, -0.00833378 , 2.63564658  , 3.68        , 3           , 50          , 0           , 0
-0.08020336 , 0.083364    , -9.785725   , 0.000802759954, 0.00243085437, -0.000503722171, -0.223944992, -0.13084805 , 0.4536875   , -0.009553498, -0.008309522, 2.63564134  , 3.69        , 3           , 11          , 0.00666884426, 0.006668827
-0.07224276 , 0.0964311   , -9.807756   , 0.004771526 , 0.000201693911, -0.0010539284, -0.223944992, -0.130443573, 0.4537549   , -0.009495943, -0.008315908, 2.63563085  , 3.7         , 3           , 12          , 0.05970126  , 0
-0.09539473 , 0.09888538  , -9.786229   , 0.000254417158, -0.00011042913, -0.0005103582, -0.2240124  , -0.130645812, 0.453889728 , -0.009493357, -0.008317062, 2.63562512  , 3.71        , 3           , 50          , 0           , 0
-0.0993807  , 0.103468925 , -9.793472   , 0.0033711968, -0.00206037331, 6.61652448E-05, -0.224079818, -0.130780637, 0.4537549   , -0.009459652, -0.008337657, 2.635626    , 3.72        , 3           , 11          , 0.00658721523, 0.00658719754
-0.08733106 , 0.090239    , -9.79253    , 0.000252029771, 0.000734274741, 0.00259885564, -0.224079818, -0.130780637, 0.4537549   , -0.009457347, -0.008330069, 2.6356523   , 3.73        , 3           , 12          , 0.05970126  , 0
-0.104917794, 0.091843605 , -9.805765   , -0.00144604594, 0.0010043697, -0.001081599, -0.2240124  , -0.1305784  , 0.453552663 , -0.009471717, -0.008320128, 2.63564134  , 3.74        , 3           , 50          , 0           , 0
-0.06866506 , 0.101708643 , -9.779685   , -0.00115386129, -0.000964675855, -0.00108331966, -0.2240124  , -0.130645812, 0.454024523 , -0.009483167, -0.008329877, 2.63563085  , 3.75        , 3           , 11          , 0.00658721523, 0.00658719754
-0.09164558 , 0.0816121548, -9.761865   , -0.00145236333, 0.00241219858, 5.07203076E-05, -0.223810166, -0.130645812, 0.4536875   , -0.009497692, -0.008305752, 2.63563085  , 3.76        , 3           , 12          , 0.05970126  , 0
-0.06504507 , 0.09853982  , -9.789162   , 0.00110309164, -0.000386264233, -0.000506841345, -0.223810166, -0.130645812, 0.4536875   , -0.009486619, -0.008309662, 2.635626    , 3.77        , 3           , 50          , 0           , 0
-0.0845321  , 0.12055143  , -9.82583    , -0.00142259989, -0.003500666, 0.0008892201, -0.223944992, -0.130443573, 0.4536875   , -0.009500922, -0.008344583, 2.63563466  , 3.78        , 3           , 11          , 0.00658721523, 0.00658719754
-0.101687886, 0.103014119 , -9.78445148 , 0.000538401131, -0.0003900834, -0.000226937744, -0.22414723 , -0.1305784  , 0.453889728 , -0.009495519, -0.008348505, 2.63563275  , 3.79        , 3           , 12          , 0.05970126  , 0
-0.08784686 , 0.0933177   , -9.76721    , 0.0016318534, 0.00213348912, 0.0006298368, -0.223944992, -0.130645812, 0.453620076 , -0.009540412, -0.008373015, 2.63563943  , 3.8         , 3           , 50          , 0           , 0
-0.07477819 , 0.08731069  , -9.770751   , -6.754211E-05, 0.00296672154, -0.000506912766, -0.223944992, -0.130645812, 0.453620076 , -0.009541041, -0.008343398, 2.63563371  , 3.81        , 3           , 11          , 0.00650803465, 0.00650802
-0.07540177 , 0.06798453  , -9.791176   , 0.00303111551, 0.00467712339, 7.525187E-05, -0.224079818, -0.130510986, 0.4536875   , -0.009510733, -0.00829662 , 2.63563418  , 3.82        , 3           , 12          , 0.0607522726, 0
-0.09117891 , 0.07001297  , -9.802587   , 0.00249102758, -0.000394869741, -0.000500267546, -0.223877579, -0.130510986, 0.4539571   , -0.00948578 , -0.008300617, 2.635629    , 3.83        , 3           , 50          , 0           , 0
-0.0946264043, 0.07957049  , -9.814776   , -0.00173110864, -0.00323916879, 4.071383E-05, -0.223877579, -0.130780637, 0.453889728 , -0.009503099, -0.008333005, 2.63563     , 3.84        , 3           , 11          , 0.00650803465, 0.00650802
-0.116941385, 0.07749508  , -9.791001   , 0.00193346967, -0.00180651341, 6.000364E-05, -0.223877579, -0.130780637, 0.453889728 , -0.00948377047, -0.008351063, 2.63563085  , 3.85        , 3           , 12          , 0.0607522726, 0
-0.113966927, 0.0932943   , -9.803117   , 0.00191936677, 0.00100913644, -0.000218194269, -0.2240124  , -0.13037616 , 0.4536875   , -0.009464558, -0.008340992, 2.63562846  , 3.86        , 3           , 50          , 0           , 0
-0.08129673 , 0.10144867  , -9.792438   , 0.00362893566, -0.00207662117, -0.0007801409, -0.224079818, -0.130443573, 0.4538223   , -0.009428205, -0.008361832, 2.63562083  , 3.87        , 3           , 11          , 0.00650803465, 0.00650802
-0.0732420459, 0.09324135  , -9.795122   , 0.003053909 , 0.000172084241, 0.0009159213, -0.223877579, -0.1305784  , 0.4537549   , -0.009397741, -0.008360024, 2.63563     , 3.88        , 3           , 12          , 0.0607522726, 0
-0.0839521  , 0.103762023 , -9.800132   , -0.0008899825, -0.00182560924, 0.00145952182, -0.223877579, -0.1305784  , 0.4537549   , -0.009406766, -0.008378142, 2.63564515  , 3.89        , 3           , 50          , 0           , 0
-0.1019876  , 0.113409519 , -9.788479   , -0.0006171114, 0.000122499914, 0.0006160338, -0.2240124  , -0.130645812, 0.4536875   , -0.00941117853, -0.008441155, 2.63565087  , 3.9         , 3           , 11          , 0.00643054955, 0.00643052952
-0.0793449655, 0.120288081 , -9.76612949 , -0.0006026819, -0.00269314856, 0.001459307 , -0.223944992, -0.1305784  , 0.453889728 , -0.009417329, -0.008467946, 2.63566613  , 3.91        , 3           , 12          , 0.0618090965, 0
-0.101945572, 0.114782631 , -9.794349   , -0.0017454992, -0.000448277075, -0.00193293917, -0.223944992, -0.1305784  , 0.4538223   , -0.009434621, -0.00847261 , 2.63564658  , 3.92        , 3           , 50          , 0           , 0
-0.107992627, 0.10400898  , -9.789919   , 0.00136094412, -0.000145696948, 5.97433936E-05, -0.223944992, -0.1305784  , 0.4538223   , -0.009421016, -0.008474061, 2.635647    , 3.93        , 3           , 11          , 0.00643054955, 0.00643052952
-0.09307769 , 0.0975628   , -9.803391   , 0.0004945627, 0.00350891473, -0.0016337909, -0.2240124  , -0.130713224, 0.453552663 , -0.009415929, -0.008439127, 2.63563085  , 3.94        , 3           , 12          , 0.0618090965, 0
-0.09288463 , 0.07904668  , -9.799399   , -0.00118417491, 0.000400241173, -0.0007988534, -0.2240124  , -0.1305784  , 0.453889728 , -0.009427702, -0.0084352  , 2.63562274  , 3.95        , 3           , 50          , 0           , 0
-0.09050467 , 0.0622269437, -9.770976   , -0.00230059447, -0.00242305244, -0.00193861034, -0.223944992, -0.130510986, 0.4538223   , -0.00945054647, -0.008459613, 2.63560319  , 3.96        , 3           , 11          , 0.00643054955, 0.00643052952
-0.109945506, 0.0887394845, -9.804461   , -0.0017527953, 0.000959546654, -0.00249584438, -0.223944992, -0.130510986, 0.4538223   , -0.00946786348, -0.008450254, 2.63557839  , 3.97        , 3           , 12          , 0.0618090965, 0
-0.08383244 , 0.0842937   , -9.781228   , 0.00162722124, 0.00295342528, -0.00134685356, -0.223944992, -0.13084805 , 0.4536875   , -0.009451477, -0.008420848, 2.635565    , 3.98        , 3           , 50          , 0           , 0
-0.07431146 , 0.0859776139, -9.778437   , -0.00175616168, 0.00180424575, -0.001081855, -0.2240124  , -0.130510986, 0.4536875   , -0.009468945, -0.00840291 , 2.6355536   , 3.99        , 3           , 11          , 0.00643054955, 0.00643052952
-0.09988629 , 0.105216861 , -9.774937   , 0.00235467684, 0.000675063 , -0.00177113479, -0.2240124  , -0.13084805 , 0.4538223   , -0.00941727 , -0.008477973, 2.635536    , 4           , 3           , 12          , 0.0628712   , 0
-0.09163913 , 0.105199777 , -9.798377   , 0.00335210585, -0.0010076398, -0.000780247967, -0.2240124  , -0.13084805 , 0.4538223   , -0.009383683, -0.008488121, 2.63552833  , 4.01        , 3           , 50          , 0           , 0
-0.103968322, 0.0932076   , -9.81208    , 0.0012354987, -0.00116274285, 0.000763614138, -0.2240124  , -0.130510986, 0.4537549   , -0.009371394, -0.008499677, 2.635536    , 4.02        , 3           , 11          , 0.006355517 , 0.00635548541
-0.100015074, 0.0872585   , -9.801228   , 0.000399207143, -0.00342099415, 0.000473654538, -0.223877579, -0.130645812, 0.4537549   , -0.009367447, -0.008533841, 2.6355412   , 4.03        , 3           , 12          , 0.0628712   , 0
-0.09274243 , 0.0898743048, -9.799353   , 0.000536156935, -0.00257534464, 0.000334346 , -0.223810166, -0.130645812, 0.4538223   , -0.009362115, -0.008559562, 2.635545    , 4.04        , 3           , 50          , 0           , 0
-0.0590364039, 0.105265193 , -9.797223   , 0.0006717128, -0.00144812942, 0.000195471424, -0.223810166, -0.130645812, 0.4538223   , -0.009355414, -0.008574025, 2.635547    , 4.05        , 3           , 11          , 0.006355517 , 0.00635548541
-0.09075713 , 0.0984748   , -9.814217   , 0.0011000688, -0.00243074284, -8.660943E-05, -0.223877579, -0.130780637, 0.45348525  , -0.009344409, -0.008598339, 2.635546    , 4.06        , 3           , 12          , 0.0628712   , 0
-0.1110686  , 0.101890221 , -9.819782   , -3.08692979E-05, -0.00215681712, 0.000191094165, -0.224079818, -0.130645812, 0.4537549   , -0.009344737, -0.008619889, 2.63554788  , 4.07        , 3           , 50          , 0           , 0
-0.10393291 , 0.100824237 , -9.796229   , -0.000742467935, -0.00117611734, -0.000940829166, -0.224214643, -0.13084805 , 0.4537549   , -0.00935208052, -0.008631736, 2.63553929  , 4.08        , 3           , 11          , 0.006355517 , 0.00635548541
-0.08763241 , 0.09840131  , -9.803346   , -0.000463607663, -0.000470295, -0.00107969611, -0.223944992, -0.130510986, 0.4537549   , -0.00935662352, -0.00863654 , 2.63552785  , 4.09        , 3           , 12          , 0.0628712   , 0
-0.09169177 , 0.09444472  , -9.820117   , -0.00302524725, -0.000236048028, -0.000243629082, -0.223944992, -0.130510986, 0.4537549   , -0.009438545, -0.008721407, 2.635526    , 4.1         , 3           , 50          , 0           , 0
-0.08227382 , 0.09292069  , -9.80242348 , -0.00345073361, 0.000183435768, 0.000178852584, -0.22414723 , -0.130713224, 0.4537549   , -0.009473069, -0.008719555, 2.63552785  , 4.11        , 3           , 11          , 0.00628265459, 0.00628263364
-0.09573856 , 0.102549791 , -9.801131   , 0.0014877168, 0.00106155616, 0.000485738128, -0.224079818, -0.130780637, 0.453889728 , -0.009458234, -0.008708893, 2.63553262  , 4.12        , 3           , 12          , 0.06393808  , 0
-0.09534722 , 0.09758484  , -9.802053   , 0.00290231267, 0.000507974357, -7.362E-05  , -0.2240124  , -0.130780637, 0.453620076 , -0.009429203, -0.008703821, 2.63553166  , 4.13        , 3           , 50          , 0           , 0
-0.09052294 , 0.09025807  , -9.787131   , 0.000788212055, -0.00035104595, -0.000226067554, -0.2240124  , -0.130780637, 0.453620076 , -0.009421302, -0.008707353, 2.63552976  , 4.14        , 3           , 11          , 0.00628265459, 0.00628263364
-0.1158856  , 0.0865331739, -9.798639   , 0.000364119478, -0.000213127176, 0.000195980145, -0.224079818, -0.13084805 , 0.4538223   , -0.009417676, -0.008709466, 2.63553166  , 4.15        , 3           , 12          , 0.06393808  , 0
-0.09315242 , 0.09482414  , -9.793911   , -0.000629461, 0.000906450441, 0.001040719 , -0.224079818, -0.130713224, 0.4537549   , -0.00942406 , -0.008700304, 2.63554215  , 4.16        , 3           , 50          , 0           , 0
-0.09079019 , 0.104250573 , -9.787527   , -0.0009147575, 0.00146767031, 0.000899001257, -0.22414723 , -0.13084805 , 0.453620076 , -0.009433284, -0.008685542, 2.63555074  , 4.17        , 3           , 11          , 0.00628265459, 0.00628263364
-0.07523489 , 0.08195661  , -9.787048   , 0.0006456046, -7.04359554E-05, -0.000226292061, -0.22414723 , -0.13084805 , 0.453620076 , -0.00942681 , -0.008686266, 2.63554883  , 4.18        , 3           , 12          , 0.06393808  , 0
-0.08473112 , 0.08609534  , -9.77716    , 0.0009301225, -0.000490873645, -0.000225626063, -0.224349469, -0.130713224, 0.453889728 , -0.009417488, -0.008691196, 2.635546    , 4.19        , 3           , 50          , 0           , 0
-0.07405819 , 0.09823429  , -9.800982   , 0.0002196078, 4.941988E-05, -0.0005106991, -0.224282056, -0.1305784  , 0.4538223   , -0.009419437, -0.008741453, 2.6355412   , 4.2         , 3           , 11          , 0.006211399 , 0.006211359
-0.110291973, 0.0964188948, -9.805788   , 0.00106897939, -0.000367197761, -0.000507399265, -0.224079818, -0.130915463, 0.4537549   , -0.0094087  , -0.008745173, 2.63553643  , 4.21        , 3           , 12          , 0.06500928  , 0
-0.08687454 , 0.09023671  , -9.793431   , -0.00062386127, -0.000660221151, 4.93401276E-05, -0.224079818, -0.130915463, 0.4537549   , -0.009414945, -0.00875177 , 2.635537    , 4.22        , 3           , 50          , 0           , 0
-0.07837739 , 0.08067665  , -9.797925   , -0.00132992829, -0.0006649961, 4.60478041E-05, -0.2240124  , -0.130645812, 0.453889728 , -0.009428248, -0.008758415, 2.63553739  , 4.23        , 3           , 11          , 0.006211399 , 0.006211359
-0.0601238757, 0.0886134654, -9.80634    , 0.00064046  , 0.000615415 , -0.000507855846, -0.224079818, -0.1305784  , 0.453889728 , -0.009421799, -0.008752309, 2.63553262  , 4.24        , 3           , 12          , 0.06500928  , 0
-0.06028202 , 0.08402184  , -9.782405   , 0.0009192388, 0.00132123684, -0.0007879915, -0.223877579, -0.13084805 , 0.4536875   , -0.009412536, -0.008739171, 2.635524    , 4.25        , 3           , 50          , 0           , 0
-0.08737824 , 0.08439821  , -9.799787   , 0.00162431959, 0.00160757906, -7.792158E-05, -0.223877579, -0.13084805 , 0.4536875   , -0.009396284, -0.008723103, 2.635523    , 4.26        , 3           , 11          , 0.006211399 , 0.006211359
-0.0998424143, 0.106591478 , -9.781259   , 0.000643122 , 0.000193070271, 0.0004803744, -0.2240124  , -0.13084805 , 0.4536875   , -0.009389895, -0.008721127, 2.63552785  , 4.27        , 3           , 12          , 0.06500928  , 0
-0.09051363 , 0.09026562  , -9.789391   , -0.00160755776, -0.00165238418, -9.80564655E-05, -0.223944992, -0.130510986, 0.4537549   , -0.009405963, -0.008737659, 2.63552737  , 4.28        , 3           , 50          , 0           , 0
-0.08575561 , 0.0739581361, -9.787162   , 0.000498549431, 0.0007552425, -0.0005082972, -0.223877579, -0.1305784  , 0.453889728 , -0.009400932, -0.008730155, 2.63552213  , 4.29        , 3           , 11          , 0.006211399 , 0.006211359
-0.08213694 , 0.06900285  , -9.802071   , 0.00290164351, 0.00246091769, 0.000353054173, -0.223877579, -0.1305784  , 0.453889728 , -0.009342188, -0.008705371, 2.63552547  , 4.3         , 3           , 12          , 0.06608438  , 0
-0.07040399 , 0.103573814 , -9.791441   , 0.00149631628, 0.00104354159, 6.17623737E-05, -0.224079818, -0.130780637, 0.4538223   , -0.009327229, -0.00869493 , 2.635526    , 4.31        , 3           , 50          , 0           , 0
-0.06395625 , 0.10939008  , -9.799051   , 0.00206937082, -0.0006420297, -0.000220744827, -0.223877579, -0.130645812, 0.453889728 , -0.0093065165, -0.008701373, 2.635524    , 4.32        , 3           , 11          , 0.006142114 , 0.00614208076
-0.07874569 , 0.08655298  , -9.799711   , 0.00263369083, -0.00049742643, 6.464346E-05, -0.224079818, -0.130645812, 0.4538223   , -0.009280185, -0.00870634 , 2.63552451  , 4.33        , 3           , 12          , 0.06608438  , 0
-0.09282121 , 0.0866860151, -9.790326   , 0.001778906 , 0.00104545231, 0.000345616718, -0.224079818, -0.130645812, 0.4538223   , -0.009262425, -0.008695857, 2.63552785  , 4.34        , 3           , 50          , 0           , 0
-0.06728694 , 0.09813792  , -9.795959   , 0.00107546384, 0.000477546477, 5.8919024E-05, -0.223944992, -0.130645812, 0.453620076 , -0.0092516765, -0.008691073, 2.63552833  , 4.35        , 3           , 11          , 0.006142114 , 0.00614208076
-0.1091418  , 0.09221712  , -9.768282   , 0.00164999429, -0.00148958934, -8.27533E-05, -0.224214643, -0.130645812, 0.4538223   , -0.00923517 , -0.008705976, 2.63552785  , 4.36        , 3           , 12          , 0.06608438  , 0
-0.0933919  , 0.111070916 , -9.793846   , 0.000241508547, -0.002203051, 0.00019211469, -0.22414723 , -0.130510986, 0.453889728 , -0.009232772, -0.008727987, 2.63552976  , 4.37        , 3           , 50          , 0           , 0
-0.090813   , 0.101107627 , -9.79206    , -0.00217055343, -0.000107552572, -0.00151104969, -0.22414723 , -0.130510986, 0.453889728 , -0.009254345, -0.008729202, 2.6355145   , 4.38        , 3           , 11          , 0.006142114 , 0.00614208076
-0.0822806656, 0.1013958   , -9.773462   , -0.00133434392, 0.002150698 , -0.00136235869, -0.224079818, -0.130645812, 0.4536875   , -0.009267569, -0.008707821, 2.63550115  , 4.39        , 3           , 12          , 0.06608438  , 0
-0.07409125 , 0.10401006  , -9.774292   , 6.521723E-05, 0.00131408777, 0.00019695588, -0.223944992, -0.130645812, 0.4538223   , -0.009318976, -0.008699009, 2.635503    , 4.4         , 3           , 50          , 0           , 0
-0.07797802 , 0.116708286 , -9.779694   , 0.000915938232, 0.0007566906, 0.00133018882, -0.2240124  , -0.130645812, 0.453889728 , -0.009309931, -0.008691318, 2.63551641  , 4.41        , 3           , 11          , 0.00607475964, 0.006074729
-0.0687807351, 0.101614922 , -9.751663   , -7.374215E-05, 0.000890785945, 0.000478184229, -0.2240124  , -0.130645812, 0.453889728 , -0.00931071 , -0.008682367, 2.63552117  , 4.42        , 3           , 12          , 0.06716298  , 0
-0.080611825, 0.0878687352, -9.782093   , 0.00134249229, 5.56402265E-05, 0.0003421982, -0.223877579, -0.130915463, 0.4536875   , -0.009297314, -0.008681779, 2.635524    , 4.43        , 3           , 50          , 0           , 0
-0.10501194 , 0.0855184048, -9.803081   , 0.00387817924, 0.00148065935, 0.00176890753, -0.224079818, -0.130780637, 0.4539571   , -0.009258685, -0.008666808, 2.63554215  , 4.44        , 3           , 11          , 0.00607475964, 0.006074729
-0.09184533 , 0.09610572  , -9.777173   , 0.0027464258, 0.00175458135, 0.000633924035, -0.224079818, -0.1305784  , 0.454024523 , -0.009231273, -0.008649205, 2.63554788  , 4.45        , 3           , 12          , 0.06716298  , 0
-0.08720035 , 0.09302301  , -9.815569   , 0.00120406714, -0.0005084451, 0.000340671948, -0.223810166, -0.130713224, 0.4536875   , -0.009219263, -0.008654257, 2.63555169  , 4.46        , 3           , 50          , 0           , 0
-0.07866679 , 0.09241946  , -9.80013752 , -0.0007660322, -0.00192964077, 0.000188014965, -0.223810166, -0.130713224, 0.4536875   , -0.009226941, -0.008673535, 2.6355536   , 4.47        , 3           , 11          , 0.00607475964, 0.006074729
-0.0830691159, 0.09837688  , -9.811899   , 0.0012096432, -0.00163470523, 0.0003389362, -0.22414723 , -0.130713224, 0.453889728 , -0.009214874, -0.00868985 , 2.63555741  , 4.48        , 3           , 12          , 0.06716298  , 0
-0.09898659 , 0.0895792246, -9.82381    , 0.00177010742, -0.0006454052, 0.00119070115, -0.2240124  , -0.130645812, 0.4538223   , -0.009197278, -0.008696195, 2.63556886  , 4.49        , 3           , 50          , 0           , 0
-0.0928372145, 0.0826558843, -9.799383   , -0.00233713351, -0.0010999979, 0.0006059069, -0.2240124  , -0.130713224, 0.4536875   , -0.009262412, -0.00872087851, 2.63557553  , 4.5         , 3           , 11          , 0.00600966765, 0.00600963132
-0.08719018 , 0.09928016  , -9.797915   , -0.000924465363, -0.00123123138, 0.000329737144, -0.2240124  , -0.130713224, 0.4536875   , -0.009271686, -0.008733158, 2.63557887  , 4.51        , 3           , 12          , 0.06824467  , 0
-0.09966431 , 0.0777971447, -9.806687   , 6.271596E-05, -0.000942980871, 0.000476049056, -0.223877579, -0.130713224, 0.4538223   , -0.009271101, -0.008742543, 2.635584    , 4.52        , 3           , 50          , 0           , 0
-0.08146898 , 0.08524049  , -9.802449   , -0.0007868186, -0.000526363961, 0.000190211649, -0.223944992, -0.130443573, 0.453889728 , -0.009278987, -0.008747788, 2.635586    , 4.53        , 3           , 11          , 0.00600966765, 0.00600963132
-0.08408947 , 0.09695545  , -9.788409   , -0.00134732726, -0.00137487822, 0.000468813523, -0.223877579, -0.130982876, 0.4536875   , -0.009292501, -0.00876149349, 2.63559079  , 4.54        , 3           , 12          , 0.06824467  , 0
-0.08281044 , 0.08794822  , -9.797929   , -0.0013465042, -0.00165644614, -0.0005205016, -0.223877579, -0.130982876, 0.4536875   , -0.009305921, -0.008778106, 2.635585    , 4.55        , 3           , 50          , 0           , 0
-0.0917284638, 0.06012018  , -9.810768   , 0.0006233504, -0.000235251762, -0.000791650964, -0.22414723 , -0.130645812, 0.4537549   , -0.009299618, -0.00878053252, 2.63557744  , 4.56        , 3           , 11          , 0.00600966765, 0.00600963132
-0.09993886 , 0.061952427 , -9.790483   , 0.00175748451, -0.001072306, -0.000363878673, -0.22414723 , -0.130645812, 0.453889728 , -0.00928201247, -0.008791289, 2.63557363  , 4.57        , 3           , 12          , 0.06824467  , 0
-0.07968435 , 0.117260829 , -9.803659   , 0.00189746718, -0.000789785, -8.024876E-05, -0.223877579, -0.130645812, 0.4536875   , -0.009263031, -0.008799194, 2.63557315  , 4.58        , 3           , 50          , 0           , 0
-0.08674541 , 0.101053737 , -9.79022    , 0.0011880782, -9.064666E-05, 0.000200081238, -0.223877579, -0.130645812, 0.4536875   , -0.009251167, -0.008800082, 2.63557553  , 4.59        , 3           , 11          , 0.00600966765, 0.00600963132
-0.09318666 , 0.0939037   , -9.788492   , 0.0006233645, 0.000182753909, -0.0007910573, -0.2240124  , -0.13084805 , 0.4538223   , -0.009238355, -0.008811741, 2.635567    , 4.6         , 3           , 12          , 0.06932912  , 0
-0.06329383 , 0.0931138   , -9.79188251 , 0.00160706113, 0.001174917 , -0.000643660547, -0.22414723 , -0.130645812, 0.454024523 , -0.009222226, -0.008800051, 2.63556075  , 4.61        , 3           , 50          , 0           , 0
-0.100746766, 0.1057104   , -9.784433   , 0.00119174051, -0.000376552867, 0.0004821272, -0.2240124  , -0.13084805 , 0.4537549   , -0.009210351, -0.008803772, 2.63556552  , 4.62        , 3           , 11          , 0.005946097 , 0.005946055
-0.1076007  , 0.08967114  , -9.821162   , -7.45460347E-05, -0.00137062662, 5.0876E-05  , -0.2240124  , -0.13084805 , 0.4537549   , -0.009211102, -0.008817473, 2.635566    , 4.63        , 3           , 12          , 0.06932912  , 0
-0.09772194 , 0.08636288  , -9.811157   , 0.00132578355, 0.0008914409, -0.00106921769, -0.223944992, -0.130510986, 0.453620076 , -0.009197749, -0.00880865753, 2.63555551  , 4.64        , 3           , 50          , 0           , 0
-0.0601132773, 0.09799543  , -9.77873    , 0.00131852448, 0.00244005071, -0.000360487466, -0.22414723 , -0.130443573, 0.4537549   , -0.009184531, -0.00878429 , 2.63555169  , 4.65        , 3           , 11          , 0.005946097 , 0.005946055
-0.06634329 , 0.101728946 , -9.793678   , 0.0007689159, -0.000379413832, 0.00189283909, -0.223877579, -0.13084805 , 0.4536875   , -0.009177008, -0.008787911, 2.63557076  , 4.66        , 3           , 12          , 0.06932912  , 0
-0.0922273  , 0.0934903   , -9.80295    , 0.0007742472, -0.00150567538, 0.00146729732, -0.223877579, -0.13084805 , 0.4536875   , -0.009169396, -0.008802833, 2.635585    , 4.67        , 3           , 50          , 0           , 0
-0.06611939 , 0.08457685  , -9.792843   , 0.00119120674, -0.000235769432, 0.0007648818, -0.223877579, -0.130645812, 0.4537549   , -0.00915755 , -0.008805119, 2.6355927   , 4.68        , 3           , 11          , 0.005946097 , 0.005946055
-0.07361869 , 0.100449972 , -9.790575   , 0.00162415253, -0.00206307624, 0.00118784257, -0.224079818, -0.130713224, 0.4539571   , -0.009141414, -0.008825641, 2.635605    , 4.69        , 3           , 12          , 0.06932912  , 0
-0.08908455 , 0.127726242 , -9.796908   , 0.00232027471, -0.002324349, 0.000766998448, -0.223810166, -0.130645812, 0.4538223   , -0.009153354, -0.008799767, 2.63561273  , 4.7         , 3           , 50          , 0           , 0
-0.08676217 , 0.0934522152, -9.810592   , 0.000342960673, -0.00233772 , 0.000192705134, -0.223810166, -0.130645812, 0.4538223   , -0.00914994348, -0.008823127, 2.63561463  , 4.71        , 3           , 11          , 0.00588406948, 0.00588402525
-0.101220712, 0.104805849 , -9.78218    , -0.00134733645, -0.00319387484, 0.000324770372, -0.22414723 , -0.130645812, 0.4536875   , -0.009163448, -0.008855034, 2.63561845  , 4.72        , 3           , 12          , 0.07041599  , 0
-0.1244058  , 0.09518185  , -9.791437   , -0.0005071893, -0.00178032042, 4.83533331E-05, -0.2240124  , -0.130510986, 0.4537549   , -0.009168526, -0.008872831, 2.635619    , 4.73        , 3           , 50          , 0           , 0
-0.126775458, 0.07816145  , -9.820453   , -8.850966E-05, -0.0007919782, -8.94211553E-05, -0.223944992, -0.130645812, 0.4538223   , -0.009169403, -0.008880759, 2.635618    , 4.74        , 3           , 11          , 0.00588406948, 0.00588402525
-0.08718228 , 0.102411017 , -9.789766   , 0.000334678334, -0.0006483295, 0.000336577446, -0.223944992, -0.130645812, 0.4538223   , -0.009166087, -0.008887212, 2.63562131  , 4.75        , 3           , 12          , 0.07041599  , 0
-0.0953438  , 0.09714125  , -9.804314   , 0.000484011078, -0.00233676587, -8.91740056E-05, -0.224079818, -0.130780637, 0.4536875   , -0.009161242, -0.008910586, 2.63562083  , 4.76        , 3           , 50          , 0           , 0
-0.09965199 , 0.1170118   , -9.79432    , 0.00119024143, -0.00233199028, 0.000196655717, -0.223877579, -0.13037616 , 0.453889728 , -0.009149358, -0.008933888, 2.63562322  , 4.77        , 3           , 11          , 0.00588406948, 0.00588402525
-0.08205955 , 0.110501975 , -9.798282   , 0.0007640578, -0.00177172408, 0.0006193544, -0.223944992, -0.1305784  , 0.4538223   , -0.009141775, -0.008951547, 2.63562942  , 4.78        , 3           , 12          , 0.07041599  , 0
-0.07712447 , 0.114423752 , -9.774273   , -0.000225993266, -0.00149684458, 0.0003326417, -0.223944992, -0.1305784  , 0.4538223   , -0.009144064, -0.008966484, 2.63563275  , 4.79        , 3           , 50          , 0           , 0
-0.08976403 , 0.111032918 , -9.795174   , 0.000440259551, -0.000656229851, -0.0003689461, -0.22414723 , -0.130780637, 0.4536875   , -0.009253477, -0.009001702, 2.63563     , 4.8         , 3           , 11          , 0.00582405  , 0.00582399964
-0.07843026 , 0.11492864  , -9.785581   , 0.0008614381, -9.02332E-05, 0.000198972048, -0.2240124  , -0.130510986, 0.4539571   , -0.009244881, -0.009002584, 2.6356318   , 4.81        , 3           , 12          , 0.07150494  , 0
-0.07199679 , 0.121626019 , -9.78685951 , -0.000549383636, -0.000381348626, 5.06846845E-05, -0.2240124  , -0.130713224, 0.4538223   , -0.00925038 , -0.009006393, 2.63563228  , 4.82        , 3           , 50          , 0           , 0
-0.07017458 , 0.0837481   , -9.800562   , -0.00040238665, -0.001647439, -0.000798221969, -0.2240124  , -0.130713224, 0.4538223   , -0.009254332, -0.00902294 , 2.63562465  , 4.83        , 3           , 11          , 0.00582405  , 0.00582399964
-0.08252598 , 0.07709411  , -9.791643   , 0.00128672435, -0.0006505039, -0.00177768269, -0.223944992, -0.13084805 , 0.453552663 , -0.009241305, -0.00902961 , 2.635607    , 4.84        , 3           , 12          , 0.07150494  , 0
-0.09105982 , 0.112438612 , -9.806026   , 0.003403984 , -0.0004953978, -0.002191395, -0.223877579, -0.130713224, 0.453889728 , -0.009207068, -0.009034766, 2.635585    , 4.85        , 3           , 50          , 0           , 0
-0.102967307, 0.101308607 , -9.809327   , 0.00114399078, -0.000229108584, -0.00078880915, -0.223944992, -0.130443573, 0.4537549   , -0.009195559, -0.00903713 , 2.63557744  , 4.86        , 3           , 11          , 0.00582405  , 0.00582399964
-0.101647377, 0.104832329 , -9.788511   , -0.00126483792, 0.001444048 , -0.000514862069, -0.223944992, -0.1305784  , 0.4537549   , -0.009208158, -0.009022736, 2.63557172  , 4.87        , 3           , 12          , 0.07150494  , 0
-0.0898859352, 0.102453485 , -9.792952   , 0.00127171655, 0.00244671386, -0.00120783458, -0.223944992, -0.1305784  , 0.4537549   , -0.00919533 , -0.008998381, 2.63555932  , 4.88        , 3           , 50          , 0           , 0
-0.08691042 , 0.0870831758, -9.7948     , 0.00141588121, 0.00188453926, -0.000925506349, -0.223944992, -0.130713224, 0.4538223   , -0.009181087, -0.008979622, 2.63555026  , 4.89        , 3           , 11          , 0.00582405  , 0.00582399964
-0.08871224 , 0.087112    , -9.797073   , -1.76314443E-05, 0.00130837946, -0.000226499615, -0.22414723 , -0.130645812, 0.454024523 , -0.009262417, -0.008978071, 2.63554788  , 4.9         , 3           , 12          , 0.07259571  , 0
-0.0807276741, 0.0748307   , -9.795708   , -0.000575885759, 3.75182935E-05, 0.000333988661, -0.224214643, -0.130780637, 0.4537549   , -0.009268205, -0.008977664, 2.63555169  , 4.91        , 3           , 50          , 0           , 0
-0.0843126  , 0.110091016 , -9.802368   , -0.00296925474, -0.0015273263, -0.000385935535, -0.224214643, -0.130780637, 0.4537549   , -0.009297864, -0.008992973, 2.63554788  , 4.92        , 3           , 11          , 0.00576536544, 0.00576529931
-0.09000337 , 0.12236993  , -9.810948   , -0.002267325, -0.000818641856, -0.00151170825, -0.223877579, -0.1305784  , 0.4539571   , -0.009320401, -0.009001299, 2.63553262  , 4.93        , 3           , 12          , 0.07259571  , 0
-0.0803849  , 0.102335811 , -9.791071   , 0.000693396258, 0.0003276771, -8.345742E-05, -0.224079818, -0.130713224, 0.4539571   , -0.009313459, -0.00899803 , 2.63553166  , 4.94        , 3           , 50          , 0           , 0
-0.07122255 , 0.110350214 , -9.790968   , 0.00139933731, 0.000473237247, 0.0009089331, -0.223877579, -0.130982876, 0.453889728 , -0.009299548, -0.008993213, 2.6355412   , 4.95        , 3           , 11          , 0.00576536544, 0.00576529931
-0.0734552145, 0.114865623 , -9.784187   , 0.0008432184, -0.001360757, 0.000338403683, -0.223877579, -0.130982876, 0.453889728 , -0.009291147, -0.009006789, 2.63554454  , 4.96        , 3           , 12          , 0.07259571  , 0
-0.0751975849, 0.08198686  , -9.796087   , -0.000144741687, -0.00150822534, 5.104007E-05, -0.22414723 , -0.130713224, 0.453889728 , -0.009292601, -0.009021866, 2.635545    , 4.97        , 3           , 50          , 0           , 0
-0.0753003061, 0.07922552  , -9.779829   , -0.0005749812, -0.000244049035, -0.0005140575, -0.22414723 , -0.1305784  , 0.4539571   , -0.009298303, -0.009024355, 2.63554025  , 4.98        , 3           , 11          , 0.00576536544, 0.00576529931
-0.0889680758, 0.106469966 , -9.782984   , 0.0002715207, -9.753699E-05, -0.000651158451, -0.223944992, -0.130645812, 0.4537549   , -0.00929553 , -0.009025391, 2.63553357  , 4.99        , 3           , 12          , 0.07259571  , 0
-0.0877783448, 0.08757067  , -9.802488   , 0.000119437485, -0.0016317179, -0.0009365862, -0.223944992, -0.130645812, 0.4537549   , -0.009356266, -0.008989898, 2.635524    , 5           , 3           , 50          , 0           , 0
-0.09018777 , 0.07989139  , -9.791691   , -0.0017135113, -0.00206647674, 0.000325621426, -0.223944992, -0.1305784  , 0.4537549   , -0.00937343 , -0.00901053 , 2.63552737  , 5.01        , 3           , 11          , 0.005708415 , 0.005708351
-0.09325907 , 0.08670343  , -9.793946   , -0.000742235163, 0.00131898676, -0.000512174563, -0.223944992, -0.130713224, 0.453889728 , -0.009380807, -0.00899739 , 2.63552213  , 5.02        , 3           , 12          , 0.07368799  , 0
-0.06554516 , 0.09761411  , -9.780581   , 0.000665145752, 0.002173229 , -0.00149316911, -0.224079818, -0.130780637, 0.453889728 , -0.00937402 , -0.008975797, 2.63550687  , 5.03        , 3           , 50          , 0           , 0
-0.07557393 , 0.09723001  , -9.765744   , -0.00073641463, 0.000192727486, -9.010402E-05, -0.224079818, -0.130780637, 0.453889728 , -0.009381375, -0.008973879, 2.635506    , 5.04        , 3           , 11          , 0.005708415 , 0.005708351
-0.09710021 , 0.105687514 , -9.79028    , -0.0004511182, -0.0003684923, 5.16136679E-05, -0.224753946, -0.130645812, 0.4536875   , -0.00938589 , -0.008977559, 2.63550687  , 5.05        , 3           , 12          , 0.07368799  , 0
-0.09604377 , 0.115618847 , -9.795203   , 0.0005324967, 0.000623670348, 5.77417049E-05, -0.22414723 , -0.130443573, 0.4539571   , -0.009380571, -0.008971317, 2.63550687  , 5.06        , 3           , 50          , 0           , 0
-0.06562978 , 0.113986365 , -9.818029   , 0.00138297316, 6.627201E-05, 0.0007671684, -0.223944992, -0.13084805 , 0.4539571   , -0.009366809, -0.008970582, 2.6355145   , 5.07        , 3           , 11          , 0.005708415 , 0.005708351
-0.06010741 , 0.08818046  , -9.811766   , 0.00421089  , -0.000618540158, 0.00106179039, -0.223944992, -0.13084805 , 0.4539571   , -0.009324796, -0.008976668, 2.63552547  , 5.08        , 3           , 12          , 0.07368799  , 0
-0.05375582 , 0.09257976  , -9.8004     , 0.00294173323, -0.00104948413, 0.0004901383, -0.224079818, -0.13084805 , 0.4539571   , -0.009295424, -0.008987118, 2.63553071  , 5.09        , 3           , 50          , 0           , 0
-0.07739315 , 0.088764064 , -9.791104   , -0.0021488287, -0.00288493722, 0.00102883577, -0.224214643, -0.130510986, 0.453889728 , -0.009373077, -0.008915615, 2.63554025  , 5.1         , 3           , 11          , 0.005652731 , 0.00565267354
