Acc X       , Acc Y       , Acc Z       , Gyro X      , Gyro Y      , Gyro Z      , Magn X      , Magn Y      , Magn Z      , Euler X     , Euler Y     , Euler Z     , Time        , Status      , LowRate X   , LowRate Y   , LowRate Z    
-0.0275804866, 0.020213373 , -9.802105   , 0.00263987319, 0.00315388571, -0.00133709307, 0.7594164   , 0.457255125 , 0.7427987   , -0.00125550851, -0.00334591023, -0.544371367, 0           , 23          , 11          , 0.0346410163, 0.0346410163
-0.03443072 , 0.0123461476, -9.818442   , -0.00163489021, -0.002211482, -0.00027549293, 0.7587207   , 0.457272232 , 0.745942235 , -0.0012718481, -0.003368028, -0.544374   , 0.01        , 23          , 12          , 0.0346410163, 0
-0.03658128 , 0.0152165452, -9.835991   , 0.000928766851, 0.0008935109, -0.000800401554, 0.7611787   , 0.4571055   , 0.7437875   , -0.00126253336, -0.003359103, -0.5443821  , 0.02        , 23          , 50          , 0           , 0
-0.03814937 , 0.005665696 , -9.819886   , 0.0009388176, 0.00203005038, -0.00106978556, 0.7590075   , 0.4571185   , 0.7432285   , -0.00125310954, -0.00333881588, -0.5443928  , 0.03        , 23          , 11          , 0.0346410163, 0.0346410163
-0.03284739 , 0.001440296 , -9.810415   , 0.0006428862, 0.000330228766, -0.00109162147, 0.7594048   , 0.457123518 , 0.745224357 , -0.00124664418, -0.00333552738, -0.5444038  , 0.04        , 23          , 12          , 0.0346410163, 0
-0.0272617731, 0.014715136 , -9.790446   , -0.000204573516, 0.000330839772, -0.00024152796, 0.7594048   , 0.457123518 , 0.745224357 , -0.00124868192, -0.00333222188, -0.5444062  , 0.05        , 23          , 50          , 0           , 0
-0.0290643889, 0.009999263 , -9.819755   , 0.00119585125, -0.000812458165, -0.0005378349, 0.7602279   , 0.456830919 , 0.744077    , -0.00123670592, -0.00334035349, -0.5444114  , 0.06        , 23          , 11          , 0.0346410163, 0.0346410163
-0.0218378976, 0.0129362326, -9.808405   , -0.0001984376, 0.00145589781, 0.001191351 , 0.7591352   , 0.4581068   , 0.7435171   , -0.00123873 , -0.00332577969, -0.5443995  , 0.07        , 23          , 12          , 0.0346410163, 0
-0.0227411538, 0.0112208771, -9.818329   , 0.00205675559, 0.0008869557, -0.001082728, 0.759805143 , 0.4575475   , 0.74608016  , -0.00121812616, -0.00331692374, -0.544410467, 0.08        , 23          , 50          , 0           , 0
-0.0471403  , 0.006732913 , -9.819072   , -0.00333868735, -0.00389688974, -0.00086648 , 0.7603628   , 0.456971139 , 0.744076848 , -0.00125148462, -0.00335590332, -0.54441905 , 0.09        , 23          , 11          , 0.0346410163, 0.0346410163
-0.0440904163, 0.006431477 , -9.784842   , 0.00175065931, -0.00168451411, 0.00115436153, 0.7603628   , 0.456971139 , 0.744076848 , -0.00110552763, -0.00370089035, -0.5444081  , 0.1         , 23          , 12          , 0.0346410163, 0
-0.0365956835, -0.007899312, -9.818181   , 0.00462290831, 0.00426449347, -0.000752937165, 0.7594114   , 0.457118452 , 0.7439399   , -0.001059271, -0.003658254, -0.5444155  , 0.11        , 23          , 50          , 0           , 0
-0.0203597471, 0.0183904767, -9.818695   , -0.00273963 , 0.0003426098, 3.90545647E-05, 0.7600766   , 0.45726493  , 0.7465057   , -0.00108666846, -0.00365482667, -0.544415   , 0.12        , 23          , 11          , 0.0346410163, 0.0346410163
-0.0248280615, 0.0237346925, -9.797546   , 0.00293125142, 0.00427528331, -0.0004713028, 0.759819865 , 0.457115054 , 0.7437949   , -0.0010573389, -0.003612079, -0.544419765, 0.13        , 23          , 12          , 0.0346410163, 0
-0.03444121 , -0.0120548643, -9.810092   , -0.00273793284, 0.0006243527, 0.0003263467, 0.759543836 , 0.4569797   , 0.7447949   , -0.0010847298, -0.00360583281, -0.544416666, 0.14        , 23          , 50          , 0           , 0
-0.00126906717, 0.00271233171, -9.820423   , -0.00412700232, 0.00290801679, -0.000214151238, 0.759543836 , 0.4569797   , 0.7447949   , -0.001125992, -0.00357675459, -0.5444186  , 0.15        , 23          , 11          , 0.0346410163, 0.0346410163
-0.0203798451, 0.017911328 , -9.814649   , -0.0035782156, 0.0006460125, -0.00194437511, 0.7600882   , 0.456413478 , 0.745360553 , -0.00116170477, -0.003570317, -0.5444381  , 0.16        , 23          , 12          , 0.0346410163, 0
-0.03779014 , 0.00500978529, -9.791987   , -0.005252381, 0.00292222621, -0.00106666691, 0.7595506   , 0.457395881 , 0.7429412   , -0.00121419039, -0.003541107, -0.544448853, 0.17        , 23          , 50          , 0           , 0
-0.045495145, 0.026390478 , -9.798642   , -0.0021621245, 0.00231631659, 0.00119966012, 0.7594048   , 0.457123518 , 0.745224357 , -0.001235854, -0.00351792946, -0.544436932, 0.18        , 23          , 11          , 0.0346410163, 0.0346410163
-0.0416367427, 0.01420395  , -9.806802   , 0.000345795532, -0.00138453115, 0.000305081485, 0.7594048   , 0.457123518 , 0.745224357 , -0.00123240671, -0.00353177078, -0.544433832, 0.19        , 23          , 12          , 0.0346410163, 0
-0.0327345654, 0.007317062 , -9.813066   , 0.00316205039, -0.00168970472, -0.00111359428, 0.7603719   , 0.4568238   , 0.7425064   , -0.00128076982, -0.003813214, -0.544444561, 0.2         , 23          , 50          , 0           , 0
-0.0433111526, -0.003365606, -9.803814   , -0.00216081645, 0.00259580044, 0.0003521085, 0.7585864   , 0.4576933   , 0.745088339 , -0.00130239164, -0.00378725072, -0.544441   , 0.21        , 23          , 11          , 0.0304870717, 0.0304870643
-0.0411957838, 0.0154678   , -9.795537   , 0.0023436984, 0.00144069444, -0.001642655, 0.7598128   , 0.457401276 , 0.7447951   , -0.00127889239, -0.003772866, -0.544457436, 0.22        , 23          , 12          , 0.0346698426, 0
-0.03540197 , 0.01305837  , -9.789196   , -0.001334503, 4.228158E-05, -0.0005302197, 0.759956    , 0.457394719 , 0.7433672   , -0.00129221787, -0.00377244945, -0.5444629  , 0.23        , 23          , 50          , 0           , 0
-0.0372338556, 0.009998962 , -9.797791   , -0.00245988183, 5.649091E-05, -0.00138273509, 0.759956    , 0.457394719 , 0.7433672   , -0.00131676416, -0.00377190253, -0.5444765  , 0.24        , 23          , 11          , 0.0304870717, 0.0304870643
-0.02065384 , 0.030419223 , -9.797897   , 0.00118294719, -0.001970022, 0.0005826649, 0.75954634  , 0.457258642 , 0.7439397   , -0.00130495708, -0.003791595, -0.544470549, 0.25        , 23          , 12          , 0.0346698426, 0
-0.0211109258, 0.0282541737, -9.809171   , 0.00320564769, 0.0034199378, -0.00161654537, 0.759671569 , 0.456984937 , 0.746364057 , -0.001272839, -0.00375741674, -0.544487   , 0.26        , 23          , 50          , 0           , 0
-0.0174754262, 0.005183585 , -9.807522   , -0.00161868648, -0.00023925741, -0.0005341474, 0.7598219   , 0.457253933 , 0.7432246   , -0.00128900574, -0.003759816, -0.544492245, 0.27        , 23          , 11          , 0.0304870717, 0.0304870643
-0.0134599162, 0.0276697576, -9.810896   , -0.00161698961, 4.24852478E-05, -0.000246855256, 0.75927496  , 0.4565581   , 0.744794667 , -0.00130516652, -0.00375939417, -0.544494867, 0.28        , 23          , 12          , 0.0346698426, 0
-0.0190976914, 0.014271196 , -9.813315   , 0.00146203954, -0.00253371149, -0.000275283761, 0.75927496  , 0.4565581   , 0.744794667 , -0.00129053579, -0.003784735, -0.5444975  , 0.29        , 23          , 50          , 0           , 0
-0.0182319544, 0.0150345955, -9.796199   , -0.000235616564, -0.0030663854, -0.000284488342, 0.760354757 , 0.457398564 , 0.74507755  , -0.00132075173, -0.0035024418, -0.5445001  , 0.3         , 23          , 11          , 0.024258    , 0.0242579971
-0.024216488, 0.00749921333, -9.798124   , 0.00120383792, 0.0008865644, 0.00090222666, 0.76023     , 0.457391083 , 0.7429375   , -0.00130874466, -0.0034935642, -0.544491053, 0.31        , 23          , 12          , 0.0347559527, 0
-0.03315894 , 0.0125646889, -9.789177   , 0.00149859278, 0.001752638 , -0.00164007652, 0.759405732 , 0.456982344 , 0.745223761 , -0.00129370182, -0.00347606 , -0.5445075  , 0.32        , 23          , 50          , 0           , 0
-0.0388547853, 0.0190897435, -9.804032   , 0.00374439242, 0.001432909 , 0.00119621481, 0.759405732 , 0.456982344 , 0.745223761 , -0.00125629921, -0.00346171553, -0.5444956  , 0.33        , 23          , 11          , 0.024258    , 0.0242579971
-0.0222277846, 0.014813846 , -9.817844   , -0.0004942154, 4.829814E-05, 0.0008894056, 0.760091066 , 0.456973046 , 0.744078338 , -0.00126127212, -0.00346122077, -0.544486761, 0.34        , 23          , 12          , 0.0347559527, 0
-0.0319403559, 0.02710925  , -9.809294   , -0.000204419717, 0.0006230615, -0.000521637441, 0.759413242 , 0.457397968 , 0.743227363 , -0.001263298, -0.00345499627, -0.544491768, 0.35        , 23          , 50          , 0           , 0
-0.0490377247, 0.00351805612, -9.805618   , 0.00117485877, -0.003073144, -0.0008501793, 0.75980705  , 0.457265168 , 0.746079    , -0.00125151989, -0.0034857383, -0.544500351, 0.36        , 23          , 11          , 0.024258    , 0.0242579971
-0.0247338358, 0.00432829  , -9.794555   , -0.005001604, 8.79136642E-05, 3.27377747E-05, 0.7602258   , 0.457253844 , 0.743935943 , -0.00130153738, -0.003484859, -0.5445001  , 0.37        , 23          , 12          , 0.0347559527, 0
-0.03321847 , 0.0042254515, -9.820746   , -0.00078257767, -0.00135255838, -0.0013985323, 0.7602258   , 0.457253844 , 0.743935943 , -0.00130931439, -0.003498403, -0.544513941, 0.38        , 23          , 50          , 0           , 0
-0.0247757155, 0.0260162223, -9.80157852 , -0.0004859936, 0.0003491763, -0.00166040682, 0.7591418   , 0.456697434 , 0.7440824   , -0.00131411618, -0.003494933, -0.54453063 , 0.39        , 23          , 11          , 0.024258    , 0.0242579971
-0.0272955745, 0.0103202183, -9.806233   , 0.003980699 , 0.004324328 , 0.000381565042, 0.7598095   , 0.4571229   , 0.745793    , -0.00193419377, -0.00297544082, -0.5445249  , 0.4         , 23          , 12          , 0.034898486 , 0
-0.0388963334, -0.008836718, -9.806963   , 0.002840831 , 0.00235868362, -0.00134715345, 0.760499954 , 0.4571097   , 0.743648469 , -0.00190574559, -0.00295188045, -0.54453826 , 0.41        , 23          , 50          , 0           , 0
-0.0255175848, 0.008505571 , -9.80938    , 0.00284396484, 0.0031981715, 0.000365854328, 0.7591274   , 0.457410544 , 0.745940566 , -0.00187731616, -0.00291989185, -0.5445349  , 0.42        , 23          , 11          , 0.0222208779, 0.0222208742
-0.0287537035, 0.004481991 , -9.805397   , 0.00286171655, 0.0051875934, -0.00017649513, 0.7591274   , 0.457410544 , 0.745940566 , -0.00184869335, -0.00286801928, -0.5445366  , 0.43        , 23          , 12          , 0.034898486 , 0
-0.024750242, -2.53822673E-05, -9.816193   , 0.002534588 , -0.0002016745, 3.88180633E-05, 0.760899246 , 0.457253575 , 0.745074034 , -0.00182334892, -0.00287003536, -0.544536352, 0.44        , 23          , 50          , 0           , 0
-0.04777056 , 0.0233555418, -9.809492   , -0.0005108945, 0.00634762552, -0.000166320882, 0.7596867   , 0.45725432  , 0.743082643 , -0.00182845234, -0.00280656223, -0.544538   , 0.45        , 23          , 11          , 0.0222208779, 0.0222208742
-0.0364223123, 0.0024358118, -9.814044   , -0.0005282543, 0.00463611865, 0.00123074162, 0.7592702   , 0.457263917 , 0.744797468 , -0.00183376891, -0.00276017841, -0.544525862, 0.46        , 23          , 12          , 0.034898486 , 0
-0.02027188 , 0.00285224244, -9.78912    , -0.00335038221, 0.00381588959, -0.000202015988, 0.7592702   , 0.457263917 , 0.744797468 , -0.0018672673, -0.00272202352, -0.544527769, 0.47        , 23          , 50          , 0           , 0
-0.0257234015, 0.0207437016, -9.818282   , -0.0008352812, 0.0015199295, 0.000907287 , 0.7603602   , 0.457254022 , 0.7442207   , -0.00187564455, -0.002706807, -0.5445187  , 0.48        , 23          , 11          , 0.0222208779, 0.0222208742
-0.0507861078, 0.00756029366, -9.798853   , -0.00450421637, 0.000702224264, 4.09122949E-05, 0.759412169 , 0.457117915 , 0.7437972   , -0.00192068832, -0.00269978424, -0.5445185  , 0.49        , 23          , 12          , 0.034898486 , 0
-0.0293544419, -0.0044959  , -9.809076   , -0.00318153482, 0.0008690424, -0.00165402621, 0.7599448   , 0.4569819   , 0.7460772   , -0.0008987724, -0.00496779568, -0.544540167, 0.5         , 23          , 50          , 0           , 0
-0.0242610238, 0.00264736079, -9.813014   , 0.00216300227, -3.17211379E-05, -0.00023964436, 0.7603663   , 0.457108945 , 0.7432211   , -0.000877130544, -0.004968114, -0.544542551, 0.51        , 23          , 11          , 0.0159766283, 0.01597665
-0.03321828 , 0.03334825  , -9.795756   , -0.0006703491, -0.00143839885, 0.00115753955, 0.7603663   , 0.457108945 , 0.7432211   , -0.000883891655, -0.004982488, -0.5445311  , 0.52        , 23          , 12          , 0.03509634  , 0
-0.0244354755, -0.004670021, -9.797776   , 0.004144847 , 0.000810168451, -0.00107760879, 0.7592739   , 0.457261115 , 0.7440839   , -0.00084238936, -0.004974396, -0.544541836, 0.53        , 23          , 50          , 0           , 0
-0.037437018, -0.004721569, -9.819064   , -0.00148674392, 0.00169774087, -0.00022265283, 0.7602125   , 0.457263976 , 0.7465049   , -0.000857245759, -0.00495742075, -0.544544   , 0.54        , 23          , 11          , 0.0159766283, 0.01597665
-0.04991415 , 0.00272926874, -9.819134   , -8.18801345E-05, 0.00139775791, 0.000626627065, 0.7599523   , 0.457397521 , 0.7440808   , -0.000858095242, -0.00494343741, -0.5445378  , 0.55        , 23          , 12          , 0.03509634  , 0
-0.05883246 , 0.00871496648, -9.812879   , -0.00179390248, -0.001972367, -0.00253924425, 0.759543061 , 0.456980258 , 0.7449376   , -0.0008759088, -0.004963184, -0.5445633  , 0.56        , 23          , 50          , 0           , 0
-0.0311877318, 0.0185433961, -9.811156   , -0.00291679986, -0.00112058327, -0.00139504112, 0.759543061 , 0.456980258 , 0.7449376   , -0.0009050076, -0.004974401, -0.5445771  , 0.57        , 23          , 11          , 0.0159766283, 0.01597665
-0.0249395128, 0.0182926618, -9.792643   , 0.00528301857, 0.00249407021, 0.0003638178, 0.760223    , 0.456694275 , 0.7452182   , -0.0008521953, -0.004949458, -0.544573545, 0.58        , 23          , 12          , 0.03509634  , 0
-0.03878372 , 0.0214156862, -9.81436348 , 0.0047072107, 0.000802107039, -0.0005094957, 0.7594118   , 0.4578203   , 0.742943645 , -0.000805098156, -0.00494144 , -0.544578552, 0.59        , 23          , 50          , 0           , 0
-0.02893393 , 0.0189382061, -9.80933    , -0.00264726649, -0.001123389, -0.000259801542, 0.759673357 , 0.457264423 , 0.7456516   , -0.0008422711, -0.004944976, -0.5445812  , 0.6         , 23          , 11          , 0.00467880163, 0.00467876252
-0.0252381563, 0.0238384865, -9.81105    , -0.00379339978, -0.00338417175, -0.000289838819, 0.759673357 , 0.457264423 , 0.7456516   , -0.000880190637, -0.00497881975, -0.544584036, 0.61        , 23          , 12          , 0.03534817  , 0
-0.0343809761, 0.0154844578, -9.816166   , 0.001599694 , 0.001116018 , -0.0005096684, 0.7605059   , 0.4571052   , 0.742506742 , -0.0008641682, -0.004967665, -0.5445893  , 0.62        , 23          , 50          , 0           , 0
-0.01709219 , 0.00372165232, -9.79313    , 0.00415304024, 0.00336047378, 0.0003732305, 0.758857667 , 0.45755136  , 0.745371759 , -0.000822656, -0.004934057, -0.544585466, 0.63        , 23          , 11          , 0.00467880163, 0.00467876252
-0.03180991 , 0.009083177 , -9.810341   , -0.00123365712, -0.000290659926, 0.000887515431, 0.7604844   , 0.457121462 , 0.7466456   , -0.0008350363, -0.00493695633, -0.544576645, 0.64        , 23          , 12          , 0.03534817  , 0
-0.03575719 , 0.0137237981, -9.818445   , -0.003775648, -0.00139474962, -0.0008321883, 0.7603609   , 0.457253456 , 0.744078    , -0.0008727516, -0.00495091034, -0.544585   , 0.65        , 23          , 50          , 0           , 0
-0.04289461 , 0.02049055  , -9.800014   , -0.00236530043, -0.000571587938, 0.00173368107, 0.7603609   , 0.457253456 , 0.744078    , -0.0008964905, -0.00495661143, -0.5445676  , 0.66        , 23          , 11          , 0.00467880163, 0.00467876252
-0.03280162 , 0.00500064343, -9.804085   , -0.00151653588, -0.0005683719, 0.000316166872, 0.7598211   , 0.45627144  , 0.7446479   , -0.0009116718, -0.0049622925, -0.5445645  , 0.67        , 23          , 12          , 0.03534817  , 0
-0.0252381172, 0.02427005  , -9.808348   , -0.00349407364, -0.00112086453, 0.00030658138, 0.760352135 , 0.4566984   , 0.7465019   , -0.0009466278, -0.00497349771, -0.544561148, 0.68        , 23          , 50          , 0           , 0
-0.03359181 , 0.012182978 , -9.797734   , 0.0007629377, 0.00225508143, -0.000212669431, 0.7598189   , 0.4572562   , 0.7437955   , -0.0009389875, -0.00495094946, -0.544563532, 0.69        , 23          , 11          , 0.00467880163, 0.00467876252
-0.0316905081, 0.01368112  , -9.823352   , 0.00210902654, -0.000103888728, 4.09249E-05 , 0.759678245 , 0.456979871 , 0.7450796   , -0.0009493424, -0.00479475642, -0.544563055, 0.7         , 23          , 12          , 0.0356524177, 0
-0.0258910917, 0.0143053038, -9.799886   , 0.0026924042, 0.00188703951, -0.00135186373, 0.759678245 , 0.456979871 , 0.7450796   , -0.000922353647, -0.004775899, -0.5445764  , 0.71        , 23          , 50          , 0           , 0
-0.0276533253, 0.0127055347, -9.823769   , 0.00128662772, 0.00246111117, -0.0007790099, 0.760354042 , 0.45739913  , 0.745220244 , -0.00090945 , -0.00475129625, -0.5445845  , 0.72        , 23          , 11          , 0.00493639056, 0.00493634958
-0.0346321  , 0.002807524 , -9.807723   , -0.00044183823, -0.00151077006, 0.00115474442, 0.7596818   , 0.4575389   , 0.7436546   , -0.0009139236, -0.004766393, -0.5445726  , 0.73        , 23          , 12          , 0.0356524177, 0
-0.0296070371, 0.00806275  , -9.799526   , 0.00265324581, -0.002379288, 0.000296674261, 0.7596762   , 0.456840932 , 0.745649934 , -0.00088740536, -0.004790182, -0.544569731, 0.74        , 23          , 50          , 0           , 0
-0.027479602, 0.02735627  , -9.792594   , 0.00128388591, 0.00189953926, -0.00163730443, 0.7596762   , 0.456840932 , 0.745649934 , -0.0008744882, -0.004771201, -0.544585943, 0.75        , 23          , 11          , 0.00493639056, 0.00493634958
-0.0546181165, 0.01549466  , -9.826729   , 0.0004248104, 0.00103578612, 0.00118801731, 0.760365546 , 0.4571095   , 0.743363857 , -0.000870296848, -0.004760833, -0.544574261, 0.76        , 23          , 12          , 0.0356524177, 0
-0.0496171  , -0.005840646, -9.819201   , 0.003828879 , 0.0032891985, -0.000197729649, 0.75913775  , 0.457402676 , 0.74394244  , -0.0008319988, -0.0047279424, -0.544576168, 0.77        , 23          , 50          , 0           , 0
-0.0147660151, 0.00601402763, -9.804787   , 0.00159300189, 0.00557538774, -0.000171844717, 0.7600751   , 0.457266033 , 0.7467911   , -0.0008160605, -0.00467219064, -0.5445781  , 0.78        , 23          , 11          , 0.00493639056, 0.00493634958
-0.0287739076, 0.00270817056, -9.809462   , -0.000958254852, 0.00389058958, 8.726164E-05, 0.7603627   , 0.4565499   , 0.7446461   , -0.000825646741, -0.004633284, -0.5445771  , 0.79        , 23          , 12          , 0.0356524177, 0
-0.05172157 , 0.004474126 , -9.806089   , -0.0009960313, -0.002583618, -0.00112998649, 0.7603627   , 0.4565499   , 0.7446461   , -0.000826258445, -0.00463037146, -0.5445883  , 0.8         , 23          , 50          , 0           , 0
-0.03624363 , 0.0123520773, -9.814411   , 0.000419535558, -0.00174514833, -0.000833800936, 0.7595468   , 0.456977457 , 0.744224    , -0.000822024536, -0.00464782957, -0.5445969  , 0.81        , 23          , 11          , 0.00524317566, 0.00524315238
-0.0275724623, 0.0202324186, -9.804806   , -0.00578956027, -0.00283128233, -0.0011394507, 0.7598139   , 0.457119524 , 0.744936645 , -0.0008798672, -0.004676152, -0.5446081  , 0.82        , 23          , 12          , 0.03600735  , 0
-0.043217022, 0.00289830938, -9.79746151 , -0.00266562961, -0.000294009456, -0.0022382515, 0.7602204   , 0.457398385 , 0.7447929   , -0.00090641866, -0.004679112, -0.5446305  , 0.83        , 23          , 50          , 0           , 0
-0.02224774 , 0.0160609446, -9.802984   , -0.006080009, -0.00340795936, 0.000555302948, 0.7594085   , 0.457120717 , 0.74451077  , -0.0009672449, -0.00471318653, -0.544625044, 0.84        , 23          , 11          , 0.00524317566, 0.00524315238
-0.0239439979, 0.019795347 , -9.81647    , -0.00295203086, -0.000305286929, -0.000252623955, 0.7594085   , 0.457120717 , 0.74451077  , -0.0009967535, -0.00471624173, -0.5446274  , 0.85        , 23          , 12          , 0.03600735  , 0
-0.0281019863, 0.0153066991, -9.808001   , -0.001235181, 0.00280223018, -0.000211149687, 0.7602186   , 0.4571189   , 0.745505333 , -0.00100909546, -0.0046882215, -0.5446296  , 0.86        , 23          , 50          , 0           , 0
-0.0228306968, 0.011871445 , -9.782773   , -0.002942633, 0.000829338562, -0.000238297391, 0.759547651 , 0.457398146 , 0.7435121   , -0.00103851059, -0.0046799304, -0.544631958, 0.87        , 23          , 11          , 0.00524317566, 0.00524315238
-0.0364100225, 0.00548529066, -9.79917    , -0.00551842945, -0.003971852, -0.0005860101, 0.760214448 , 0.457402885 , 0.745934665 , -0.00109366723, -0.004719655, -0.5446379  , 0.88        , 23          , 12          , 0.03600735  , 0
-0.0471171662, 0.0115340129, -9.796982   , -0.00321428757, 0.00113807456, -0.00363958767, 0.760214448 , 0.457402885 , 0.745934665 , -0.00112563884, -0.00470831431, -0.544674158, 0.89        , 23          , 50          , 0           , 0
-0.0309486073, 0.0316233337, -9.812847   , 0.000706891064, -6.272839E-05, -0.0005282305, 0.7603587   , 0.457255155 , 0.7445061   , -0.00112400309, -0.00471961871, -0.5446794  , 0.9         , 23          , 11          , 0.00599135226, 0.005991331
-0.0247787535, 0.02169428  , -9.827715   , -0.00323134568, 0.0010957974, 0.000332383177, 0.759814262 , 0.457400173 , 0.744509637 , -0.0011563322, -0.004708656, -0.544676065, 0.91        , 23          , 12          , 0.0364110842, 0
-0.0354559422, 0.00732119335, -9.806344   , -0.00296870014, -0.00145348685, -0.0005506371, 0.75993675  , 0.457409322 , 0.7470779   , -0.001185993, -0.00472319825, -0.544681549, 0.92        , 23          , 50          , 0           , 0
-0.0320814438, 0.0190080516, -9.810713   , 0.00100086513, 0.00163135235, 0.0003447369, 0.7598152   , 0.457259    , 0.7445091   , -0.00117600057, -0.00470688 , -0.5446782  , 0.93        , 23          , 11          , 0.00599135226, 0.005991331
-0.0222493876, 0.0391387269, -9.815394   , 0.002112015 , -0.000638713362, -0.0008173742, 0.7598152   , 0.457259    , 0.7445091   , -0.00115484209, -0.0047132764, -0.5446863  , 0.94        , 23          , 12          , 0.0364110842, 0
-0.0380339772, 0.03721913  , -9.820075   , 0.00127225637, 0.00021478023, -0.0002402463, 0.7592687   , 0.457265049 , 0.7450829   , -0.00114210835, -0.004711131, -0.5446887  , 0.95        , 23          , 50          , 0           , 0
-0.0458557867, 0.0261800867, -9.831499   , -0.00184541044, -0.00202735513, -0.0008401268, 0.7600796   , 0.456700832 , 0.746646166 , -0.00116052292, -0.004731415, -0.544697046, 0.96        , 23          , 11          , 0.00599135226, 0.005991331
-0.0303423479, 0.0158067271, -9.80892    , 0.000424144237, 0.000213477644, 0.000893557444, 0.7599557   , 0.4571141   , 0.7437942   , -0.00115632359, -0.00472926954, -0.544688   , 0.97        , 23          , 12          , 0.0364110842, 0
-0.0411556624, 0.0155629758, -9.809036   , -0.0007142877, -0.00119442213, 0.0005905547, 0.7596777   , 0.45683983  , 0.7453645   , -0.00116349442, -0.00474120677, -0.544682264, 0.98        , 23          , 50          , 0           , 0
-0.0451283827, 0.01971176  , -9.811294   , 0.0009767169, -0.00120712514, 0.0005926308, 0.7596777   , 0.45683983  , 0.7453645   , -0.00115375558, -0.004753271, -0.5446763  , 0.99        , 23          , 11          , 0.00599135226, 0.005991331
-0.0337157138, 0.0284986775, -9.80975151 , -0.000146655191, 0.002215668 , -0.00021677422, 0.7598152   , 0.457259    , 0.7445091   , -0.00117428484, -0.00472769141, -0.54467845 , 1           , 23          , 12          , 0.03686163  , 0
-0.02781567 , 0.00627983  , -9.807173   , 0.00183962844, 0.003900872 , 9.084834E-05, 0.7596811   , 0.457539469 , 0.743797362 , -0.001155893, -0.00468868064, -0.5446775  , 1.01        , 23          , 50          , 0           , 0
-0.0270028189, -0.001711702, -9.82658    , 0.005459483 , -0.00151420909, -0.000256415078, 0.759402752 , 0.45698458  , 0.745794654 , -0.0011012865, -0.004703825, -0.5446801  , 1.02        , 23          , 11          , 0.00656709261, 0.006567088
-0.038512364, 0.009333007 , -9.82751    , -0.00269974116, -0.0003047903, -0.002238097, 0.759402752 , 0.45698458  , 0.745794654 , -0.00112817809, -0.004706898, -0.54470253 , 1.03        , 23          , 12          , 0.03686163  , 0
-0.026877638, 0.008077658 , -9.808948   , -0.0015977259, -0.00260164565, 0.000571739045, 0.761048257 , 0.456400067 , 0.7436427   , -0.00114418287, -0.00473290728, -0.544696569, 1.04        , 23          , 50          , 0           , 0
-0.023375297, 0.00259522442, -9.808055   , 0.002334507 , -0.00433131075, 0.000271383149, 0.758728445 , 0.457547247 , 0.744088    , -0.00112085091, -0.00477621751, -0.544693947, 1.05        , 23          , 11          , 0.00656709261, 0.006567088
-0.0334563553, 0.0168189984, -9.816145   , -0.00243226462, -0.0017328437, -0.001120817, 0.760209262 , 0.457406819 , 0.7469337   , -0.00114512013, -0.00479355827, -0.544705153, 1.06        , 23          , 12          , 0.03686163  , 0
-0.0362222642, 0.0119712744, -9.824313   , 0.00154330465, 0.00192313548, -0.000785700744, 0.7603564   , 0.457256824 , 0.744934261 , -0.00112964911, -0.00477433624, -0.544713   , 1.07        , 23          , 50          , 0           , 0
-0.03033299 , 0.01582893  , -9.812071   , 0.00377813634, -0.000642882544, -0.00138258806, 0.7603564   , 0.457256824 , 0.744934261 , -0.00109180156, -0.00478078 , -0.544726849, 1.08        , 23          , 11          , 0.00656709261, 0.006567088
-0.0302816667, -0.004973676, -9.802791   , -0.00124762591, 0.00479235267, -0.00245560752, 0.759542346 , 0.456980824 , 0.745080352 , -0.001104161, -0.004732884, -0.5447514  , 1.09        , 23          , 12          , 0.03686163  , 0
-0.0347799733, 0.0203607939, -9.80353    , 2.54387269E-05, 0.0018249054, 0.0006265152, 0.7600756   , 0.4574061   , 0.7465062   , -0.00096304313, -0.00457091676, -0.5447459  , 1.1         , 23          , 50          , 0           , 0
-0.0301849246, 0.0273984652, -9.791273   , 0.00202908227, 0.00522161555, -0.000462924771, 0.7599523   , 0.457397521 , 0.7440808   , -0.000942731451, -0.00451870449, -0.5447507  , 1.11        , 23          , 11          , 0.0074847294, 0.00748472149
-0.0335812122, 0.0109136794, -9.809445   , -0.00112278364, -0.0009955359, -0.000545527262, 0.759675264 , 0.4569821   , 0.7456505   , -0.000953934854, -0.00452866452, -0.5447562  , 1.12        , 23          , 12          , 0.03735691  , 0
-0.05036297 , 0.00360418856, -9.814181   , -0.00309118419, -0.000137400391, 0.0005976373, 0.759675264 , 0.4569821   , 0.7456505   , -0.0009848737, -0.004530033, -0.54475    , 1.13        , 23          , 50          , 0           , 0
-0.0290212631, 0.0139848329, -9.809821   , -0.00508516841, -0.002675488, 0.0005629803, 0.759946048 , 0.457121372 , 0.7456496   , -0.00103575143, -0.00455678161, -0.544744253, 1.14        , 23          , 11          , 0.0074847294, 0.00748472149
-0.0248898026, 0.0209993962, -9.79307    , 0.00533616543, -0.004156797, -0.00171180861, 0.7598196   , 0.457255632 , 0.743652761 , -0.0009823111, -0.004598368, -0.5447614  , 1.15        , 23          , 12          , 0.03735691  , 0
-0.035443794, 0.008644427 , -9.802283   , 0.002538058 , -0.00130862929, -0.0002609001, 0.759807765 , 0.4572646   , 0.745936334 , -0.0009569188, -0.004611456, -0.544764042, 1.16        , 23          , 50          , 0           , 0
-0.03370322 , 0.00717250444, -9.790127   , 0.00201459276, 0.00324176159, -0.00133912754, 0.759807765 , 0.4572646   , 0.745936334 , -0.000936711265, -0.0045790514, -0.5447774  , 1.17        , 23          , 11          , 0.0074847294, 0.00748472149
-0.0323889256, 0.0040400736, -9.796888   , -0.00280660763, 0.000422054436, 0.00145627814, 0.7600852   , 0.4573988   , 0.7446509   , -0.000964844, -0.00457481667, -0.54476285 , 1.18        , 23          , 12          , 0.03735691  , 0
-0.038758032, -0.00203656033, -9.812756   , 0.00170639239, 0.000675663 , 0.000897975231, 0.759542644 , 0.457261473 , 0.744653344 , -0.0009478211, -0.00456805155, -0.5447538  , 1.19        , 23          , 50          , 0           , 0
-0.02973633 , 0.0239341948, -9.812448   , -0.003892811, -0.000374328636, -0.002244256, 0.759940147 , 0.457125872 , 0.7467913   , -0.0009525852, -0.00455358624, -0.54477644 , 1.2         , 23          , 11          , 0.00816373248, 0.008163721
-0.0333661661, 0.0239365175, -9.803036   , 0.00177546008, 0.00355069037, -0.001619771, 0.7602276   , 0.4565503   , 0.744504035 , -0.000934756768, -0.00451809447, -0.544792652, 1.21        , 23          , 12          , 0.0378947929, 0
-0.0368388742, 0.00511311  , -9.809077   , 7.075048E-05, 0.002139371 , -0.000788624166, 0.7602276   , 0.4565503   , 0.744504035 , -0.0009340135, -0.00449670944, -0.5448005  , 1.22        , 23          , 50          , 0           , 0
-0.03027639 , -0.00582410768, -9.809997   , -0.00390768936, -0.00124826015, 0.00114952517, 0.759397149 , 0.457269728 , 0.7465094   , -0.00097314216, -0.00450918032, -0.5447891  , 1.23        , 23          , 11          , 0.00816373248, 0.008163721
-0.0217289459, 0.0205297172, -9.798891   , -0.00249708188, -0.0007011009, 0.00257697073, 0.760763168 , 0.457395136 , 0.7449326   , -0.0009982295, -0.004516166, -0.5447633  , 1.24        , 23          , 12          , 0.0378947929, 0
-0.0408737734, 0.0283128768, -9.827828   , -0.004989471, 0.00387559156, -0.00020594176, 0.7598098   , 0.457403541 , 0.745366    , -0.00104811473, -0.004477412, -0.5447655  , 1.25        , 23          , 50          , 0           , 0
-0.0255725328, 0.00708081946, -9.799043   , 0.00177898619, 0.004668094 , 0.000947949768, 0.759269    , 0.4565626   , 0.745936453 , -0.00103036687, -0.004430721, -0.544755936, 1.26        , 23          , 11          , 0.00816373248, 0.008163721
-0.0166258849, 0.00418267027, -9.795821   , -0.00391813228, -0.00266271527, 0.0005641959, 0.759269    , 0.4565626   , 0.745936453 , -0.001069573, -0.00445734244, -0.5447502  , 1.27        , 23          , 12          , 0.0378947929, 0
-0.0239294656, 0.0176724456, -9.834938   , -0.00223352364, -0.00352447364, 0.0002718167, 0.759949267 , 0.45697853  , 0.7452208   , -0.00109192042, -0.00449258368, -0.5447476  , 1.28        , 23          , 50          , 0           , 0
-0.0186447613, 0.0147004817, -9.811506   , -0.00274902745, 0.00160279742, -0.00221780036, 0.759954333 , 0.457536429 , 0.7435104   , -0.0011193112, -0.0044765803, -0.544769764, 1.29        , 23          , 11          , 0.00816373248, 0.008163721
-0.00489193154, 0.00618300354, -9.791631   , -0.0016705544, -0.001439175, 0.00086518476, 0.759804845 , 0.457266867 , 0.746507168 , -0.00115088711, -0.004390133, -0.544760942, 1.3         , 23          , 12          , 0.03847313  , 0
-0.02286876 , 0.004446093 , -9.816135   , -0.005295107, 0.00340859382, 0.001205285 , 0.759804845 , 0.457266867 , 0.746507168 , -0.00120389066, -0.004356033, -0.544749   , 1.31        , 23          , 50          , 0           , 0
-0.0284660812, -0.00497325137, -9.807722   , -0.00224557845, -0.00257530669, 0.00170129759, 0.7606297   , 0.4572538   , 0.7446474   , -0.00122642075, -0.00438176561, -0.544731855, 1.32        , 23          , 11          , 0.009085872 , 0.009085861
-0.0401462764, -0.003825767, -9.810985   , 0.000297845283, -0.00229731039, -0.000277979852, 0.7598152   , 0.457259    , 0.7445091   , -0.00122343015, -0.004404742, -0.5447347  , 1.33        , 23          , 12          , 0.03847313  , 0
-0.03594632 , 0.00680307532, -9.795553   , -0.000267780269, -0.00229881657, 0.0005724595, 0.760210037 , 0.457406253 , 0.746790946 , -0.00122613343, -0.00442772266, -0.544729   , 1.34        , 23          , 50          , 0           , 0
-0.0215138365, 0.00745067466, -9.798546   , -0.00164470938, 0.00168104551, 0.0009045828, 0.760224342 , 0.457254976 , 0.7442214   , -0.00124262029, -0.00441090157, -0.544719934, 1.35        , 23          , 11          , 0.009085872 , 0.009085861
-0.0261489432, 0.00118094869, -9.791897   , 0.00371039915, 0.00136481656, -0.000227266137, 0.760224342 , 0.457254976 , 0.7442214   , -0.00120550615, -0.00439725537, -0.5447221  , 1.36        , 23          , 12          , 0.03847313  , 0
-0.020118827, 0.01011887  , -9.797159   , 0.00144097628, -0.000322097767, 3.21862826E-05, 0.7594038   , 0.457264662 , 0.7452249   , -0.00119109789, -0.004400476, -0.544721842, 1.37        , 23          , 50          , 0           , 0
-0.0301916152, 0.0004175976, -9.800495   , -0.004780913, -0.003106343, -0.0008623743, 0.760077536 , 0.4571238   , 0.7465051   , -0.00123886892, -0.00443155 , -0.5447304  , 1.38        , 23          , 11          , 0.009085872 , 0.009085861
-0.0350166634, 0.03123127  , -9.810193   , -0.0002719588, -0.00341813359, -0.00171155087, 0.759821534 , 0.4569733   , 0.7436516   , -0.0012415126, -0.00446575368, -0.5447476  , 1.39        , 23          , 12          , 0.03847313  , 0
-0.05649006 , 0.0132031962, -9.816417   , 0.00385363563, -0.0039745383, -0.00142931158, 0.7599464   , 0.457402021 , 0.7452225   , -0.00130126148, -0.004460123, -0.5447612  , 1.4         , 23          , 50          , 0           , 0
-0.0275039375, -0.00268676318, -9.814893   , 0.005602075 , 0.003100341 , -0.00077027356, 0.7599464   , 0.457402021 , 0.7452225   , -0.00124520645, -0.004429129, -0.5447688  , 1.41        , 23          , 11          , 0.009960874 , 0.009960879
-0.0295132659, 0.0100110592, -9.8202095  , 0.00674559735, 0.0053534694, 0.00039460574, 0.7600847   , 0.457258731 , 0.744935751 , -0.00117776752, -0.00437558955, -0.544765   , 1.42        , 23          , 12          , 0.0390897579, 0
-0.03031137 , 0.0184690543, -9.803048   , -0.005404205, 0.00147905934, -0.000521548034, 0.7596724   , 0.4574056   , 0.7456522   , -0.00123178679, -0.00436080527, -0.54477    , 1.43        , 23          , 50          , 0           , 0
-0.0177481174, 0.0172630847, -9.793925   , -0.00116899284, 0.00230018445, -0.0007893232, 0.759672642 , 0.457265    , 0.7457943   , -0.00124344206, -0.00433781371, -0.5447781  , 1.44        , 23          , 11          , 0.009960874 , 0.009960879
-0.03772424 , 0.009480845 , -9.787      , 0.00135472184, 0.0005830182, -0.00137511943, 0.759672642 , 0.457265    , 0.7457943   , -0.00122983556, -0.004332001, -0.544791937, 1.45        , 23          , 12          , 0.0390897579, 0
-0.032735832, 0.008177011 , -9.807208   , -0.00484588929, 0.00090559863, -0.000244308729, 0.761320353 , 0.456678778 , 0.7432142   , -0.00127828389, -0.00432294747, -0.5447943  , 1.46        , 23          , 50          , 0           , 0
-0.0426489264, 0.005326668 , -9.823536   , -0.00539010763, 0.003180998 , -0.0005000581, 0.7585805   , 0.4576978   , 0.746230066 , -0.00133216335, -0.004291144, -0.5447993  , 1.47        , 23          , 11          , 0.009960874 , 0.009960879
-0.03635627 , 0.008633106 , -9.798243   , -0.00627764268, -0.0021944684, -0.00170398934, 0.7603422   , 0.4574081   , 0.747503757 , -0.00139486638, -0.00431311224, -0.544816256, 1.48        , 23          , 12          , 0.0390897579, 0
-0.03654146 , 0.000858791231, -9.782107   , -0.004591206, -0.00222056615, 0.000284060166, 0.7602245   , 0.4571144   , 0.7443636   , -0.00144079083, -0.00433531357, -0.5448134  , 1.49        , 23          , 50          , 0           , 0
-0.0425478481, 0.0146273654, -9.8005085  , -0.00143947278, -0.00165740075, 0.0005785421, 0.7602245   , 0.4571144   , 0.7443636   , -0.00140272849, -0.004328614, -0.5448079  , 1.5         , 23          , 11          , 0.0107550677, 0.01075507
-0.0440021977, 0.03274274  , -9.80847549 , 0.00308893039, 0.0003019732, -0.0005256918, 0.759406447 , 0.456981778 , 0.745081067 , -0.00137181662, -0.00432560174, -0.544813156, 1.51        , 23          , 12          , 0.039742548 , 0
-0.0211848654, -0.00320091285, -9.82293    , 0.000261322362, -0.000257562235, 0.001449658 , 0.7600811   , 0.456699729 , 0.7463607   , -0.00136926572, -0.00432815729, -0.5447986  , 1.52        , 23          , 50          , 0           , 0
-0.0342693254, -0.00344914966, -9.81632    , 0.00110865023, -0.0008120914, -0.00139357185, 0.7595435   , 0.457682133 , 0.743941367 , -0.00135811907, -0.004336297, -0.5448127  , 1.53        , 23          , 11          , 0.0107550677, 0.01075507
-0.0454399548, 0.00387114286, -9.801528   , -0.000850351353, 0.00118066953, -0.00023608077, 0.759539366 , 0.45698306  , 0.745651245 , -0.00136661215, -0.004324494, -0.544815063, 1.54        , 23          , 12          , 0.039742548 , 0
-0.03334871 , 0.02484088  , -9.803477   , -1.71503052E-06, 0.002013806 , 0.001477965 , 0.759539366 , 0.45698306  , 0.745651245 , -0.00136669283, -0.00430433545, -0.5448003  , 1.55        , 23          , 50          , 0           , 0
-0.04278345 , 0.0224800967, -9.826547   , -0.0005994538, -0.002786897, -0.00113700936, 0.7604954   , 0.4566918   , 0.745074034 , -0.00137263874, -0.00433221972, -0.5448115  , 1.56        , 23          , 11          , 0.0107550677, 0.01075507
-0.0358428657, 0.0126576358, -9.79505348 , 0.00309597887, 0.00115294242, -0.0005149468, 0.759818137 , 0.457256734 , 0.7439382   , -0.00134165667, -0.00432069832, -0.544816732, 1.57        , 23          , 12          , 0.039742548 , 0
-0.0192918573, -0.0157431774, -9.775763   , 0.00139192119, -0.000256463361, 3.24897264E-05, 0.7598035   , 0.457689226 , 0.7462234   , -0.0013277391, -0.00432326226, -0.544816256, 1.58        , 23          , 50          , 0           , 0
-0.0201162621, 0.008830529 , -9.80617    , -0.00313948374, -0.00250140741, 0.00141685246, 0.7598035   , 0.457689226 , 0.7462234   , -0.00135919556, -0.004348257, -0.5448022  , 1.59        , 23          , 11          , 0.0107550677, 0.01075507
-0.01809108 , 0.0205464233, -9.811003   , -2.06186087E-06, -0.00261288276, 0.000849696458, 0.7602211   , 0.457397848 , 0.7446502   , -0.00131356367, -0.004145596, -0.544793844, 1.6         , 23          , 12          , 0.0404294   , 0
-0.0353684239, 0.0144323613, -9.792335   , 0.000346604676, 0.0056072087, 0.00152133114, 0.7594075   , 0.45726186  , 0.7445113   , -0.0013101598, -0.004089504, -0.5447786  , 1.61        , 23          , 50          , 0           , 0
-0.03189706 , 0.00628760643, -9.797316   , -0.001391263, -0.000883136468, -0.00168393808, 0.759938657 , 0.457127    , 0.74707675  , -0.00132400345, -0.004098358, -0.5447955  , 1.62        , 23          , 11          , 0.011588634 , 0.0115886405
-0.0235824436, 0.041795183 , -9.805036   , 0.00255989819, 0.000210367478, 3.749576E-05, 0.7599557   , 0.4571141   , 0.7437942   , -0.00129840616, -0.004096254, -0.5447953  , 1.63        , 23          , 12          , 0.0404294   , 0
-0.0262207948, 0.0163256824, -9.829573   , 0.00174885488, 0.003915733 , -0.00161924388, 0.7599557   , 0.4571141   , 0.7437942   , -0.00128085143, -0.004057118, -0.5448115  , 1.64        , 23          , 50          , 0           , 0
-0.0369384326, -0.00202661753, -9.81903648 , 0.00144496211, 0.00163903157, -0.000229690617, 0.758853257 , 0.457554728 , 0.746228039 , -0.00126639206, -0.00404073 , -0.544813633, 1.65        , 23          , 11          , 0.011588634 , 0.0115886405
-0.0413105562, 0.00225134  , -9.838398   , 0.00283925072, -0.00062932435, -0.00195887662, 0.761315167 , 0.4566827   , 0.7442132   , -0.00123792049, -0.00404704828, -0.5448332  , 1.66        , 23          , 12          , 0.0404294   , 0
-0.0281438176, 0.01089274  , -9.821089   , -0.00135184091, 0.004491027 , 0.000653796946, 0.759539247 , 0.4575449   , 0.7449398   , -0.001251465, -0.004002129, -0.544826746, 1.67        , 23          , 50          , 0           , 0
-0.0314898938, 0.00315654487, -9.801837   , -0.0005349255, 0.000802882656, -0.000242857757, 0.759947956 , 0.456839025 , 0.745648444 , -0.00125680445, -0.00399410352, -0.54482913 , 1.68        , 23          , 11          , 0.011588634 , 0.0115886405
-0.0182817671, 0.0110331783, -9.803884   , 0.000564608432, -0.00233154721, 0.000570259639, 0.759947956 , 0.456839025 , 0.745648444 , -0.00125118147, -0.00401741173, -0.5448234  , 1.69        , 23          , 12          , 0.0404294   , 0
-0.03733732 , 0.00414440036, -9.798289   , 0.000577112543, -0.00347405765, -0.0037030864, 0.7600862   , 0.457257628 , 0.744650364 , -0.00122673193, -0.00373491435, -0.5448606  , 1.7         , 23          , 50          , 0           , 0
-0.0301379021, 0.00313385949, -9.802272   , -0.000524507137, 0.000484551536, -0.000533511746, 0.7596787   , 0.458102971 , 0.7435142   , -0.00123195723, -0.00373007543, -0.544865847, 1.71        , 23          , 11          , 0.0119996937, 0.0119996946
-0.03774094 , 0.00167469122, -9.830265   , 0.0006162743, 0.00217610761, -0.0002269273, 0.760213435 , 0.457122833 , 0.746504366 , -0.00122578559, -0.00370831718, -0.544868231, 1.72        , 23          , 12          , 0.04114827  , 0
-0.0419850647, 0.0174745917, -9.82208    , -0.00333410245, 0.00163843541, -0.000238934968, 0.760213435 , 0.457122833 , 0.746504366 , -0.0012591175, -0.003691936, -0.5448706  , 1.73        , 23          , 50          , 0           , 0
-0.03562677 , 0.022231169 , -9.810724   , 0.003438922 , 0.0024443327, -0.00107101689, 0.76022625  , 0.456972659 , 0.7442203   , -0.0012246886, -0.00366750569, -0.544881344, 1.74        , 23          , 11          , 0.0119996937, 0.0119996946
-0.03913702 , 0.0289892443, -9.800804   , 0.004555556 , 0.00129741128, -0.000516538334, 0.759409    , 0.457260728 , 0.74422586  , -0.001179114, -0.00365453865, -0.5448866  , 1.75        , 23          , 12          , 0.04114827  , 0
-0.0253736041, 0.0192024671, -9.79264    , 0.00119208242, 0.00386807113, 0.000646386063, 0.7600724   , 0.457548916 , 0.746935    , -0.00116721622, -0.00361584942, -0.544880152, 1.76        , 23          , 50          , 0           , 0
-0.0285806227, 0.0113646435, -9.822888   , 0.00118842791, 0.00358058768, 0.0012102254, 0.759953141 , 0.456835121 , 0.7446494   , -0.00115537539, -0.00358003052, -0.544868   , 1.77        , 23          , 11          , 0.0119996937, 0.0119996946
-0.02896234 , 0.0149875376, -9.824213   , 0.000584685244, -0.00179125532, -0.0008444913, 0.759953141 , 0.456835121 , 0.7446494   , -0.00114949816, -0.003597952, -0.544876337, 1.78        , 23          , 12          , 0.04114827  , 0
-0.0374984369, -0.00357282534, -9.790255   , 0.00401538331, 0.00413821  , -0.000481413939, 0.7595403   , 0.4568419   , 0.745650649 , -0.001109327, -0.00355657563, -0.544881344, 1.79        , 23          , 50          , 0           , 0
-0.0431931466, 0.0273310617, -9.810312   , 0.00352743152, 0.00186377729, -0.00164602406, 0.7599392   , 0.457267016 , 0.74679184  , -0.000947615, -0.00356140663, -0.5448983  , 1.8         , 23          , 11          , 0.0120151993, 0.0120152012
-0.020175606, 0.0296141021, -9.81275    , -0.00242188922, -0.00150329294, -0.0005614286, 0.759953    , 0.457396954 , 0.743938    , -0.000971813861, -0.003576445, -0.544903755, 1.81        , 23          , 12          , 0.0418971926, 0
-0.0128280632, 0.0140712224, -9.802001   , -0.00127915049, 0.00019400398, -0.00110597571, 0.7596751   , 0.457122743 , 0.7455083   , -0.0009845658, -0.00357451569, -0.544914961, 1.82        , 23          , 50          , 0           , 0
-0.0199187789, 0.0196543336, -9.807429   , 0.00381814316, 0.00354829035, 0.000645495544, 0.7596751   , 0.457122743 , 0.7455083   , -0.000946407439, -0.00353902648, -0.5449085  , 1.83        , 23          , 11          , 0.0120151993, 0.0120152012
-0.02957373 , 0.03338082  , -9.810118   , -0.00293308264, 0.005297214 , 0.00122610165, 0.760226548 , 0.4572533   , 0.743793249 , -0.000975781237, -0.00348604214, -0.5448961  , 1.84        , 23          , 12          , 0.0418971926, 0
-0.0399476066, 0.005274961 , -9.823509   , -0.0006879398, 0.00359173282, -0.000778593356, 0.7589915   , 0.4574115   , 0.745941341 , -0.0009826336, -0.00345013337, -0.544904   , 1.85        , 23          , 50          , 0           , 0
-0.0133926589, 0.005610535 , -9.815125   , -0.008370167, -0.004590533, 0.00109416957, 0.7598114   , 0.456840545 , 0.7457919   , -0.00106637343, -0.00349602755, -0.544893   , 1.86        , 23          , 11          , 0.0120151993, 0.0120152012
-0.0364680439, -0.000692971051, -9.817671   , -0.00383171253, -0.00149462069, -0.000279448257, 0.7598114   , 0.456840545 , 0.7457919   , -0.00110468082, -0.00351097621, -0.5448959  , 1.87        , 23          , 12          , 0.0418971926, 0
-0.05536642 , 0.0009890739, -9.813355   , 0.002973686 , 0.003834471 , 0.00121546  , 0.7609043   , 0.456828415 , 0.7446442   , -0.0010749863, -0.003472618, -0.5448837  , 1.88        , 23          , 50          , 0           , 0
-0.0509472974, -0.00102004036, -9.796226   , -0.000424117956, 0.00187619613, 0.000902525731, 0.7594051   , 0.457404137 , 0.7447973   , -0.00107925874, -0.003453847, -0.5448749  , 1.89        , 23          , 11          , 0.0120151993, 0.0120152012
-0.0441271663, 0.0255427379, -9.809886   , 2.8301014E-05, -0.000970566, 0.00172061962, 0.7599394   , 0.457126439 , 0.746934056 , -0.000794828753, -0.0038830745, -0.5448587  , 1.9         , 23          , 12          , 0.04267425  , 0
-0.0429872945, 0.0155244842, -9.798706   , -0.0008329959, -0.00294789579, 0.00141079945, 0.7602255   , 0.456973225 , 0.74436307  , -0.0008032139, -0.003912542, -0.5448444  , 1.91        , 23          , 50          , 0           , 0
-0.0428231247, 0.00103021227, -9.789372   , 0.00626950664, 0.00353092584, 0.000366986176, 0.7602255   , 0.456973225 , 0.74436307  , -0.000740533054, -0.00387723 , -0.5448408  , 1.92        , 23          , 11          , 0.0123881251, 0.0123881232
-0.009411691, 0.0040701516, -9.799347   , -0.000795663, 0.00186660909, 0.00260652928, 0.7591342   , 0.456843644 , 0.745367467 , -0.000748590566, -0.0038585444, -0.5448148  , 1.93        , 23          , 12          , 0.04267425  , 0
-0.005891038, 0.02041841  , -9.82572651 , -0.00333739351, 0.000486516772, -0.00025159787, 0.7606199   , 0.457401723 , 0.7463606   , -0.000781954557, -0.003853681, -0.5448172  , 1.94        , 23          , 50          , 0           , 0
-0.0160105769, 0.0114692282, -9.807906   , -0.00107084075, 0.00244178  , 0.00176221516, 0.7600894   , 0.4571148   , 0.744221568 , -0.0007927305, -0.00382924941, -0.544799566, 1.95        , 23          , 11          , 0.0123881251, 0.0123881232
-0.0340127423, 0.0105351564, -9.818453   , -0.00222115219, -0.0009383204, -0.0005518325, 0.759402454 , 0.456703961 , 0.746221662 , -0.000814920932, -0.00383863668, -0.5448053  , 1.96        , 23          , 12          , 0.04267425  , 0
-0.0226456858, 0.01748797  , -9.812427   , -0.000818246044, -0.00124404381, 0.001148579 , 0.759402454 , 0.456703961 , 0.746221662 , -0.0008231477, -0.00385106774, -0.5447936  , 1.97        , 23          , 50          , 0           , 0
-0.0156973228, 0.00466361456, -9.802558   , 0.0050911326, -0.00269913254, 3.09535835E-06, 0.760221362 , 0.4572572   , 0.7447923   , -0.0007722365, -0.003878059, -0.5447936  , 1.98        , 23          , 11          , 0.0123881251, 0.0123881232
-0.0389647521, 0.0153771266, -9.788764   , -0.000258495973, -0.002643598, -0.002273163, 0.759686053 , 0.456693053 , 0.7439367   , -0.0007747333, -0.00390451285, -0.544816256, 1.99        , 23          , 12          , 0.04267425  , 0
-0.02336755 , 0.0261267833, -9.820912   , 3.32039635E-05, 0.00329434383, -0.00021148588, 0.759805262 , 0.456985652 , 0.7467915   , -0.000828772, -0.0038767634, -0.544818163, 2           , 23          , 50          , 0           , 0
-0.0242627077, 0.0252935831, -9.82813    , -0.00249978062, 0.00304696383, -0.00277157617, 0.759805262 , 0.456985652 , 0.7467915   , -0.000853662554, -0.00384631683, -0.544846058, 2.01        , 23          , 11          , 0.0115887495, 0.0115887485
-0.03528142 , 0.015501691 , -9.816175   , -0.00310064969, -0.00120938825, -0.00197486137, 0.760085464 , 0.457258165 , 0.744793057 , -0.000884593057, -0.00385842868, -0.544865847, 2.02        , 23          , 12          , 0.04347763  , 0
-0.02513442 , 0.00618053228, -9.800395   , 0.00508233  , 0.000141754776, -0.001095787, 0.75940907  , 0.4566989   , 0.7449372   , -0.000833727536, -0.00385702 , -0.5448768  , 2.03        , 23          , 50          , 0           , 0
-0.03290111 , -0.00127596408, -9.808638   , -0.001728548, -0.0049266424, 0.000817412045, 0.760079861 , 0.456560224 , 0.7467883   , -0.000851044839, -0.00390627934, -0.544868469, 2.04        , 23          , 11          , 0.0115887495, 0.0115887485
-0.0381224081, 0.008318506 , -9.812664   , 0.00140543387, -0.001252831, -0.0005507726, 0.760219157 , 0.4572589   , 0.7452204   , -0.0008369691, -0.00391881354, -0.544873953, 2.05        , 23          , 12          , 0.04347763  , 0
-0.04289349 , 0.01790436  , -9.816685   , -0.001402072, 0.0004607116, 0.000885809364, 0.760219157 , 0.4572589   , 0.7452204   , -0.000851024466, -0.003914198, -0.544865131, 2.06        , 23          , 50          , 0           , 0
-0.026943462, 0.004469728 , -9.808529   , -0.00222512358, 0.00302379788, 0.000349585229, 0.7598081   , 0.457545251 , 0.745509267 , -0.0008732892, -0.0038839574, -0.544861555, 2.07        , 23          , 11          , 0.0115887495, 0.0115887485
-0.01593398 , 0.01596566  , -9.806519   , -0.00368533237, -0.003204143, -1.46516159E-05, 0.7602155   , 0.456699878 , 0.746645451 , -0.000910142262, -0.00391599862, -0.5448618  , 2.08        , 23          , 12          , 0.04347763  , 0
-0.0179230422, 0.00433541555, -9.813834   , -0.00282599265, -0.00123255432, 0.00114629988, 0.7599579   , 0.4571124   , 0.743366063 , -0.000938447251, -0.003928314, -0.5448501  , 2.09        , 23          , 50          , 0           , 0
-0.02809006 , 0.0140405521, -9.820162   , 3.815329E-05, 0.00194500189, -0.0007968075, 0.75981456  , 0.456697732 , 0.7453632   , -0.0009126537, -0.00380145316, -0.5448582  , 2.1         , 23          , 11          , 0.011952146 , 0.01195214
-0.01843787 , 0.0529430471, -9.80174    , 0.00116287987, 0.00192887918, 0.000339418621, 0.75981456  , 0.456697732 , 0.7453632   , -0.0009010377, -0.00378216151, -0.5448549  , 2.11        , 23          , 12          , 0.0443055965, 0
-0.01254195 , 0.0294200033, -9.805922   , 0.00116653438, 0.00221636263, -0.000224420728, 0.7604932   , 0.4566935   , 0.7455022   , -0.000889363757, -0.00375999976, -0.544857264, 2.12        , 23          , 50          , 0           , 0
-0.028353503, 0.0248475913, -9.817826   , -0.00364539959, -2.26369011E-05, 0.000592175 , 0.7595456   , 0.4572592   , 0.744082451 , -0.0009258399, -0.003760221, -0.544851065, 2.13        , 23          , 11          , 0.011952146 , 0.01195214
-0.0219951682, 0.03003573  , -9.803766   , 0.00314211473, 0.00276311487, 0.0006362961, 0.76034987  , 0.456700057 , 0.7469301   , -0.000894442666, -0.00373258488, -0.544844866, 2.14        , 23          , 12          , 0.0443055965, 0
-0.03790045 , 0.0239465758, -9.792283   , 0.005404489 , 0.00359906023, 0.000366098917, 0.76034987  , 0.456700057 , 0.7469301   , -0.00084041123, -0.00369659136, -0.5448413  , 2.15        , 23          , 50          , 0           , 0
-0.03939122 , 0.0115588019, -9.821201   , 0.00512396032, 0.00360500417, -0.000201668081, 0.760363758 , 0.456829965 , 0.7440763   , -0.0007891641, -0.003660543, -0.544843435, 2.16        , 23          , 11          , 0.011952146 , 0.01195214
-0.0442629047, 0.0174542442, -9.813104   , 1.94885943E-05, 0.000229669065, 0.00116767606, 0.7591348   , 0.457404941 , 0.744513333 , -0.000789012, -0.0036582367, -0.544831753, 2.17        , 23          , 12          , 0.0443055965, 0
-0.0248008538, 0.00244342722, -9.782871   , 0.00283378316, -0.000356902165, 0.000880262465, 0.760069251 , 0.4576918   , 0.7473637   , -0.0007607064, -0.00366179924, -0.544822931, 2.18        , 23          , 50          , 0           , 0
-0.026480956, 0.00751057826, -9.793648   , -0.00278775743, 0.00166720932, 0.00146583444, 0.7604968   , 0.4572525   , 0.744077265 , -0.0007886376, -0.00364511646, -0.544808149, 2.19        , 23          , 11          , 0.011952146 , 0.01195214
-0.0288667977, 0.0221177414, -9.812902   , 0.001170318 , 0.00284916116, 0.0009176529, 0.7604968   , 0.4572525   , 0.744077265 , -0.0007740202, -0.003489152, -0.5447991  , 2.2         , 23          , 12          , 0.0451564938, 0
-0.0482033156, 0.0242685266, -9.809939   , 0.00115857017, 0.00143087888, 0.0008997447, 0.759273767 , 0.4568399   , 0.7446531   , -0.0007624656, -0.00347483647, -0.54479    , 2.21        , 23          , 50          , 0           , 0
-0.0374732055, -0.00567034259, -9.812323   , -0.00282169855, -0.00279241288, 0.00055746513, 0.7602125   , 0.457263976 , 0.7465049   , -0.0007907021, -0.00350275682, -0.544784546, 2.22        , 23          , 11          , 0.0123940995, 0.0123940967
-0.0186390262, -0.007504668, -9.795038   , -0.0036254325, 0.00148792006, -0.00222695339, 0.7598162   , 0.457539052 , 0.74393934  , -0.000826878648, -0.003487895, -0.5448067  , 2.23        , 23          , 12          , 0.0451564938, 0
-0.009576919, -0.00495126657, -9.798072   , -0.00220647152, 0.00288987556, -0.00135618309, 0.759806    , 0.4569851   , 0.7466488   , -0.000848896161, -0.00345900841, -0.5448203  , 2.24        , 23          , 50          , 0           , 0
-0.0388212055, 0.0208953023, -9.804468   , -0.00108762062, 0.00147269224, -0.00279126 , 0.759806    , 0.4569851   , 0.7466488   , -0.000859676, -0.003444305, -0.5448482  , 2.25        , 23          , 11          , 0.0123940995, 0.0123940967
-0.0318368636, 0.03339536  , -9.806091   , 1.26975356E-05, -0.001105906, -0.000268716161, 0.761180043 , 0.4566831   , 0.7440713   , -0.0008595397, -0.00345536647, -0.544851065, 2.26        , 23          , 12          , 0.0451564938, 0
-0.01921716 , 0.008810126 , -9.805712   , 0.006784417 , -0.00030383555, -0.000533377, 0.7588552   , 0.457693636 , 0.745657742 , -0.000791677157, -0.00345840864, -0.5448563  , 2.27        , 23          , 50          , 0           , 0
-0.03786005 , 0.000529224053, -9.795625   , -0.00165872613, 0.00173188024, 0.00146728707, 0.76008     , 0.45698148  , 0.7462191   , -0.000808314944, -0.003441078, -0.5448415  , 2.28        , 23          , 11          , 0.0123940995, 0.0123940967
-0.0314509347, 0.00540635  , -9.801368   , -0.0005492736, -0.0008199287, 1.78839564E-05, 0.76008     , 0.45698148  , 0.7462191   , -0.0008138083, -0.00344927772, -0.5448415  , 2.29        , 23          , 12          , 0.0451564938, 0
-0.0313599445, 0.00605362467, -9.829263   , -0.003878565, 0.0009454573, -0.000532306556, 0.7604914   , 0.457397044 , 0.7449341   , -0.000784072559, -0.00337700779, -0.544847   , 2.3         , 23          , 50          , 0           , 0
-0.0355959348, 0.0231672525, -9.815665   , 0.0006592363, 0.004039457 , -0.00162221387, 0.7595395   , 0.457404315 , 0.745082    , -0.0007774254, -0.00333662564, -0.5448632  , 2.31        , 23          , 11          , 0.0122258822, 0.01222588
-0.0130014652, 0.00330453087, -9.808842   , 0.00258952263, -0.0008051763, -0.0005458378, 0.7600825   , 0.456277341 , 0.7466445   , -0.000751512242, -0.00334468135, -0.5448687  , 2.32        , 23          , 12          , 0.0460287631, 0
-0.0305516478, 0.0075437394, -9.78739    , -0.000201015908, 0.00234195637, -0.0013610312, 0.7600901   , 0.45711422  , 0.7440789   , -0.0007534769, -0.00332127255, -0.544882059, 2.33        , 23          , 50          , 0           , 0
-0.02958718 , 0.03248598  , -9.811026   , -0.0005140469, -0.00134537322, -0.00112422847, 0.7600901   , 0.45711422  , 0.7440789   , -0.0007585801, -0.00333473436, -0.5448935  , 2.34        , 23          , 11          , 0.0122258822, 0.01222588
-0.0127019053, 0.0195481535, -9.811854   , -0.000229471043, -0.0007859179, -0.0002655876, 0.7594036   , 0.457405269 , 0.745082736 , -0.0007608659, -0.00334259518, -0.5448961  , 2.35        , 23          , 12          , 0.0460287631, 0
-0.02022113 , 0.002109684 , -9.811626   , -0.003312415, 0.0017787976, 0.00146510371, 0.7600751   , 0.457266033 , 0.7467911   , -0.000794039, -0.00332479575, -0.544881344, 2.36        , 23          , 50          , 0           , 0
-0.0259918161, -0.0176447909, -9.80735    , -0.002202178, -0.000217179535, 0.00172512664, 0.759954    , 0.457255781 , 0.743937433 , -0.00081611803, -0.00332695362, -0.5448642  , 2.37        , 23          , 11          , 0.0122258822, 0.01222588
-0.0277014785, 0.0125913275, -9.807569   , -0.006180228, -0.004710733, -0.0006067077, 0.7595376   , 0.456703573 , 0.7463637   , -0.0008779002, -0.003374066, -0.544870138, 2.38        , 23          , 12          , 0.0460287631, 0
-0.0262566879, 0.0188293867, -9.801203   , -0.0005282728, -0.002217391, 0.00198584213, 0.7595376   , 0.456703573 , 0.7463637   , -0.0008832502, -0.0033962226, -0.544850349, 2.39        , 23          , 50          , 0           , 0
-0.0215422511, 0.00350001478, -9.813429   , 0.00107531855, 0.00240664254, 0.0006272158, 0.760221243 , 0.456836    , 0.7453615   , -0.00111970375, -0.00320131076, -0.544843435, 2.4         , 23          , 11          , 0.0111152241, 0.0111152232
-0.0355394632, 0.0267529786, -9.812935   , 0.00246999948, 0.000416202645, -0.000247257, 0.759680569 , 0.457399428 , 0.7440823   , -0.00109499577, -0.00319715217, -0.544846058, 2.41        , 23          , 12          , 0.04692092  , 0
-0.0326568  , 0.0366238728, -9.814174   , 0.00105521712, 0.000133564521, 0.00116598362, 0.7596682   , 0.457268357 , 0.746650636 , -0.00108448078, -0.00319580385, -0.5448344  , 2.42        , 23          , 50          , 0           , 0
-0.0410240665, 0.04888073  , -9.803812   , 0.000783562253, 0.000442300428, -0.00223530666, 0.7596682   , 0.457268357 , 0.746650636 , -0.00107657386, -0.00319140451, -0.5448568  , 2.43        , 23          , 11          , 0.0111152241, 0.0111152232
-0.034540575, 0.00992821  , -9.795063   , -0.00175920886, 0.000166217535, -0.000539739558, 0.7604999   , 0.456688434 , 0.7442177   , -0.00109414861, -0.00318974839, -0.544862032, 2.44        , 23          , 12          , 0.04692092  , 0
-0.0345393568, -0.0183283016, -9.815095   , -0.0009344609, -0.002115126, 0.0002837768, 0.759123147 , 0.4572733   , 0.746939063 , -0.00110350258, -0.00321089663, -0.5448592  , 2.45        , 23          , 50          , 0           , 0
-0.0148774274, 0.00100355037, -9.797179   , 0.004180714 , 0.0023986618, -0.00163866172, 0.760762453 , 0.4573957   , 0.745075345 , -0.00106164289, -0.00318692764, -0.5448756  , 2.46        , 23          , 11          , 0.0111152241, 0.0111152232
-0.0263886731, 0.00772948  , -9.824696   , 0.00249179825, 0.002971024 , -0.000498732668, 0.759951234 , 0.457117468 , 0.744650543 , -0.00103670883, -0.00315722288, -0.5448806  , 2.47        , 23          , 12          , 0.04692092  , 0
-0.02513337 , 0.00273121521, -9.822474   , -0.00259361626, 0.00158893771, -0.000239158951, 0.759951234 , 0.457117468 , 0.744650543 , -0.00106263743, -0.00314133568, -0.544883   , 2.48        , 23          , 50          , 0           , 0
-0.0187992211, 0.00656756852, -9.808425   , -0.0102289841, -0.001474119, -0.0002878998, 0.7591321   , 0.457266569 , 0.7452264   , -0.0011649183, -0.00315608061, -0.5448859  , 2.49        , 23          , 11          , 0.0111152241, 0.0111152232
-0.0369946733, -0.003022978, -9.805546   , -0.00344301853, -8.282979E-05, 0.00144056592, 0.760215342 , 0.4568405   , 0.746503234 , -0.00117095036, -0.00308572245, -0.544871569, 2.5         , 23          , 12          , 0.0478315875, 0
-0.0414471626, -0.000230051577, -9.806019   , 0.00333431363, 0.00101246452, -0.000239065688, 0.760092854 , 0.457252562 , 0.7433659   , -0.0011376  , -0.00307560037, -0.5448737  , 2.51        , 23          , 50          , 0           , 0
-0.0393115729, 0.04734218  , -9.782205   , 0.00390254916, 0.00102162478, -0.002224347, 0.7596772   , 0.4566998   , 0.7456494   , -0.001098506, -0.003065409, -0.5448961  , 2.52        , 23          , 11          , 0.01023378  , 0.0102337841
-0.02628098 , 0.0161829181, -9.809324   , -0.0009035095, 0.000183685537, 0.00116355135, 0.7596772   , 0.4566998   , 0.7456494   , -0.00110757677, -0.00306355976, -0.544884443, 2.53        , 23          , 12          , 0.0478315875, 0
-0.0180022083, 0.00112732686, -9.806211   , 0.0024828068, 0.0004476763, 0.000320153922, 0.760215938 , 0.457401752 , 0.7456492   , -0.00108275865, -0.003059079, -0.5448811  , 2.54        , 23          , 50          , 0           , 0
-0.0001668511, 0.0169808939, -9.80139351 , 0.007271637 , 0.000128027721, 0.000322454754, 0.759543955 , 0.457400948 , 0.7442257   , -0.001010052, -0.00305779534, -0.544878   , 2.55        , 23          , 11          , 0.01023378  , 0.0102337841
-0.0268198345, 0.0116665559, -9.806667   , 0.00360857812, 0.0007113826, 0.00202738261, 0.7600789   , 0.4567014   , 0.746788859 , -0.000974028255, -0.00305066118, -0.54485774 , 2.56        , 23          , 12          , 0.0478315875, 0
-0.02119679 , -0.00193478155, -9.81077    , -0.00062480924, -0.000657919853, -0.000549110468, 0.7600789   , 0.4567014   , 0.746788859 , -0.0009802595, -0.00305724586, -0.5448632  , 2.57        , 23          , 50          , 0           , 0
-0.0128751686, 0.0105077019, -9.807879   , 0.003932312 , 0.005537165 , 0.00123748509, 0.7599515   , 0.456976831 , 0.7447927   , -0.000940973754, -0.00300186244, -0.544851065, 2.58        , 23          , 11          , 0.01023378  , 0.0102337841
-0.023112027, 0.0165953916, -9.812438   , 0.00533025572, 0.0035562925, -0.00105554028, 0.759269    , 0.4575457   , 0.7446559   , -0.000887639646, -0.0029663092, -0.544861555, 2.59        , 23          , 12          , 0.0478315875, 0
-0.0181730334, 0.0160373058, -9.810592   , 0.000219554757, 0.000775857 , -0.001948656, 0.75993824  , 0.4574082   , 0.746792436 , -0.00091940054, -0.00293271 , -0.5448811  , 2.6         , 23          , 50          , 0           , 0
-0.03713467 , 0.0128230779, -9.814867   , -0.00120018737, 0.000201908653, 0.0005958445, 0.759951651 , 0.456836224 , 0.7449348   , -0.0009314199, -0.00293068564, -0.5448749  , 2.61        , 23          , 11          , 0.0104541471, 0.0104541518
-0.0483457744, 0.0157326013, -9.81361    , -0.00118974445, 0.00161636353, 0.00118117384, 0.759951651 , 0.456836224 , 0.7449348   , -0.00094335177, -0.00291451067, -0.5448632  , 2.62        , 23          , 12          , 0.04875945  , 0
-0.0319547541, 0.003993381 , -9.791484   , -0.00150016521, -0.002063312, 0.000283134927, 0.7592739   , 0.456278056 , 0.7453645   , -0.000958361838, -0.002935141, -0.544860363, 2.63        , 23          , 50          , 0           , 0
-0.02115916 , 0.000311844051, -9.809852   , -0.0008841543, 0.004174808 , 7.891273E-05, 0.760217547 , 0.4568388   , 0.7460751   , -0.0009672055, -0.00289339246, -0.544859648, 2.64        , 23          , 11          , 0.0104541471, 0.0104541518
-0.0148604568, 0.0228310656, -9.824001   , -0.00400182139, 0.001932673 , -0.000520967762, 0.759954751 , 0.457255244 , 0.743794739 , -0.00100720883, -0.002874071, -0.5448649  , 2.65        , 23          , 12          , 0.04875945  , 0
-0.0313140377, 0.0113402149, -9.812118   , -0.00202219374, 0.00304482458, 0.0006306229, 0.759806335 , 0.457265735 , 0.7462217   , -0.00102744857, -0.002843616, -0.5448587  , 2.66        , 23          , 50          , 0           , 0
-0.0550158173, 0.0199426115, -9.817246   , 0.00218142988, -0.000101413461, -0.000254716171, 0.759806335 , 0.457265735 , 0.7462217   , -0.00100562721, -0.0028446333, -0.5448611  , 2.67        , 23          , 11          , 0.0104541471, 0.0104541518
-0.029486157, 0.0143901147, -9.802174   , -0.00288505945, -4.41689626E-05, -0.00309804967, 0.760772943 , 0.456826    , 0.7437886   , -0.00103438972, -0.002845106, -0.5448921  , 2.68        , 23          , 12          , 0.04875945  , 0
-0.0199683886, -0.008722736, -9.810363   , -0.00404541846, -0.003176969, -1.80163843E-05, 0.758866251 , 0.457263976 , 0.744086146 , -0.00107484357, -0.00287687569, -0.5448921  , 2.69        , 23          , 50          , 0           , 0
-0.0245365351, 0.0129942782, -9.809333   , -0.0011562662, -0.000339677557, -0.0002625488, 0.7598045   , 0.456986219 , 0.746934235 , -0.0009838652, -0.002836346, -0.544894934, 2.7         , 23          , 11          , 0.0107406378, 0.0107406294
-0.0108070225, -0.00248209015, -9.825066   , 0.00367629342, 0.005004234 , 0.00122993742, 0.7598045   , 0.456986219 , 0.746934235 , -0.0009471368, -0.00278629176, -0.544882536, 2.71        , 23          , 12          , 0.04970328  , 0
-0.036517743, -0.0033997132, -9.817244   , 0.00307933916, 0.0007593631, 0.0003243892, 0.760495543 , 0.457113057 , 0.7445048   , -0.000916352437, -0.0027786952, -0.544879436, 2.72        , 23          , 50          , 0           , 0
-0.0344776362, 0.0109404335, -9.810803   , 0.00480049569, 0.00415627751, -0.00048168638, 0.759678    , 0.457120478 , 0.7449374   , -0.0008683342, -0.002737137, -0.5448842  , 2.73        , 23          , 11          , 0.0107406378, 0.0107406294
-0.019622989, 0.0119443592, -9.80164    , 0.004226517 , 0.003299975 , 0.000925429 , 0.759939849 , 0.456845224 , 0.7472183   , -0.0008260941, -0.00270412932, -0.544875145, 2.74        , 23          , 12          , 0.04970328  , 0
-0.0221037343, 0.000224391 , -9.79501152 , 0.00281107822, 0.001631585 , -0.00250231661, 0.7603609   , 0.457253456 , 0.744078    , -0.0007979159, -0.00268783374, -0.5449002  , 2.75        , 23          , 50          , 0           , 0
-0.0324190259, 0.02273564  , -9.826886   , 0.00225433  , 0.003316709 , 0.0006392963, 0.7603609   , 0.457253456 , 0.744078    , -0.000775389548, -0.00265466119, -0.544893742, 2.76        , 23          , 11          , 0.0107406378, 0.0107406294
-0.04124856 , 0.00800755247, -9.82395    , 0.003114843 , 0.00473820651, -0.000760309747, 0.75940156  , 0.457266331 , 0.7456531   , -0.000744221, -0.00260728481, -0.5449016  , 2.77        , 23          , 12          , 0.04970328  , 0
-0.02096003 , -0.0119421445, -9.798698   , 0.007854593 , -0.00181422883, -0.001971647, 0.7600776   , 0.457544982 , 0.745936    , -0.0006656234, -0.00262544141, -0.54492116 , 2.78        , 23          , 50          , 0           , 0
-0.0215098225, 0.007460187 , -9.799896   , 0.005090031 , 0.005007043 , -0.0007543059, 0.7598189   , 0.4572562   , 0.7437955   , -0.0006147035, -0.00257537584, -0.5449288  , 2.79        , 23          , 11          , 0.0107406378, 0.0107406294
-0.0340259746, 0.0122296717, -9.803139   , 0.000546937459, 0.004266512 , -0.0013378883, 0.759676039 , 0.45698157  , 0.7455077   , -0.0006733443, -0.00236619 , -0.544942141, 2.8         , 23          , 12          , 0.05066193  , 0
-0.0488899127, 0.01206666  , -9.803746   , 0.000251137884, 0.003120609 , 0.0006334123, 0.759676039 , 0.45698157  , 0.7455077   , -0.0006708477, -0.0023349796, -0.544935942, 2.81        , 23          , 50          , 0           , 0
-0.0331713036, 0.008652085 , -9.80946    , -0.00060650456, 0.00143076247, -0.0002402471, 0.760086954 , 0.457257062 , 0.7445076   , -0.0006769071, -0.00232067378, -0.5449383  , 2.82        , 23          , 11          , 0.0109554166, 0.0109554157
-0.0319537073, 0.0005440712, -9.813563   , -0.000896300247, 0.0008559991, 0.001170796 , 0.759403467 , 0.4579671   , 0.7443714   , -0.000685897132, -0.00231210561, -0.544926643, 2.83        , 23          , 12          , 0.05066193  , 0
-0.0428380743, 0.0249393936, -9.791876   , 0.00307182828, 0.00338309328, 0.0006404542, 0.7598026   , 0.457268536 , 0.746935368 , -0.0006551935, -0.00227827067, -0.5449202  , 2.84        , 23          , 50          , 0           , 0
-0.0235163514, -0.005074404, -9.80677    , 0.00277641788, 0.00113126752, -0.00165822858, 0.7598026   , 0.457268536 , 0.746935368 , -0.0006273917, -0.00226696813, -0.5449369  , 2.85        , 23          , 11          , 0.0109554166, 0.0109554157
-0.0432574339, -0.0006493423, -9.805592   , 0.00166800956, 0.00396290561, 0.000362176943, 0.760094047 , 0.4569708   , 0.743507445 , -0.0006107196, -0.00222733687, -0.5449331  , 2.86        , 23          , 12          , 0.05066193  , 0
-0.0493520722, 0.0133414119, -9.79159    , 0.0019652457, 0.00566655444, -0.000183408149, 0.7583111   , 0.4571362   , 0.746514738 , -0.000591062941, -0.00217067287, -0.544935   , 2.87        , 23          , 50          , 0           , 0
-0.0303880367, 0.0131095   , -9.809843   , 0.0016458187, 0.00113016856, -0.000241060523, 0.760491848 , 0.457115859 , 0.7452184   , -0.000574599544, -0.00215937244, -0.5449376  , 2.88        , 23          , 11          , 0.0109554166, 0.0109554157
-0.0211776663, 0.00285679661, -9.78733    , 0.0002550527, 0.00313209021, -0.00106885075, 0.760226548 , 0.4572533   , 0.743793249 , -0.000572025951, -0.00212805765, -0.544948339, 2.89        , 23          , 12          , 0.05066193  , 0
-0.02458313 , 0.0154726077, -9.777362   , 0.00308531779, 0.00424122764, -0.000483643176, 0.760226548 , 0.4572533   , 0.743793249 , -0.0005320684, -0.00208680774, -0.5449531  , 2.9         , 23          , 50          , 0           , 0
-0.0297268573, 0.0252510775, -9.807487   , -0.00173262006, 0.00143108808, 0.000893210236, 0.7595436   , 0.457120329 , 0.744652748 , -0.0005494134, -0.002072492, -0.5449443  , 2.91        , 23          , 11          , 0.008592589 , 0.008592585
-0.0279367231, 0.0247596689, -9.806571   , -0.00427748077, 0.0005953467, 0.001446772 , 0.7599478   , 0.456979662 , 0.7455063   , -0.0005922181, -0.00206653029, -0.544929743, 2.92        , 23          , 12          , 0.0516343229, 0
-0.0168086756, 0.0199272186, -9.790745   , 0.00165356451, 0.00114116073, -0.00194332376, 0.7592761   , 0.457259446 , 0.7436557   , -0.0005756425, -0.00205513 , -0.5449493  , 2.93        , 23          , 50          , 0           , 0
-0.0276316758, 0.0157772228, -9.812042   , -0.00117900269, 0.0002903147, 0.00116328627, 0.7596773   , 0.457121044 , 0.7450802   , -0.0005874563, -0.00205222 , -0.5449376  , 2.94        , 23          , 11          , 0.008592589 , 0.008592585
-0.0392016172, 0.02408981  , -9.808946   , -0.00255462667, 0.00427400367, 0.000927988556, 0.7596773   , 0.457121044 , 0.7450802   , -0.0006130214, -0.00200947444, -0.5449283  , 2.95        , 23          , 12          , 0.0516343229, 0
-0.0365139171, -0.005547991, -9.832111   , 0.00305581815, 0.000833523634, 4.07980151E-05, 0.760356665 , 0.457116246 , 0.7450765   , -0.000582464, -0.00200113887, -0.544927835, 2.96        , 23          , 50          , 0           , 0
-0.01727104 , 0.018612599 , -9.794809   , 0.003894532 , -0.0002997993, -0.00110733253, 0.759543    , 0.4575421   , 0.7442262   , -0.000543496455, -0.00200414355, -0.544939041, 2.97        , 23          , 11          , 0.008592589 , 0.008592585
-0.0247189812, 0.006089424 , -9.788691   , -0.00173679844, 0.0003117708, -0.0013908  , 0.75994575  , 0.456840724 , 0.7460766   , -0.0005608365, -0.0020010334, -0.544952869, 2.98        , 23          , 12          , 0.0516343229, 0
-0.0461492166, -0.007521525, -9.782277   , -0.002040039, -0.00196301751, -0.000284957438, 0.75994575  , 0.456840724 , 0.7460766   , -0.0005812313, -0.002020665, -0.5449555  , 2.99        , 23          , 50          , 0           , 0
-0.0303247888, -0.008959239, -9.812723   , -0.00115099526, 0.00196767435, 0.0009010577, 0.760226    , 0.457113266 , 0.744078159 , -0.000560140645, -0.002066142, -0.544946432, 3           , 23          , 11          , 0.008823092 , 0.008823095
-0.0152619621, 0.00289385766, -9.808417   , 0.000242641254, -0.000302595145, -0.000544417766, 0.759271264 , 0.457544    , 0.7442277   , -0.0005577029, -0.00206917082, -0.5449519  , 3.01        , 23          , 12          , 0.0526194535, 0
-0.0331352279, 0.00830617547, -9.824312   , -0.001188328, -0.00284683 , -0.0002946722, 0.7599394   , 0.457126439 , 0.746934056 , -0.0005695801, -0.002097641, -0.544955   , 3.02        , 23          , 50          , 0           , 0
-0.0366669968, 0.013718823 , -9.815305   , -4.284743E-05, -0.0005879615, 1.90755691E-05, 0.7600971   , 0.456406742 , 0.7436479   , -0.0005700092, -0.00210352032, -0.544954538, 3.03        , 23          , 11          , 0.008823092 , 0.008823095
-0.0281650349, 0.0129997879, -9.800371   , 0.00390217733, -0.00061951566, 0.000307630457, 0.7600971   , 0.456406742 , 0.7436479   , -0.0005309938, -0.00210971362, -0.5449517  , 3.04        , 23          , 12          , 0.0526194535, 0
-0.0375889  , 0.01282218  , -9.813522   , 0.001938345 , 0.00025201455, -0.0005351783, 0.7595421   , 0.457121432 , 0.744938135 , -0.000511599064, -0.002107197, -0.5449569  , 3.05        , 23          , 50          , 0           , 0
-0.0355516858, 0.0245666225, -9.822403   , -0.006791857, 0.0008907005, -0.0013898731, 0.7598115   , 0.4572618   , 0.7452227   , -0.0005794886, -0.002098297, -0.544970751, 3.06        , 23          , 11          , 0.008823092 , 0.008823095
-0.0258213617, 0.01662807  , -9.809767   , -0.004836769, -0.00111354177, -0.000845101662, 0.75994736  , 0.457260847 , 0.7452219   , -0.0006278384, -0.00210943748, -0.544979334, 3.07        , 23          , 12          , 0.0526194535, 0
-0.04015574 , 0.0218223445, -9.804475   , -0.00114042393, 0.002552209 , -0.00164517341, 0.759406865 , 0.4567006   , 0.7453654   , -0.0006392082, -0.00208392576, -0.5449958  , 3.08        , 23          , 50          , 0           , 0
-0.0222141948, 0.0174349286, -9.806121   , 0.002804733 , 0.00307457335, 0.0006365181, 0.759406865 , 0.4567006   , 0.7453654   , -0.000611174, -0.002053176, -0.544989347, 3.09        , 23          , 11          , 0.008823092 , 0.008823095
-0.0394770019, 0.009197959 , -9.805921   , 0.001347858 , 0.000251377351, -0.0005358788, 0.761039257 , 0.456968635 , 0.744644046 , -0.000665994536, -0.00206308672, -0.54499507 , 3.1         , 23          , 12          , 0.05361638  , 0
-0.0319697224, 0.0009375699, -9.80546    , -8.010914E-05, -0.00200728816, -0.00056626217, 0.759006    , 0.457119644 , 0.743513942 , -0.000666783948, -0.00208316324, -0.545000553, 3.11        , 23          , 50          , 0           , 0
-0.009398237, 0.004964998 , -9.798439   , -0.00542072766, 0.000288795156, 0.00144178979, 0.7598073   , 0.4571246   , 0.7462211   , -0.000721021264, -0.00208026543, -0.544986248, 3.12        , 23          , 11          , 0.009084746 , 0.00908475
-0.0221507661, -0.002476005, -9.795485   , 0.005031411 , 0.00221901643, -0.00192486134, 0.7598073   , 0.4571246   , 0.7462211   , -0.0006706671, -0.00205808878, -0.54500556 , 3.13        , 23          , 12          , 0.05361638  , 0
-0.0267231762, 0.01621057  , -9.812029   , 0.00615587644, 0.00247889571, 0.0003497883, 0.760089159 , 0.457255363 , 0.7440795   , -0.0006091155, -0.00203329744, -0.545002   , 3.14        , 23          , 50          , 0           , 0
-0.0320114344, -0.00218170043, -9.810436   , 0.003607622 , 0.00107966829, 0.0003287658, 0.759275258 , 0.456838757 , 0.744367659 , -0.000573046, -0.00202249922, -0.544998646, 3.15        , 23          , 11          , 0.009084746 , 0.00908475
-0.0349881165, 0.00994317047, -9.795967   , 0.00134459557, 0.000241809743, 0.000882673543, 0.759804845 , 0.457266867 , 0.746507168 , -0.0005596178, -0.00202007615, -0.5449898  , 3.16        , 23          , 12          , 0.05361638  , 0
-0.024951905, 0.0139485   , -9.81563    , -0.000354894553, -0.0011542018, -0.000555863255, 0.7595493   , 0.4572564   , 0.743368864 , -0.000563155452, -0.002031621, -0.544995546, 3.17        , 23          , 50          , 0           , 0
-0.040775463, 0.009779109 , -9.82078    , -0.000338707876, 0.00110739539, 0.0006076318, 0.7595493   , 0.4572564   , 0.743368864 , -0.0005665547, -0.00202054367, -0.544989347, 3.18        , 23          , 11          , 0.009084746 , 0.00908475
-0.0284565743, -0.003224805, -9.800056   , 0.002200409 , 0.00109599484, -0.0005240958, 0.7592721   , 0.4569816   , 0.7447964   , -0.0005445402, -0.00200958666, -0.5449946  , 3.19        , 23          , 12          , 0.05361638  , 0
-0.0213485062, -0.00919823349, -9.803181   , 0.005412474 , 0.00238071429, 0.0003488986, 0.760081947 , 0.4571204   , 0.7456488   , -0.00022129844, -0.00226122513, -0.5449896  , 3.2         , 23          , 50          , 0           , 0
-0.0386289358, 0.03343264  , -9.793112   , -0.00021624651, 0.00299993856, -0.00106941117, 0.7598221   , 0.457113355 , 0.7433668   , -0.000223436859, -0.0022312284, -0.5450003  , 3.21        , 23          , 11          , 0.009175151 , 0.009175154
-0.0210855138, 0.0283144563, -9.81772    , 0.00316080381, 0.00268322183, 6.60015357E-05, 0.7592687   , 0.457265049 , 0.7450829   , -0.00019183023, -0.00220439653, -0.5449996  , 3.22        , 23          , 12          , 0.0546242222, 0
-0.03501787 , 0.005989345 , -9.810401   , 0.00148285157, 0.004118034 , -0.00048558737, 0.7592687   , 0.457265049 , 0.7450829   , -0.000176991118, -0.0021632167, -0.5450046  , 3.23        , 23          , 50          , 0           , 0
-0.03201262 , 0.02650637  , -9.7877     , 0.00060798123, 0.00127059966, 0.00203095237, 0.7603594   , 0.4572546   , 0.7443634   , -0.000170955129, -0.00215050718, -0.544984341, 3.24        , 23          , 11          , 0.009175151 , 0.009175154
-0.0283168554, 0.00444165152, -9.800892   , -0.00331459288, 0.00385888852, 0.0012072114, 0.7592761   , 0.457259446 , 0.7436557   , -0.000204126758, -0.0021119162, -0.5449722  , 3.25        , 23          , 12          , 0.0546242222, 0
-0.018408142, 0.00296687335, -9.810251   , 0.00145165459, 0.000428587256, -0.0002484383, 0.7602155   , 0.456699878 , 0.746645451 , -0.000189604922, -0.00210763142, -0.5449748  , 3.26        , 23          , 50          , 0           , 0
-0.0275055543, 0.0208225884, -9.824599   , -0.000256581348, -0.0021001366, -0.001985012, 0.7602155   , 0.456699878 , 0.746645451 , -0.000192128849, -0.002128636, -0.5449946  , 3.27        , 23          , 11          , 0.009175151 , 0.009175154
-0.00843085349, 0.00596949738, -9.815521   , 0.0002987333, -0.00295916665, -0.00142764393, 0.7606421   , 0.4564018   , 0.743359566 , -0.000189110942, -0.0021582304, -0.5450089  , 3.28        , 23          , 12          , 0.0546242222, 0
-0.0120970532, 0.00286525488, -9.812885   , 0.002054613 , 0.005244598 , 9.685224E-05, 0.7583144   , 0.4574146   , 0.745516837 , -0.0001685668, -0.0021057846, -0.545007944, 3.29        , 23          , 50          , 0           , 0
-0.0415764563, 0.0156413913, -9.81894    , -0.0008036956, 0.0007310143, 0.0006035055, 0.760492861 , 0.457395941 , 0.7446487   , -0.000179526716, -0.00207788683, -0.545001745, 3.3         , 23          , 11          , 0.00793413  , 0.007934124
-0.0360179581, 0.0245371722, -9.817009   , 0.003755904 , 0.00637983531, -0.0007378775, 0.7595539   , 0.4566912   , 0.743223846 , -0.0001419526, -0.00201408984, -0.545009136, 3.31        , 23          , 12          , 0.0556421541, 0
-0.0461069122, 0.0135031557, -9.823055   , -0.0002337629, 0.00102191744, -0.00109448377, 0.7595539   , 0.4566912   , 0.743223846 , -0.000144268226, -0.002003872, -0.5450201  , 3.32        , 23          , 50          , 0           , 0
-0.04492681 , -0.0220902525, -9.828735   , -0.003359131, -0.00207310054, -0.00142139837, 0.7592721   , 0.4569816   , 0.7447964   , -0.000177830821, -0.0020246054, -0.5450344  , 3.33        , 23          , 11          , 0.00793413  , 0.007934124
-0.03836117 , -0.000445833459, -9.783937   , 0.003710089 , 0.00154045445, 0.00175462873, 0.760085642 , 0.4571176   , 0.744935155 , -0.000140765333, -0.0020091983, -0.545016766, 3.34        , 23          , 12          , 0.0556421541, 0
-0.0623224825, 0.01767844  , -9.79619    , 0.00118010677, 0.00157864438, -0.00108559034, 0.7595523   , 0.457254171 , 0.742798    , -0.000128942571, -0.001993413, -0.545027733, 3.35        , 23          , 50          , 0           , 0
-0.029364191, 0.01769973  , -9.824195   , 0.0048453873, 0.00210886635, 0.000344623957, 0.759544551 , 0.456979156 , 0.7446522   , -8.049554E-05, -0.001972324, -0.545024157, 3.36        , 23          , 11          , 0.00793413  , 0.007934124
-0.0232197139, 0.00814195  , -9.827809   , 0.00146063592, 0.00157270022, -0.000517823151, 0.759544551 , 0.456979156 , 0.7446522   , -6.5878965E-05, -0.001956598, -0.5450294  , 3.37        , 23          , 12          , 0.0556421541, 0
-0.0366723761, 0.01327458  , -9.816209   , -0.0005392212, -0.0009826089, 0.00200091419, 0.76035887  , 0.457114577 , 0.744648337 , -7.13104E-05, -0.00196642242, -0.5450094  , 3.38        , 23          , 50          , 0           , 0
-0.03080858 , 0.0162088349, -9.800822   , 0.000349354435, 0.00328884786, -0.00134884869, 0.7592774   , 0.457398921 , 0.743228137 , -6.779057E-05, -0.00193353486, -0.545022964, 3.39        , 23          , 11          , 0.00793413  , 0.007934124
-0.0271047857, 0.0211281516, -9.805243   , 0.00389587926, 0.0009042001, 0.001180159 , 0.759674549 , 0.456982672 , 0.745793164 , -0.0002884654, -0.00212253444, -0.545012236, 3.4         , 23          , 12          , 0.05666942  , 0
-0.0246360525, 0.00628611632, -9.816589   , 0.005032222 , 0.0017524414, 0.0003411567, 0.759674549 , 0.456982672 , 0.745793164 , -0.000238150358, -0.00210500928, -0.5450089  , 3.41        , 23          , 50          , 0           , 0
-0.0124709522, 0.0308828168, -9.821659   , 0.00500702951, -0.0013658657, 1.80480984E-05, 0.7602294   , 0.456829816 , 0.7437916   , -0.000188080492, -0.00211866782, -0.5450089  , 3.42        , 23          , 11          , 0.008139376 , 0.008139373
-0.03075476 , 0.02021977  , -9.794488   , -0.00202067965, 0.000954401563, 0.000321761036, 0.7592724   , 0.457262248 , 0.7443693   , -0.000208294077, -0.00210912316, -0.54500556 , 3.43        , 23          , 12          , 0.05666942  , 0
-0.0374422967, -0.003871141, -9.811857   , 0.00449113641, 0.00486732833, 0.00179841509, 0.759811938 , 0.456980616 , 0.745507    , -0.000163420293, -0.00206044642, -0.54498744 , 3.44        , 23          , 50          , 0           , 0
-0.0278196484, 0.00670187548, -9.803119   , 0.00305990363, 0.001215257 , -0.00193811266, 0.7602309   , 0.456828684 , 0.743506134 , -0.000132781337, -0.00204829639, -0.545007   , 3.45        , 23          , 11          , 0.008139376 , 0.008139373
-0.050673034, 0.0164579861, -9.782578   , -0.0011681288, 0.00179901952, 0.000333544071, 0.7602309   , 0.456828684 , 0.743506134 , -0.000144469392, -0.002030306, -0.545003653, 3.46        , 23          , 12          , 0.05666942  , 0
-0.037578024, 0.0150053678, -9.803603   , -0.0006162084, 0.0003765031, 0.0003163279, 0.7591369   , 0.456982017 , 0.7446544   , -0.000150637876, -0.002026541, -0.5450003  , 3.47        , 23          , 50          , 0           , 0
-0.0114816744, 0.0110149235, -9.819562   , -0.00259714038, -0.000739475247, -0.000267841882, 0.7605005   , 0.4572497   , 0.7433637   , -0.000176603819, -0.00203393586, -0.5450032  , 3.48        , 23          , 11          , 0.008139376 , 0.008139373
-0.0211352166, 0.0256077126, -9.817293   , 0.0005094309, 8.629143E-05, 3.0419882E-05, 0.7591343   , 0.45726487  , 0.744798243 , -0.00017151011, -0.002033073, -0.5450027  , 3.49        , 23          , 12          , 0.05666942  , 0
-0.05182401 , 0.0217037015, -9.819898   , 0.00136284158, 0.00291197747, 0.0006346381, 0.7594119   , 0.456837237 , 0.7442242   , -0.000199095783, -0.00200597732, -0.544996738, 3.5         , 23          , 50          , 0           , 0
-0.0475703478, 0.008083804 , -9.817716   , 0.0002330239, 0.00208287127, -0.00136346417, 0.7594119   , 0.456837237 , 0.7442242   , -0.000196738431, -0.001985151, -0.5450103  , 3.51        , 23          , 11          , 0.00771924574, 0.00771924434
-0.0517282635, 0.00445826538, -9.803838   , 0.000190731662, -0.00302294362, -0.00142793381, 0.7600901   , 0.45711422  , 0.7440789   , -0.000194802531, -0.00201538322, -0.545024633, 3.52        , 23          , 12          , 0.0577052981, 0
-0.0501482449, 0.0127429813, -9.832105   , 0.00109406025, 0.00433620345, 8.47794E-05 , 0.75914     , 0.457401    , 0.7435143   , -0.000183863653, -0.00197202084, -0.5450237  , 3.53        , 23          , 50          , 0           , 0
-0.0340165719, 0.0126834409, -9.803585   , -0.00148813287, -0.00131404318, -0.000557388761, 0.759946465 , 0.456840158 , 0.7459339   , -0.000198733935, -0.0019851625, -0.5450294  , 3.54        , 23          , 11          , 0.00771924574, 0.00771924434
-0.0425534174, 0.0120253162, -9.81493    , -0.000367713481, -0.00161956309, 0.001426387 , 0.759946465 , 0.456840158 , 0.7459339   , -0.000202439522, -0.00200135517, -0.5450151  , 3.55        , 23          , 12          , 0.0577052981, 0
-0.019682128, 0.008352287 , -9.80347    , -0.00260071969, 0.0003982778, -0.0008209935, 0.7600942   , 0.4568302   , 0.7436496   , -0.000228430348, -0.0019973747, -0.5450232  , 3.56        , 23          , 50          , 0           , 0
-0.0183594264, -0.0169789512, -9.794664   , -0.000906452653, 0.00039514227, -0.00223747 , 0.75927633  , 0.457118869 , 0.7437979   , -0.000237450236, -0.00199342845, -0.5450456  , 3.57        , 23          , 11          , 0.00771924574, 0.00771924434
-0.02704702 , 0.0242854785, -9.805666   , -0.0006213528, 0.00178643118, 0.00146902073, 0.75980705  , 0.457265168 , 0.746079    , -0.000243692833, -0.00197556056, -0.5450311  , 3.58        , 23          , 12          , 0.0577052981, 0
-0.0320921056, 0.01941423  , -9.804409   , 0.00135775027, 0.00206674845, -0.000227238241, 0.759957731 , 0.457252979 , 0.743223846 , -0.0002301108, -0.00195489358, -0.5450332  , 3.59        , 23          , 50          , 0           , 0
-0.0229329951, 0.00386225618, -9.797241   , 0.000201242176, 0.00234082621, -0.00136001245, 0.759957731 , 0.457252979 , 0.743223846 , -0.000329391856, -0.00200781575, -0.5450475  , 3.6         , 23          , 11          , 0.007928515 , 0.007928505
-0.026083611, 0.0257120319, -9.818695   , 0.00386443245, 0.00231138919, -0.00107180385, 0.7592755   , 0.456698179 , 0.7445098   , -0.000290726079, -0.00198470522, -0.54505825 , 3.61        , 23          , 12          , 0.0587491281, 0
-0.02447223 , 0.0144412424, -9.82282    , -0.00178477773, 0.0017634579, 0.00231863814, 0.759950936 , 0.4568368   , 0.74507755  , -0.000308619667, -0.00196706341, -0.5450351  , 3.62        , 23          , 50          , 0           , 0
-0.0359221734, 0.00772329839, -9.798245   , 0.00752422959, 0.0017184664, -0.001358179, 0.759554744 , 0.4571119   , 0.7425119   , -0.000233350816, -0.00194988307, -0.5450487  , 3.63        , 23          , 11          , 0.007928515 , 0.007928505
-0.039435178, 0.0136119174, -9.792833   , 0.00697218161, 0.00397090334, 0.00179059722, 0.759273767 , 0.4568399   , 0.7446531   , -0.000163663513, -0.00191017031, -0.545030832, 3.64        , 23          , 12          , 0.0587491281, 0
-0.03453423 , 0.0325934738, -9.812878   , 0.00329776318, 0.00203005364, -0.000792367, 0.759273767 , 0.4568399   , 0.7446531   , -0.000130670771, -0.001889871, -0.5450387  , 3.65        , 23          , 50          , 0           , 0
-0.0196421035, 0.0341177769, -9.813607   , -0.000936797645, 0.00121084228, -0.0008083023, 0.7599561   , 0.456832856 , 0.7440785   , -0.000140023461, -0.00187776366, -0.5450468  , 3.66        , 23          , 11          , 0.007928515 , 0.007928505
-0.03124691 , 0.0145197613, -9.815691   , 0.00244260184, 0.001177782 , 0.000330691983, 0.759140968 , 0.457259834 , 0.743513763 , -0.000115603594, -0.00186598545, -0.545043468, 3.67        , 23          , 12          , 0.0587491281, 0
-0.04995724 , 0.0261402819, -9.814892   , 0.00215567648, 0.000334670622, -0.0005315305, 0.759817541 , 0.456695467 , 0.7447923   , -9.403681E-05, -0.00186263968, -0.545048952, 3.68        , 23          , 50          , 0           , 0
-0.0519811548, 0.0135644414, -9.815917   , -0.00318063539, 0.002920151 , 0.000628971669, 0.759817541 , 0.456695467 , 0.7447923   , -0.000125854873, -0.00183343724, -0.545042753, 3.69        , 23          , 11          , 0.007928515 , 0.007928505
-0.0421651825, 0.0332254767, -9.817902   , -0.00348461582, 0.0006446007, -0.00138598832, 0.7602338   , 0.456826419 , 0.74293524  , -0.000184840217, -0.00189360348, -0.545056343, 3.7         , 23          , 12          , 0.05980027  , 0
-0.0310037024, 0.0284723416, -9.813324   , 0.003279535 , 0.00114770653, 0.0006154528, 0.7584621   , 0.457404643 , 0.743232548 , -0.000152056469, -0.00188212539, -0.545050144, 3.71        , 23          , 50          , 0           , 0
-0.0348418951, 0.015467695 , -9.812571   , 0.00750169531, 0.0005467223, 0.0008971904, 0.7598097   , 0.456982285 , 0.7459352   , -7.70564147E-05, -0.00187665748, -0.5450413  , 3.72        , 23          , 11          , 0.00796394  , 0.007963935
-0.0393438824, -0.008821761, -9.807867   , -0.001499897, 0.002601981 , 0.0006274785, 0.7600994   , 0.45682627  , 0.742650568 , -9.206704E-05, -0.00185063679, -0.5450349  , 3.73        , 23          , 12          , 0.05980027  , 0
-0.0145790661, -0.007994762, -9.8004     , 0.00130095216, 0.0003153848, 3.48647736E-05, 0.7600994   , 0.45682627  , 0.742650568 , -7.905813E-05, -0.001847483, -0.545034647, 3.74        , 23          , 50          , 0           , 0
-0.030890679, 0.009973474 , -9.811224   , 0.00299469871, 0.0008642537, 0.0008952357, 0.75927186  , 0.457122236 , 0.744654238 , -4.91275823E-05, -0.00183884 , -0.5450256  , 3.75        , 23          , 11          , 0.00796394  , 0.007963935
-0.0266169328, 0.0233661626, -9.804319   , 0.00159884116, 0.00202094647, -0.0007944308, 0.7599505   , 0.457118    , 0.744793236 , -3.31245828E-05, -0.00181863084, -0.5450337  , 3.76        , 23          , 12          , 0.05980027  , 0
-0.0418760739, 0.0254996512, -9.809862   , 0.005293229 , 0.005680956 , -0.0007433711, 0.759824634 , 0.4573923   , 0.7425116   , 1.98210182E-05, -0.00176182168, -0.5450411  , 3.77        , 23          , 50          , 0           , 0
-0.024074208, 0.0138773415, -9.807971   , 0.00104091677, 0.00287232315, -0.000216956949, 0.759683132 , 0.456695318 , 0.7445076   , 3.02339777E-05, -0.0017330983, -0.54504323 , 3.78        , 23          , 11          , 0.00796394  , 0.007963935
-0.0210434832, 0.008352765 , -9.799884   , 0.000145552942, -0.00252610538, 0.00198363746, 0.759683132 , 0.456695318 , 0.7445076   , 3.1654803E-05, -0.00175835984, -0.545023441, 3.79        , 23          , 12          , 0.05980027  , 0
-0.0339413136, 0.0171766989, -9.801747   , 0.00518671935, 0.002811136 , -0.00134713936, 0.7602292   , 0.456970423 , 0.7436494   , -0.000181212468, -0.001846745, -0.5450394  , 3.8         , 23          , 50          , 0           , 0
-0.0406164527, -0.00257005636, -9.79613    , -0.00100919243, 0.00370102865, -0.000209165228, 0.759004831 , 0.4574014   , 0.7433724   , -0.000191300511, -0.00180973508, -0.545041561, 3.81        , 23          , 11          , 0.00815411  , 0.008154102
-0.04170241 , -0.0142111843, -9.804337   , -0.00157964858, 0.00257829181, -0.00135902571, 0.759945869 , 0.45726198  , 0.74550736  , -0.000207072575, -0.00178395514, -0.545055151, 3.82        , 23          , 12          , 0.060858164 , 0
-0.0399096832, 0.010974071 , -9.800961   , -0.000209636739, -0.00169862167, 0.000291242555, 0.759945869 , 0.45726198  , 0.74550736  , -0.000209174177, -0.00180094037, -0.5450523  , 3.83        , 23          , 50          , 0           , 0
-0.03236119 , 0.0267560948, -9.821902   , 0.00234227255, -1.191051E-05, -0.000251574325, 0.76023066  , 0.4569693   , 0.743364036 , -0.000185746932, -0.00180106051, -0.5450547  , 3.84        , 23          , 11          , 0.00815411  , 0.008154102
-0.0386788845, 0.0277049839, -9.81161    , -0.0004721537, 2.07424746E-05, -0.00195729756, 0.7594109   , 0.4569784   , 0.7442247   , -0.0001904333, -0.0018008562, -0.5450742  , 3.85        , 23          , 12          , 0.060858164 , 0
-0.03996498 , 0.03219872  , -9.806187   , -0.0004925155, -0.00197633379, -0.00028010612, 0.7599463   , 0.456980765 , 0.7457917   , -0.0001953534, -0.00182062027, -0.5450771  , 3.86        , 23          , 50          , 0           , 0
-0.03220803 , 0.0353174   , -9.82183    , 0.00122903357, 0.00169849664, -0.000231468541, 0.7598267   , 0.45696938  , 0.7426526   , -0.0001830589, -0.00180363562, -0.54507947 , 3.87        , 23          , 11          , 0.00815411  , 0.008154102
-0.04355612 , 0.00446491968, -9.826703   , -0.0007391061, 0.00228062971, -0.000226727439, 0.7598267   , 0.45696938  , 0.7426526   , -0.000190445862, -0.00178082974, -0.5450816  , 3.88        , 23          , 12          , 0.060858164 , 0
-0.0356443748, 0.01960057  , -9.821095   , -0.00273139379, 2.42852821E-05, 2.59076842E-05, 0.7594006   , 0.4574075   , 0.7456536   , -0.000217760287, -0.001780587, -0.5450814  , 3.89        , 23          , 50          , 0           , 0
-0.0228163078, 0.008022295 , -9.812056   , 0.0023704404, 0.004234345 , 8.583525E-05, 0.760630131 , 0.4569726   , 0.744931638 , -0.0002147354, -0.00175974425, -0.545080662, 3.9         , 23          , 11          , 0.00704990048, 0.007049895
-0.04857543 , 0.00396954454, -9.806959   , 0.00203587115, -0.00228380738, -0.000564309652, 0.759553969 , 0.457112461 , 0.7426546   , -0.00019436673, -0.00178258342, -0.545086145, 3.91        , 23          , 12          , 0.06192221  , 0
-0.0373313464, 0.0224940572, -9.84314    , 0.00148969435, -1.4148769E-05, 3.107247E-05, 0.7594104   , 0.456838369 , 0.744509637 , -0.0001794703, -0.00178272487, -0.545086145, 3.92        , 23          , 50          , 0           , 0
-0.02008279 , 0.0093414   , -9.814716   , 0.00404930534, 0.00252544461, -0.000784709933, 0.7594104   , 0.456838369 , 0.744509637 , -0.0001389634, -0.00175747159, -0.5450938  , 3.93        , 23          , 11          , 0.00704990048, 0.007049895
-0.0289983451, 0.01619656  , -9.803952   , 0.0009035751, -0.002566649, 0.0005655665, 0.7600908   , 0.457113653 , 0.7439361   , -0.000129937616, -0.00178313721, -0.545088053, 3.94        , 23          , 12          , 0.06192221  , 0
-0.04099071 , 0.0211319085, -9.831939   , 0.00321816048, 0.003957732 , -0.00190268166, 0.759278357 , 0.457257748 , 0.743227541 , -9.772247E-05, -0.00174356252, -0.5451071  , 3.95        , 23          , 50          , 0           , 0
-0.00707068853, 0.007692089 , -9.807842   , 0.000363010331, -3.766501E-06, -0.000254022161, 0.7596738   , 0.456983238 , 0.7459359   , -9.40879254E-05, -0.00174360047, -0.545109749, 3.96        , 23          , 11          , 0.00704990048, 0.007049895
-0.0303410124, 0.0158098936, -9.809371   , 0.004607622 , 0.0019519839, -0.0005074707, 0.7596738   , 0.456983238 , 0.7459359   , -4.800297E-05, -0.00172408076, -0.545114756, 3.97        , 23          , 12          , 0.06192221  , 0
-0.0420012958, 0.0152787194, -9.830198   , 9.566592E-05, 0.001978205 , 0.0006218347, 0.759824    , 0.456831    , 0.7433657   , -4.705686E-05, -0.00170429831, -0.545108557, 3.98        , 23          , 50          , 0           , 0
-0.0311497133, -0.00142782 , -9.791969   , 0.00265253475, 0.003956226 , -0.00105224247, 0.7588672   , 0.457122833 , 0.74408555  , -2.05138076E-05, -0.00166473642, -0.545119047, 3.99        , 23          , 11          , 0.00704990048, 0.007049895
-0.0480905138, 0.00318029174, -9.824061   , 0.00036957566, 0.0005464994, -0.0002467552, 0.759945869 , 0.45726198  , 0.74550736  , -1.06406078E-05, -0.00171554962, -0.545120955, 4           , 23          , 12          , 0.0629919842, 0
-0.0343220234, 0.01691873  , -9.827853   , 0.00146558683, -0.00232149567, 0.003123338 , 0.759961069 , 0.456969529 , 0.7429373   , 3.961241E-06, -0.00173876446, -0.5450897  , 4.01        , 23          , 50          , 0           , 0
-0.0271654055, 0.0158066675, -9.817437   , -0.002192516, -0.00283066882, -0.001427691, 0.759961069 , 0.456969529 , 0.7429373   , -1.79389E-05, -0.00176707085, -0.545104   , 4.02        , 23          , 11          , 0.007233432 , 0.00723342923
-0.03895575 , 0.011083723 , -9.818951   , -0.0007511042, 0.00112802163, -0.0010921075, 0.759411335 , 0.456697226 , 0.744509041 , -2.54306469E-05, -0.001755791, -0.545115   , 4.03        , 23          , 12          , 0.0629919842, 0
-0.04350475 , 0.0110588791, -9.803247   , 0.002052227 , -0.000320999854, 0.000311997021, 0.760222852 , 0.4572561   , 0.744506836 , -4.91386936E-06, -0.00175900082, -0.5451119  , 4.04        , 23          , 50          , 0           , 0
-0.050559245, 0.0180223268, -9.812716   , 0.00206997874, 0.001668422 , -0.000230352409, 0.7592811   , 0.45739612  , 0.742514551 , 1.578993E-05, -0.00174231664, -0.5451143  , 4.05        , 23          , 11          , 0.007233432 , 0.00723342923
-0.0209643543, 0.0111292945, -9.81021    , -0.004152431, -0.0005638187, 0.00115193427, 0.759541631 , 0.4569814   , 0.745223045 , -2.5754458E-05, -0.00174795487, -0.5451026  , 4.06        , 23          , 12          , 0.0629919842, 0
-0.0242891442, 0.00214918144, -9.806269   , 0.00119967561, -0.00116561749, 0.000300214015, 0.759541631 , 0.4569814   , 0.745223045 , -1.376296E-05, -0.00175961084, -0.5450995  , 4.07        , 23          , 50          , 0           , 0
-0.03138926 , 0.00727851875, -9.811252   , 0.004864824 , -0.00118931383, -0.000262708636, 0.760225058 , 0.4572544   , 0.7440787   , 3.48899339E-05, -0.001771504, -0.545102358, 4.08        , 23          , 11          , 0.007233432 , 0.00723342923
-0.03321038 , 0.005107606 , -9.818039   , -0.00188131072, 0.00140483864, 0.001179774 , 0.7592672   , 0.457266182 , 0.745368361 , 1.60560267E-05, -0.00175745587, -0.545090437, 4.09        , 23          , 12          , 0.0629919842, 0
-0.0357906967, 0.0127813611, -9.812602   , 0.00177579676, 0.0005270435, 3.87030268E-05, 0.75995487  , 0.4566934   , 0.7445061   , 2.60439538E-05, -0.00177572889, -0.54508996 , 4.1         , 23          , 50          , 0           , 0
-0.03711316 , 0.0141685158, -9.813955   , -0.0007575764, 0.00138558634, 0.00174859655, 0.75995487  , 0.4566934   , 0.7445061   , 1.84373075E-05, -0.00176187337, -0.545072556, 4.11        , 23          , 11          , 0.00731959334, 0.007319581
-0.0402849764, 0.0115919039, -9.82346    , 0.0006683016, 0.00308459275, 0.000636974641, 0.760368    , 0.4569672   , 0.7430778   , 2.51091915E-05, -0.001731028, -0.5450661  , 4.12        , 23          , 12          , 0.06406696  , 0
-0.00804786 , 0.0284516588, -9.808583   , -0.00243461551, 0.00254631  , -0.0002251264, 0.758311152 , 0.4575574   , 0.7459456   , 7.66887069E-07, -0.00170556467, -0.5450685  , 4.13        , 23          , 50          , 0           , 0
-0.006155651, 0.00641506771, -9.820893   , 8.648925E-05, 0.0008214895, 0.000323919 , 0.7606252   , 0.456835926 , 0.7460729   , 1.62635365E-06, -0.00169734983, -0.545065165, 4.14        , 23          , 11          , 0.00731959334, 0.007319581
-0.02833569 , 0.003102558 , -9.802704   , 0.00122557348, 0.00223130267, 0.000343211344, 0.759826958 , 0.456828773 , 0.7427948   , 1.38762616E-05, -0.00167503685, -0.5450618  , 4.15        , 23          , 12          , 0.06406696  , 0
-0.0259004533, 0.0142830983, -9.796736   , 0.005158851 , 0.0007814666, 0.0006138579, 0.759826958 , 0.456828773 , 0.7427948   , 6.545449E-05, -0.00166722236, -0.5450556  , 4.16        , 23          , 50          , 0           , 0
-0.02758316 , 0.020207027 , -9.801205   , 0.000912542455, -0.00145602692, 0.0005800143, 0.7592774   , 0.456415862 , 0.7445087   , 7.45701836E-05, -0.001681783, -0.545049667, 4.17        , 23          , 11          , 0.00731959334, 0.007319581
-0.0110931266, 0.009134137 , -9.809672   , 0.00146916206, -0.00231123017, 0.000569961441, 0.759947658 , 0.457541466 , 0.7447949   , 8.925213E-05, -0.00170489587, -0.5450442  , 4.18        , 23          , 12          , 0.06406696  , 0
-0.02403525 , -0.0108378641, -9.818974   , 0.004309954 , 0.000224332631, 3.82356375E-05, 0.7594179   , 0.457254    , 0.742513239 , 0.000132350979, -0.00170265255, -0.5450437  , 4.19        , 23          , 50          , 0           , 0
-0.03201961 , -0.00392697752, -9.81855    , -0.00273211347, 0.0005501604, 0.001168089 , 0.7596775   , 0.456980437 , 0.7452223   , 0.000119042124, -0.0017079165, -0.545031548, 4.2         , 23          , 11          , 0.007487766 , 0.00748774735
-0.0331348032, -0.0134800961, -9.803341   , 0.00288133323, -0.00260474975, 7.695471E-07, 0.7596775   , 0.456980437 , 0.7452223   , 0.0001478554, -0.00173396384, -0.545031548, 4.21        , 23          , 12          , 0.0651467144, 0
-0.04649225 , -0.00510130636, -9.804762   , -0.00244062115, 0.00140666659, 4.433806E-05, 0.760230362 , 0.456688672 , 0.743791044 , 0.000123448423, -0.00171989726, -0.5450311  , 4.22        , 23          , 50          , 0           , 0
-0.04147149 , -0.00330807455, -9.816845   , -0.002725849, 0.000845297938, -0.0005305923, 0.7592766   , 0.4573995   , 0.7433709   , 9.619905E-05, -0.00171144377, -0.5450363  , 4.23        , 23          , 11          , 0.007487766 , 0.00748774735
-0.030781867, 0.0158407241, -9.812525   , -0.000439326977, 0.00451972056, -0.00104868377, 0.7596738   , 0.456983238 , 0.7459359   , 9.18235237E-05, -0.001666246, -0.5450468  , 4.24        , 23          , 12          , 0.0651467144, 0
-0.043154195, 0.00261585414, -9.821315   , 0.005472925 , 0.00418012263, 0.0006572642, 0.7596738   , 0.456983238 , 0.7459359   , 0.000146541948, -0.00162444531, -0.545040369, 4.25        , 23          , 50          , 0           , 0
-0.03708207 , 0.0181255378, -9.799973   , 0.0009403439, 0.00110143109, -0.000522512244, 0.7599648   , 0.455983669 , 0.7435043   , 0.000155953821, -0.0016134301, -0.5450454  , 4.26        , 23          , 11          , 0.007487766 , 0.00748774735
-0.0285976864, 0.0152074434, -9.79270649 , 0.0051826057, 0.00277352543, -0.0007795425, 0.759274542 , 0.456839323 , 0.744510353 , 0.000207792342, -0.00158569391, -0.545053244, 4.27        , 23          , 12          , 0.0651467144, 0
-0.0415962972, 0.018183168 , -9.795969   , 0.00206637522, 0.0010891353, 4.6292862E-05, 0.7598099   , 0.456841677 , 0.746077359 , 0.000228455334, -0.00157480268, -0.545052767, 4.28        , 23          , 50          , 0           , 0
-0.02153278 , 0.00481689069, -9.808469   , 0.004618285 , 0.00277584628, -0.000496524, 0.7598196   , 0.457255632 , 0.743652761 , 0.000274645921, -0.00154704251, -0.5450578  , 4.29        , 23          , 11          , 0.007487766 , 0.00748774735
-0.0285695642, 0.0157056227, -9.799452   , -0.002153808, 0.002817103 , 6.254052E-05, 0.7598196   , 0.457255632 , 0.743652761 , 0.000229050071, -0.00153923815, -0.545057535, 4.3         , 23          , 12          , 0.0662308261, 0
-0.03092005 , 0.03730024  , -9.787149   , 0.00151042745, 0.003067495 , 0.000921751955, 0.75940305  , 0.457265228 , 0.745367646 , 0.000244140247, -0.00150856515, -0.545048237, 4.31        , 23          , 50          , 0           , 0
-0.0223874561, 0.008394483 , -9.802148   , 7.371468E-05, -0.000323882326, 0.0005933316, 0.760914147 , 0.4566805   , 0.742931    , 0.000244868424, -0.00151180534, -0.5450423  , 4.32        , 23          , 11          , 0.00765437959, 0.00765435724
-0.0177444331, 0.0133885611, -9.819608   , 0.00149737473, 0.001645386 , 0.00147126464, 0.759148061 , 0.456973583 , 0.7425136   , 0.000259820052, -0.00149535516, -0.5450275  , 4.33        , 23          , 12          , 0.0662308261, 0
-0.02711035 , 0.0185261033, -9.819664   , 0.002644681 , 0.00335607748, -0.0010592558, 0.759678543 , 0.457260519 , 0.744652569 , 0.0002862826, -0.00146179192, -0.5450382  , 4.34        , 23          , 50          , 0           , 0
-0.0345597342, 0.00470507331, -9.821207   , 0.00263502239, 0.00249745441, 6.48413552E-05, 0.759678543 , 0.457260519 , 0.744652569 , 0.000312631833, -0.00143681746, -0.5450375  , 4.35        , 23          , 11          , 0.00765437959, 0.00765435724
-0.0453071445, 0.008932377 , -9.816335   , -0.00076108455, 0.000820921734, 3.91991452E-05, 0.760228753 , 0.4572516   , 0.7433651   , 0.000305020454, -0.00142860832, -0.545037031, 4.36        , 23          , 12          , 0.0662308261, 0
-0.01878704 , 0.008322356 , -9.801661   , -0.002989652, 0.00368207763, -0.0010625947, 0.7592766   , 0.4573995   , 0.7433709   , 0.000275138882, -0.0013917844, -0.54504776 , 4.37        , 23          , 50          , 0           , 0
-0.0229680948, -0.000104272738, -9.809874   , 0.0009350114, 0.0016534474, 0.000903151638, 0.7598099   , 0.456841677 , 0.746077359 , 0.0002844765, -0.00137525238, -0.5450387  , 4.38        , 23          , 11          , 0.00765437959, 0.00765435724
-0.0497958474, 0.0103449747, -9.812771   , 0.000687376363, 0.00563058071, 0.000385527761, 0.7598099   , 0.456841677 , 0.746077359 , 0.0002913451, -0.00131894788, -0.5450349  , 4.39        , 23          , 12          , 0.0662308261, 0
-0.05498914 , 0.01914294  , -9.831654   , 0.00321127451, 0.00474541634, -0.000756891444, 0.7601006   , 0.456544518 , 0.7427922   , 0.00029372907, -0.00135449565, -0.5450423  , 4.4         , 23          , 50          , 0           , 0
-0.04370396 , 0.0224497486, -9.819807   , 0.00175994344, 0.000204105279, 0.00117004558, 0.759409    , 0.457260728 , 0.74422586  , 0.000311312644, -0.00135245838, -0.545030355, 4.41        , 23          , 11          , 0.0077515645, 0.007751547
-0.0417587459, 0.01046277  , -9.787484   , -0.0016249395, -0.0008859789, -0.001685538, 0.7600803   , 0.4572621   , 0.7457921   , 0.000295086124, -0.00136131281, -0.5450473  , 4.42        , 23          , 12          , 0.06731888  , 0
-0.030315347, 0.0188910887, -9.798995   , 0.00119379349, -0.000629234943, -0.0008273649, 0.7598282   , 0.456968248 , 0.7423672   , 0.0003070354, -0.00136760273, -0.5450556  , 4.43        , 23          , 50          , 0           , 0
-0.031631045, 0.0211572349, -9.79719    , -0.00498776 , 0.00168659433, -0.000806324359, 0.7598282   , 0.456968248 , 0.7423672   , 0.000257168722, -0.0013507345, -0.545063734, 4.44        , 23          , 11          , 0.0077515645, 0.007751547
-0.04578806 , 0.009731148 , -9.800583   , -0.00330771925, 0.000811440754, 0.000887269736, 0.759685755 , 0.456412435 , 0.7443638   , 0.000224079587, -0.0013426221, -0.5450547  , 4.45        , 23          , 12          , 0.06731888  , 0
-0.0469736122, 0.0170521848, -9.812686   , -0.0004935565, -0.00032904846, -0.00139328011, 0.7595429   , 0.457120866 , 0.744795442 , 0.000219162728, -0.00134590955, -0.545068741, 4.46        , 23          , 50          , 0           , 0
-0.0192872416, 0.0291367564, -9.811394   , 0.00120227924, 0.0007794793, 0.000609095732, 0.75941503  , 0.457677484 , 0.7425149   , 0.000231177357, -0.00133811624, -0.545062542, 4.47        , 23          , 11          , 0.0077515645, 0.007751547
-0.0386074334, 0.007813084 , -9.803673   , -0.0016249395, -0.0008859789, -0.001685538, 0.7598144   , 0.4568383   , 0.745221    , 0.000214950589, -0.00134697231, -0.54507947 , 4.48        , 23          , 12          , 0.06731888  , 0
-0.0357567966, 0.0184709579, -9.788704   , -0.00727689266, -0.00199548271, 0.000846609 , 0.7598144   , 0.4568383   , 0.745221    , 0.000142170116, -0.00136692845, -0.5450709  , 4.49        , 23          , 50          , 0           , 0
-0.0465299  , 0.0191855058, -9.796913   , -0.00277838972, -0.00175466493, -0.000562950037, 0.76037     , 0.457106143 , 0.7425075   , 5.30444122E-05, -0.00145358744, -0.5450773  , 4.5         , 23          , 11          , 0.007882217 , 0.007882215
-0.0421689153, 0.00970344152, -9.806395   , 0.00231811986, 0.00104379  , -0.0005209051, 0.7584504   , 0.457273    , 0.7456583   , 7.623318E-05, -0.00144314917, -0.545082569, 4.51        , 23          , 12          , 0.0684105456, 0
-0.03503139 , 0.004231373 , -9.816715   , 0.000899159058, -0.000358165475, -0.00139167474, 0.760498941 , 0.456829578 , 0.74421823  , 8.52448647E-05, -0.00144672976, -0.5450964  , 4.52        , 23          , 50          , 0           , 0
-0.0288652778, 0.0242787264, -9.799836   , 0.00147731684, 0.00161745434, -0.0005147798, 0.760498941 , 0.456829578 , 0.74421823  , 0.000100025412, -0.00143055478, -0.545101643, 4.53        , 23          , 11          , 0.007882217 , 0.007882215
-0.03699336 , 0.0235136375, -9.797228   , 0.002878786 , 0.00075398566, -0.000240084191, 0.759961843 , 0.456969    , 0.742794633 , 0.000128816668, -0.00142301479, -0.545104   , 4.54        , 23          , 12          , 0.0684105456, 0
-0.0384209044, 0.0155905755, -9.820257   , 2.02420924E-05, -0.00377099868, 0.0008339911, 0.7592743   , 0.45697993  , 0.744368255 , 0.000129007065, -0.00146072579, -0.5450957  , 4.55        , 23          , 50          , 0           , 0
-0.0386976264, 0.0006955676, -9.816783   , 0.00203093421, 0.000476680725, -0.0002447039, 0.759947    , 0.4569802   , 0.745649    , 0.000149319982, -0.00145595893, -0.545098066, 4.56        , 23          , 11          , 0.007882217 , 0.007882215
-0.0275819432, -0.008049481, -9.821238   , 0.00144651206, -0.00179407652, 0.0005770823, 0.7595561   , 0.456689537 , 0.7427957   , 0.000163776655, -0.00147390051, -0.545092344, 4.57        , 23          , 12          , 0.0684105456, 0
-0.0312078055, -0.008469198, -9.815879   , -0.005570233, 0.00138864107, -0.0008107227, 0.7595561   , 0.456689537 , 0.7427957   , 0.00010808622, -0.00146001275, -0.545100451, 4.58        , 23          , 50          , 0           , 0
-0.0246463176, 0.01143946  , -9.780545   , 0.0012103644, 0.003877342 , 0.00121579017, 0.75941205  , 0.456696659 , 0.744366348 , 0.000120172357, -0.00142124086, -0.5450883  , 4.59        , 23          , 11          , 0.007882217 , 0.007882215
-0.0185880437, 0.02130713  , -9.789851   , 0.0006660024, 0.00561103458, -0.00358654652, 0.7599507   , 0.4569774   , 0.7449354   , 0.000104425962, -0.00138425629, -0.545124531, 4.6         , 23          , 12          , 0.06950547  , 0
-0.03532302 , 0.0136771128, -9.813042   , -0.000814436353, -0.00206006458, -0.000280455162, 0.7596942   , 0.456686884 , 0.74236685  , 9.628549E-05, -0.00140485656, -0.545127153, 4.61        , 23          , 50          , 0           , 0
-0.0250230841, 0.0103278812, -9.81341    , 0.00286246  , -0.000665478932, -0.0008254696, 0.7599521   , 0.456555039 , 0.7452191   , 0.000124921717, -0.0014115104, -0.5451355  , 4.62        , 23          , 11          , 0.007976133 , 0.007976143
-0.0302615725, -0.004494531, -9.806837   , 0.00401094276, 0.00187895994, -0.0007918507, 0.7599521   , 0.456555039 , 0.7452191   , 0.000165042264, -0.00139271957, -0.545143366, 4.63        , 23          , 12          , 0.06950547  , 0
-0.04036551 , 0.007949078 , -9.818091   , -0.000837539847, -0.004618713, 0.0005384414, 0.76023525  , 0.4564041   , 0.743219    , 0.000156659255, -0.00143890758, -0.5451381  , 4.64        , 23          , 50          , 0           , 0
-0.0335032381, 0.015844848 , -9.805803   , 0.003132678 , -0.00153196021, 0.00115010492, 0.759142637 , 0.457118124 , 0.743370533 , 0.000187969446, -0.00145422923, -0.5451267  , 4.65        , 23          , 11          , 0.007976133 , 0.007976143
-0.0156384632, 0.0317682028, -9.810884   , -0.003057101, -0.000900847546, -0.00140373863, 0.759947    , 0.4569802   , 0.745649    , 0.000157418908, -0.00146323524, -0.5451405  , 4.66        , 23          , 12          , 0.06950547  , 0
-0.0220020749, 0.0274305   , -9.817738   , -0.0008043856, -0.0009235255, -0.000549839053, 0.759947    , 0.4569802   , 0.745649    , 0.000149383122, -0.00147246977, -0.5451462  , 4.67        , 23          , 50          , 0           , 0
-0.0238792934, 0.025989471 , -9.800219   , -0.00107499235, 0.0010488783, 0.00174457009, 0.7600986   , 0.4564056   , 0.7433625   , 0.00013860756, -0.00146198343, -0.5451286  , 4.68        , 23          , 11          , 0.007976133 , 0.007976143
-0.0304258168, 0.009136634 , -9.821577   , -0.001618559, 0.003326191 , 0.00120511046, 0.7591406   , 0.4569792   , 0.7439408   , 0.0001224046, -0.0014287231, -0.545116663, 4.69        , 23          , 12          , 0.06950547  , 0
-0.0333728679, -0.00304434262, -9.812257   , -0.0008060518, -0.00064623385, -0.0005462679, 0.759811    , 0.4571218   , 0.745507538 , 9.8665E-05  , -0.00146005815, -0.5451219  , 4.7         , 23          , 50          , 0           , 0
-0.0220863856, -0.0001659235, -9.803565   , 0.000359662052, 0.00443963148, 0.00122184865, 0.759955466 , 0.457254678 , 0.743652    , 0.000102244063, -0.001415663, -0.54511    , 4.71        , 23          , 11          , 0.008119178 , 0.00811918452
-0.04229269 , 0.0007803757, -9.81907    , 0.00204453082, 0.00330187031, -0.000208954065, 0.759955466 , 0.457254678 , 0.743652    , 0.00012269232, -0.001382644, -0.5451119  , 4.72        , 23          , 12          , 0.07060335  , 0
-0.0393803045, 0.0141735421, -9.808579   , 0.0009325967, 0.005016105 , -0.0007562693, 0.7591382   , 0.4571215   , 0.7442268   , 0.000132028537, -0.00133248209, -0.5451195  , 4.73        , 23          , 50          , 0           , 0
-0.02701598 , 0.000845937058, -9.805859   , -0.00390452985, -0.0003412019, -0.000262782065, 0.7600852   , 0.4573988   , 0.7446509   , 9.298679E-05, -0.00133589387, -0.545122147, 4.74        , 23          , 11          , 0.008119178 , 0.00811918452
-0.03277614 , 0.00592403859, -9.807228   , -0.00249470677, -0.000349874317, -0.0005447624, 0.759419262 , 0.456831634 , 0.742797    , 6.804697E-05, -0.00133939215, -0.54512763 , 4.75        , 23          , 12          , 0.07060335  , 0
-0.0232934132, 0.0332062319, -9.8024025  , -0.00165351119, -0.0006456229, 0.0003038255, 0.759678    , 0.457120478 , 0.7449374   , 5.15077772E-05, -0.00134584832, -0.545124531, 4.76        , 23          , 50          , 0           , 0
-0.00769441249, 0.0226043426, -9.811326   , -0.00169110426, -0.00518412562, 0.000246519165, 0.759678    , 0.457120478 , 0.7449374   , 3.459334E-05, -0.0013976898, -0.5451219  , 4.77        , 23          , 11          , 0.008119178 , 0.00811918452
-0.0352909565, 0.0133216837, -9.826543   , -0.003944733, -0.004887358, 0.000814753468, 0.760092139 , 0.457253128 , 0.7435086   , -4.86558338E-06, -0.00144656352, -0.5451138  , 4.78        , 23          , 12          , 0.07060335  , 0
-0.03855533 , 0.0340386853, -9.815157   , -0.0005026794, 0.00218247226, 0.000341026083, 0.759411    , 0.457399666 , 0.7436555   , -9.897292E-06, -0.0014247389, -0.545110464, 4.79        , 23          , 50          , 0           , 0
-0.0274862461, 0.0277719647, -9.787642   , 0.000318867242, 0.00103960978, -0.00137477438, 0.759811163 , 0.456981152 , 0.745649755 , -8.053368E-05, -0.00146780128, -0.5451257  , 4.8         , 23          , 11          , 0.008270522 , 0.008270527
-0.03514536 , 0.0005092416, -9.800097   , -0.00140020042, -0.00179764593, 0.0005733061, 0.7598274   , 0.456547558 , 0.7430791   , -9.454419E-05, -0.0014857772, -0.54512    , 4.81        , 23          , 12          , 0.07170387  , 0
-0.020726366, -0.000169573352, -9.806701   , 0.004007512 , 0.0038524773, -0.00190188061, 0.7598274   , 0.456547558 , 0.7430791   , -5.44411923E-05, -0.00144725386, -0.545138836, 4.82        , 23          , 50          , 0           , 0
-0.0297027268, -0.0007936973, -9.82165051 , 0.00229157764, 0.00185470982, 0.00175920781, 0.7590014   , 0.4572636   , 0.744228065 , -3.155068E-05, -0.001428706, -0.545121431, 4.83        , 23          , 11          , 0.008270522 , 0.008270527
-0.0434445143, 0.03859821  , -9.809321   , 0.0005873884, -0.000108614156, 0.00031350783, 0.76008004  , 0.4574027   , 0.745649934 , -2.56812764E-05, -0.001429792, -0.5451181  , 4.84        , 23          , 12          , 0.07170387  , 0
-0.01764885 , 0.020950336 , -9.805594   , 0.0042627193, 0.00155814667, 0.00147433789, 0.7596918   , 0.45682916  , 0.7426528   , 1.692491E-05, -0.00141421065, -0.5451033  , 4.85        , 23          , 50          , 0           , 0
-0.0289611146, 0.013696027 , -9.832774   , -0.0002684251, -0.0009627996, 0.00172027713, 0.7596918   , 0.45682916  , 0.7426528   , 1.4216188E-05, -0.00142383878, -0.545086145, 4.86        , 23          , 11          , 0.008270522 , 0.008270527
-0.013029702, 0.00151166879, -9.810206   , -0.004500376, -0.00177435693, 0.0005694998, 0.7595504   , 0.4565534   , 0.744079649 , -3.07957562E-05, -0.00144158222, -0.5450804  , 4.87        , 23          , 12          , 0.07170387  , 0
-0.0246775635, -0.02120879 , -9.816815   , 0.0005913032, -9.71330155E-05, -0.00138875493, 0.7598215   , 0.456552058 , 0.744220853 , -2.486276E-05, -0.00144255371, -0.545094252, 4.88        , 23          , 50          , 0           , 0
-0.0505755134, 0.0153948879, -9.823538   , 0.000900027 , 0.00330079929, -0.0007780084, 0.7598243   , 0.457111657 , 0.7429386   , -1.585139E-05, -0.00140954589, -0.5451021  , 4.89        , 23          , 11          , 0.008270522 , 0.008270527
-0.0333514176, 0.0244029742, -9.805281   , 0.00062546  , 0.00498771667, -0.000189418992, 0.759810448 , 0.456981719 , 0.745792449 , -3.21844127E-05, -0.00141411484, -0.5451038  , 4.9         , 23          , 12          , 0.0728067458, 0
-0.0319497958, 0.02622392  , -9.811552   , 0.0002891936, -0.00181217911, -0.00112685608, 0.759810448 , 0.456981719 , 0.745792449 , -2.9276418E-05, -0.00143223675, -0.545115232, 4.91        , 23          , 50          , 0           , 0
-0.0211943537, 0.0220156461, -9.819123   , 0.00116028078, 0.00157769211, 5.20038229E-05, 0.760502756 , 0.456264943 , 0.744216    , -1.76743379E-05, -0.0014164598, -0.5451145  , 4.92        , 23          , 11          , 0.008392069 , 0.00839208253
-0.03226551 , 0.008647544 , -9.811249   , 0.00144342007, 0.00157940178, -0.0005150711, 0.759275138 , 0.45740062  , 0.7436563   , -3.23294375E-06, -0.00140066608, -0.545119762, 4.93        , 23          , 12          , 0.0728067458, 0
-0.0356360152, 0.0235036388, -9.799463   , -0.00279244524, 0.0007563633, 3.64144871E-05, 0.7598091   , 0.4574041   , 0.7455087   , -3.115795E-05, -0.00139310234, -0.5451193  , 4.94        , 23          , 50          , 0           , 0
-0.0317992829, 0.00824543  , -9.819349   , -0.000572363555, -0.00351350661, -0.000298252475, 0.7600983   , 0.457108051 , 0.742508948 , -3.68773872E-05, -0.00142823742, -0.5451224  , 4.95        , 23          , 11          , 0.008392069 , 0.00839208253
-0.01164268 , 0.004592386 , -9.803416   , -0.001692651, -0.00265406887, -0.000288891664, 0.7600983   , 0.457108051 , 0.742508948 , -5.379971E-05, -0.00145477825, -0.545125246, 4.96        , 23          , 12          , 0.0728067458, 0
-0.0216953047, -0.00376661681, -9.80539    , 0.001713246 , 0.000435004855, 0.000605790236, 0.7590063   , 0.4564172   , 0.7443675   , -3.66761051E-05, -0.00145042792, -0.545119047, 4.97        , 23          , 50          , 0           , 0
-0.04126721 , 0.008826258 , -9.81224251 , 0.0022829182, 0.00100191054, 4.62246426E-05, 0.759950638 , 0.456556171 , 0.745504558 , -1.3847588E-05, -0.00144040887, -0.5451186  , 4.98        , 23          , 11          , 0.008392069 , 0.00839208253
-0.0235716812, 0.01571868  , -9.814701   , -0.00363468542, 0.0007722824, -0.00138317584, 0.7598275   , 0.4569688   , 0.7425099   , -5.017456E-05, -0.00143268635, -0.5451324  , 4.99        , 23          , 12          , 0.0728067458, 0
-0.038432762, 0.0177198276, -9.80269051 , -0.0008206109, 0.00158899114, -0.000234264211, 0.7598275   , 0.4569688   , 0.7425099   , -9.478201E-05, -0.00143953424, -0.545135736, 5           , 23          , 50          , 0           , 0
-0.0294070635, 0.0167350862, -9.815203   , -0.0008360133, -0.000116774259, 0.0003116669, 0.7595436   , 0.457120329 , 0.744652748 , -0.00010314658, -0.00144070177, -0.5451324  , 5.01        , 23          , 11          , 0.008540027 , 0.008540041
-0.0242530573, 0.02876828  , -9.80965    , 0.000571980956, -0.0009611076, -0.0022507424, 0.760087132 , 0.457116485 , 0.744649768 , -9.739421E-05, -0.00145031512, -0.545155048, 5.02        , 23          , 12          , 0.07391174  , 0
-0.010584116, 0.0353669822, -9.823401   , 0.004535282 , 0.001828594 , 0.000343312975, 0.7595515   , 0.4572547   , 0.742940664 , -5.20463436E-05, -0.00143202883, -0.5451517  , 5.03        , 23          , 50          , 0           , 0
