Acc X       , Acc Y       , Acc Z       , Gyro X      , Gyro Y      , Gyro Z      , Magn X      , Magn Y      , Magn Z      , Euler X     , Euler Y     , Euler Z     , Time        , Status      , LowRate X   , LowRate Y   , LowRate Z    
-0.0236761142, 0.0141765522, -9.787713   , 0.00221805787, 0.00250198343, 0.0008644208, 0.7600767   , 0.4567031   , 0.747217    , -0.00138721033, -0.00328297075, -0.543504953, 0           , 23          , 11          , 0.0346410163, 0.0346410163
-0.0239129476, 0.0233207941, -9.805191   , 0.00107753708, 0.00053442514, -0.00058058725, 0.760751963 , 0.4569823   , 0.747642636 , -0.001376416, -0.00327763474, -0.5435109  , 0.01        , 23          , 12          , 0.0346410163, 0
-0.004852338, 0.02676977  , -9.834213   , 0.0002115411, -0.00201021763, -0.00089757063, 0.7608834   , 0.457967818 , 0.7472176   , -0.001374271, -0.00329774944, -0.54352    , 0.02        , 23          , 50          , 0           , 0
-0.027225811, 0.0130745526, -9.81341    , 0.001080671 , 0.00137391326, 0.00113242061, 0.7603392   , 0.457410365 , 0.748074651 , -0.00136350119, -0.00328399451, -0.5435085  , 0.03        , 23          , 11          , 0.0346410163, 0.0346410163
-0.0374340527, -0.00126274489, -9.798335   , -0.0003265422, 0.00139023969, 0.0002795591, 0.761017263 , 0.456844866 , 0.7490678   , -0.00136677572, -0.00327008823, -0.5435059  , 0.04        , 23          , 12          , 0.0346410163, 0
-0.0106426887, 0.0117148794, -9.793447   , -0.000322235224, 0.00167963665, -0.0005679908, 0.761017263 , 0.456844866 , 0.7490678   , -0.00136997958, -0.0032533  , -0.5435116  , 0.05        , 23          , 50          , 0           , 0
-0.0295062214, 0.0143425241, -9.795424   , 0.002454338 , -0.00261551677, 0.00221884972, 0.761029    , 0.457397729 , 0.7460729   , -0.001345509, -0.00327942451, -0.5434892  , 0.06        , 23          , 11          , 0.0346410163, 0.0346410163
-0.03260544 , 0.0162528269, -9.802191   , -6.3112464E-05, -0.000603212859, 0.001105965 , 0.76034224  , 0.456846267 , 0.7482152   , -0.00134617661, -0.00328544131, -0.543478251, 0.07        , 23          , 12          , 0.0346410163, 0
-0.0430492833, 0.0367332771, -9.801682   , 0.002490886 , 0.00164315652, 0.0017051535, 0.76088506  , 0.456843    , 0.7483549   , -0.00132132357, -0.00326898717, -0.5434611  , 0.08        , 23          , 50          , 0           , 0
-0.03497091 , 0.007826615 , -9.815335   , -0.00259257085, 0.00026681085, 0.00111359567, 0.7603505   , 0.457261324 , 0.746076047 , -0.00134728535, -0.0032663045, -0.5434501  , 0.09        , 23          , 11          , 0.0346410163, 0.0346410163
-0.0401573069, -0.007735194, -9.831718   , 0.00248414138, 0.00023123798, 0.0005523937, 0.7603505   , 0.457261324 , 0.746076047 , -0.00117625715, -0.00334283477, -0.5434449  , 0.1         , 23          , 12          , 0.0346410163, 0
-0.034094695, 0.00602603424, -9.818041   , 0.00532963267, 0.00333411386, 2.7831089E-05, 0.7606126   , 0.456845462 , 0.7484991   , -0.00112296187, -0.00330949319, -0.5434449  , 0.11        , 23          , 50          , 0           , 0
-0.0129773607, 0.00379319466, -9.814237   , -0.0009123578, -0.00172321 , -0.000327961665, 0.7611536   , 0.4575458   , 0.7480708   , -0.00113207463, -0.00332672847, -0.543448   , 0.12        , 23          , 11          , 0.0346410163, 0.0346410163
-0.0206714571, 0.000823617 , -9.819742   , 0.004759568 , 0.0024892923, -0.000267316384, 0.7607536   , 0.457402438 , 0.746787965 , -0.00108447019, -0.00330183841, -0.5434506  , 0.13        , 23          , 12          , 0.0346410163, 0
-0.010108212, 0.0119061247, -9.82179    , -0.00399687048, -0.000270157645, -0.00201612269, 0.7607536   , 0.457402438 , 0.746787965 , -0.00112437236, -0.0033045623, -0.54347086 , 0.14        , 23          , 50          , 0           , 0
-0.0282043647, 0.00643437775, -9.827875   , -0.004299719, -0.0022670303, -5.556681E-05, 0.7606065   , 0.457411826 , 0.74892956  , -0.00116736779, -0.00332723325, -0.543471336, 0.15        , 23          , 11          , 0.0346410163, 0.0346410163
-0.04844255 , 0.0098939   , -9.81635952 , 0.0007551512, -0.00457247673, -0.0003617019, 0.7606223   , 0.457259417 , 0.746074557 , -0.00115980452, -0.00337296235, -0.5434749  , 0.16        , 23          , 12          , 0.0346410163, 0
-0.027239114, 0.0139059415, -9.803504   , 0.001928174 , 0.0010883552, 0.0002787361, 0.7593789   , 0.457564384 , 0.749650359 , -0.00114053208, -0.00336207543, -0.543472052, 0.17        , 23          , 50          , 0           , 0
-0.0181850344, 0.0164403059, -9.803837   , -0.001179834, -0.000295156526, -0.00144524127, 0.7615661   , 0.457258344 , 0.747496545 , -0.00115228177, -0.00336504355, -0.5434866  , 0.18        , 23          , 11          , 0.0346410163, 0.0346410163
-0.029417593, -0.00809749 , -9.809558   , -0.000341640844, -0.0008764751, -0.000316524674, 0.7615661   , 0.457258344 , 0.747496545 , -0.00115568761, -0.003373812, -0.5434897  , 0.19        , 23          , 12          , 0.0346410163, 0
-0.0285856463, 0.0152360024, -9.796757   , 0.000231663173, -0.00257457653, -0.000904812943, 0.761022866 , 0.4575428   , 0.7470725   , -0.000572134857, -0.00328956475, -0.543500662, 0.2         , 23          , 50          , 0           , 0
-0.0424685739, 0.0191301443, -9.80002    , -0.00112542452, 0.003954366 , 2.6966356E-05, 0.759656131 , 0.457417965 , 0.748792    , -0.0005833899, -0.00325002079, -0.5435002  , 0.21        , 23          , 11          , 0.0297122356, 0.0297122318
-0.0370796472, 0.0151109518, -9.81979752 , -0.001717548, 0.0008307261, 0.00112171809, 0.7617047   , 0.457395762 , 0.7467828   , -0.000600601838, -0.00324170664, -0.5434892  , 0.22        , 23          , 12          , 0.0346698463, 0
-0.008972587, 0.025822429 , -9.816713   , -0.003699525, -0.0005650815, -3.34542419E-05, 0.7600759   , 0.457686722 , 0.7460792   , -0.0006375961, -0.00324735767, -0.543489456, 0.23        , 23          , 50          , 0           , 0
-0.0124220578, 0.013094794 , -9.792553   , -0.00143715052, 0.0002708636, -0.000303651585, 0.7600759   , 0.457686722 , 0.7460792   , -0.0006519578, -0.00324465148, -0.543492556, 0.24        , 23          , 11          , 0.0297122356, 0.0297122318
-0.00987546053, 0.00188924372, -9.80837    , 0.00222538761, 0.000239513189, 0.0002682678, 0.7606112   , 0.457267851 , 0.7482154   , -0.000629712769, -0.00324225426, -0.5434897  , 0.25        , 23          , 12          , 0.0346698463, 0
-0.0369452536, 0.02319628  , -9.816129   , 0.003624768 , -0.00118361413, -0.0005990418, 0.76115483  , 0.457685262 , 0.747643232 , -0.0005934456, -0.00325409416, -0.543495655, 0.26        , 23          , 50          , 0           , 0
-0.03924711 , -0.002983056, -9.80511951 , -0.0005986972, -0.000586457, -0.0003133584, 0.760615766 , 0.4576857   , 0.7467898   , -0.000599422259, -0.00325996056, -0.543498755, 0.27        , 23          , 11          , 0.0297122356, 0.0297122318
-0.03558351 , 0.0009779632, -9.801448   , -0.00284462445, 0.0005631925, -1.80895731E-05, 0.760615766 , 0.4576857   , 0.7467898   , -0.0006278681, -0.00325432839, -0.543499   , 0.28        , 23          , 12          , 0.0346698463, 0
-0.016305171, 0.0174561329, -9.82496    , -0.0008362817, 0.004527216 , -0.001100366, 0.7607419   , 0.457270831 , 0.7492137   , -0.000636195356, -0.00320906332, -0.5435102  , 0.29        , 23          , 50          , 0           , 0
-0.03364743 , 0.02952359  , -9.827293   , 0.001093238 , 0.0005469704, -0.0002969167, 0.7611571   , 0.4576836   , 0.747215033 , -0.0007477276, -0.003037204, -0.5435126  , 0.3         , 23          , 11          , 0.0250505228, 0.02505051
-0.018901363, 0.0272496231, -9.800606   , 0.00166943832, 0.00251685  , 0.00143110973, 0.7603351   , 0.458115578 , 0.7479348   , -0.000731076347, -0.00301202526, -0.5434985  , 0.31        , 23          , 12          , 0.0347559527, 0
-0.0192572512, 0.009146514 , -9.789508   , 0.00307234121, 0.0008272877, -0.00199317583, 0.761018932 , 0.456703156 , 0.7489245   , -0.0007002928, -0.00300376653, -0.5435183  , 0.32        , 23          , 50          , 0           , 0
-0.0383923538, 0.02126748  , -9.79455948 , 0.00221404945, 0.0005193664, 0.002541572 , 0.761018932 , 0.456703156 , 0.7489245   , -0.0006782286, -0.00299855531, -0.543493032, 0.33        , 23          , 11          , 0.0250505228, 0.02505051
-0.0213429984, 0.0195057   , -9.782695   , -0.00680098776, 0.0008745998, 0.00196666  , 0.761164367 , 0.457256734 , 0.746357    , -0.000746297534, -0.002989795, -0.5434735  , 0.34        , 23          , 12          , 0.0347559527, 0
-0.0337558463, 0.00143850129, -9.807725   , -2.535267E-05, 0.001688151 , -2.63753464E-07, 0.7603355   , 0.457413167 , 0.748788238 , -0.0007465511, -0.00297291367, -0.5434735  , 0.35        , 23          , 50          , 0           , 0
-0.0237394869, 0.007985602 , -9.804416   , 0.00079874316, -0.0005951056, 0.001106963 , 0.7608924   , 0.457399249 , 0.746216357 , -0.0007385966, -0.00297885668, -0.5434623  , 0.36        , 23          , 11          , 0.0250505228, 0.02505051
0.004448396 , -0.00117260776, -9.796544   , -3.135675E-05, 0.00111701142, 0.000559993961, 0.7604781   , 0.457407147 , 0.747503042 , -0.0007389267, -0.00296768267, -0.5434568  , 0.37        , 23          , 12          , 0.0347559527, 0
-0.0003551524, 0.00402149837, -9.816802   , 0.001915897 , -0.002294032, -0.0006154056, 0.7604781   , 0.457407147 , 0.747503042 , -0.0007197493, -0.00299062743, -0.543463   , 0.38        , 23          , 50          , 0           , 0
-0.0289623812, 0.0145559767, -9.826916   , 0.0005103811, -0.00199596258, -0.00118097488, 0.7602019   , 0.457412422 , 0.7483609   , -0.0007146102, -0.003010596, -0.5434747  , 0.39        , 23          , 11          , 0.0250505228, 0.02505051
-0.0263791271, 0.009909495 , -9.814328   , 0.005614191 , 0.00278294086, -0.000262703456, 0.761299253 , 0.457396954 , 0.746356845 , -0.000729108346, -0.0029769293, -0.543477058, 0.4         , 23          , 12          , 0.03489849  , 0
-0.03492251 , 0.0109617449, -9.812609   , 0.00164240762, -3.163691E-05, 0.0008314775, 0.759658337 , 0.457416266 , 0.748363853 , -0.0007127089, -0.00297723967, -0.5434687  , 0.41        , 23          , 50          , 0           , 0
-0.04241374 , 0.0192602165, -9.818469   , 0.00082379533, 0.00337476446, 0.00144084019, 0.759658337 , 0.457416266 , 0.748363853 , -0.0007045137, -0.00294348225, -0.5434544  , 0.42        , 23          , 11          , 0.02380016  , 0.02380015
-0.0102061  , 0.00865361  , -9.807867   , 0.00644807657, 0.00191222562, 0.001713563 , 0.7610218   , 0.457262725 , 0.7476423   , -0.0006400832, -0.00292434823, -0.543437243, 0.43        , 23          , 12          , 0.03489849  , 0
-0.0228163451, 0.00759073533, -9.814758   , 0.000515855732, 0.00053266366, 0.00253951969, 0.7607487   , 0.45768702  , 0.74736     , -0.0006349989, -0.00291900523, -0.54341197 , 0.44        , 23          , 50          , 0           , 0
-0.0289965831, -0.005586544, -9.783431   , 0.00168091338, 0.004232777 , -0.000533350161, 0.760344267 , 0.456985176 , 0.747644842 , -0.0006181743, -0.002876681, -0.5434172  , 0.45        , 23          , 11          , 0.02380016  , 0.02380015
-0.03565478 , 0.0230276659, -9.795867   , 0.000265346869, 0.003394307 , -0.000829535653, 0.761288047 , 0.456984133 , 0.7490668   , -0.0006154971, -0.002842743, -0.54342556 , 0.46        , 23          , 12          , 0.03489849  , 0
-0.0253615286, 0.0196625814, -9.793985   , 0.00112625153, 0.00509372074, -0.00137442863, 0.761288047 , 0.456984133 , 0.7490668   , -0.0006041957, -0.00279181451, -0.5434394  , 0.47        , 23          , 50          , 0           , 0
-0.0468687862, 0.02334148  , -9.809933   , 0.003034087 , -0.002307647, 0.000237133645, 0.7608909   , 0.457400382 , 0.7465018   , -0.0005738614, -0.00281488942, -0.543437   , 0.48        , 23          , 11          , 0.02380016  , 0.02380015
-0.0343701  , 0.0176676326, -9.806247   , -0.00371479033, -0.000275066559, 0.0008213214, 0.7599301   , 0.457414359 , 0.748362362 , -0.0006110324, -0.002817635, -0.543428659, 0.49        , 23          , 12          , 0.03489849  , 0
-0.0180425346, 0.0254077986, -9.797462   , -0.000641753, 0.0008305466, -0.00199753768, 0.761153042 , 0.457405746 , 0.7483557   , -0.000935514341, -0.00299297785, -0.543447733, 0.5         , 23          , 50          , 0           , 0
-0.0201108  , 0.0101379082, -9.79986    , 0.00216170982, -6.45570544E-05, 0.00139970379, 0.760757565 , 0.457680255 , 0.7456474   , -0.000913939264, -0.00299361022, -0.5434339  , 0.51        , 23          , 11          , 0.0228765476, 0.02287654
-0.0506667122, 0.0121582458, -9.811865   , 0.00189097109, 0.00135392882, 0.00170097628, 0.760757565 , 0.457680255 , 0.7456474   , -0.0008950803, -0.00298005622, -0.543416739, 0.52        , 23          , 12          , 0.0350963436, 0
-0.0542725027, 0.0117861154, -9.813256   , 0.00610934431, -8.84570763E-05, 0.0005534167, 0.7602028   , 0.457271248 , 0.7483603   , -0.0008340034, -0.00298093585, -0.543411255, 0.53        , 23          , 50          , 0           , 0
-0.02190799 , 0.006297849 , -9.82556    , 0.00413859542, 0.000486022 , 0.00169299974, 0.7612928   , 0.457261384 , 0.7477835   , -0.000792667852, -0.00297606178, -0.5433943  , 0.54        , 23          , 11          , 0.0228765476, 0.02287654
-0.009944035, -0.002588151, -9.812458   , -0.00346766366, 0.0005527537, 0.000265104551, 0.7606177   , 0.4574034   , 0.74678874  , -0.0008273525, -0.002970532, -0.5433917  , 0.55        , 23          , 12          , 0.0350963436, 0
-0.03571945 , 0.0172651056, -9.809416   , 0.0007679416, 0.00165179453, 0.00085204246, 0.7606177   , 0.4574034   , 0.74678874  , -0.000819698442, -0.00295400666, -0.54338336 , 0.56        , 23          , 50          , 0           , 0
-0.0207264237, 0.02593231  , -9.800636   , 0.00246690772, 0.002215972 , -0.0005572705, 0.7608766   , 0.457551628 , 0.7490713   , -0.0007950128, -0.00293185213, -0.543388844, 0.57        , 23          , 11          , 0.0228765476, 0.02287654
-0.0278988481, 0.00306221447, -9.7982     , 0.00276127388, 0.004187968 , 0.00117041  , 0.761028349 , 0.456836432 , 0.746927    , -0.0007674341, -0.002889963, -0.543377161, 0.58        , 23          , 12          , 0.0350963436, 0
-0.0291962232, 0.000625604764, -9.832434   , -0.0006100321, 0.005351827 , 0.000613163342, 0.759247    , 0.457421958 , 0.749079645 , -0.0007735518, -0.00283644022, -0.543370962, 0.59        , 23          , 50          , 0           , 0
-0.017737601, 0.0151306624, -9.811044   , 0.000190101127, -0.001452127, -0.00117404282, 0.7615702   , 0.456974357 , 0.7470673   , -0.0007316681, -0.0028584504, -0.5433829  , 0.6         , 23          , 11          , 0.0198213328, 0.01982133
-0.00871963 , 0.0175793841, -9.799229   , -0.002344709, -0.00115132937, -0.0008898652, 0.7615702   , 0.456974357 , 0.7470673   , -0.000755089743, -0.00286997017, -0.543391943, 0.61        , 23          , 12          , 0.0353481732, 0
-0.02582278 , 0.0157617815, -9.814724   , -0.00287848525, 0.0025385248, -0.000560285349, 0.7604827   , 0.457263172 , 0.7467889   , -0.0007838584, -0.002844589, -0.5433974  , 0.62        , 23          , 50          , 0           , 0
-0.03996236 , 0.00480849575, -9.821262   , 0.00134276215, 0.00221162965, 0.00114358636, 0.7596575   , 0.457978666 , 0.747795165 , -0.0007704632, -0.002822464, -0.543386   , 0.63        , 23          , 11          , 0.0198213328, 0.01982133
-0.0181985144, 0.0151139079, -9.807449   , -0.00293343817, -0.00371148321, 0.000779470836, 0.760609    , 0.45726952  , 0.7486435   , -0.0007998198, -0.00285957288, -0.5433781  , 0.64        , 23          , 12          , 0.0353481732, 0
-0.0244048126, 0.02107327  , -9.804764   , -0.003468651, -0.0005793748, -0.000316664984, 0.7607593   , 0.457538545 , 0.7455041   , -0.0008344971, -0.002865369, -0.5433812  , 0.65        , 23          , 50          , 0           , 0
-0.033302594, 0.00575182866, -9.781584   , -0.003736388, 0.00112468074, -0.000295521168, 0.7607593   , 0.457538545 , 0.7455041   , -0.0008718527, -0.00285412464, -0.5433843  , 0.66        , 23          , 11          , 0.0198213328, 0.01982133
-0.0148965707, 0.0227454118, -9.8118515  , -0.000353073468, 0.00110310153, -0.00085878995, 0.760063    , 0.45741564  , 0.7489325   , -0.0008753588, -0.00284310081, -0.5433929  , 0.67        , 23          , 12          , 0.0353481732, 0
-0.0358341038, 0.0323083177, -9.832693   , -0.0009150446, 0.0013890788, -0.000572189747, 0.761017442 , 0.457687348 , 0.7479294   , -0.00088449294, -0.00282921526, -0.5433986  , 0.68        , 23          , 50          , 0           , 0
-0.04378583 , 0.018803753 , -9.813988   , 0.00500386441, 0.00162253366, 0.00028979  , 0.760072649 , 0.457408339 , 0.7470771   , -0.000834462466, -0.00281298719, -0.543395758, 0.69        , 23          , 11          , 0.0198213328, 0.01982133
-0.0290426873, 0.0404675156, -9.793853   , 0.00243991148, 0.00187614968, 0.00142514659, 0.760072649 , 0.457408339 , 0.7470771   , -0.0009348405, -0.00298433937, -0.543381   , 0.7         , 23          , 12          , 0.03565242  , 0
-0.0332128331, 0.0076906234, -9.800918   , 0.00527091324, 0.002999171 , 2.43810955E-05, 0.760745    , 0.456706733 , 0.7493541   , -0.000882132, -0.00295434752, -0.543381   , 0.71        , 23          , 50          , 0           , 0
-0.0437105671, 0.0232970156, -9.812149   , 0.00725980569, 0.00469202967, -0.0008028385, 0.760480046 , 0.457546055 , 0.746932745 , -0.0008095102, -0.00290743448, -0.543388844, 0.72        , 23          , 11          , 0.01956398  , 0.01956398
-0.0369318053, 0.0240911283, -9.815222   , -0.004347083, -0.00146160671, -0.0008958217, 0.7597948   , 0.457555354 , 0.7480782   , -0.0008529549, -0.00292205787, -0.543397665, 0.73        , 23          , 12          , 0.03565242  , 0
-0.03143517 , 0.00199192949, -9.828396   , 0.00215063617, 0.0007493817, 0.0005593426, 0.7608825   , 0.456564069 , 0.7492101   , -0.000831465, -0.00291455933, -0.5433922  , 0.74        , 23          , 50          , 0           , 0
-0.04076454 , 0.012393849 , -9.808159   , -0.000110172572, -0.000358738733, -0.0008763047, 0.7608825   , 0.456564069 , 0.7492101   , -0.0008325412, -0.002918154, -0.543401   , 0.75        , 23          , 11          , 0.01956398  , 0.01956398
-0.0239815582, 0.0184118338, -9.811982   , -0.0006942026, -0.00235158042, 0.0008001946, 0.7608924   , 0.457399249 , 0.746216357 , -0.000839506742, -0.002941663, -0.5433929  , 0.76        , 23          , 12          , 0.03565242  , 0
-0.0211793557, 0.02550302  , -9.802444   , 0.008096171 , 0.00327505  , -0.00195455062, 0.7600574   , 0.457700759 , 0.7496472   , -0.0007584879, -0.00290892785, -0.543412447, 0.77        , 23          , 50          , 0           , 0
-0.0311498214, -0.0027225  , -9.800081   , 0.00754399039, 0.00497356849, -0.00079891074, 0.761977434 , 0.457252651 , 0.746780753 , -0.000683024758, -0.002859198, -0.543420553, 0.78        , 23          , 11          , 0.01956398  , 0.01956398
-0.0323043354, 0.008123979 , -9.800904   , -0.000110825044, -0.000360652281, -0.0005925942, 0.7602073   , 0.45726788  , 0.747503936 , -0.000684116152, -0.00286280876, -0.5434265  , 0.79        , 23          , 12          , 0.03565242  , 0
-0.0223268345, 0.0137159666, -9.789952   , 0.00128515973, -0.00041100572, -0.0028605368, 0.7602073   , 0.45726788  , 0.747503936 , -0.000742639648, -0.00308077736, -0.5434549  , 0.8         , 23          , 50          , 0           , 0
-0.024930289, 0.01658863  , -9.806607   , -0.000400882069, 0.00127684639, 0.00113082386, 0.7604751   , 0.4574094   , 0.748073936 , -0.000746683159, -0.00306800054, -0.543443441, 0.81        , 23          , 11          , 0.0187736861, 0.0187736917
-0.0286206547, -0.014400851, -9.812751   , -0.00100162288, -0.003809426, -0.00120402151, 0.761298954 , 0.4571163   , 0.7467839   , -0.0007566624, -0.00310610351, -0.5434556  , 0.82        , 23          , 12          , 0.0360073522, 0
-0.03164313 , -0.006267881, -9.807316   , -0.00495865569, -0.00492015155, -0.0003720612, 0.759530365 , 0.457551628 , 0.7466525   , -0.000806237338, -0.00315530784, -0.5434592  , 0.83        , 23          , 50          , 0           , 0
-0.0447925143, 0.011665402 , -9.821708   , -0.00467107771, -0.00407512672, 0.000206450772, 0.759530365 , 0.457551628 , 0.7466525   , -0.0008529548, -0.0031960574, -0.543457031, 0.84        , 23          , 11          , 0.0187736861, 0.0187736917
-0.0509502478, 0.0224861354, -9.805483   , -0.00637683272, -0.00576627627, 0.0004665952, 0.760739267 , 0.457553685 , 0.7493575   , -0.000916738354, -0.00325371581, -0.543452263, 0.85        , 23          , 12          , 0.0360073522, 0
-0.0310707167, 0.0265874788, -9.801639   , -0.00463988073, -0.00038568 , -3.0698342E-05, 0.7610204   , 0.4576851   , 0.7473585   , -0.0009631362, -0.003257573, -0.5434525  , 0.86        , 23          , 50          , 0           , 0
-0.03088648 , 0.0121407909, -9.799056   , -0.000136931718, -0.00126861082, -0.0003196173, 0.7607491   , 0.4574058   , 0.7476443   , -0.0009644952, -0.00327026215, -0.543455839, 0.87        , 23          , 11          , 0.0187736861, 0.0187736917
-0.0205007624, 0.0111523988, -9.814705   , -0.001288024, -0.00382070336, 0.0007816056, 0.7610129   , 0.45726946  , 0.7493549   , -0.0009774014, -0.00330846128, -0.543447733, 0.88        , 23          , 12          , 0.0360073522, 0
-0.0420290567, 0.0190961454, -9.796416   , -0.000444218953, -0.004108798, 0.0004953517, 0.7610129   , 0.45726946  , 0.7493549   , -0.00098186 , -0.003349544, -0.5434427  , 0.89        , 23          , 50          , 0           , 0
-0.0308663845, 0.0126199331, -9.80310249 , -0.000488482765, 0.0006378795, -0.000862115936, 0.7610302   , 0.457115978 , 0.746214449 , -0.001252425, -0.00360153639, -0.5434506  , 0.9         , 23          , 11          , 0.0136865163, 0.0136865154
-0.0329762436, 0.0224904623, -9.790893   , -0.000521244947, -0.002779392, 0.00108087773, 0.7602038   , 0.4571301   , 0.74835974  , -0.00125767675, -0.00362931658, -0.5434396  , 0.91        , 23          , 12          , 0.036411088 , 0
-0.0314080939, 0.005939422 , -9.813063   , 0.00231510866, -0.00108714425, -0.000596435, 0.7610164   , 0.457407266 , 0.7484991   , -0.00123450416, -0.00364019582, -0.5434456  , 0.92        , 23          , 50          , 0           , 0
-0.0146912578, 0.00446544029, -9.8408     , 0.002033014 , -0.0008090247, 0.000541642657, 0.7606226   , 0.457540035 , 0.74564755  , -0.00121419388, -0.00364827923, -0.543440342, 0.93        , 23          , 11          , 0.0136865163, 0.0136865154
-0.03345636 , 0.016819    , -9.816145   , 0.000349318434, -0.000221354916, -0.0005881123, 0.7606226   , 0.457540035 , 0.74564755  , -0.0012106793, -0.00365049974, -0.543446064, 0.94        , 23          , 12          , 0.036411088 , 0
-0.03852693 , 0.01102435  , -9.811746   , -0.00106820592, -0.00106556516, -3.31663177E-05, 0.7607468   , 0.456986248 , 0.74864167  , -0.00122136029, -0.0036611557, -0.5434463  , 0.95        , 23          , 50          , 0           , 0
-0.02683874 , 0.009464343 , -9.813886   , -0.000219701455, -0.0007863468, -0.0003122571, 0.761018932 , 0.457686216 , 0.747643948 , -0.00122354645, -0.003669023, -0.5434494  , 0.96        , 23          , 11          , 0.0136865163, 0.0136865154
-0.0410575531, 0.0214048475, -9.806738   , 0.00119221094, -0.0002353606, 0.00054776785, 0.760347545 , 0.457263559 , 0.746646941 , -0.00121164427, -0.00367137 , -0.5434439  , 0.97        , 23          , 12          , 0.036411088 , 0
-0.0368791856, 0.002860128 , -9.809096   , -0.000216959743, -0.000224774645, 0.0005460377, 0.760347545 , 0.457263559 , 0.746646941 , -0.00121383381, -0.003673611, -0.5434387  , 0.98        , 23          , 50          , 0           , 0
-0.0223442558, 0.013243163 , -9.786806   , 0.000601000153, -0.00363308936, 0.000220385526, 0.760886133 , 0.4571231   , 0.747785151 , -0.0012078319, -0.00370993954, -0.5434363  , 0.99        , 23          , 11          , 0.0136865163, 0.0136865154
-0.0441711619, 0.0271642935, -9.784223   , -0.00105590839, 0.000952449453, 0.00027565955, 0.7608911   , 0.457259744 , 0.74664396  , -0.00122689514, -0.0036170173, -0.543433666, 1           , 23          , 12          , 0.036861632 , 0
-0.0188006  , 0.006132834 , -9.81067848 , 0.0009280259, 0.00235399744, 0.000579700456, 0.7595185   , 0.457560629 , 0.748936    , -0.0012176357, -0.00359347067, -0.5434277  , 1.01        , 23          , 50          , 0           , 0
-0.0285172965, 0.0171240345, -9.80889    , 0.004277794 , -0.00164068467, 0.000249999284, 0.7617021   , 0.4571168   , 0.747638    , -0.0011748668, -0.003609874, -0.5434253  , 1.02        , 23          , 11          , 0.0120073976, 0.0120073976
-0.05450262 , 0.0213777814, -9.83028    , 0.0006126453, -0.00161698833, 0.000812921731, 0.7617021   , 0.4571168   , 0.747638    , -0.00116876967, -0.00362603436, -0.5434172  , 1.03        , 23          , 12          , 0.036861632 , 0
-0.0456350371, 0.0165662114, -9.811325   , 0.0008840366, -0.0030335607, 0.0002279387, 0.760749638 , 0.457545847 , 0.747359455 , -0.00115993794, -0.003656367, -0.543414831, 1.04        , 23          , 50          , 0           , 0
-0.0200882833, 0.00760247  , -9.82372952 , -0.00163471838, -0.00102508394, -0.000317525, 0.759796441 , 0.457413644 , 0.747934937 , -0.00117627333, -0.0036666214, -0.543417931, 1.05        , 23          , 11          , 0.0120073976, 0.0120073976
-0.0116926739, -0.00156683661, -9.824616   , 4.884525E-05, -0.00216667238, -0.00118090666, 0.7610145   , 0.457689583 , 0.7485002   , -0.00117574178, -0.003688302, -0.5434296  , 1.06        , 23          , 12          , 0.036861632 , 0
-0.0189966671, -0.00382466614, -9.804462   , 0.00119798025, 0.0003796803, -0.00143099832, 0.7608967   , 0.456974626 , 0.745929241 , -0.00116370921, -0.00368452165, -0.5434439  , 1.07        , 23          , 50          , 0           , 0
-0.0396799371, -0.00293320231, -9.810972   , 0.001217169 , 0.0029268472, -0.0005476322, 0.7608967   , 0.456974626 , 0.745929241 , -0.00115151715, -0.00365525926, -0.54344964 , 1.08        , 23          , 11          , 0.0120073976, 0.0120073976
-0.03998939 , 0.0282575712, -9.82242    , -0.00413885247, 0.00351716485, 0.00200635078, 0.760474    , 0.457129329 , 0.7486437   , -0.00119297835, -0.00362006435, -0.5434296  , 1.09        , 23          , 12          , 0.036861632 , 0
-0.0302534681, 0.0233526248, -9.792657   , 0.001463526 , 0.0017831173, -0.0005615327, 0.7611541   , 0.457685828 , 0.7477859   , -0.001232896, -0.00361686223, -0.543434858, 1.1         , 23          , 50          , 0           , 0
-0.0209560767, 0.0141692553, -9.793985   , 0.00206857361, 0.007158787 , 0.000925763045, 0.7600743   , 0.4572666   , 0.7469339   , -0.00121224311, -0.00354526285, -0.5434258  , 1.11        , 23          , 11          , 0.012095212 , 0.0120952064
-0.0282564927, 0.00674220966, -9.807623   , 0.000600663945, 7.796273E-05, 0.0008344918, 0.7600743   , 0.4572666   , 0.7469339   , -0.00120626576, -0.003544473, -0.5434172  , 1.12        , 23          , 12          , 0.0373569168, 0
-0.02147899 , 0.008396272 , -9.804838   , -0.004452902, 0.0023872368, 0.000573206053, 0.760606766 , 0.457271218 , 0.749071658 , -0.00125081488, -0.00352059375, -0.543411732, 1.13        , 23          , 50          , 0           , 0
-0.0286007188, 0.0108855   , -9.818843   , 0.000919959566, 0.00406043  , -0.00110099232, 0.760884762 , 0.457545429 , 0.7475014   , -0.00124157686, -0.00348000322, -0.5434227  , 1.14        , 23          , 11          , 0.012095212 , 0.0120952064
-0.0403857939, 0.00531212427, -9.827562   , 0.00200304622, -0.00105959456, -0.000312946533, 0.7603399   , 0.4574098   , 0.747931957 , -0.00122153573, -0.00349060283, -0.5434258  , 1.15        , 23          , 12          , 0.0373569168, 0
-0.04566848 , 0.0164869037, -9.800076   , 0.00314487237, 0.0009117908, 0.0005646406, 0.761286139 , 0.45726645  , 0.749067962 , -0.0011901065, -0.0034814782, -0.5434201  , 1.16        , 23          , 50          , 0           , 0
-0.0451417677, 0.0196800344, -9.806794   , 0.002034503 , 0.00235384959, -0.00168851914, 0.761286139 , 0.45726645  , 0.749067962 , -0.00116970285, -0.00345795974, -0.543437243, 1.17        , 23          , 11          , 0.012095212 , 0.0120952064
-0.0261303969, -0.000932440162, -9.811714   , -0.00136225577, 0.0006754042, -0.00143045082, 0.7607592   , 0.457117319 , 0.746073246 , -0.001183276, -0.00345122232, -0.543451548, 1.18        , 23          , 12          , 0.0373569168, 0
-0.0189481936, 0.000173578039, -9.796329   , 0.002597651 , 0.00290162  , 0.0005890201, 0.7596571   , 0.4572768   , 0.7487914   , -0.00115731976, -0.00342220021, -0.5434456  , 1.19        , 23          , 50          , 0           , 0
-0.02214169 , -0.0059062764, -9.820263   , -0.00233965763, 0.00283314567, 0.001430061 , 0.761710942 , 0.456688851 , 0.746494532 , -0.0009142752, -0.003045905, -0.543432236, 1.2         , 23          , 11          , 0.0124440156, 0.0124440128
-0.0232572723, 0.006758446 , -9.82332    , 0.00273922854, 0.002812258 , -0.00111710466, 0.760073066 , 0.457127154 , 0.7473614   , -0.00088684907, -0.003017793, -0.543443441, 1.21        , 23          , 12          , 0.0378948   , 0
-0.045160424, 0.0204987377, -9.795087   , 0.00244003464, 0.00110286917, 0.000279611646, 0.760073066 , 0.457127154 , 0.7473614   , -0.0008624571, -0.0030067612, -0.5434406  , 1.22        , 23          , 50          , 0           , 0
-0.04015419 , 0.0244148728, -9.788702   , -0.00349923573, -0.00112766167, 0.00109482324, 0.7602019   , 0.457412422 , 0.7483609   , -0.000897482445, -0.00301802834, -0.5434296  , 1.23        , 23          , 11          , 0.0124440156, 0.0124440128
-0.04492391 , 0.007470461 , -9.801943   , -0.0009576374, -0.0003014876, 0.00195981376, 0.7618413   , 0.4573942   , 0.7466394   , -0.000907118, -0.00302102533, -0.543410063, 1.24        , 23          , 12          , 0.0378948   , 0
-0.039936766, 0.007026579 , -9.816294   , -0.00149050076, 0.00311427773, 0.0008672597, 0.7595246   , 0.4569943   , 0.7485056   , -0.0009220488, -0.00298987469, -0.5434015  , 1.25        , 23          , 50          , 0           , 0
-0.0364140347, 0.00547577441, -9.79782    , 0.003844898 , 0.0008028863, 0.00112889148, 0.7595246   , 0.4569943   , 0.7485056   , -0.0008836336, -0.00298183551, -0.543390036, 1.26        , 23          , 11          , 0.0124440156, 0.0124440128
-0.009840675, 0.0289367288, -9.808598   , 0.002418236 , -0.001451952, 0.000531087338, 0.761161745 , 0.456556529 , 0.7477814   , -0.000859467138, -0.00299635017, -0.5433848  , 1.27        , 23          , 12          , 0.0378948   , 0
-0.03291461 , 0.0239310768, -9.80348    , 0.003567239 , 0.000540482346, -0.00171214086, 0.760615647 , 0.457264483 , 0.747359037 , -0.000823743641, -0.00299096038, -0.543401957, 1.28        , 23          , 50          , 0           , 0
-0.0552429669, 0.006028102 , -9.825013   , -8.61613153E-05, 0.00198246073, -0.00113130989, 0.7603358   , 0.4576938   , 0.74836123  , -0.0008245717, -0.00297114486, -0.543413162, 1.29        , 23          , 11          , 0.0124440156, 0.0124440128
-0.0359975472, 0.00193535909, -9.808193   , 0.002143688 , -0.000925129454, 0.0008215637, 0.7610127   , 0.4574101   , 0.749212742 , -0.000797494431, -0.003051575, -0.543405056, 1.3         , 23          , 12          , 0.0384731367, 0
-0.03290102 , 0.0265521649, -9.79175949 , -0.000965885469, -0.00203646626, 0.000803430739, 0.7610127   , 0.4574101   , 0.749212742 , -0.000807178, -0.00307193329, -0.54339695 , 1.31        , 23          , 50          , 0           , 0
-0.0476482138, 0.004447316 , -9.813246   , 0.000164060912, -0.002037281, -0.000330027018, 0.7606211   , 0.457119972 , 0.746502161 , -0.000805527263, -0.00309230876, -0.5434003  , 1.32        , 23          , 11          , 0.0114575457, 0.0114575475
-0.0162874348, -0.005152032, -9.815245   , -0.000389424822, -0.000342589, 0.00139303366, 0.760336041 , 0.457553178 , 0.7485034   , -0.0008094646, -0.003095723, -0.5433862  , 1.33        , 23          , 12          , 0.0384731367, 0
-0.0226686429, 0.0148446653, -9.820998   , -0.00068209396, -0.002032843, -4.73546243E-05, 0.761150837 , 0.457407445 , 0.7487838   , -0.0008162841, -0.00311605167, -0.5433867  , 1.34        , 23          , 50          , 0           , 0
-0.0418557  , 0.0024662707, -9.803751   , 0.00357348123, 0.00078535825, -0.00199232134, 0.7603479   , 0.4575442   , 0.7462199   , -0.000780487433, -0.00310821459, -0.5434067  , 1.35        , 23          , 11          , 0.0114575457, 0.0114575475
-0.0233580209, 0.00134178624, -9.822016   , 0.00245763175, 0.00248811115, -0.000837373547, 0.7603479   , 0.4575442   , 0.7462199   , -0.000755885267, -0.00308334 , -0.54341507 , 1.36        , 23          , 12          , 0.0384731367, 0
-0.02884364 , 0.000385401741, -9.799582   , 0.00186276657, -0.00119710108, -0.00060091645, 0.760336459 , 0.457272    , 0.7487877   , -0.000737239, -0.0030953153, -0.54342103 , 1.37        , 23          , 50          , 0           , 0
-0.03837353 , -0.00435842574, -9.804221   , -0.00153333985, -0.00287363352, -0.000626558671, 0.761156    , 0.4574035   , 0.7477848   , -0.000752553053, -0.00312405569, -0.5434272  , 1.38        , 23          , 11          , 0.0114575457, 0.0114575475
-0.034643095, -0.0006703455, -9.825751   , 0.000470695726, 0.0008009932, -0.0008612856, 0.760335267 , 0.457553744 , 0.74864614  , -0.0007478192, -0.0031160526, -0.5434358  , 1.39        , 23          , 12          , 0.0384731367, 0
-0.02130562 , 0.018731406 , -9.800701   , 0.00102891459, -0.00148143433, -0.000605588953, 0.760335267 , 0.457553744 , 0.74864614  , -0.0007141447, -0.00314260181, -0.543442   , 1.4         , 23          , 50          , 0           , 0
-0.0279271435, 0.0273712371, -9.7935     , 0.00527117634, 0.000190659746, -0.0008626192, 0.7611589   , 0.45698002  , 0.7477831   , -0.000661405851, -0.003140701, -0.5434506  , 1.41        , 23          , 11          , 0.0119451266, 0.0119451312
-0.03667921 , 0.0115324724, -9.824773   , 0.00530276541, 0.00415802235, -0.000245055067, 0.761294067 , 0.4574009   , 0.7473559   , -0.000608370348, -0.00309912278, -0.543453   , 1.42        , 23          , 12          , 0.0390897654, 0
-0.0413166955, 0.008708878 , -9.795593   , -0.006269532, 0.002257319 , -6.032642E-07, 0.7595163   , 0.4575623   , 0.749364138 , -0.000671065645, -0.00307654939, -0.5434532  , 1.43        , 23          , 50          , 0           , 0
-0.0371693  , 0.0144668352, -9.792354   , -0.00517482962, -0.00199834234, -0.00118778553, 0.7615678   , 0.457116663 , 0.7473533   , -0.000722777448, -0.00309654069, -0.5434649  , 1.44        , 23          , 11          , 0.0119451266, 0.0119451312
-0.0351495221, -0.00122652575, -9.809561   , -0.002625923, -0.000597201055, -0.00145047368, 0.7615678   , 0.457116663 , 0.7473533   , -0.000748991733, -0.00310252327, -0.5434797  , 1.45        , 23          , 12          , 0.0390897654, 0
-0.02018233 , 0.0291666817, -9.813204   , -0.006311696, -0.00367841637, -0.00319663319, 0.760210752 , 0.4574057   , 0.746648252 , -0.0008120089, -0.00313933287, -0.5435116  , 1.46        , 23          , 50          , 0           , 0
-0.0252127424, 0.0238987654, -9.819601   , 0.002177397 , 0.0010630046, -0.0005719701, 0.760066748 , 0.457412839 , 0.7482189   , -0.0007902169, -0.00312870741, -0.5435171  , 1.47        , 23          , 11          , 0.0119451266, 0.0119451312
-0.0318542644, 0.006389126 , -9.811714   , 0.00272540259, -0.000370992871, 0.00111307669, 0.760881245 , 0.457407653 , 0.7483572   , -0.0007629977, -0.00313240872, -0.543506145, 1.48        , 23          , 12          , 0.0390897654, 0
-0.0363254361, 0.009569196 , -9.80318451 , 0.00130174251, -0.00234026136, 0.000235143656, 0.760758758 , 0.4573985   , 0.745788932 , -0.000749987841, -0.00315580936, -0.543503761, 1.49        , 23          , 50          , 0           , 0
-0.02837072 , -8.493662E-07, -9.80993    , 0.00127790682, -0.0023981852, 0.000235167841, 0.760758758 , 0.4573985   , 0.745788932 , -0.0007761637, -0.00327445124, -0.543501139, 1.5         , 23          , 11          , 0.0124873826, 0.0124873808
-0.02054631 , 0.0101814205, -9.804813   , 0.00214820961, 0.0004358545, -0.000295398582, 0.7603413   , 0.456987441 , 0.748215735 , -0.000754672044, -0.00327009521, -0.543504   , 1.51        , 23          , 12          , 0.0397425555, 0
-0.0295977034, 0.0346183963, -9.793907   , 0.00495467149, -0.00155751756, -0.00230298331, 0.761018932 , 0.457686216 , 0.747643948 , -0.0007050497, -0.00328568788, -0.5435271  , 1.52        , 23          , 50          , 0           , 0
-0.047575593, 0.009365794 , -9.807804   , 0.000725594233, -0.0012535844, -0.00060232915, 0.7607555   , 0.457120121 , 0.746786833 , -0.0006977742, -0.00329822744, -0.5435331  , 1.53        , 23          , 11          , 0.0124873826, 0.0124873808
-0.0465394855, 0.01657394  , -9.809984   , -0.0003902547, 0.000449168525, 0.000552618643, 0.7607555   , 0.457120121 , 0.746786833 , -0.000701694866, -0.00329373172, -0.5435276  , 1.54        , 23          , 12          , 0.0397425555, 0
-0.047261   , 0.00256335177, -9.802907   , -0.00123379938, 0.0004612607, -0.000299550942, 0.7610141   , 0.4569877   , 0.7494965   , -0.000714023, -0.003289121, -0.5435307  , 1.55        , 23          , 50          , 0           , 0
-0.03722323 , 0.009161219 , -9.806798   , -0.00347737735, 0.00189456681, -7.004419E-07, 0.7608875   , 0.4576838   , 0.7467884   , -0.000748796738, -0.00327017554, -0.5435307  , 1.56        , 23          , 11          , 0.0124873826, 0.0124873808
-0.0476344973, 0.03532809  , -9.781941   , -0.00322869746, -0.00180273782, 0.0010879261, 0.76034236  , 0.4572675   , 0.747646    , -0.000781119452, -0.00328819547, -0.543519735, 1.57        , 23          , 12          , 0.0397425555, 0
-0.0464104339, 0.02464658  , -9.804517   , -0.000975200965, -0.002653423, -0.00147344486, 0.761147141 , 0.457410246 , 0.7494975   , -0.00079082296, -0.00331474119, -0.5435345  , 1.58        , 23          , 50          , 0           , 0
-0.0215582289, 0.004325064 , -9.802622   , -0.004898947, 0.0004849571, 0.000263371679, 0.761147141 , 0.457410246 , 0.7494975   , -0.0008398213, -0.00330988877, -0.543531656, 1.59        , 23          , 11          , 0.0124873826, 0.0124873808
0.00334872142, 0.009803938 , -9.815816   , 0.000476302434, -0.00282338588, -0.00090790895, 0.760886967 , 0.457543761 , 0.747073233 , -0.0007609103, -0.00313160522, -0.5435412  , 1.6         , 23          , 12          , 0.0404294021, 0
-0.0141680231, 0.0141224591, -9.805614   , 0.00251127477, 0.00481668953, -0.000241361238, 0.759790838 , 0.457698762 , 0.748649657 , -0.000735789945, -0.00308343954, -0.543543339, 1.61        , 23          , 50          , 0           , 0
-0.0344303325, -0.009871684, -9.800175   , -0.000338523765, 0.001424417 , 0.0011307511, 0.761843    , 0.4572525   , 0.746496    , -0.00073921 , -0.00306918775, -0.543532133, 1.62        , 23          , 11          , 0.012075372 , 0.012075372
-0.0349547565, 0.00915936753, -9.812624   , 0.00191405986, 0.0008478208, -8.485862E-06, 0.7600714   , 0.457268834 , 0.7475047   , -0.0007200692, -0.00306070922, -0.543532133, 1.63        , 23          , 12          , 0.0404294021, 0
-0.0267286357, 0.0149032073, -9.81834    , 0.003911047 , 0.003671478 , -0.000253957667, 0.7600714   , 0.457268834 , 0.7475047   , -0.000680951, -0.00302399648, -0.543535   , 1.64        , 23          , 50          , 0           , 0
-0.0241104588, 0.0120654423, -9.806636   , 0.00473161647, 0.000270817225, -0.0017144517, 0.7604777   , 0.457126528 , 0.7479301   , -0.000633582938, -0.00302129961, -0.54355216 , 1.65        , 23          , 11          , 0.012075372 , 0.012075372
-0.02473129 , 0.0295733977, -9.794798   , 0.00246584858, -0.00112861372, -0.002018839, 0.7615595   , 0.457684666 , 0.748211861 , -0.000608863367, -0.003032598, -0.5435722  , 1.66        , 23          , 12          , 0.0404294021, 0
-0.05843856 , 0.00684686471, -9.8047905  , -0.00116836338, 0.00286053168, -0.0005546417, 0.760347962 , 0.456982374 , 0.746931255 , -0.000620530162, -0.00300399587, -0.5435779  , 1.67        , 23          , 50          , 0           , 0
-0.038911175, 0.0163671374, -9.801355   , 0.00164253672, 0.001710475 , -0.00141663919, 0.760347962 , 0.456982374 , 0.746931255 , -0.000604062341, -0.00298689981, -0.543592   , 1.68        , 23          , 11          , 0.012075372 , 0.012075372
-0.0262150466, 0.021085538 , -9.801634   , -0.00290257321, -0.00195849175, 0.0008009466, 0.760606945 , 0.457130641 , 0.7492139   , -0.000633112, -0.00300648 , -0.5435841  , 1.69        , 23          , 12          , 0.0404294021, 0
-0.0553219542, 0.004977815 , -9.803872   , -0.00115241623, -0.00361728133, -0.00091965805, 0.7612963   , 0.4573992   , 0.746927738 , -0.0009843025, -0.00296838861, -0.543592   , 1.7         , 23          , 50          , 0           , 0
-0.0456525236, 0.0152303   , -9.813587   , 0.000563389156, -0.000789593731, -0.001449186, 0.760338247 , 0.4575515   , 0.748075247 , -0.0009786257, -0.00297629857, -0.5436065  , 1.71        , 23          , 11          , 0.0115919728, 0.0115919737
-0.0155898891, 0.0100961355, -9.806113   , 0.0008571032, 0.00118048931, 0.000562204747, 0.7610161   , 0.457126647 , 0.748926163 , -0.0009700713, -0.00296448846, -0.5436008  , 1.72        , 23          , 12          , 0.0411482751, 0
-0.0130070373, 0.0007024761, -9.823262   , -0.0056573227, -0.00274009164, 0.000220392554, 0.7610161   , 0.457126647 , 0.748926163 , -0.00102665136, -0.00299188681, -0.543598652, 1.73        , 23          , 50          , 0           , 0
-0.0253873412, 0.0148551473, -9.815177   , 0.00423846  , 0.00115316955, 0.000850067532, 0.7607618   , 0.4568344   , 0.7459295   , -0.000984292, -0.00298034656, -0.5435903  , 1.74        , 23          , 11          , 0.0115919728, 0.0115919737
-0.0201310087, 0.008364072 , -9.803925   , 0.003107077 , 0.0005962389, 0.0005578097, 0.759931    , 0.4572732   , 0.748361766 , -0.0009532378, -0.00297437888, -0.5435846  , 1.75        , 23          , 12          , 0.0411482751, 0
-0.02828588 , 0.00710398331, -9.79502    , 0.000854361453, 0.000618917 , -0.000296090031, 0.7612911   , 0.457403123 , 0.7479268   , -0.000944685366, -0.00296819257, -0.5435877  , 1.76        , 23          , 50          , 0           , 0
-0.05133328 , -0.000427586929, -9.815125   , 0.00227697683, 0.002308356 , 1.08404929E-05, 0.7606252   , 0.456835926 , 0.7460729   , -0.0009219159, -0.00294510927, -0.543587446, 1.77        , 23          , 11          , 0.0115919728, 0.0115919737
-0.0152082443, 0.00561011769, -9.810195   , 0.000313796685, 0.00318179955, -0.00111567846, 0.7606252   , 0.456835926 , 0.7460729   , -0.0009187452, -0.002913301, -0.543598652, 1.78        , 23          , 12          , 0.0411482751, 0
-0.0292349011, 0.00182828307, -9.811274   , 3.535673E-05, 0.00374740246, -0.00054144056, 0.760065854 , 0.456992149 , 0.7489308   , -0.0009183759, -0.00287583214, -0.543604136, 1.79        , 23          , 50          , 0           , 0
-0.0284637529, 0.017682489 , -9.824185   , -0.000555370934, -0.00221232465, -5.00024071E-05, 0.7615701   , 0.4575362   , 0.746355951 , -0.000886493654, -0.00290326821, -0.5436046  , 1.8         , 23          , 11          , 0.0108740041, 0.0108740078
-0.0665639341, 0.0065196855, -9.800378   , 0.00284674019, 3.53472569E-05, -0.0005846179, 0.7596613   , 0.457414031 , 0.747792959 , -0.0008580092, -0.00290292013, -0.5436106  , 1.81        , 23          , 12          , 0.0418971926, 0
-0.03555813 , 0.000606682152, -9.8127     , 0.00256320857, -0.0002442782, -0.0008722562, 0.7596613   , 0.457414031 , 0.747792959 , -0.0008323519, -0.0029053702, -0.5436194  , 1.82        , 23          , 50          , 0           , 0
-0.009433083, 0.004019388 , -9.792147   , 0.002030477 , 0.00372540578, 2.83264235E-05, 0.7610235   , 0.457121    , 0.7474989   , -0.0008120478, -0.00286811567, -0.5436189  , 1.83        , 23          , 11          , 0.0108740041, 0.0108740078
-0.00933924 , 0.006830825 , -9.807424   , -0.00333115971, 0.00263866014, -0.0011274165, 0.7611633   , 0.456976652 , 0.746926844 , -0.0008453273, -0.00284173852, -0.543630362, 1.84        , 23          , 12          , 0.0418971926, 0
-0.0325959  , 0.01843283  , -9.791822   , -0.00192955812, 0.00232911  , 0.00114041567, 0.7596635   , 0.457412362 , 0.7473648   , -0.000864655, -0.002818438, -0.5436189  , 1.85        , 23          , 50          , 0           , 0
-0.03376134 , -0.000300431624, -9.81674    , -0.00763529027, -0.005580494, 0.00245176139, 0.7611544   , 0.4569834   , 0.748639464 , -0.000941077829, -0.00287422119, -0.54359436 , 1.86        , 23          , 11          , 0.0108740041, 0.0108740078
-0.03328846 , -0.00111824088, -9.829791   , -0.00563882757, -0.00358867017, -0.0006415602, 0.7611544   , 0.4569834   , 0.748639464 , -0.0009974476, -0.00291011366, -0.5436008  , 1.87        , 23          , 12          , 0.0418971926, 0
-0.03207895 , 0.0168565921, -9.82513    , 0.000325114757, 0.00231217244, 0.00114318391, 0.7604843   , 0.4576833   , 0.7459343   , -0.0009942296, -0.00288698054, -0.543589354, 1.88        , 23          , 50          , 0           , 0
-0.03423285 , 0.000952109753, -9.801434   , 0.00146981084, 0.004015209 , -0.000252494472, 0.759933233 , 0.457271516 , 0.7479336   , -0.0009795241, -0.002846831, -0.543591738, 1.89        , 23          , 11          , 0.0108740041, 0.0108740078
-0.02522042 , 0.00123032928, -9.801336   , 0.000966762134, -0.00429127971, -0.00149236619, 0.7610198   , 0.457123846 , 0.7482126   , -0.000768323953, -0.003037219, -0.5436075  , 1.9         , 23          , 12          , 0.0426742546, 0
-0.0416786075, 0.00935844  , -9.822593   , -0.00352443964, -0.00199006731, -0.001185539, 0.760762334 , 0.456974447 , 0.745644569 , -0.000803532545, -0.00305712875, -0.543619156, 1.91        , 23          , 50          , 0           , 0
-0.0100582987, -0.009762775, -9.817468   , 0.000162247132, 0.0008170599, -0.000861513952, 0.760762334 , 0.456974447 , 0.745644569 , -0.000801883754, -0.00304896524, -0.543627739, 1.92        , 23          , 11          , 0.0112822317, 0.0112822354
-0.0104829995, -0.008399203, -9.817911   , -0.0001040528, 0.00307886046, 0.000585345668, 0.7606109   , 0.4569872   , 0.7486424   , -0.000802941853, -0.003018172, -0.5436218  , 1.93        , 23          , 12          , 0.0426742546, 0
-0.0449415147, 0.004839856 , -9.812315   , -0.0009819285, -0.00143798208, -0.00174268242, 0.7608908   , 0.456979126 , 0.747070968 , -0.000812708458, -0.00303256582, -0.5436394  , 1.94        , 23          , 50          , 0           , 0
-0.0444627032, 0.0109397024, -9.783909   , 0.00186682865, 0.00305830012, 0.00143889943, 0.7602151   , 0.4569811   , 0.746361136 , -0.0007940836, -0.0030019714, -0.5436251  , 1.95        , 23          , 11          , 0.0112822317, 0.0112822354
-0.0182224475, 0.0167830419, -9.788534   , -0.001264415, -0.00143777835, -0.001459318, 0.7602151   , 0.4569811   , 0.746361136 , -0.0008066839, -0.0030163608, -0.5436394  , 1.96        , 23          , 12          , 0.0426742546, 0
-0.05204549 , 0.0116859209, -9.805133   , -0.002129887, -0.0031505872, 0.00107154809, 0.7604733   , 0.4571299   , 0.7487864   , -0.0008280152, -0.003047858, -0.5436287  , 1.97        , 23          , 50          , 0           , 0
-0.0398157947, 0.0411820635, -9.802061   , 0.00154231  , -0.00232331431, 0.0005193706, 0.7606167   , 0.457544535 , 0.7467893   , -0.0008126082, -0.00307108718, -0.5436237  , 1.98        , 23          , 11          , 0.0112822317, 0.0112822354
-0.03957795 , 0.0281569529, -9.809367   , -0.000111493675, 0.00194997573, -0.000280112377, 0.760207057 , 0.457408518 , 0.747361839 , -0.000813714636, -0.00305158971, -0.543626547, 1.99        , 23          , 12          , 0.0426742546, 0
-0.0270511024, 0.02341285  , -9.809724   , -0.000461447577, 0.00248300633, 1.06071384E-05, 0.7606147   , 0.457405657 , 0.747359633 , -0.000934210548, -0.00308215059, -0.54362607 , 2           , 23          , 50          , 0           , 0
-0.0308759641, 0.01000836  , -9.81617451 , -0.00104743848, -0.0008994144, -0.002586459, 0.7606147   , 0.457405657 , 0.747359633 , -0.000944605155, -0.003091169, -0.5436518  , 2.01        , 23          , 11          , 0.0105571952, 0.0105572008
-0.0430736169, 0.0066902386, -9.82398    , -0.010928208, -0.00198098738, 0.000507918769, 0.7606215   , 0.456838727 , 0.7467865   , -0.001053903, -0.003110974, -0.5436468  , 2.02        , 23          , 12          , 0.0434776321, 0
-0.0359465033, 0.004645277 , -9.809072   , 0.00603509462, 0.003860247 , -0.00109836773, 0.7593834   , 0.457561016 , 0.748794    , -0.000993518, -0.003072383, -0.543658   , 2.03        , 23          , 50          , 0           , 0
-0.0282509979, 0.008481149 , -9.798609   , -0.00134180114, -0.00148757233, 0.000810557452, 0.7617054   , 0.4573952   , 0.7466401   , -0.001006961, -0.003087251, -0.5436497  , 2.04        , 23          , 11          , 0.0105571952, 0.0105572008
-0.04472622 , -0.00608138368, -9.798452   , 0.00541073  , -0.003232669, -0.000337469683, 0.760081947 , 0.4571204   , 0.7456488   , -0.0009528434, -0.003119581, -0.543653   , 2.05        , 23          , 12          , 0.0434776321, 0
-0.0414970331, 0.0218704082, -9.807637   , 0.000626338355, -0.00206970563, 0.0008058162, 0.760081947 , 0.4571204   , 0.7456488   , -0.000946605171, -0.00314027024, -0.5436449  , 2.06        , 23          , 50          , 0           , 0
-0.02501361 , 0.0116447732, -9.808449   , -0.000749938248, 0.00191207044, 0.0008542292, 0.7600677   , 0.457271665 , 0.748218358 , -0.000954131538, -0.00312114134, -0.54363656 , 2.07        , 23          , 11          , 0.0105571952, 0.0105572008
-0.0207128786, 0.00115683861, -9.803089   , -0.0010564446, -0.00175612431, -0.00174607232, 0.7608853   , 0.4576855   , 0.7472165   , -0.000964641455, -0.00313871936, -0.5436537  , 2.08        , 23          , 12          , 0.0434776321, 0
-0.0456792079, 0.0160299651, -9.799179   , 0.000926837267, -0.000356489443, -0.00115832093, 0.760349035 , 0.457262456 , 0.7463615   , -0.0009553367, -0.00314229541, -0.5436654  , 2.09        , 23          , 50          , 0           , 0
-0.0405885875, -0.005092798, -9.8218     , -0.00221883529, -0.00190150621, -0.000888465671, 0.760349035 , 0.457262456 , 0.7463615   , -0.00149832282, -0.00432406 , -0.5436721  , 2.1         , 23          , 11          , 0.0109193008, 0.0109193055
-0.0465971045, 0.0151428413, -9.798746   , 5.502629E-05, 0.0006287234, -2.33096944E-06, 0.7607491   , 0.456422746 , 0.748924851 , -0.00149777229, -0.00431777257, -0.5436721  , 2.11        , 23          , 12          , 0.0443055965, 0
-0.0297966618, 0.0220651925, -9.803013   , 5.90729433E-05, 0.001194123 , 0.000288542826, 0.7608894   , 0.457401484 , 0.74678725  , -0.00149719382, -0.004305828, -0.5436692  , 2.12        , 23          , 50          , 0           , 0
-0.02631037 , 0.0165446941, -9.796721   , -0.00473680627, 0.000662802 , 0.000275497063, 0.760074    , 0.45698598  , 0.7473609   , -0.00154457369, -0.00429919548, -0.5436666  , 2.13        , 23          , 11          , 0.0109193008, 0.0109193055
-0.009356739, 0.005494901 , -9.809685   , 0.00456293533, 3.710331E-05, -0.00142251 , 0.7611537   , 0.456983954 , 0.748782158 , -0.00149888336, -0.004298846, -0.543680668, 2.14        , 23          , 12          , 0.0443055965, 0
-0.0207812749, -0.00116276368, -9.793658   , 0.00204026559, 0.00203409861, -0.000265711045, 0.7611537   , 0.456983954 , 0.748782158 , -0.001478469, -0.004278509, -0.5436833  , 2.15        , 23          , 50          , 0           , 0
-0.03337014 , 0.024358565 , -9.798982   , 0.0017641749, 0.002883358 , 0.000312108867, 0.7606223   , 0.457259417 , 0.746074557 , -0.00146084011, -0.00424967054, -0.5436804  , 2.16        , 23          , 11          , 0.0109193008, 0.0109193055
-0.0199646559, 0.0147993043, -9.82187    , -0.000244299474, -0.00163458358, -0.0005987512, 0.7603428   , 0.4569863   , 0.7479303   , -0.00146325759, -0.0042660255, -0.543686152, 2.17        , 23          , 12          , 0.0443055965, 0
-0.0403360538, 0.0084504215, -9.825287   , -0.00137202826, -0.0019040308, -0.00145484833, 0.7611589   , 0.45698002  , 0.7477831   , -0.00147691614, -0.00428508641, -0.5437007  , 2.18        , 23          , 50          , 0           , 0
-0.04651545 , 0.0161994714, -9.820787   , -0.00503808958, -0.00160624553, 0.000530208345, 0.7606272   , 0.456974864 , 0.745502532 , -0.00152731943, -0.00430114055, -0.54369545 , 2.19        , 23          , 11          , 0.0109193008, 0.0109193055
-0.03101046 , 0.0275933631, -9.816481   , -0.00194027275, -0.001913633, 0.000246721524, 0.7606272   , 0.456974864 , 0.745502532 , -0.00154771842, -0.004323784, -0.5436928  , 2.2         , 23          , 12          , 0.0451564938, 0
-0.0269301031, -0.0224635582, -9.8245     , -0.000227469456, 0.0006284851, -2.67800351E-06, 0.759930849 , 0.457413822 , 0.748219669 , -0.00154999306, -0.004317499, -0.5436928  , 2.21        , 23          , 50          , 0           , 0
-0.0154338479, -0.005711861, -9.80219    , -0.000240261928, -0.00106962619, -0.0005915889, 0.7614357   , 0.457536    , 0.7460712   , -0.00155237014, -0.004328205, -0.5436988  , 2.22        , 23          , 11          , 0.00563541334, 0.00563541427
-0.0223795716, 0.00668726861, -9.815662   , -0.00387591077, 0.002361774 , -0.0005531075, 0.7600682   , 0.4574117   , 0.747933447 , -0.00159110478, -0.00430459529, -0.5437043  , 2.23        , 23          , 12          , 0.0451564938, 0
-0.0304739252, 0.009453982 , -9.802673   , 0.00372107839, 0.000330496347, -0.00227109925, 0.7600682   , 0.4574117   , 0.747933447 , -0.00155379646, -0.004301326, -0.54372716 , 2.24        , 23          , 50          , 0           , 0
-0.0203245729, 0.0232201219, -9.800653   , 6.532823E-05, 0.00148881844, -0.00169384992, 0.7611611   , 0.456978351 , 0.747355    , -0.00155307015, -0.004286464, -0.5437441  , 2.25        , 23          , 11          , 0.00563541334, 0.00563541427
-0.0402725972, 0.0424695   , -9.791704   , -0.000801188464, -0.0005038197, 0.000266013871, 0.7610309   , 0.4571154   , 0.746071756 , -0.00156109361, -0.004291498, -0.543741465, 2.26        , 23          , 12          , 0.0451564938, 0
-0.0376734138, 0.009601398 , -9.804098   , 0.00257899216, -0.00136488676, -0.0020102628, 0.759659946 , 0.4568533   , 0.7487897   , -0.00153521751, -0.0043051783, -0.5437615  , 2.27        , 23          , 50          , 0           , 0
-0.04725171 , 0.00172244024, -9.811464   , -0.00560751 , -0.00244959537, -0.0003323611, 0.7614218   , 0.4574061   , 0.7489251   , -0.00159127789, -0.00432967953, -0.5437648  , 2.28        , 23          , 11          , 0.00563541334, 0.00563541427
-0.0239801668, 0.04581158  , -9.798257   , -0.0025154287, -0.00360368285, -0.0009103025, 0.7614218   , 0.4574061   , 0.7489251   , -0.0016163931, -0.004365731, -0.5437739  , 2.29        , 23          , 12          , 0.0451564938, 0
-0.0320906267, 0.021143645 , -9.79404449 , -0.002102211, 0.00151069975, -0.00112942071, 0.7606238   , 0.457258284 , 0.7457891   , -0.00231359177, -0.003926585, -0.5437803  , 2.3         , 23          , 50          , 0           , 0
-0.0591586344, -0.00586586259, -9.790051   , -0.0009915821, -0.000207361663, -1.4684716E-05, 0.7602043   , 0.457270145 , 0.7480748   , -0.002323507, -0.00392865855, -0.543780565, 2.31        , 23          , 11          , 0.005988414 , 0.00598842558
-0.02781971 , 0.03280375  , -9.797054   , -0.000159656571, -0.00246765628, -0.00231198361, 0.7610196   , 0.457264423 , 0.7480704   , -0.00232501281, -0.00395338843, -0.543803453, 2.32        , 23          , 12          , 0.04602876  , 0
-0.0310855787, 0.0248263385, -9.807504   , 0.0009977038, 0.00176341308, 1.28090041E-05, 0.760626    , 0.457256615 , 0.745361    , -0.002315036, -0.003935754, -0.543803453, 2.33        , 23          , 50          , 0           , 0
-0.0316878371, 0.0136874691, -9.824252   , -0.008618726, -0.00296954 , -0.00261323829, 0.760626    , 0.457256615 , 0.745361    , -0.00240112026, -0.00396551052, -0.543829441, 2.34        , 23          , 11          , 0.005988414 , 0.00598842558
-0.0324955843, 0.0186707638, -9.825569   , -0.004634672, 0.00209515379, -0.000841661531, 0.7600703   , 0.456988782 , 0.7480745   , -0.00244743377, -0.00394457951, -0.543838   , 2.35        , 23          , 12          , 0.04602876  , 0
-0.0385069065, 0.0106403725, -9.821199   , -0.004371634, -0.000176214846, -0.000869968557, 0.7606143   , 0.457686841 , 0.74707526  , -0.00249111583, -0.00394636439, -0.543846846, 2.36        , 23          , 50          , 0           , 0
-0.0173517615, 0.0128119681, -9.80295849 , -0.00354101043, -0.00105649768, 0.00252485042, 0.7606201   , 0.457261115 , 0.7465027   , -0.00252662576, -0.003956866, -0.5438216  , 2.37        , 23          , 11          , 0.005988414 , 0.00598842558
-0.0286125764, 0.0130147459, -9.801274   , -0.000439661584, -0.00162987784, -3.19008832E-05, 0.7606201   , 0.457261115 , 0.7465027   , -0.0025310216, -0.00397316553, -0.5438218  , 2.38        , 23          , 12          , 0.04602876  , 0
-0.01654668 , 0.007822321 , -9.80074    , 0.00011891529, -0.002479341, -0.000893085264, 0.76074487  , 0.457268566 , 0.7486428   , -0.002529797, -0.003997981, -0.543830633, 2.39        , 23          , 50          , 0           , 0
-0.008411984, 0.00774015347, -9.811007   , -2.185558E-05, 0.000230345337, 0.0005571907, 0.7608891   , 0.457120866 , 0.747214258 , -0.002359332, -0.00376797933, -0.5438254  , 2.4         , 23          , 11          , 0.00566342473, 0.00566344336
-0.01946583 , -0.00644982932, -9.814389   , -0.00118182565, -0.00400837744, -0.0006327602, 0.7601991   , 0.457274079 , 0.749073863 , -0.002371127, -0.003808078, -0.5438318  , 2.41        , 23          , 12          , 0.0469209142, 0
-0.0302977525, -0.005443305, -9.800095   , 0.0008480552, 0.00278646918, -0.000828089, 0.7617032   , 0.4573969   , 0.7470682   , -0.002362615, -0.00378023344, -0.54384017 , 2.42        , 23          , 50          , 0           , 0
-0.0239601955, 0.01803104  , -9.821885   , -0.0003158296, -0.00146373524, -0.000315776735, 0.7617032   , 0.4573969   , 0.7470682   , -0.00236576167, -0.00379487779, -0.543843031, 2.43        , 23          , 11          , 0.00566342473, 0.00566344336
-0.0157621242, 0.0241398141, -9.815449   , -0.00256515085, -0.00087757135, -0.0005950922, 0.7606223   , 0.457259417 , 0.746074557 , -0.00239139 , -0.00380366715, -0.54384923 , 2.44        , 23          , 12          , 0.0469209142, 0
-0.0385996476, 0.0317761973, -9.813826   , 0.000525365758, -0.001759484, 0.0005328112, 0.7597901   , 0.457699329 , 0.74879235  , -0.0023861574, -0.00382124912, -0.543843746, 2.45        , 23          , 50          , 0           , 0
-0.0204699263, 0.01208849  , -9.819648   , 0.00166575483, -0.0003458436, -1.53174478E-05, 0.761843741 , 0.457251936 , 0.7463533   , -0.0023694993, -0.003824708, -0.543843746, 2.46        , 23          , 11          , 0.00566342473, 0.00566344336
-0.0242328644, 0.0035771   , -9.817058   , -0.00340660661, -0.00030582078, -0.000305256457, 0.7604911   , 0.457116425 , 0.745361149 , -0.00240355358, -0.00382777373, -0.543846846, 2.47        , 23          , 12          , 0.0469209142, 0
-0.0373602733, 0.00150110573, -9.806862   , -0.00537631148, 0.0005484878, 0.00140532909, 0.7604911   , 0.457116425 , 0.745361149 , -0.00245737028, -0.00382225425, -0.5438328  , 2.48        , 23          , 50          , 0           , 0
-0.0427361131, 0.00209953729, -9.813213   , -0.0031489206, -0.00314641558, -5.70163938E-05, 0.7606095   , 0.457409561 , 0.748358667 , -0.0024888576, -0.00385371968, -0.543833256, 2.49        , 23          , 11          , 0.00566342473, 0.00566344336
-0.0288129523, -0.0004047528, -9.815338   , -0.00141470961, -0.00088702 , -0.00116125692, 0.7610197   , 0.457685649 , 0.7475012   , -0.0024730314, -0.00386921247, -0.543844938, 2.5         , 23          , 12          , 0.04783158  , 0
-0.0358081236, 0.012308565 , -9.809457   , 1.46942912E-05, 0.00192939059, 0.000294841942, 0.76021564  , 0.457121134 , 0.7460762   , -0.00247289543, -0.0038499115, -0.5438421  , 2.51        , 23          , 50          , 0           , 0
-0.0407161377, 0.0155289788, -9.805432   , 0.00143522047, 0.00305917021, -0.000540232868, 0.76021564  , 0.457121134 , 0.7460762   , -0.00245852256, -0.00381933316, -0.5438478  , 2.52        , 23          , 11          , 0.00577590847, 0.005775937
-0.0182415452, -0.0145419864, -9.820744   , 0.00447443873, -0.00378526677, 0.00136358733, 0.7607436   , 0.457129121 , 0.749070346 , -0.002413831, -0.003857152, -0.543834   , 2.53        , 23          , 12          , 0.04783158  , 0
-0.007936247, 0.009086492 , -9.81144    , -0.00140217738, 0.00108709373, 0.00056607736, 0.760617852 , 0.457262784 , 0.7469309   , -0.00242787437, -0.00384626724, -0.543828249, 2.54        , 23          , 50          , 0           , 0
-0.0286678839, 0.007274391 , -9.817973   , 0.0005769259, 0.00136741064, -0.0011301816, 0.760209739 , 0.457125634 , 0.747217953 , -0.00242206152, -0.00383262057, -0.543839455, 2.55        , 23          , 11          , 0.00577590847, 0.005775937
-0.02946613 , 0.0140061369, -9.81162548 , -0.000559677, 0.0007951721, 0.00084724417, 0.76115346  , 0.457124561 , 0.74864     , -0.00242769113, -0.00382464821, -0.5438311  , 2.56        , 23          , 12          , 0.04783158  , 0
-0.0316810757, 0.0145664467, -9.821095   , -0.002534605, 0.0002503337, -0.000297183171, 0.76115346  , 0.457124561 , 0.74864     , -0.0024530252, -0.00382215227, -0.543834   , 2.57        , 23          , 50          , 0           , 0
-0.025125131, 0.005339616 , -9.808952   , 0.00170609111, 0.002194603 , 0.00115163112, 0.7607652   , 0.456550956 , 0.7456429   , -0.0024360083, -0.00380017771, -0.5438225  , 2.58        , 23          , 11          , 0.00577590847, 0.005775937
-0.0377794765, 0.00460361131, -9.79829    , -0.000264790084, 0.002215164 , 0.000298077532, 0.7603415   , 0.4568468   , 0.7483579   , -0.002438667, -0.00377801922, -0.543819666, 2.59        , 23          , 12          , 0.04783158  , 0
-0.027542688, -0.00234719738, -9.79914    , 0.002602833 , 0.00276795356, -0.00224673026, 0.7608837   , 0.457265377 , 0.748071134 , -0.00196759822, -0.003767943, -0.543845654, 2.6         , 23          , 50          , 0           , 0
-0.04005492 , 0.0281021241, -9.800371   , 0.00118492  , 0.003029666 , 0.00257819938, 0.7608987   , 0.457113564 , 0.745358944 , -0.00195584563, -0.00373759563, -0.5438199  , 2.61        , 23          , 11          , 0.00617170567, 0.006171735
-0.04348194 , 0.0119759338, -9.80549049 , -0.000516399159, 0.000797993853, -0.00114076585, 0.7608987   , 0.457113564 , 0.745358944 , -0.001960967, -0.003729638, -0.543831348, 2.62        , 23          , 12          , 0.04875944  , 0
-0.0241062678, 0.0142327575, -9.794467   , -0.001948673, -0.00175006851, -0.000323599554, 0.7600716   , 0.457128257 , 0.747646868 , -0.00198044186, -0.00374714518, -0.543834448, 2.63        , 23          , 50          , 0           , 0
-0.0277028885, 0.0117250318, -9.812527   , -0.000226731965, 0.00220267754, 0.000579751155, 0.7614391   , 0.457252562 , 0.7457847   , -0.00198273058, -0.003725107, -0.5438287  , 2.64        , 23          , 11          , 0.00617170567, 0.006171735
-0.0292069223, 0.0006002225, -9.828834   , -0.00108437438, 0.000512831262, -0.0002939083, 0.7596608   , 0.457274    , 0.7480778   , -0.00199356349, -0.00371998455, -0.5438316  , 2.65        , 23          , 12          , 0.04875944  , 0
-0.0255488381, 0.0293557663, -9.825409   , -0.00136059662, 0.000808172568, -0.00170922512, 0.7596608   , 0.457274    , 0.7480778   , -0.00200710539, -0.003711937, -0.543848753, 2.66        , 23          , 50          , 0           , 0
-0.0124195516, 0.037908338 , -9.7955     , 0.00369479763, -0.0006654405, 0.000832489459, 0.7610269   , 0.456837565 , 0.7472124   , -0.00197018846, -0.00371857476, -0.543840647, 2.67        , 23          , 11          , 0.00617170567, 0.006171735
-0.0337005779, 0.006747292 , -9.793729   , -0.00167989172, -0.00317429472, 0.000226259232, 0.761162043 , 0.456837177 , 0.7473544   , -0.00198699627, -0.003750313, -0.543838263, 2.68        , 23          , 12          , 0.04875944  , 0
-0.0187560637, 0.0109846871, -9.795788   , -0.000848487, -0.004882585, 0.000205807446, 0.760211647 , 0.4568433   , 0.7472168   , -0.00199548923, -0.00379913487, -0.5438361  , 2.69        , 23          , 50          , 0           , 0
-0.02307007 , -0.004229415, -9.800009   , 0.0003537171, 0.000283440342, 0.00112291949, 0.7608792   , 0.457268745 , 0.7489275   , -0.00194349652, -0.00369172869, -0.5438247  , 2.7         , 23          , 11          , 0.00584026566, 0.005840285
-0.0298516229, -0.006324565, -9.804147   , 0.00294348  , 0.006232651 , -0.0005010146, 0.7608792   , 0.457268745 , 0.7489275   , -0.00191404275, -0.003629412, -0.5438297  , 2.71        , 23          , 12          , 0.04970327  , 0
-0.021324601, 0.0156660788, -9.813328   , 6.378969E-05, -0.0008452409, 0.000540826062, 0.7606238   , 0.457258284 , 0.7457891   , -0.00191342458, -0.003637854, -0.543824434, 2.72        , 23          , 50          , 0           , 0
-0.03190663 , 0.0306410342, -9.798914   , 0.005184056 , 0.004513775 , -0.0005197362, 0.760065556 , 0.4576946   , 0.7480773   , -0.00186156551, -0.00359272654, -0.5438297  , 2.73        , 23          , 11          , 0.00584026566, 0.005840285
-0.0251520481, 0.0300833732, -9.801998   , 0.00290562655, 0.00197015121, 0.0005801028, 0.7604729   , 0.457411081 , 0.7485021   , -0.0018325299, -0.00357301417, -0.543823957, 2.74        , 23          , 12          , 0.04970327  , 0
-0.0109800678, -0.008933177, -9.80487    , 0.00317114219, -0.0008474812, -0.00257618283, 0.760219157 , 0.4572589   , 0.7452204   , -0.0018007264, -0.00358153554, -0.543849468, 2.75        , 23          , 50          , 0           , 0
-0.0233323537, 0.00442298874, -9.81164    , 0.00403962  , 0.00253473572, -0.000262481277, 0.760219157 , 0.4572589   , 0.7452204   , -0.00176032039, -0.00355619378, -0.5438523  , 2.76        , 23          , 11          , 0.00584026566, 0.005840285
-0.0290348139, 0.0117953094, -9.81884    , 0.004875856 , 0.001947677 , 0.00171736686, 0.7606114   , 0.457127243 , 0.748357534 , -0.00171162293, -0.003536687, -0.543835163, 2.77        , 23          , 12          , 0.04970327  , 0
-0.01872389 , 0.0119239455, -9.80118    , 0.00598909473, 0.000237269545, 0.001697261 , 0.760884762 , 0.457545429 , 0.7475014   , -0.00165179162, -0.00353428582, -0.543818235, 2.78        , 23          , 50          , 0           , 0
-0.017100323, 0.00240794383, -9.798542   , 0.00264089182, 0.003959777 , 0.000321117783, 0.7602115   , 0.45740515  , 0.7465055   , -0.00162539375, -0.00349468272, -0.5438149  , 2.79        , 23          , 11          , 0.00584026566, 0.005840285
-0.014114338, 0.01640715  , -9.810095   , -0.00107654033, -0.0004894694, -0.0005957199, 0.7602115   , 0.45740515  , 0.7465055   , -0.0012535695, -0.00301445927, -0.5438206  , 2.8         , 23          , 12          , 0.0506619252, 0
-0.0248015281, 0.0212087836, -9.822768   , 0.00118753093, 0.0006282187, -0.000578625069, 0.760474    , 0.457129329 , 0.7486437   , -0.00124167663, -0.003008184, -0.543826342, 2.81        , 23          , 50          , 0           , 0
-0.0490418747, 0.00178229623, -9.815083   , -0.0005175711, -0.00106101669, -0.000602191139, 0.7606245   , 0.457257718 , 0.7456464   , -0.00124683429, -0.0030188018, -0.5438323  , 2.82        , 23          , 11          , 0.006099317 , 0.006099335
-0.030853007, 0.0126516605, -9.807602   , 0.00174323784, 4.710375E-05, 0.0008334562, 0.7593826   , 0.457561582 , 0.7489368   , -0.00122942752, -0.00301832054, -0.543823957, 2.83        , 23          , 12          , 0.0506619252, 0
-0.0268736985, 0.0072240606, -9.815704   , 0.003732784 , 0.00174187589, -0.0002774737, 0.761706352 , 0.457254022 , 0.74663955  , -0.00119209115, -0.003000905, -0.5438268  , 2.84        , 23          , 50          , 0           , 0
-0.0243875552, 0.04635327  , -9.8099575  , 0.0006105497, -0.0005136536, 0.00110861915, 0.761706352 , 0.457254022 , 0.74663955  , -0.00118601881, -0.00300602824, -0.543815851, 2.85        , 23          , 11          , 0.006099317 , 0.006099335
-0.0429538563, 0.0156037994, -9.809956   , -0.0013406222, 0.00150206964, -0.00113841519, 0.7607545   , 0.457261264 , 0.7467874   , -0.00119939086, -0.00299102138, -0.543827057, 2.86        , 23          , 12          , 0.0506619252, 0
-0.0344655663, 0.0114005487, -9.81215    , 0.001791142 , 0.005446143 , -0.000517045031, 0.7597918   , 0.4575576   , 0.7486491   , -0.00118146406, -0.002936566, -0.5438323  , 2.87        , 23          , 50          , 0           , 0
-0.0261762589, 0.021177534 , -9.814683   , 0.0006067633, -0.00135505537, -0.0003206781, 0.7618343   , 0.45711863  , 0.748350859 , -0.001175387, -0.00295012025, -0.5438354  , 2.88        , 23          , 11          , 0.006099317 , 0.006099335
-0.0409570262, 0.0242321454, -9.824264   , 0.0028724   , -0.000509542355, -0.002009428, 0.7608999   , 0.456831783 , 0.7455005   , -0.00114660384, -0.002955239, -0.543855667, 2.89        , 23          , 12          , 0.0506619252, 0
-0.0415023863, 0.0218577236, -9.805839   , 0.00230907579, 0.000891981064, 0.000277481624, 0.7608999   , 0.456831783 , 0.7455005   , -0.00113257091, -0.002954637, -0.5438528  , 2.9         , 23          , 50          , 0           , 0
-0.01677813 , 0.0174108185, -9.817315   , 0.000861920067, -0.00391385145, -0.000636268, 0.7606114   , 0.457127243 , 0.748357534 , -0.00112393289, -0.00299378275, -0.543859243, 2.91        , 23          , 11          , 0.00556571  , 0.00556571642
-0.0200839788, 0.0110644763, -9.803452   , -0.00560942944, -0.002172785, 0.0007958156, 0.761294842 , 0.457400322 , 0.7472131   , -0.00118005124, -0.003015501, -0.543851137, 2.92        , 23          , 12          , 0.05163432  , 0
-0.00431847759, 0.008624048 , -9.819507   , 0.000326446665, -0.000505739939, -0.0005939803, 0.7603505   , 0.457261324 , 0.746076047 , -0.00117676868, -0.00302056572, -0.5438571  , 2.93        , 23          , 50          , 0           , 0
-0.0291114151, 0.007298869 , -9.820228   , -0.002466962, 0.00290974113, 0.000864091562, 0.7603505   , 0.457261324 , 0.746076047 , -0.00120146456, -0.0029914577, -0.5438485  , 2.94        , 23          , 11          , 0.00556571  , 0.00556571642
-0.03266477 , 0.0105029568, -9.817539   , -0.000518663554, -0.000221472539, 0.00025969476, 0.7608804   , 0.456987    , 0.749069035 , -0.0012066589, -0.00299366936, -0.5438459  , 2.95        , 23          , 12          , 0.05163432  , 0
-0.0389757752, 0.0114676971, -9.809497   , 0.00230424479, -0.000229249737, -0.00172281836, 0.7608901   , 0.457400918 , 0.746644557 , -0.00118356477, -0.00299598253, -0.543863058, 2.96        , 23          , 50          , 0           , 0
-0.027214922, 0.0152577311, -9.803492   , 0.000338194543, 0.000912542 , -0.0005760721, 0.7603437   , 0.457407    , 0.7472183   , -0.00118016568, -0.00298686372, -0.5438688  , 2.97        , 23          , 11          , 0.00556571  , 0.00556571642
-0.0185681265, 0.0196284764, -9.807415   , -0.000229780722, 0.000627379341, 0.000270785735, 0.760879457 , 0.457128167 , 0.749069631 , -0.00118247163, -0.00298058731, -0.543866158, 2.98        , 23          , 12          , 0.05163432  , 0
-0.01587632 , 0.0178283155, -9.815053   , -0.00502331 , 0.000379715057, 0.0002613216, 0.760879457 , 0.457128167 , 0.749069631 , -0.00123271265, -0.00297678658, -0.543863535, 2.99        , 23          , 50          , 0           , 0
-0.0377530865, 0.000351460651, -9.834326   , -0.0022073735, 0.000653273542, 0.000268422882, 0.760622859 , 0.457399458 , 0.7457897   , -0.00126195431, -0.00295357872, -0.5438607  , 3           , 23          , 11          , 0.005944247 , 0.00594424875
-0.0299930573, 0.008223645 , -9.82113    , -0.00278853322, -0.00160791632, -0.000328343362, 0.760067463 , 0.457412273 , 0.748076141 , -0.00128982984, -0.00296966149, -0.543864   , 3.01        , 23          , 12          , 0.05261945  , 0
-0.0282553937, 0.030689463 , -9.815527   , -0.005892231, -0.00131819258, 0.00222482649, 0.7613029   , 0.4569729   , 0.7462124   , -0.00134881865, -0.002982814, -0.5438416  , 3.02        , 23          , 50          , 0           , 0
-0.01618521 , 0.00199404173, -9.806185   , 5.98316838E-05, 0.00261044968, 0.00199852535, 0.759798467 , 0.457552552 , 0.74736464  , -0.00134827965, -0.00295668328, -0.5438216  , 3.03        , 23          , 11          , 0.005944247 , 0.00594424875
-0.04035742 , 0.008831227 , -9.815384   , 0.005672626 , -0.0005463738, 0.00111491652, 0.759798467 , 0.457552552 , 0.74736464  , -0.00129158644, -0.002962132, -0.5438106  , 3.04        , 23          , 12          , 0.05261945  , 0
-0.04402245 , 0.0305373557, -9.815245   , 0.0005911265, -0.00191697909, -0.0003277727, 0.7602072   , 0.456846654 , 0.748073161 , -0.0012856652, -0.00298130559, -0.543813944, 3.05        , 23          , 50          , 0           , 0
-0.0151640931, 0.03267981  , -9.813573   , -0.00362085085, 0.000374462368, 0.00111424248, 0.7615709   , 0.457535625 , 0.7462132   , -0.001321907, -0.00297754677, -0.5438025  , 3.06        , 23          , 11          , 0.005944247 , 0.00594424875
-0.02768279 , 0.0122041758, -9.816572   , -0.00054130127, -0.002753739, -0.001191033, 0.759932756 , 0.4571315   , 0.748218536 , -0.0013272845, -0.00300509972, -0.543814659, 3.07        , 23          , 12          , 0.05261945  , 0
-0.0361700244, 0.03992312  , -9.824984   , 0.002290877 , -0.000796969864, -2.76594219E-05, 0.759932756 , 0.4571315   , 0.748218536 , -0.00130437524, -0.00301306974, -0.5438149  , 3.08        , 23          , 50          , 0           , 0
-0.0308247022, 0.0153076462, -9.80083    , 0.0005955653, -0.00107366382, 0.0008178141, 0.761296749 , 0.457118    , 0.747212052 , -0.00129844411, -0.00302379578, -0.5438068  , 3.09        , 23          , 11          , 0.005944247 , 0.00594424875
-0.0160279237, 0.0118595464, -9.799353   , 0.00114976626, -0.000505816, -0.00116025715, 0.7604863   , 0.4568391   , 0.7466445   , -0.001316113, -0.00304231583, -0.543818235, 3.1         , 23          , 12          , 0.0536163859, 0
-0.0252341069, 0.02427957  , -9.809697   , 9.116644E-06, -0.00164345419, 0.0005262948, 0.7598007   , 0.457550853 , 0.7469365   , -0.00131603773, -0.003058743, -0.543813   , 3.11        , 23          , 50          , 0           , 0
-0.0350691862, 0.0267919451, -9.819679   , -0.004476213, 0.0006749803, -0.00172027212, 0.760746062 , 0.4569868   , 0.748784363 , -0.0013607475, -0.003052016, -0.543830156, 3.12        , 23          , 11          , 0.006320871 , 0.006320878
-0.0562964827, 0.0253121611, -9.808216   , 0.00485759927, 0.00485421857, -0.000803997449, 0.760746062 , 0.4569868   , 0.748784363 , -0.001312147, -0.0030034848, -0.543838263, 3.13        , 23          , 12          , 0.0536163859, 0
-0.0436390825, 0.00383666647, -9.801509   , 0.006537901 , 0.00370306312, -0.000248826749, 0.7607616   , 0.456975    , 0.745787263 , -0.00124676013, -0.00296645728, -0.543840647, 3.14        , 23          , 50          , 0           , 0
-0.042666547, 0.0292295069, -9.825141   , 0.00256050541, 0.000595261343, 0.002260325 , 0.760067463 , 0.457412273 , 0.748076141 , -0.001221222, -0.00296047772, -0.543818235, 3.15        , 23          , 11          , 0.006320871 , 0.006320878
-0.0460046828, 0.02064922  , -9.813995   , -0.00308335735, -0.0007672823, 0.000249522942, 0.760748565 , 0.457265764 , 0.7479292   , -0.00125206308, -0.0029681467, -0.5438156  , 3.16        , 23          , 12          , 0.0536163859, 0
-0.01883024 , 0.00347367278, -9.817001   , 0.0008636252, -0.0007930958, -0.000313053664, 0.760626    , 0.457256615 , 0.745361    , -0.00124341773, -0.00297608133, -0.5438187  , 3.17        , 23          , 50          , 0           , 0
-0.03454224 , 0.006040992 , -9.818945   , 0.007090213 , 0.00255846232, 0.0005886702, 0.760626    , 0.457256615 , 0.745361    , -0.00117253291, -0.00295048975, -0.543813   , 3.18        , 23          , 11          , 0.006320871 , 0.006320878
-0.0122476779, 0.01954905  , -9.813199   , 0.00366695621, -0.00224211742, 0.0010910508, 0.7603375   , 0.457552075 , 0.748218    , -0.00113589549, -0.00297289831, -0.543802   , 3.19        , 23          , 12          , 0.0536163859, 0
-0.012642419, 0.000490820035, -9.794459   , 0.00169988733, -0.000508581463, 0.00111020217, 0.760888338 , 0.457121432 , 0.747357    , -0.00113238569, -0.002950865, -0.5437906  , 3.2         , 23          , 50          , 0           , 0
-0.0277239624, 0.0155583173, -9.780994   , 0.001709546 , 0.000350041722, -1.389478E-05, 0.760347545 , 0.457263559 , 0.746646941 , -0.00111528975, -0.0029473647, -0.5437908  , 3.21        , 23          , 11          , 0.00636389572, 0.00636390131
-0.03516693 , 0.0252656769, -9.794943   , 0.00200417242, 0.002046036 , 0.0005753621, 0.760347545 , 0.457263559 , 0.746646941 , -0.00109526492, -0.00292689819, -0.5437851  , 3.22        , 23          , 12          , 0.0546242371, 0
-0.0353809  , 0.009225089 , -9.820728   , 0.002002996 , 0.00121228863, -0.00198877743, 0.760608256 , 0.4572701   , 0.7487862   , -0.00107517687, -0.00291479682, -0.5438049  , 3.23        , 23          , 50          , 0           , 0
-0.06828604 , 0.03198009  , -9.826287   , -0.000814821164, 0.00206529466, 0.0008556123, 0.760889    , 0.4576827   , 0.746502936 , -0.00108334993, -0.00289413449, -0.5437963  , 3.24        , 23          , 11          , 0.00636389572, 0.00636390131
-0.05060631 , 0.0148903672, -9.815891   , 0.00228026276, 0.00119677663, -2.45777483E-06, 0.759788334 , 0.4574198   , 0.749504864 , -0.00106054731, -0.00288216746, -0.543796539, 3.25        , 23          , 12          , 0.0546242371, 0
-0.0476091728, 0.00756023824, -9.807369   , 0.00140813086, -0.002472924, -0.00175232 , 0.76183933  , 0.4572553   , 0.7472096   , -0.00104641507, -0.0029069148, -0.543813944, 3.26        , 23          , 50          , 0           , 0
-0.034719795, 0.0205035489, -9.823777   , -0.00141412485, -0.00246323342, -5.35175532E-05, 0.76183933  , 0.4572553   , 0.7472096   , -0.00106055511, -0.00293154712, -0.5438144  , 3.27        , 23          , 11          , 0.00636389572, 0.00636390131
-0.0245054569, -0.0100137107, -9.806822   , -0.000280392327, -0.00162264623, 0.000242322 , 0.7606162   , 0.457404524 , 0.7470742   , -0.00106336607, -0.002947771, -0.543812037, 3.28        , 23          , 12          , 0.0546242371, 0
-0.03304216 , -0.00894559 , -9.807353   , 1.1814991E-06, -0.00134876114, 0.00138109166, 0.7597987   , 0.457411945 , 0.747506738 , -0.00106339506, -0.0029612442, -0.5437982  , 3.29        , 23          , 50          , 0           , 0
-0.026869541, 0.008959815 , -9.80624    , 0.0006200492, 0.0009148833, 0.000559172 , 0.7614301   , 0.456838071 , 0.7480665   , -0.0009993464, -0.00296403654, -0.543792963, 3.3         , 23          , 11          , 0.006725679 , 0.006725674
-0.012476027, 0.00735760946, -9.809702   , 0.000916633231, 0.002616618 , 0.0002972974, 0.760760665 , 0.4571162   , 0.7457878   , -0.0009901887, -0.00293786754, -0.5437901  , 3.31        , 23          , 12          , 0.0556421876, 0
-0.0151973628, 0.007793297 , -9.800278   , -0.00250466634, -0.00217822124, -5.145342E-05, 0.760760665 , 0.4571162   , 0.7457878   , -0.00101523381, -0.00295965 , -0.5437906  , 3.32        , 23          , 50          , 0           , 0
-0.04171747 , 0.00840332  , -9.814952   , -0.002502709, -0.00217248057, -0.000902585045, 0.7597971   , 0.456991822 , 0.7483614   , -0.00104023423, -0.00298138359, -0.5437994  , 3.33        , 23          , 11          , 0.006725679 , 0.006725674
-0.04816809 , 0.00299628917, -9.797962   , 0.00541488361, 0.00116637466, 1.215114E-06, 0.7606126   , 0.457828552 , 0.747218549 , -0.0009860854, -0.00296972063, -0.5437994  , 3.34        , 23          , 12          , 0.0556421876, 0
-0.0356211364, -0.00126866065, -9.802366   , 0.00201903726, -0.0007861599, -0.00116285053, 0.7600773   , 0.457264364 , 0.746363    , -0.000965860556, -0.002977593, -0.5438111  , 3.35        , 23          , 50          , 0           , 0
-0.03308943 , 0.0122980941, -9.815279   , 0.004572515 , 0.00201221439, 0.00171318487, 0.7600773   , 0.457264364 , 0.746363    , -0.000920186343, -0.00295745488, -0.5437939  , 3.36        , 23          , 11          , 0.006725679 , 0.006725674
-0.04254279 , 0.011187573 , -9.823936   , 0.003439175 , 0.001449543 , 0.00227205828, 0.760474265 , 0.456988722 , 0.748785853 , -0.0008858616, -0.00294293929, -0.543771   , 3.37        , 23          , 12          , 0.0556421876, 0
-0.04977951 , 0.0138355251, -9.796541   , 0.0006025576, -0.0013505409, -3.69021727E-05, 0.760886    , 0.457684934 , 0.7470738   , -0.00087983493, -0.00295644463, -0.5437715  , 3.38        , 23          , 50          , 0           , 0
-0.009012821, 0.0244325753, -9.811325   , -0.00021396557, 0.002615519 , 0.00171446579, 0.760067344 , 0.4579741   , 0.7473648   , -0.000882024935, -0.00293027423, -0.543754339, 3.39        , 23          , 11          , 0.006725679 , 0.006725674
-0.0130166784, 0.0241927914, -9.83027    , 0.00173475128, 0.00206041127, 0.00142614357, 0.7608808   , 0.456705779 , 0.7493534   , -0.000899834, -0.00286573335, -0.5437398  , 3.4         , 23          , 12          , 0.056669455 , 0
-0.0311996248, 0.0202410854, -9.796293   , -0.00165939785, 0.0003896192, 0.000549369957, 0.7608808   , 0.456705779 , 0.7493534   , -0.0009164437, -0.0028618318, -0.5437343  , 3.41        , 23          , 50          , 0           , 0
-0.0338741839, 0.0203562453, -9.80532    , 0.00253078062, -0.00445664348, -0.0006411696, 0.7602174   , 0.45740065  , 0.7453638   , -0.0008911175, -0.00290640444, -0.543740749, 3.42        , 23          , 11          , 0.007042412 , 0.0070424
-0.0397754423, -0.009631855, -9.819579   , -0.0053235013, 0.000693145033, 0.00168329524, 0.7597896   , 0.4575593   , 0.74907726  , -0.00094440137, -0.00289945723, -0.5437238  , 3.43        , 23          , 12          , 0.056669455 , 0
-0.0298946351, -0.009015437, -9.805969   , 0.0017394505, 0.00262772385, 0.00143330684, 0.761436343 , 0.457114249 , 0.7464977   , -0.000927048153, -0.00287316646, -0.5437095  , 3.44        , 23          , 50          , 0           , 0
-0.0327464938, 0.008583195 , -9.800905   , 0.00143594609, -0.0007549006, -0.00144712359, 0.76007     , 0.457691222 , 0.747220933 , -0.000912647054, -0.00288072857, -0.54372406 , 3.45        , 23          , 11          , 0.007042412 , 0.0070424
-0.03378943 , -0.000367051922, -9.80729    , 0.000319837069, 0.00122385484, 0.0008462475, 0.76007     , 0.457691222 , 0.747220933 , -0.000909472932, -0.00286848238, -0.5437157  , 3.46        , 23          , 12          , 0.056669455 , 0
-0.05027549 , 0.0102838017, -9.80287552 , 0.00172900746, 0.00121326884, 0.0008479776, 0.7599342   , 0.457130373 , 0.7479331   , -0.000892206968, -0.002856342, -0.543707132, 3.47        , 23          , 50          , 0           , 0
-0.0474141836, 0.0205354951, -9.79420948 , -0.00305786566, 0.001538658 , -5.45462535E-06, 0.7613051   , 0.4569712   , 0.7457843   , -0.0009227855, -0.002840955, -0.543707132, 3.48        , 23          , 11          , 0.007042412 , 0.0070424
-0.0243857689, -0.00196327642, -9.798203   , -0.000522663351, 0.00151577627, 0.0005650806, 0.759656    , 0.4579798   , 0.7480806   , -0.0009280281, -0.00282579218, -0.5437014  , 3.49        , 23          , 12          , 0.056669455 , 0
-0.019407   , 0.0202232022, -9.82542    , -0.00260693347, 0.00272230827, -0.000558553031, 0.759656    , 0.4579798   , 0.7480806   , -0.000665331667, -0.0027123387, -0.5437076  , 3.5         , 23          , 50          , 0           , 0
-0.04065064 , 0.0152528668, -9.830184   , 0.00050825224, 0.004126868 , -0.001955391, 0.7610204   , 0.456702024 , 0.748639047 , -0.000660196471, -0.0026710832, -0.54372716 , 3.51        , 23          , 11          , 0.00738473749, 0.00738472166
-0.01423097 , -0.01385477 , -9.801345   , 0.00300050969, -0.00100374175, -0.0011656147, 0.760484    , 0.457402676 , 0.7463613   , -0.00063016027, -0.002681128, -0.5437386  , 3.52        , 23          , 12          , 0.0577053428, 0
-0.001963423, 0.0204773657, -9.781133   , 0.00272820541, 0.0006869192, 0.000841502333, 0.7600736   , 0.457267165 , 0.7470766   , -0.000602900749, -0.00267425366, -0.5437305  , 3.53        , 23          , 50          , 0           , 0
0.00319152256, 0.02776656  , -9.80577    , -0.00321785337, -0.00267058332, 0.000507545657, 0.760746241 , 0.4568462   , 0.7489265   , -0.000635093, -0.00270095631, -0.543725252, 3.54        , 23          , 11          , 0.00738473749, 0.00738472166
-0.0115351044, 0.0117511488, -9.796156   , 0.00663994532, -0.00359374 , 0.00022520122, 0.760746241 , 0.4568462   , 0.7489265   , -0.0005686998, -0.00273689232, -0.543722868, 3.55        , 23          , 12          , 0.0577053428, 0
-0.0498667732, 0.009745265 , -9.791626   , 0.003289132 , 0.000121112476, -1.61002245E-05, 0.760353148 , 0.45697844  , 0.7459322   , -0.0005358079, -0.0027356816, -0.5437231  , 3.56        , 23          , 50          , 0           , 0
-0.02729052 , 0.00688042445, -9.829662   , -8.452368E-05, 0.00100131507, -0.000576928665, 0.7603388   , 0.45769155  , 0.747790337 , -0.000536637555, -0.002725671, -0.5437288  , 3.57        , 23          , 11          , 0.00738473749, 0.00738472166
-0.0299997814, 0.007776221 , -9.821583   , 0.00330858142, 0.00239227759, -0.000271157536, 0.761287    , 0.4576871   , 0.748356044 , -0.000503544346, -0.00270175049, -0.543731451, 3.58        , 23          , 12          , 0.0577053428, 0
-0.0471349135, 0.007177161 , -9.818169   , 0.00386494  , 0.00181307585, 0.000857213163, 0.7603508   , 0.457541943 , 0.74564904  , -0.0004649181, -0.00268361554, -0.5437231  , 3.59        , 23          , 50          , 0           , 0
-0.0578608476, 0.0123183466, -9.815088   , 0.0007611398, 0.0009864091, -0.0014270402, 0.7603508   , 0.457541943 , 0.74564904  , -0.000460667157, -0.00270080217, -0.5437374  , 3.6         , 23          , 11          , 0.006738777 , 0.00673877
-0.03791673 , -0.00564586557, -9.814576   , -8.30575445E-05, 0.0009965878, -0.00199549948, 0.7604758   , 0.457408845 , 0.747931242 , -0.000461444055, -0.0026908454, -0.5437572  , 3.61        , 23          , 12          , 0.0587491766, 0
-0.0347503424, -0.00394505262, -9.80868    , -0.0031854508, 0.00129013858, -9.750671E-06, 0.76088506  , 0.457826078 , 0.747074366 , -0.0004932982, -0.00267794426, -0.5437572  , 3.62        , 23          , 50          , 0           , 0
-0.0297736116, -0.0009618364, -9.797802   , 0.00497834058, 9.41143953E-05, -1.40424236E-05, 0.760481536 , 0.457544923 , 0.7466473   , -0.000443514466, -0.00267700315, -0.543757439, 3.63        , 23          , 11          , 0.006738777 , 0.00673877
-0.023623772, 0.01645808  , -9.791744   , 0.00446414528, 0.00660905149, 0.00205361657, 0.760481536 , 0.457544923 , 0.7466473   , -0.0003989273, -0.002610904, -0.5437372  , 3.64        , 23          , 12          , 0.0587491766, 0
-0.0399806872, 0.009511245 , -9.785223   , 0.004700553 , 0.000661631 , 0.000276485342, 0.760891736 , 0.456837952 , 0.747070432 , -0.000351929077, -0.00260428665, -0.5437343  , 3.65        , 23          , 50          , 0           , 0
-0.0452304  , 0.0151550565, -9.804132   , -0.0006405899, 0.00212588022, -0.0005633125, 0.7611612   , 0.457399577 , 0.74678576  , -0.0003583203, -0.00258303 , -0.5437398  , 3.66        , 23          , 11          , 0.006738777 , 0.00673877
-0.0320464522, 0.0216798913, -9.80619049 , 0.00273606787, 0.00153124752, -0.00028261292, 0.759383559 , 0.457420439 , 0.7489362   , -0.000330952433, -0.002567718, -0.543742657, 3.67        , 23          , 12          , 0.0587491766, 0
-0.034573324, 0.00208399259, -9.832929   , 0.00330469571, 0.00181832374, -0.001413181, 0.761293352 , 0.457401425 , 0.7474986   , -0.000297869323, -0.00254953979, -0.5437567  , 3.68        , 23          , 50          , 0           , 0
-0.0310858972, 0.0209422987, -9.831837   , -9.06268542E-05, 0.0006976231, 0.000270602846, 0.761293352 , 0.457401425 , 0.7474986   , -0.000298782543, -0.00254256232, -0.5437541  , 3.69        , 23          , 11          , 0.006738777 , 0.00673877
-0.0389193073, 0.0150534287, -9.806767   , -0.00600048527, 0.0021711716, -0.00170471356, 0.760211    , 0.457265079 , 0.746790349 , -0.000373794173, -0.00252594473, -0.543771   , 3.7         , 23          , 12          , 0.0598003268, 0
-0.0389839523, 0.009722425 , -9.817612   , -0.002356091, -0.000127516483, -0.0014451578, 0.759389639 , 0.456854075 , 0.7485058   , -0.0003973185, -0.002527226, -0.5437856  , 3.71        , 23          , 50          , 0           , 0
-0.03637679 , 0.02994024  , -9.815168   , 0.002420339 , -0.0018673609, -0.00117705471, 0.761565745 , 0.456977725 , 0.7479236   , -0.000373085233, -0.00254590367, -0.543797255, 3.72        , 23          , 11          , 0.007067114 , 0.007067099
-0.0292606279, 0.0248489678, -9.815585   , -0.0006739608, -0.0004430113, 0.00139044144, 0.7604867   , 0.457541    , 0.745648265 , -0.0003798603, -0.00255032838, -0.5437834  , 3.73        , 23          , 12          , 0.0598003268, 0
-0.004284791, 0.0117242821, -9.81183    , 0.0010297047, 0.0006884788, -1.17082527E-05, 0.7604867   , 0.457541    , 0.745648265 , -0.000369562884, -0.00254344381, -0.5437834  , 3.74        , 23          , 50          , 0           , 0
-0.02979917 , -0.00274835527, -9.800068   , 0.0007358623, -0.000451683649, 0.00110846106, 0.7602062   , 0.456987828 , 0.748073757 , -0.000362232473, -0.00254795677, -0.543772459, 3.75        , 23          , 11          , 0.007067114 , 0.007067099
-0.0420962572, 0.015053479 , -9.79825    , 0.00162887666, 0.004663088 , -0.00109571486, 0.7611597   , 0.4574007   , 0.7470712   , -0.000345916022, -0.00250133 , -0.5437834  , 3.76        , 23          , 12          , 0.0598003268, 0
-0.0335679129, 0.0100822914, -9.819351   , 0.009549991 , 0.00773550849, -0.00274889125, 0.760346949 , 0.457685381 , 0.7462204   , -0.000250348356, -0.00242398283, -0.5438111  , 3.77        , 23          , 50          , 0           , 0
-0.03562255 , -0.00213496014, -9.807323   , 0.005551451 , 0.00207479973, -0.000271974015, 0.760346949 , 0.457685381 , 0.7462204   , -0.000194827328, -0.0024032353, -0.5438137  , 3.78        , 23          , 11          , 0.007067114 , 0.007067099
-0.0219064  , 0.009321954 , -9.807086   , -0.004928886, -0.00464313757, -0.00207299949, 0.7607424   , 0.457410872 , 0.7489288   , -0.000244065828, -0.00244967174, -0.543834448, 3.79        , 23          , 12          , 0.0598003268, 0
-0.0400431752, 0.0246781856, -9.82605    , -0.0006867633, -0.0007171327, 0.0005357537, 0.7611593   , 0.4576819   , 0.7467869   , -0.000276297826, -0.00244909246, -0.543828964, 3.8         , 23          , 50          , 0           , 0
-0.0407471173, 0.0128666563, -9.811304   , 0.00582583435, 0.0023677873, -0.00140286284, 0.7604739   , 0.457691163 , 0.7479324   , -0.0002180053, -0.00242541777, -0.543843031, 3.81        , 23          , 11          , 0.00741368672, 0.007413674
-0.0344105139, 0.0141199874, -9.814377   , 0.002702555 , -0.000167571852, -0.0005877727, 0.761286855 , 0.457265884 , 0.748925269 , -0.000190965482, -0.00242709462, -0.543849   , 3.82        , 23          , 12          , 0.06085822  , 0
-0.03150084 , 0.02707525  , -9.805691   , -0.0009802135, -0.0015793792, 0.002510636 , 0.761286855 , 0.457265884 , 0.748925269 , -0.000200828814, -0.00244288356, -0.543823957, 3.83        , 23          , 50          , 0           , 0
-0.0202963185, -0.00152045861, -9.808057   , 0.00214254134, 0.000124145736, -0.00115230377, 0.76048696  , 0.4574004   , 0.7457904   , -0.0001793752, -0.00244164467, -0.5438354  , 3.84        , 23          , 11          , 0.00741368672, 0.007413674
-0.02235257 , 0.009771649 , -9.805737   , 0.00155146269, -0.00271966518, 0.000513450359, 0.7597901   , 0.457699329 , 0.74879235  , -0.000163873177, -0.00246884045, -0.543830156, 3.85        , 23          , 12          , 0.06085822  , 0
-0.04307991 , 0.0114215445, -9.79199    , -0.00186318031, -0.00694145076, -0.0006792687, 0.7617071   , 0.4572535   , 0.7464968   , -0.000182487944, -0.00253825635, -0.5438371  , 3.86        , 23          , 50          , 0           , 0
-0.0367890671, 0.009114534 , -9.80139351 , 0.00437215343, -0.00245718076, 0.0005204923, 0.760210752 , 0.4574057   , 0.746648252 , -0.0001387797, -0.0025628272, -0.5438316  , 3.87        , 23          , 11          , 0.00741368672, 0.007413674
-0.02001584 , 0.0103631485, -9.831807   , 0.00101964385, 0.0009759298, -8.101255E-06, 0.760210752 , 0.4574057   , 0.746648252 , -0.000128583008, -0.00255306764, -0.5438318  , 3.88        , 23          , 12          , 0.06085822  , 0
-0.0307669137, -0.008068465, -9.810021   , 0.00270464434, 0.0003920867, 0.0005542326, 0.7600716   , 0.457128257 , 0.747646868 , -0.000101550686, -0.00254914677, -0.543826342, 3.89        , 23          , 50          , 0           , 0
-0.03993935 , 0.03484836  , -9.798515   , 0.00355596  , -0.0004710793, 0.000260803179, 0.7606145   , 0.457546234 , 0.7472174   , -4.00826866E-05, -0.00257032318, -0.5438235  , 3.9         , 23          , 11          , 0.007653058 , 0.007653051
-0.0118738422, 0.0176333655, -9.798361   , -0.00181938184, -0.00298184715, -6.17166952E-05, 0.7602135   , 0.457544029 , 0.7459352   , -5.82749672E-05, -0.002600142, -0.5438242  , 3.91        , 23          , 12          , 0.0619223   , 0
-0.00132777775, 0.004298985 , -9.789809   , -0.00177408755, 0.00240953849, -0.000277375919, 0.7602135   , 0.457544029 , 0.7459352   , -7.600869E-05, -0.00257604639, -0.5438268  , 3.92        , 23          , 50          , 0           , 0
-0.03702436 , -0.006113697, -9.814571   , -8.634533E-05, 0.00238726754, 0.00114325271, 0.760337949 , 0.457270861 , 0.748502254 , -7.690154E-05, -0.00255217263, -0.5438154  , 3.93        , 23          , 11          , 0.007653058 , 0.007653051
-0.0362005755, 0.01547452  , -9.809886   , -0.00264674029, -0.000708157662, 0.0002496089, 0.761028469 , 0.4572577   , 0.7463578   , -0.000103375285, -0.00255925418, -0.543813   , 3.94        , 23          , 12          , 0.0619223   , 0
-0.0422768071, 0.02562564  , -9.826515   , 0.00583438855, 0.002072545 , -0.0008390359, 0.7602107   , 0.45698446  , 0.7472174   , -4.500998E-05, -0.00253852946, -0.543821335, 3.95        , 23          , 50          , 0           , 0
-0.0250256825, 0.0111846551, -9.807102   , 0.0018750059, 0.0006781629, -1.06569059E-05, 0.761155367 , 0.4568422   , 0.748638868 , -2.6259715E-05, -0.00253174757, -0.5438216  , 3.96        , 23          , 11          , 0.007653058 , 0.007653051
-0.03284217 , 0.02669175  , -9.811557   , 0.00128797384, -0.00160024874, 0.001945971 , 0.761155367 , 0.4568422   , 0.748638868 , -1.34294824E-05, -0.00254774955, -0.543802   , 3.97        , 23          , 12          , 0.0619223   , 0
-0.0410066172, 0.02282008  , -9.815725   , -0.00124096358, -0.00128222944, -0.000323245244, 0.7606236   , 0.4573989   , 0.745647    , -2.5830841E-05, -0.002560572, -0.5438051  , 3.98        , 23          , 50          , 0           , 0
-0.0298181  , 0.0215828717, -9.798517   , 0.00105038949, 0.00351342442, 0.00115896331, 0.7603428   , 0.4569863   , 0.7479303   , -1.5356336E-05, -0.00252543739, -0.5437937  , 3.99        , 23          , 11          , 0.007653058 , 0.007653051
-0.006176966, 0.0341924354, -9.796815   , 0.0006096624, -0.003089867, -0.0009089457, 0.7606144   , 0.457125    , 0.747786641 , -0.0008718007, -0.002760488, -0.5438032  , 4           , 23          , 12          , 0.06299208  , 0
-0.0319245271, 0.02455795  , -9.830915   , 4.482112E-05, -0.00253554154, 0.00165092014, 0.760215    , 0.4575429   , 0.745649755 , -0.0008713983, -0.00278582913, -0.543786764, 4.01        , 23          , 50          , 0           , 0
-0.0262676775, 0.0153515227, -9.819232   , -0.00389198214, -0.00220310944, -0.00118744723, 0.760215    , 0.4575429   , 0.745649755 , -0.0009102852, -0.00280787051, -0.543798447, 4.02        , 23          , 11          , 0.007917217 , 0.007917195
-0.0205046665, 0.01243757  , -9.805244   , -0.00303407968, -0.000789265265, -0.00145221152, 0.7599354   , 0.4568486   , 0.748074651 , -0.0009405852, -0.00281577627, -0.543813   , 4.03        , 23          , 12          , 0.06299208  , 0
-0.03187967 , 0.006328844 , -9.80316448 , -0.0004781236, 0.0014628449, -0.00170415477, 0.7606147   , 0.457405657 , 0.747359633 , -0.0009453186, -0.00280116382, -0.543830156, 4.04        , 23          , 50          , 0           , 0
-0.0391867757, -0.00111405924, -9.814553   , -0.000485040451, 0.00116579374, 0.000278237043, 0.7599301   , 0.457414359 , 0.748362362 , -0.000950176734, -0.0027895032, -0.5438273  , 4.05        , 23          , 11          , 0.007917217 , 0.007917195
-0.0369116068, -0.00110004842, -9.822629   , 0.000338271057, -0.00167329493, -0.0003239623, 0.7599301   , 0.457414359 , 0.748362362 , -0.0009467851, -0.0028062393, -0.543830633, 4.06        , 23          , 12          , 0.06299208  , 0
-0.030698726, 0.0186267719, -9.824202   , 0.0006255888, -0.0005522674, 0.00139297312, 0.7612972   , 0.457258016 , 0.7469272   , -0.000940568338, -0.00281174853, -0.543816566, 4.07        , 23          , 50          , 0           , 0
-0.03924579 , 0.023553554 , -9.796801   , 0.00599100767, -7.959621E-06, -0.00114668324, 0.7610291   , 0.456835866 , 0.74678427  , -0.000880626147, -0.00281183887, -0.543828   , 4.08        , 23          , 11          , 0.007917217 , 0.007917195
-0.0342653729, 0.0226622466, -9.811605   , 0.002056818 , 0.00171596534, 4.804082E-06, 0.7596556   , 0.457277924 , 0.749076843 , -0.000860058062, -0.00279467879, -0.543828   , 4.09        , 23          , 12          , 0.06299208  , 0
-0.0155520821, 0.0145005621, -9.791675   , -0.00106531184, 4.15331451E-05, -0.00143902842, 0.761297464 , 0.457117438 , 0.747069359 , -0.000895978243, -0.002806455, -0.543842554, 4.1         , 23          , 50          , 0           , 0
-0.0181756131, -0.009639366, -9.813051   , -0.00444118539, 0.00119199755, -1.03018974E-05, 0.761297464 , 0.457117438 , 0.747069359 , -0.000940389757, -0.002794535, -0.543842554, 4.11        , 23          , 11          , 0.00645487336, 0.00645487
-0.0134437745, 0.002037501 , -9.819655   , -0.002768845, -0.000536038657, 0.00195625774, 0.760489047 , 0.4569775   , 0.7459315   , -0.000968132867, -0.0027998765, -0.543823   , 4.12        , 23          , 12          , 0.06406707  , 0
-0.0117046628, 0.0258011781, -9.806393   , 0.00176125439, 0.00170507818, 0.00113931589, 0.760341644 , 0.457268059 , 0.747788668 , -0.0009505521, -0.00278281467, -0.54381156 , 4.13        , 23          , 50          , 0           , 0
-0.0381293  , 0.0326782875, -9.815165   , 0.00033133  , -0.000559327658, 0.001960064 , 0.7608825   , 0.457547128 , 0.7479296   , -0.0009472935, -0.00278838957, -0.543792   , 4.14        , 23          , 11          , 0.00645487336, 0.00645487
-0.03888584 , 0.0155642936, -9.815312   , 0.0026046678, 0.00113906781, -1.65119127E-06, 0.7602196   , 0.456977725 , 0.7455048   , -0.000921246654, -0.00277699879, -0.543792   , 4.15        , 23          , 12          , 0.06406707  , 0
-0.0515039265, 0.0166401938, -9.805986   , 0.00344064  , -0.0005558274, -0.00200807652, 0.7602196   , 0.456977725 , 0.7455048   , -0.000886784459, -0.00278257532, -0.543812037, 4.16        , 23          , 50          , 0           , 0
-0.04552205 , -0.00236421637, -9.81193    , -0.000235732368, -0.00111857918, 0.00138478784, 0.7603415   , 0.4568468   , 0.7483579   , -0.0008891802, -0.00279374886, -0.5437982  , 4.17        , 23          , 11          , 0.00645487336, 0.00645487
-0.04663098 , 0.009884809 , -9.819941   , -0.00333160022, -0.000805893156, 0.0005334317, 0.7610231   , 0.457402229 , 0.7472146   , -0.0009225112, -0.00280180317, -0.543792963, 4.18        , 23          , 12          , 0.06406707  , 0
-0.0376331434, 0.0114228148, -9.806784   , 0.00261680782, 0.00283526583, 0.0008709701, 0.7604855   , 0.457401544 , 0.746075869 , -0.0008963673, -0.00277344231, -0.543784142, 4.19        , 23          , 50          , 0           , 0
-0.0194202326, 0.0219177231, -9.810106   , -0.00247594668, 4.429635E-05, -0.002291874, 0.7604855   , 0.457401544 , 0.746075869 , -0.000929105736, -0.002804903, -0.5438068  , 4.2         , 23          , 11          , 0.00669129146, 0.006691282
-0.0265188646, 0.0287764762, -9.804724   , 0.0006254051, 0.000854754937, 0.0002760716, 0.760608256 , 0.4572701   , 0.7487862   , -0.000922859355, -0.00279635331, -0.543804169, 4.21        , 23          , 12          , 0.06514683  , 0
-0.0338017233, -0.003416529, -9.82216549 , 0.000329473434, -0.0008450663, 0.0002542357, 0.7611593   , 0.4576819   , 0.7467869   , -0.0009195719, -0.00280480157, -0.543801546, 4.22        , 23          , 50          , 0           , 0
-0.0268925689, 0.00545340031, -9.82022    , -0.00304352981, 3.70495545E-05, -0.0005903033, 0.7603429   , 0.457407564 , 0.747361064 , -0.00094999047, -0.00280443672, -0.5438075  , 4.23        , 23          , 11          , 0.00669129146, 0.006691282
-0.0463553555, 0.0008325651, -9.815512   , -0.00164049491, -0.00109859428, -0.002021452, 0.761014    , 0.457549542 , 0.748785138 , -0.0009663387, -0.002815442, -0.5438278  , 4.24        , 23          , 12          , 0.06514683  , 0
-0.0469682328, 0.0174964275, -9.811782   , 0.005149109 , 0.00224681641, -0.0008353258, 0.761014    , 0.457549542 , 0.748785138 , -0.0009148242, -0.00279298215, -0.5438361  , 4.25        , 23          , 50          , 0           , 0
-0.02488724 , 0.0197110623, -9.802081   , 0.00343734981, -1.547276E-05, -1.49235566E-05, 0.760753334 , 0.457543015 , 0.746645868 , -0.0008804503, -0.00279313652, -0.5438361  , 4.26        , 23          , 11          , 0.00669129146, 0.006691282
-0.0333540365, -0.00170525163, -9.810446   , 0.004009633 , 0.0005590869, -0.00170933118, 0.7597923   , 0.45769763  , 0.7483642   , -0.0008403064, -0.00278756022, -0.5438533  , 4.27        , 23          , 12          , 0.06514683  , 0
-0.03359459 , 0.0108819567, -9.804945   , 0.004567557 , -0.000292289478, -0.00228680484, 0.761575639 , 0.456829816 , 0.7462104   , -0.000794566935, -0.00279050227, -0.5438764  , 4.28        , 23          , 50          , 0           , 0
-0.0334478766, -0.00451668352, -9.79517    , 0.0048894654, 0.00508167036, -0.000232434264, 0.75993526  , 0.457410455 , 0.7473633   , -0.000745665864, -0.00273968675, -0.543878555, 4.29        , 23          , 11          , 0.00669129146, 0.006691282
-0.02386181 , 0.0003603939, -9.809429   , -0.0021718787, -0.000275739032, 0.000258299639, 0.75993526  , 0.457410455 , 0.7473633   , -0.000693441543, -0.00278380746, -0.543875456, 4.3         , 23          , 12          , 0.0662309453, 0
-0.0175279379, 0.027709255 , -9.805538   , 0.00318753673, -0.0003025709, -0.001721099, 0.760338962 , 0.457550943 , 0.747932553 , -0.0006615184, -0.00278684474, -0.54389286 , 4.31        , 23          , 50          , 0           , 0
-0.03053186 , 0.0311038457, -9.80429649 , 0.000381987978, 0.00141671218, -0.00113564846, 0.761570632 , 0.456693172 , 0.747351646 , -0.0006576669, -0.00277268514, -0.543904066, 4.32        , 23          , 11          , 0.00688234763, 0.006882344
-0.0313645825, -0.0122928554, -9.784862   , -0.003016729, -0.000267473952, -2.644895E-05, 0.7602132   , 0.4572634   , 0.7463622   , -0.000687833468, -0.00277536013, -0.543904543, 4.33        , 23          , 12          , 0.0662309453, 0
-0.0138358641, 0.009519061 , -9.793048   , -0.000205044038, -0.000861699344, 0.000820979534, 0.7602132   , 0.4572634   , 0.7463622   , -0.0006899068, -0.002783972, -0.5438962  , 4.34        , 23          , 50          , 0           , 0
-0.0355676673, 0.0253916755, -9.811598   , 0.00150423311, 0.0005630148, -0.001996141, 0.7608802   , 0.4571276   , 0.748926938 , -0.0006748089, -0.002778355, -0.5439162  , 4.35        , 23          , 11          , 0.00688234763, 0.006882344
-0.0413249768, 0.00566892046, -9.811819   , 0.004301952 , -0.00117923063, 0.0008229342, 0.760756    , 0.457260162 , 0.746502    , -0.000631812436, -0.002790142, -0.5439079  , 4.36        , 23          , 12          , 0.0662309453, 0
-0.03220124 , 0.00966294  , -9.827441   , -0.00244052848, 0.00170240516, 0.00170157745, 0.7602133   , 0.456701577 , 0.7470736   , -0.0006562649, -0.002773107, -0.543890953, 4.37        , 23          , 50          , 0           , 0
-0.0164071713, 0.0398644246, -9.806327   , 0.002930243 , 0.00281593949, -0.00111462607, 0.761157632 , 0.456840545 , 0.7482107   , -0.0006269317, -0.002744955, -0.543902159, 4.38        , 23          , 11          , 0.00688234763, 0.006882344
-0.0246501844, 0.0131561887, -9.768381   , 0.00320346351, 0.00223502843, 0.0005808195, 0.761157632 , 0.456840545 , 0.7482107   , -0.0005949128, -0.00272260164, -0.543896437, 4.39        , 23          , 12          , 0.0662309453, 0
-0.0202825814, 0.002826862 , -9.785521   , 0.00152825087, 0.003685806 , -0.00224045222, 0.76062113  , 0.457541168 , 0.745933    , -0.000585786242, -0.00268411 , -0.543918848, 4.4         , 23          , 50          , 0           , 0
-0.02633459 , 0.0147613427, -9.799437   , -0.00218519382, -0.001967453, -0.00118174136, 0.7596596   , 0.457555741 , 0.747936249 , -0.0006076065, -0.00270379148, -0.543930531, 4.41        , 23          , 11          , 0.006953975 , 0.006953966
-0.0379500277, -0.0039989315, -9.792513   , -0.0047350144, -0.00309450529, 0.000503080548, 0.7608871   , 0.456981927 , 0.747784555 , -0.000654970354, -0.00273473328, -0.5439255  , 4.42        , 23          , 12          , 0.06731902  , 0
-0.0412496924, -0.0163712557, -9.81875    , 0.00117906358, -0.003982281, -0.0006352398, 0.7608964   , 0.457677066 , 0.745075762 , -0.0006431624, -0.00277456 , -0.5439317  , 4.43        , 23          , 50          , 0           , 0
-0.0369100757, 0.028025927 , -9.798088   , 7.496265E-05, -0.000861245731, 0.0005376162, 0.7608964   , 0.457677066 , 0.745075762 , -0.000642427651, -0.00278316881, -0.543926239, 4.44        , 23          , 11          , 0.006953975 , 0.006953966
-0.03422504 , 0.0253467821, -9.808884   , -0.00104506488, -0.0002778101, -0.000591446646, 0.760072231 , 0.456706464 , 0.748073339 , -0.0006528618, -0.002785951, -0.5439322  , 4.45        , 23          , 12          , 0.06731902  , 0
-0.03605657 , -0.000362027436, -9.801913   , -0.00247368426, -0.002538389, -0.0003381194, 0.7607585   , 0.457539082 , 0.745646834 , -0.0006775893, -0.00281133736, -0.543935537, 4.46        , 23          , 50          , 0           , 0
-0.0222948026, 0.0129289785, -9.80616    , 0.00288403733, -0.00146312511, 0.00251988648, 0.759389937 , 0.457134753 , 0.748078763 , -0.00064882 , -0.002825952, -0.543910265, 4.47        , 23          , 11          , 0.006953975 , 0.006953966
-0.013246607, 0.0359422639, -9.83377552 , -0.00021470456, -0.00226592971, -0.00118290086, 0.759389937 , 0.457134753 , 0.748078763 , -0.0006509336, -0.002848619, -0.5439222  , 4.48        , 23          , 12          , 0.06731902  , 0
-0.0344589874, 0.0101217311, -9.822511   , -0.0021816676, -0.000850048964, 0.00138597935, 0.7613016   , 0.4568334   , 0.7466401   , -0.0006727899, -0.00285711023, -0.543908358, 4.49        , 23          , 50          , 0           , 0
-0.04674889 , 0.00701627135, -9.796565   , -0.00245414535, 1.15935982E-05, -0.0003058764, 0.7612976   , 0.457538664 , 0.746500134 , -0.000701481244, -0.002864566, -0.5439112  , 4.5         , 23          , 11          , 0.0072123087, 0.00721229939
-0.024665406, 0.007079443 , -9.801282   , 0.00264810817, 0.00365719059, 0.0003143345, 0.759520948 , 0.457418352 , 0.74865     , -0.000675009, -0.0028279915, -0.543908358, 4.51        , 23          , 12          , 0.0684107   , 0
-0.0397927836, 0.0177234747, -9.799554   , 0.00123019144, 0.00253506424, 1.45672529E-05, 0.7618283   , 0.457684964 , 0.748781264 , -0.000662707433, -0.0028026416, -0.5439081  , 4.52        , 23          , 50          , 0           , 0
-0.05356567 , 0.0261933673, -9.812679   , 0.004613377 , 0.00334340567, 0.00258285878, 0.7618283   , 0.457684964 , 0.748781264 , -0.0006166457, -0.00276919059, -0.54388237 , 4.53        , 23          , 11          , 0.0072123087, 0.00721229939
-0.0366749056, 0.0149944732, -9.804494   , 0.00210075476, 0.00509310141, -0.00165442273, 0.7607585   , 0.457539082 , 0.745646834 , -0.000595592661, -0.00271826982, -0.5438988  , 4.54        , 23          , 12          , 0.0684107   , 0
-0.02390767 , 0.02247037  , -9.812399   , 0.00148957456, -2.378758E-05, 0.0005500995, 0.760341644 , 0.457268059 , 0.747788668 , -0.0005807118, -0.00271850429, -0.543893337, 4.55        , 23          , 50          , 0           , 0
-0.039238058, 0.0201201066, -9.821129   , 0.007403652 , -0.00091156346, -0.0005882209, 0.760884    , 0.457546    , 0.7476441   , -0.000506659329, -0.00272762333, -0.5438993  , 4.56        , 23          , 11          , 0.0072123087, 0.00721229939
-0.0286610164, 0.009448055 , -9.80670452 , 0.0026176956, 0.000523575465, 0.00226090988, 0.7600827   , 0.457119852 , 0.745506048 , -0.000480543968, -0.00272237649, -0.543876648, 4.57        , 23          , 12          , 0.0684107   , 0
-0.0186944157, 0.0393903032, -9.796904   , -0.00359988678, -0.00197127322, 0.0005187994, 0.7600827   , 0.457119852 , 0.745506048 , -0.00051655696, -0.00274208677, -0.543871641, 4.58        , 23          , 50          , 0           , 0
-0.02086079 , 0.0182785429, -9.801601   , -0.00187442242, 0.00171503844, -0.00113482575, 0.7600679   , 0.457131058 , 0.748360455 , -0.000535270257, -0.00272494229, -0.543882847, 4.59        , 23          , 11          , 0.0072123087, 0.00721229939
-0.0387003943, 0.0263595413, -9.812522   , 0.000365083368, 0.005979987 , -0.0016458208, 0.7606143   , 0.457686841 , 0.74707526  , -0.000669727742, -0.00260315929, -0.543900251, 4.6         , 23          , 12          , 0.06950564  , 0
-0.0176459644, 0.02354604  , -9.790273   , 3.077797E-05, 0.0005696702, 0.00169030775, 0.7603464   , 0.45754534  , 0.7465053   , -0.000669463945, -0.00259745144, -0.5438833  , 4.61        , 23          , 50          , 0           , 0
-0.024875164, 0.0201711766, -9.803427   , -0.000805065967, 0.001434645 , 0.000565172755, 0.7603464   , 0.45754534  , 0.7465053   , -0.0006775292, -0.00258310069, -0.5438776  , 4.62        , 23          , 11          , 0.007458201 , 0.007458189
-0.0421665162, 0.0332223028, -9.817452   , -0.00279069715, -0.0002486459, -2.61603145E-05, 0.7603362   , 0.4574126   , 0.748645544 , -0.0007054354, -0.002585587, -0.54387784 , 4.63        , 23          , 12          , 0.06950564  , 0
-0.02458917 , 0.007260276 , -9.826931   , -0.00255611469, -0.00564788934, 0.00104097626, 0.761027753 , 0.457258254 , 0.7465005   , -0.000731023843, -0.00264205923, -0.5438676  , 4.64        , 23          , 50          , 0           , 0
-0.0290964525, 0.01035469  , -9.80625248 , 0.00509726349, -0.0008714129, -0.000591055839, 0.7598038   , 0.456986785 , 0.7470769   , -0.0006800356, -0.00265077688, -0.543873549, 4.65        , 23          , 11          , 0.007458201 , 0.007458189
-0.020126963, 0.008805154 , -9.80257    , 0.00172608916, 0.00084636407, 0.0008448341, 0.761027932 , 0.457117647 , 0.746642649 , -0.0006627971, -0.0026423072, -0.543864965, 4.66        , 23          , 12          , 0.06950564  , 0
-0.03359206 , 0.009162064 , -9.81666    , -0.00250546867, 0.000312722434, 0.00054877  , 0.761027932 , 0.457117647 , 0.746642649 , -0.0006878662, -0.00263917632, -0.5438595  , 4.67        , 23          , 50          , 0           , 0
-0.0441932827, 0.01848233  , -9.831095   , -0.00278834742, 3.501028E-05, -2.25786789E-05, 0.7608909   , 0.457400382 , 0.7465018   , -0.000715749164, -0.00263882685, -0.5438597  , 4.68        , 23          , 11          , 0.007458201 , 0.007458189
-0.0503065065, 0.007189911 , -9.811452   , -0.00135829125, 0.00285333442, 0.0011498098, 0.759794235 , 0.4574153   , 0.7483631   , -0.0007293622, -0.00261028484, -0.5438483  , 4.69        , 23          , 12          , 0.06950564  , 0
-0.0368254334, 0.00600795262, -9.808168   , -0.001132223, -0.003974979, 0.0007805369, 0.761573255 , 0.457393348 , 0.7459273   , -0.000740782, -0.00270609767, -0.54384017 , 4.7         , 23          , 50          , 0           , 0
-0.031160837, 0.0203330852, -9.809341   , -0.00278759212, 0.000570486067, 0.00168689864, 0.760215342 , 0.4568405   , 0.746503234 , -0.00076870335, -0.00270037958, -0.543823242, 4.71        , 23          , 11          , 0.00733479252, 0.00733478367
-0.0494655222, 0.0266615637, -9.826133   , 0.000317150465, 0.0005605918, -0.0002952685, 0.760215342 , 0.4568405   , 0.746503234 , -0.000765523931, -0.00269477582, -0.5438261  , 4.72        , 23          , 12          , 0.07060353  , 0
-0.00772661529, 0.0212335251, -9.808639   , 0.00227654423, -0.00115425338, -0.0005980467, 0.7606148   , 0.4568438   , 0.748070955 , -0.0007427425, -0.00270632282, -0.543832064, 4.73        , 23          , 50          , 0           , 0
-0.0279836543, -0.00361105055, -9.810405   , -0.0007853853, 0.003409452 , -0.0008282572, 0.7610241   , 0.457682282 , 0.7466449   , -0.000750574, -0.002672235, -0.5438404  , 4.74        , 23          , 11          , 0.00733479252, 0.00733478367
-0.0302695557, -0.00408200547, -9.801434   , -0.0008121434, 0.0005633199, 0.0005544789, 0.760347545 , 0.457263559 , 0.746646941 , -0.000758710143, -0.00266659772, -0.5438349  , 4.75        , 23          , 12          , 0.07060353  , 0
-0.0274812952, 0.023037497 , -9.81918049 , -0.0005305696, 0.0008372051, 0.0016932484, 0.760347545 , 0.457263559 , 0.746646941 , -0.0007640608, -0.002658212, -0.543817759, 4.76        , 23          , 50          , 0           , 0
-0.010773248, 0.0284462683, -9.80051    , -0.00141275232, -0.00396903465, 0.000212770014, 0.760886    , 0.456701845 , 0.7483544   , -0.0007781943, -0.002697901, -0.543815851, 4.77        , 23          , 11          , 0.00733479252, 0.00733478367
-0.0340166464, 0.0118203135, -9.808992   , -0.0030926615, -0.002539963, 0.0005123126, 0.7606186   , 0.457262218 , 0.746788144 , -0.0008091348, -0.00272329617, -0.5438106  , 4.78        , 23          , 12          , 0.07060353  , 0
-0.03104274 , 0.025359422 , -9.8192     , 0.00256555923, 0.000248516648, 0.001406181 , 0.7599351   , 0.457551032 , 0.7472211   , -0.0007835175, -0.00272079976, -0.543796539, 4.79        , 23          , 50          , 0           , 0
-0.0421677828, 0.0340822637, -9.811595   , 0.0039513926, -0.00146627054, 0.001386423 , 0.760882854 , 0.4568447   , 0.748783052 , -0.0007702764, -0.00274187652, -0.5437827  , 4.8         , 23          , 11          , 0.00752581237, 0.00752581377
-0.0535254776, 0.02715166  , -9.820771   , 3.182041E-05, 0.00140758825, 0.000282553141, 0.760882854 , 0.4568447   , 0.748783052 , -0.000769965933, -0.00272779842, -0.54377985 , 4.81        , 23          , 12          , 0.07170406  , 0
-0.0259115249, 0.009942107 , -9.820172   , 0.00625892868, 0.004207142 , -0.00109257 , 0.7607638   , 0.456973344 , 0.7453591   , -0.000707346946, -0.00268573547, -0.543791056, 4.82        , 23          , 50          , 0           , 0
-0.0035992905, -2.11093575E-05, -9.81012    , 0.00283645652, -3.760634E-05, 0.00111923658, 0.7600699   , 0.457269967 , 0.747790158 , -0.0006790125, -0.00268610357, -0.5437796  , 4.83        , 23          , 11          , 0.00752581237, 0.00752581377
-0.00748328 , 0.009947337 , -9.806929   , 0.00197241781, -0.00257650833, -4.88781952E-05, 0.760884    , 0.457546    , 0.7476441   , -0.000659287034, -0.00271186884, -0.5437801  , 4.84        , 23          , 12          , 0.07170406  , 0
-0.03606066 , -0.00123466179, -9.80597    , 0.002023456 , 0.003662019 , 0.000313628523, 0.7603569   , 0.456975639 , 0.7452186   , -0.000639061036, -0.00267524645, -0.543777   , 4.85        , 23          , 50          , 0           , 0
-0.0480014421, 0.0128839966, -9.79428    , -0.00111392047, -0.0005752783, 0.00110722892, 0.7603569   , 0.456975639 , 0.7452186   , -0.0006502299, -0.00268099224, -0.543766   , 4.86        , 23          , 11          , 0.00752581237, 0.00752581377
-0.025363192, 0.01577536  , -9.817869   , -0.005921027, -0.00307688583, -0.001200572, 0.760205567 , 0.45740962  , 0.7476473   , -0.000709407963, -0.00271176873, -0.543777943, 4.87        , 23          , 12          , 0.07170406  , 0
-0.0271723475, 0.0127698788, -9.834112   , 0.00199721847, 0.00026388283, -0.000580482767, 0.761576653 , 0.4571099   , 0.7456407   , -0.000689420151, -0.00270913378, -0.543783665, 4.88        , 23          , 50          , 0           , 0
-0.0291785467, 0.00411932729, -9.816654   , 0.00115250016, 0.0008260661, 0.00112790533, 0.759659052 , 0.45741573  , 0.748221159 , -0.000677925651, -0.00270086573, -0.543772459, 4.89        , 23          , 11          , 0.00752581237, 0.00752581377
-0.027420545, 0.00312021561, -9.807644   , 0.00231206487, 0.00367357535, -0.00195570313, 0.759659052 , 0.45741573  , 0.748221159 , -0.0006502026, -0.00266892463, -0.543792   , 4.9         , 23          , 12          , 0.07280696  , 0
-0.008466821, 0.007610078 , -9.792557   , -0.002247795, -0.00169924262, 0.0005241037, 0.7608942   , 0.456695676 , 0.746784449 , -0.0006726945, -0.00268591358, -0.543786764, 4.91        , 23          , 50          , 0           , 0
-0.038924668, 0.0150407329, -9.804967   , -0.00110675348, -0.000283688656, -0.000307735463, 0.760615468 , 0.4574051   , 0.7472169   , -0.000683753868, -0.00268875272, -0.543789864, 4.92        , 23          , 11          , 0.00774350436, 0.00774350576
-0.0350906365, -0.0006553773, -9.826656   , 0.000318471924, 0.00141340424, -0.0011356466, 0.7599351   , 0.457551032 , 0.7472211   , -0.000680538535, -0.00267462642, -0.5438013  , 4.93        , 23          , 12          , 0.07280696  , 0
-0.0439820141, 0.00755156577, -9.815882   , -0.004195181, 0.00115788227, -0.000293633551, 0.7607492   , 0.456843942 , 0.7483556   , -0.0007224825, -0.00266305 , -0.543804169, 4.94        , 23          , 50          , 0           , 0
-0.0495741144, 0.023383677 , -9.808611   , -0.005349667, -0.00195769663, 0.000233005223, 0.7607492   , 0.456843942 , 0.7483556   , -0.0007759855, -0.00268262485, -0.5438018  , 4.95        , 23          , 11          , 0.00774350436, 0.00774350576
-0.0547794476, 0.005188085 , -9.834915   , -0.00279005687, 0.0005818971, -0.000582777255, 0.7607651   , 0.457112819 , 0.744931459 , -0.0008038704, -0.00267681014, -0.5438075  , 4.96        , 23          , 12          , 0.07280696  , 0
-0.0354183465, 0.009136261 , -9.808128   , 0.00145494635, 0.00281556346, 1.84874079E-05, 0.759662569 , 0.4575535   , 0.747365355 , -0.0007893215, -0.00264865486, -0.5438075  , 4.97        , 23          , 50          , 0           , 0
-0.0171636213, -0.00291988626, -9.809836   , 0.0005808571, -0.0008598776, -0.000880243664, 0.76075083  , 0.457264066 , 0.747501    , -0.000783489668, -0.00265726051, -0.5438163  , 4.98        , 23          , 11          , 0.00774350436, 0.00774350576
-0.027952984, 0.0221322328, -9.817393   , 0.000871044758, -7.198687E-06, -0.00143657334, 0.760625839 , 0.457397223 , 0.7452188   , -0.0007747411, -0.00265734317, -0.543830633, 4.99        , 23          , 12          , 0.07280696  , 0
-0.0477398746, 0.0225653946, -9.825249   , -0.00194961147, 0.000861911 , -0.00114558416, 0.760625839 , 0.457397223 , 0.7452188   , -0.0008204616, -0.00265210378, -0.5438421  , 5           , 23          , 50          , 0           , 0
-0.02735496 , 0.03067223  , -9.815517   , 0.00114051288, -0.000297917024, -0.0008723942, 0.760206759 , 0.457127869 , 0.747788846 , -0.0008090335, -0.00265509 , -0.5438509  , 5.01        , 23          , 11          , 0.007946775 , 0.007946771
-0.0180546828, 0.02408456  , -9.801523   , 0.0008768229, 0.001971538 , -0.0005603765, 0.7607558   , 0.457400769 , 0.7463598   , -0.000800250331, -0.00263537932, -0.5438566  , 5.02        , 23          , 12          , 0.07391196  , 0
-0.0272458345, 0.0134585183, -9.803957   , 0.00282120658, -0.00117115711, 0.0005374896, 0.7598068   , 0.457405776 , 0.7459369   , -0.0007720526, -0.00264708651, -0.543851137, 5.03        , 23          , 50          , 0           , 0
