Acc X       , Acc Y       , Acc Z       , Gyro X      , Gyro Y      , Gyro Z      , Magn X      , Magn Y      , Magn Z      , Euler X     , Euler Y     , Euler Z     , Time        , Status      , LowRate X   , LowRate Y   , LowRate Z    
-0.03135698 , 0.009512462 , -9.808533   , -1.6905411E-05, 0.00396249536, -0.000484261021, 0.75940907  , 0.4566989   , 0.7449372   , -0.00143815321, -0.00321665313, -0.5438955  , 0           , 23          , 11          , 0.0346410163, 0.0346410163
-0.0377231874, 0.00603153  , -9.809079   , -0.00175033428, -0.00168453471, -0.00254394347, 0.7602173   , 0.4569794   , 0.745933    , -0.00145557453, -0.00323353475, -0.5439205  , 0.01        , 23          , 12          , 0.0346410163, 0
-0.007569552, 0.02850966  , -9.818027   , -0.00202224613, 0.0002840422, 0.000317886937, 0.760090649 , 0.457254261 , 0.743794    , -0.00147580728, -0.00323068956, -0.5439174  , 0.02        , 23          , 50          , 0           , 0
-0.00700483 , 0.01173158  , -9.805559   , 0.00390632125, 0.00137612061, 5.57696039E-05, 0.7592721   , 0.4569816   , 0.7447964   , -0.00143674586, -0.00321692834, -0.543916941, 0.03        , 23          , 11          , 0.0346410163, 0.0346410163
-0.0546136759, -0.006282093, -9.807108   , -6.21996951E-05, -0.00142888946, -0.000268601754, 0.759949148 , 0.456557274 , 0.74579     , -0.00143735879, -0.00323122018, -0.543919563, 0.04        , 23          , 12          , 0.0346410163, 0
-0.0243808422, 0.0198356882, -9.820975   , 0.00108027889, 0.0005444096, 0.0003252749, 0.759949148 , 0.456557274 , 0.74579     , -0.00142656686, -0.00322577148, -0.5439162  , 0.05        , 23          , 50          , 0           , 0
-0.028330341, 0.003115248 , -9.804503   , 0.00107218558, -0.0005863891, -0.000256472675, 0.7599614   , 0.457250178 , 0.742510259 , -0.00141583674, -0.003231639, -0.543918848, 0.06        , 23          , 11          , 0.0346410163, 0.0346410163
-0.0362061076, 0.0133040231, -9.821604   , -5.71083947E-05, -0.0005836609, 0.0005932747, 0.759544551 , 0.456979156 , 0.7446522   , -0.00141642743, -0.00323746772, -0.5439129  , 0.07        , 23          , 12          , 0.0346410163, 0
-0.0420831  , 0.0124958409, -9.818972   , 0.00218907883, -0.00200931262, -0.000840418, 0.760224    , 0.456974357 , 0.7446485   , -0.00139450922, -0.00325757219, -0.543921232, 0.08        , 23          , 50          , 0           , 0
-0.0389786325, 0.009303559 , -9.822115   , -0.00205579237, -0.00368906115, 0.0005514544, 0.759959161 , 0.457251847 , 0.7429384   , -0.00141508516, -0.003294455, -0.543915749, 0.09        , 23          , 11          , 0.0346410163, 0.0346410163
-0.0411595255, 0.0172797069, -9.796872   , 0.00217262516, -0.00372497761, 0.0008403469, 0.759959161 , 0.457251847 , 0.7429384   , -0.00129816588, -0.00346885854, -0.543907642, 0.1         , 23          , 12          , 0.0346410163, 0
-0.0225529317, 0.02331715  , -9.808327   , 0.009241581 , -0.00121925864, 3.0101015E-05, 0.7600843   , 0.456556857 , 0.745932043 , -0.00120575121, -0.003481051, -0.5439074  , 0.11        , 23          , 50          , 0           , 0
-0.0241386965, 0.0102725793, -9.808001   , -6.259854E-05, -0.0014368752, 0.000582521432, 0.760226548 , 0.4572533   , 0.743793249 , -0.00120639743, -0.003495413, -0.543901443, 0.12        , 23          , 11          , 0.0346410163, 0.0346410163
-0.0312640071, 0.0179310087, -9.788213   , 0.00420550862, 0.00335543882, 0.000364889362, 0.75981766  , 0.457116723 , 0.744223058 , -0.001164355, -0.003461854, -0.543897867, 0.13        , 23          , 12          , 0.0346410163, 0
-0.03144157 , 0.00542855  , -9.804518   , -0.005965973, 0.0005893536, 0.00116774731, 0.75981766  , 0.457116723 , 0.744223058 , -0.00122405507, -0.00345594715, -0.5438862  , 0.14        , 23          , 50          , 0           , 0
-0.03157592 , 0.02473979  , -9.794009   , -0.003988827, 0.0008639303, 0.000322619715, 0.760083139 , 0.4568386   , 0.7457904   , -0.00126395444, -0.00344730332, -0.5438831  , 0.15        , 23          , 11          , 0.0346410163, 0.0346410163
-0.0259757545, 0.009358281 , -9.801277   , 0.00219468423, -0.00144615839, -0.0005495524, 0.760365546 , 0.4571095   , 0.743363857 , -0.00124198862, -0.00346177234, -0.543888569, 0.16        , 23          , 12          , 0.0346410163, 0
-0.0289112926, 0.0176974535, -9.82509    , -0.00061817345, -0.0003018423, 0.00116357685, 0.7596799   , 0.456838131 , 0.7449363   , -0.00124821055, -0.00346477586, -0.5438769  , 0.17        , 23          , 50          , 0           , 0
-0.0298503786, 0.019348938 , -9.801236   , -0.000884997367, 0.00112812466, -0.0002374133, 0.7606289   , 0.456833124 , 0.7453593   , -0.00125705253, -0.00345349754, -0.5438793  , 0.18        , 23          , 11          , 0.0346410163, 0.0346410163
-0.0317468941, 0.037923526 , -9.809204   , 0.00193164661, 0.000825209951, -0.0005212452, 0.7606289   , 0.456833124 , 0.7453593   , -0.001237718, -0.00344525184, -0.5438845  , 0.19        , 23          , 12          , 0.0346410163, 0
-0.0244896132, 0.0143999979, -9.816971   , 0.0007758984, 0.0005658501, -0.00251207757, 0.759962261 , 0.456687778 , 0.743078947 , -0.002061131, -0.00337359612, -0.5439069  , 0.2         , 23          , 50          , 0           , 0
-0.0211700052, -0.00143977441, -9.817066   , -0.00430703443, 2.13384046E-05, -0.000255785533, 0.7598144   , 0.4568383   , 0.745221    , -0.00210419344, -0.003373389, -0.5439093  , 0.21        , 23          , 11          , 0.03094899  , 0.0309489835
-0.0443043858, -0.009609111, -9.810626   , 0.00105277321, 0.0002724225, -0.001380471, 0.7603642   , 0.45654878  , 0.7443606   , -0.00209361874, -0.00337069319, -0.54392314 , 0.22        , 23          , 12          , 0.0346698426, 0
-0.0189535767, -0.00027067028, -9.797233   , -7.09088345E-05, 0.0005683747, -0.00194569456, 0.7596918   , 0.45682916  , 0.7426528   , -0.00209426251, -0.0033650503, -0.5439427  , 0.23        , 23          , 50          , 0           , 0
-0.0233495589, 0.00653954269, -9.792273   , -0.000100016427, -0.00256141368, -0.000566540461, 0.7596918   , 0.45682916  , 0.7426528   , -0.002095244, -0.00339067634, -0.5439484  , 0.24        , 23          , 11          , 0.03094899  , 0.0309489835
-0.0379989967, 0.0129259732, -9.827024   , 0.004700954 , -0.00118486409, 0.0003083818, 0.759674549 , 0.456982672 , 0.745793164 , -0.002048245, -0.00340251857, -0.5439451  , 0.25        , 23          , 12          , 0.0346698426, 0
-0.0185091272, 0.0214943029, -9.8164     , 0.00104977121, -1.3147539E-05, -0.00110034226, 0.76023227  , 0.456406355 , 0.7437899   , -0.00203770981, -0.00340267248, -0.5439563  , 0.26        , 23          , 50          , 0           , 0
-0.0224493742, 0.00350138452, -9.811189   , -0.00431682542, -0.001391203, -0.0011248251, 0.7598203   , 0.4568338   , 0.7440793   , -0.00208084 , -0.003416608, -0.5439675  , 0.27        , 23          , 11          , 0.03094899  , 0.0309489835
-0.04574789 , 0.0102578886, -9.81137848 , -0.00376555743, -0.00281563285, -0.000858331, 0.7598203   , 0.4568338   , 0.7440793   , -0.00211846619, -0.00344478176, -0.54397583 , 0.28        , 23          , 12          , 0.0346698426, 0
-0.0164596625, 0.0358566567, -9.81311    , 0.00161148189, -2.312247E-05, -0.0002485189, 0.7602221   , 0.4562736   , 0.7459302   , -0.00210234313, -0.003445018, -0.543978453, 0.29        , 23          , 50          , 0           , 0
-0.0272905435, 0.03341387  , -9.820894   , 0.00383382174, -0.00144020119, 0.0003038642, 0.7599564   , 0.457113534 , 0.74365145  , -0.0023562205, -0.00312650646, -0.5439744  , 0.3         , 23          , 11          , 0.0256649181, 0.0256649423
-0.03264346 , 0.0362240337, -9.821377   , 0.00412400952, -0.0005875223, -0.0002524658, 0.759544551 , 0.456979156 , 0.7446522   , -0.00231497269, -0.003132387, -0.5439768  , 0.31        , 23          , 12          , 0.0347559527, 0
-0.025163956, 0.0048160553, -9.798607   , 0.00469211629, 0.000251558668, 0.00089381315, 0.760492265 , 0.456834644 , 0.7455027   , -0.00226807944, -0.003129851, -0.543967962, 0.32        , 23          , 50          , 0           , 0
-0.0433554947, 0.02090535  , -9.79371548 , 0.006661693 , 0.0002271707, 0.00231478759, 0.760492265 , 0.456834644 , 0.7455027   , -0.00220153527, -0.00312752742, -0.543944836, 0.33        , 23          , 11          , 0.0256649181, 0.0256649423
-0.0339763053, 0.0145048574, -9.80627    , -0.00377726462, -0.00111086189, 0.00200036587, 0.7598267   , 0.45696938  , 0.7426526   , -0.00223937049, -0.003138592, -0.5439248  , 0.34        , 23          , 12          , 0.0347559527, 0
-0.0288020223, 0.0291749835, -9.791244   , 0.000432363478, -0.00368595985, 0.0005547692, 0.7594062   , 0.4571224   , 0.7449389   , -0.00223506475, -0.00317543838, -0.5439191  , 0.35        , 23          , 50          , 0           , 0
-0.0256129056, 0.003964722 , -9.804468   , -0.0012344931, -0.000834779, 0.000304798974, 0.760633349 , 0.456829756 , 0.744502962 , -0.00224741944, -0.00318377931, -0.543916   , 0.36        , 23          , 11          , 0.0256649181, 0.0256649423
-0.03356632 , 0.0131063825, -9.800877   , -0.002910356, 0.001159692 , 0.0008952152, 0.759689331 , 0.456971437 , 0.742938757 , -0.00227655121, -0.00317216222, -0.5439069  , 0.37        , 23          , 12          , 0.0347559527, 0
-0.0340527929, 0.0113030989, -9.799546   , 0.00272502145, 0.00111352094, 0.00146955682, 0.759689331 , 0.456971437 , 0.742938757 , -0.00224934774, -0.00316099357, -0.5438924  , 0.38        , 23          , 50          , 0           , 0
-0.0433274433, 0.0205404088, -9.805868   , 0.000734691042, -0.0011370827, 0.000871060358, 0.759809256 , 0.45726347  , 0.7456509   , -0.00224202825, -0.00317234476, -0.543883562, 0.39        , 23          , 11          , 0.0256649181, 0.0256649423
-0.03385029 , 0.018255543 , -9.826938   , 0.0010235596, -0.001442761, -0.00140193885, 0.760224342 , 0.457254976 , 0.7442214   , -0.002190242, -0.003537836, -0.543897867, 0.4         , 23          , 12          , 0.0348984823, 0
-0.0226417836, 0.0162028   , -9.821886   , 0.00103191333, -0.000587964954, -0.00195861515, 0.7598193   , 0.456974983 , 0.7440798   , -0.00217985385, -0.0035437583, -0.5439174  , 0.41        , 23          , 50          , 0           , 0
0.00420051534, 0.0305956528, -9.825985   , 0.003847776 , -6.28726557E-05, 0.00117282383, 0.7598193   , 0.456974983 , 0.7440798   , -0.00214141747, -0.00354436226, -0.543905735, 0.42        , 23          , 11          , 0.0232462566, 0.0232462864
-0.03808601 , 0.0118566435, -9.80318451 , 0.00527495937, 0.00163996127, -0.000506219, 0.760218263 , 0.45683822  , 0.7459324   , -0.00208865 , -0.003527973, -0.543910742, 0.43        , 23          , 12          , 0.0348984823, 0
-0.0340166837, 0.01138876  , -9.811695   , 0.00299718278, -0.000901749532, 0.0003099095, 0.759821355 , 0.457113922 , 0.7435095   , -0.002058689, -0.00353698386, -0.543907642, 0.44        , 23          , 50          , 0           , 0
-0.0271411818, 0.0175900161, -9.814722   , 0.00188720587, 0.000818225031, -0.001088537, 0.759407    , 0.457121819 , 0.7447962   , -0.00203977828, -0.00352882454, -0.5439184  , 0.45        , 23          , 11          , 0.0232462566, 0.0232462864
-0.04393125 , 0.033774    , -9.826916   , 0.00189830142, 0.00223459373, -0.000786918565, 0.7603569   , 0.456975639 , 0.7452186   , -0.00202076719, -0.00350649469, -0.5439265  , 0.46        , 23          , 12          , 0.0348984823, 0
-0.0384705  , 0.0141785145, -9.81172    , 0.00160419883, 0.00137043372, 0.00147167442, 0.7603569   , 0.456975639 , 0.7452186   , -0.00200477662, -0.003492761, -0.5439117  , 0.47        , 23          , 50          , 0           , 0
-0.0390130952, -0.0138598848, -9.797555   , 0.00442984933, 0.00192422839, 0.00034745608, 0.759689867 , 0.4571115   , 0.7426539   , -0.00196049036, -0.00347351143, -0.543908358, 0.48        , 23          , 11          , 0.0232462566, 0.0232462864
-0.0352247059, -0.004856659, -9.805992   , -0.004895869, -0.00112421135, 1.29285327E-05, 0.759404957 , 0.4569829   , 0.7453665   , -0.00200944929, -0.00348475343, -0.5439081  , 0.49        , 23          , 12          , 0.0348984823, 0
-0.046228908, 0.00976198  , -9.803738   , -0.00113271 , 0.000836132036, -0.000808913261, 0.760221541 , 0.457116634 , 0.74493444  , -0.00146393024, -0.00350027974, -0.543918133, 0.5         , 23          , 50          , 0           , 0
-0.0483307764, 0.0192199834, -9.796932   , -0.00140135945, 0.00281427661, 0.0006343649, 0.7594181   , 0.457113415 , 0.7426554   , -0.00147796585, -0.00347212842, -0.543911934, 0.51        , 23          , 11          , 0.0198704544, 0.0198704656
-0.0267178956, 0.0153601449, -9.819237   , 0.002252825 , 0.00192812958, 0.00176296  , 0.7594181   , 0.457113415 , 0.7426554   , -0.00145549863, -0.00345282117, -0.5438943  , 0.52        , 23          , 12          , 0.0350963436, 0
-0.0130538493, 0.000591443852, -9.807513   , 0.00591575261, 0.000790856662, -0.00193510449, 0.759674549 , 0.456982672 , 0.745793164 , -0.00139627419, -0.00344493962, -0.5439136  , 0.53        , 23          , 50          , 0           , 0
-0.03383223 , -0.0004685726, -9.792891   , 0.00226770341, 0.002802061 , -0.00163082068, 0.7602255   , 0.456973225 , 0.74436307  , -0.00137354119, -0.0034169422, -0.543930054, 0.54        , 23          , 11          , 0.0198704544, 0.0198704656
-0.0361747779, -0.006683044, -9.800166   , 0.00194279628, -0.00147362985, 0.00171963428, 0.759684145 , 0.456975371 , 0.7439378   , -0.00135417213, -0.00343165477, -0.543912649, 0.55        , 23          , 12          , 0.0350963436, 0
-0.0384128839, 0.0156096071, -9.822957   , -0.0008541384, 0.000824447256, 0.0006099854, 0.759684145 , 0.456975371 , 0.7439378   , -0.00136273482, -0.00342340232, -0.5439067  , 0.56        , 23          , 50          , 0           , 0
-0.0218617935, 0.0150369247, -9.786787   , 0.00167362276, -0.000327319547, 0.000315062556, 0.7603554   , 0.456976771 , 0.745504    , -0.00134600908, -0.003426671, -0.5439036  , 0.57        , 23          , 11          , 0.0198704544, 0.0198704656
-0.03388217 , 0.0207687672, -9.799917   , 0.000301000779, 0.003941939 , -0.000200363866, 0.7602292   , 0.456970423 , 0.7436494   , -0.00134299207, -0.00338725466, -0.5439055  , 0.58        , 23          , 12          , 0.0350963436, 0
-0.04060884 , 0.04620026  , -9.808329   , -0.00111521839, 0.003101556 , -0.000212838931, 0.7596807   , 0.456837565 , 0.7447936   , -0.00135413709, -0.00335624162, -0.543907642, 0.59        , 23          , 50          , 0           , 0
-0.05133208 , 0.02481435  , -9.81491852 , -0.0009475874, 0.000811423059, -0.000808280252, 0.7606344   , 0.456126779 , 0.745213747 , -0.00185111479, -0.00346202264, -0.5439141  , 0.6         , 23          , 11          , 0.0177436713, 0.01774367
-0.0325478949, 0.0168208033, -9.818835   , -0.00295762718, -0.0034343435, -1.32954447E-05, 0.7606344   , 0.456126779 , 0.745213747 , -0.00188069092, -0.00349636632, -0.5439141  , 0.61        , 23          , 12          , 0.03534817  , 0
-0.0228514671, 0.0301576555, -9.8186245  , 0.003568547 , 0.00190451962, 0.000346425 , 0.759964049 , 0.4569673   , 0.742366433 , -0.00184501673, -0.00347731449, -0.543910742, 0.62        , 23          , 50          , 0           , 0
-0.0262300465, 0.0175981559, -9.818314   , 0.0035691997, 0.001906433 , 6.271448E-05, 0.7592653   , 0.4575485   , 0.7453695   , -0.00180932716, -0.00345824985, -0.543910265, 0.63        , 23          , 11          , 0.0177436713, 0.01774367
-0.0306806657, -9.73437E-05, -9.7901535  , -0.0009488924, 0.000807596 , -0.000240859037, 0.7602279   , 0.456830919 , 0.744077    , -0.00181880756, -0.00345017738, -0.543912649, 0.64        , 23          , 12          , 0.03534817  , 0
-0.04177791 , 0.005239634 , -9.813627   , -0.00295227533, -0.002865117, -0.000289842632, 0.7598252   , 0.456970483 , 0.742938042 , -0.00184832048, -0.00347883441, -0.5439153  , 0.65        , 23          , 50          , 0           , 0
-0.04038427 , 0.00747309858, -9.814495   , -0.0006593571, 0.00165836175, -0.000513478648, 0.7598252   , 0.456970483 , 0.742938042 , -0.00185489585, -0.00346226012, -0.5439205  , 0.66        , 23          , 11          , 0.0177436713, 0.01774367
-0.02527956 , -0.002361739, -9.803166   , -0.00207727333, 0.0005362354, -0.0008132459, 0.76022166  , 0.45655477  , 0.7456458   , -0.00187564036, -0.0034569134, -0.5439286  , 0.67        , 23          , 12          , 0.03534817  , 0
-0.0144232325, 0.000572884455, -9.801228   , -0.0006653611, 0.00108722167, 4.67791251E-05, 0.760230362 , 0.456688672 , 0.743791044 , -0.00188229547, -0.00344604 , -0.543928146, 0.68        , 23          , 50          , 0           , 0
-0.0324668661, -0.0004595313, -9.797826   , 0.005263206 , 0.0021793   , -0.00021533815, 0.75968343  , 0.456975937 , 0.744080544 , -0.001829656, -0.003424251, -0.543930531, 0.69        , 23          , 11          , 0.0177436713, 0.01774367
-0.0493455939, 0.0107679181, -9.810061   , 0.000162004071, 0.00222697062, 0.000912088261, 0.75968343  , 0.456975937 , 0.744080544 , -0.0008165552, -0.00334236771, -0.5439248  , 0.7         , 23          , 12          , 0.0356524177, 0
-0.0319376439, 0.0275471546, -9.807491   , 0.00437254459, -0.0006222159, -0.00195564283, 0.7603541   , 0.456837267 , 0.7459317   , -0.000772764266, -0.00334860524, -0.543944359, 0.71        , 23          , 50          , 0           , 0
-0.0236871764, 0.009835569 , -9.81115    , 0.00525002833, 0.00361671043, -0.000482327479, 0.76023066  , 0.4569693   , 0.743364036 , -0.0007202478, -0.00331244152, -0.543949366, 0.72        , 23          , 11          , 0.0166928768, 0.0166928824
-0.0327399522, 0.00687281229, -9.81397    , -0.0007317947, -0.00344363251, 0.0014068383, 0.7595421   , 0.457121432 , 0.744938135 , -0.000727612758, -0.00334686786, -0.543935061, 0.73        , 23          , 12          , 0.0356524177, 0
-0.0267218  , 0.0166453067, -9.809776   , 0.002090593 , -0.00289940555, 0.00170117244, 0.760495842 , 0.456410617 , 0.745358348 , -0.0007067641, -0.00337584969, -0.5439179  , 0.74        , 23          , 50          , 0           , 0
-0.0162512176, -0.00377169414, -9.81928349 , -0.00237124064, 0.002255593 , -0.0005095784, 0.760495842 , 0.456410617 , 0.745358348 , -0.0007304593, -0.00335329748, -0.54392314 , 0.75        , 23          , 11          , 0.0166928768, 0.0166928824
-0.0198004059, 0.00116814673, -9.80713    , -0.00156829064, -0.00258057145, 0.0005654137, 0.7598267   , 0.45696938  , 0.7426526   , -0.000746161444, -0.00337909861, -0.5439174  , 0.76        , 23          , 12          , 0.0356524177, 0
-0.03752835 , 0.0172805488, -9.806734   , 0.00438076956, 0.00106250076, 0.0006192417, 0.7598115   , 0.4572618   , 0.7452227   , -0.000702374557, -0.00336846872, -0.5439112  , 0.77        , 23          , 50          , 0           , 0
-0.0319575742, 0.00226080045, -9.801399   , 0.00438833935, 0.00136146566, -0.0016468605, 0.7604938   , 0.457254767 , 0.744648159 , -0.000658435747, -0.00335486536, -0.5439279  , 0.78        , 23          , 11          , 0.0166928768, 0.0166928824
-0.0509583279, -0.00492947 , -9.816958   , 0.000399848854, -0.00316270487, 0.0005606726, 0.7595527   , 0.456972957 , 0.7430823   , -0.0006544563, -0.00338648888, -0.5439222  , 0.79        , 23          , 12          , 0.0356524177, 0
-0.025059415, 0.007652865 , -9.817482   , -0.00267289812, -0.00174559571, 0.000574688369, 0.7595527   , 0.456972957 , 0.7430823   , -0.0006377429, -0.00347174355, -0.543916464, 0.8         , 23          , 50          , 0           , 0
-0.0335381255, 0.0144676836, -9.802216   , -0.000941037841, 0.00278977118, -0.000784481643, 0.7600833   , 0.45669803  , 0.7459326   , -0.000647126057, -0.0034438516, -0.543924332, 0.81        , 23          , 11          , 0.0115967672, 0.0115967467
-0.009566387, 0.01988131  , -9.803718   , -0.000145921265, -0.0034531944, -0.0014296606, 0.7602289   , 0.456689775 , 0.7440765   , -0.0006485361, -0.00347839226, -0.543938637, 0.82        , 23          , 12          , 0.0360073447, 0
0.0044617746, -0.00114088692, -9.80104351 , -0.000417704636, -0.00231453776, -0.00169939047, 0.7598203   , 0.4568338   , 0.7440793   , -0.000652653864, -0.00350154843, -0.543955564, 0.83        , 23          , 50          , 0           , 0
-0.0169783961, 0.00528599136, -9.823267   , -0.00350143318, -0.0003056542, -0.00167812523, 0.7598203   , 0.4568338   , 0.7440793   , -0.0006876094, -0.00350461644, -0.543972254, 0.84        , 23          , 11          , 0.0115967672, 0.0115967467
-0.0171530265, -0.00418918952, -9.821547   , -0.005192306, 0.000260967179, 0.000312935124, 0.7598131   , 0.456698835 , 0.7456486   , -0.000739543349, -0.00350200455, -0.543969154, 0.85        , 23          , 12          , 0.0360073447, 0
-0.028815845, -0.00300046429, -9.83066    , -0.002079338, 0.00193578948, 0.0009056522, 0.760228455 , 0.456971    , 0.7437922   , -0.0007603684, -0.00348263979, -0.5439601  , 0.86        , 23          , 50          , 0           , 0
-0.0313382559, 0.009556871 , -9.814833   , 0.0001386546, -0.00289373938, -0.000571019948, 0.759543538 , 0.456699073 , 0.7452219   , -0.000758962, -0.00351158157, -0.5439658  , 0.87        , 23          , 11          , 0.0115967672, 0.0115967467
-0.0360135846, 0.02886229  , -9.791322   , -0.002111059, -0.00258549117, -0.00170504826, 0.760225356 , 0.456551969 , 0.7449322   , -0.0007800125, -0.00353744929, -0.543982744, 0.88        , 23          , 12          , 0.0360073447, 0
-0.0431515053, 0.0295872018, -9.810741   , -0.00125942042, -0.00146678486, -0.0002711313, 0.760225356 , 0.456551969 , 0.7449322   , -0.0007925972, -0.00355211925, -0.5439856  , 0.89        , 23          , 50          , 0           , 0
-0.032772053, 0.00679667946, -9.803171   , -0.0004618477, -0.0009108667, -0.00281614973, 0.759692    , 0.456688583 , 0.742795    , -0.000927502755, -0.0036108857, -0.544013262, 0.9         , 23          , 11          , 0.011736786 , 0.0117367636
-0.02315624 , 0.0156275816, -9.802996   , -0.00159805827, -0.00120518962, 1.59896153E-05, 0.759676039 , 0.45698157  , 0.7455077   , -0.000943483959, -0.00362293748, -0.544013   , 0.91        , 23          , 12          , 0.03641108  , 0
-0.0170415342, 0.0286494121, -9.812275   , -0.00216747029, -0.00204809755, -0.00056286843, 0.76022476  , 0.4569738   , 0.744505763 , -0.0009651383, -0.00364342378, -0.5440185  , 0.92        , 23          , 50          , 0           , 0
-0.0309712514, 0.00589907728, -9.808558   , -0.001044701, -0.00206996081, 0.00142448919, 0.7598262   , 0.4568293   , 0.7429375   , -0.000975637638, -0.00366410916, -0.5440042  , 0.93        , 23          , 11          , 0.011736786 , 0.0117367636
-0.03698373 , 2.33203173E-05, -9.790219   , 0.002624754 , -0.0018042603, 1.40167549E-05, 0.7598262   , 0.4568293   , 0.7429375   , -0.0009493905, -0.00368215167, -0.5440042  , 0.94        , 23          , 12          , 0.03641108  , 0
-0.0432439148, 0.00110862032, -9.799277   , 0.0009162578, -0.0040569813, -0.000584133668, 0.7600856   , 0.456696361 , 0.7455044   , -0.000940206344, -0.00372272683, -0.5440099  , 0.95        , 23          , 50          , 0           , 0
-0.0430410355, 0.0393416621, -9.78816    , -0.000209773643, -0.00404468551, -0.00115293846, 0.7602289   , 0.456689775 , 0.7440765   , -0.000942261, -0.00376318535, -0.544021368, 0.96        , 23          , 11          , 0.011736786 , 0.0117367636
-0.0248632319, 0.0189050436, -9.815588   , 0.0026164006, -0.0026590568, 0.0005706928, 0.759549737 , 0.456975222 , 0.7436531   , -0.0009161188, -0.00378977018, -0.544015646, 0.97        , 23          , 12          , 0.03641108  , 0
-0.0171059631, -0.00105722807, -9.81837    , -0.00104613788, -0.00262770616, -1.22655183E-06, 0.759549737 , 0.456975222 , 0.7436531   , -0.0009265802, -0.00381604722, -0.544015646, 0.98        , 23          , 50          , 0           , 0
-0.0299485587, 0.012643938 , -9.808942   , -0.000465370336, -0.000644432264, -0.000259173481, 0.760219038 , 0.456837654 , 0.745789647 , -0.000931224145, -0.00382249383, -0.544018269, 0.99        , 23          , 11          , 0.011736786 , 0.0117367636
-0.0160993561, 0.00521799829, -9.816058   , 0.00320574548, 0.0019074711, 6.134853E-05, 0.759549    , 0.4569758   , 0.7437959   , -0.0009247414, -0.00374843413, -0.544017553, 1           , 23          , 12          , 0.0368616246, 0
-0.0366306975, 0.0159622841, -9.813935   , 0.005729721 , -8.569722E-05, -0.00166287157, 0.759540439 , 0.457263142 , 0.7450815   , -0.000867382, -0.00374930585, -0.544034243, 1.01        , 23          , 50          , 0           , 0
-0.0361683667, 0.016845338 , -9.812573   , 0.00373886945, -0.00178429636, 1.54791924E-05, 0.760224342 , 0.456271917 , 0.745502    , -0.000829994, -0.00376714859, -0.544034   , 1.02        , 23          , 11          , 0.0118633583, 0.0118633453
-0.01858681 , 0.020015616 , -9.798412   , 0.001496597 , -0.00034716347, -0.000253091275, 0.760224342 , 0.456271917 , 0.745502    , -0.000815018429, -0.00377062312, -0.5440366  , 1.03        , 23          , 12          , 0.0368616246, 0
-0.0249411184, 0.041802004 , -9.80235    , 0.005999026 , -0.000678089564, 0.00173483684, 0.760096    , 0.45710972  , 0.7429371   , -0.000755093643, -0.00377739035, -0.5440192  , 1.04        , 23          , 50          , 0           , 0
-0.0276691578, 0.0152568305, -9.802147   , 0.00317389658, -0.00178388914, 0.000582208158, 0.7595411   , 0.45684135  , 0.7455079   , -0.000723376637, -0.003795225, -0.544013262, 1.05        , 23          , 11          , 0.0118633583, 0.0118633453
-0.0382729322, -0.000668013468, -9.816339   , 0.00204107631, -0.002898565, -0.00113576534, 0.760361135 , 0.457112879 , 0.744220138 , -0.00070292264, -0.00382421887, -0.5440247  , 1.06        , 23          , 12          , 0.0368616246, 0
-0.04840225 , 0.0121468725, -9.816341   , 0.00319256121, -6.855605E-05, -0.00138227525, 0.75941956  , 0.457112283 , 0.74237     , -0.0006709443, -0.00382491387, -0.544038534, 1.07        , 23          , 50          , 0           , 0
-0.006260195, 0.00357825682, -9.802017   , 0.00121906982, -5.564926E-05, -0.001100987, 0.75941956  , 0.457112283 , 0.74237     , -0.0006587112, -0.00382547779, -0.5440495  , 1.08        , 23          , 11          , 0.0118633583, 0.0118633453
-0.0204159934, 0.017394118 , -9.80520248 , -0.00160096842, -0.0003162204, -0.00139173935, 0.7599463   , 0.456980765 , 0.7457917   , -0.0006746676, -0.00382864871, -0.5440633  , 1.09        , 23          , 12          , 0.0368616246, 0
-0.03905639 , 0.00696175  , -9.809535   , 0.000315332843, 0.00176167977, -0.0005127451, 0.7600882   , 0.457396537 , 0.74408     , -0.0007967153, -0.00361209735, -0.5440681  , 1.1         , 23          , 50          , 0           , 0
-0.0459373  , 0.02684969  , -9.798644   , 0.00370778563, 0.003150729 , 7.673653E-05, 0.7595444   , 0.457119763 , 0.74451     , -0.000759640243, -0.00358059048, -0.5440674  , 1.11        , 23          , 11          , 0.0120028444, 0.0120028295
-0.0114988443, 0.0135630537, -9.797491   , -0.0005655415, -0.00165689434, 0.00256405235, 0.7595444   , 0.457119763 , 0.74451     , -0.0007653875, -0.00359713915, -0.5440419  , 1.12        , 23          , 12          , 0.0373569056, 0
-0.0156410038, 0.00652309135, -9.810642   , -0.0027882366, 0.001221483 , -0.00109113543, 0.7600822   , 0.456979781 , 0.745790958 , -0.0007932307, -0.00358493277, -0.5440526  , 1.13        , 23          , 50          , 0           , 0
-0.0280468054, -0.00721264258, -9.810885   , 0.00254115858, -0.001661048, -0.000269246084, 0.759683    , 0.457257152 , 0.7437962   , -0.000767809455, -0.00360154547, -0.544055462, 1.14        , 23          , 11          , 0.0120028444, 0.0120028295
-0.0284525622, -0.00321529037, -9.801407   , 0.00171184284, 0.000606900663, 0.0008932109, 0.759406447 , 0.456981778 , 0.745081067 , -0.0007507232, -0.003595471, -0.5440464  , 1.15        , 23          , 12          , 0.0373569056, 0
-0.0358768068, 0.0065364847, -9.821656   , 0.004810581 , 2.586638E-05, -0.000528698554, 0.760088    , 0.456554055 , 0.7452184   , -0.00070259854, -0.003595216, -0.5440519  , 1.16        , 23          , 50          , 0           , 0
-0.0191471074, 0.0150169311, -9.791258   , 1.30050685E-05, -0.00078719703, -0.000829036464, 0.760088    , 0.456554055 , 0.7452184   , -0.000702438469, -0.00360309356, -0.54406    , 1.17        , 23          , 11          , 0.0120028444, 0.0120028295
-0.0330513641, 0.0197234489, -9.781917   , -0.000565152732, -0.00276281731, -0.00170593127, 0.7596903   , 0.456830263 , 0.7429382   , -0.000708028558, -0.00363073358, -0.5440769  , 1.18        , 23          , 12          , 0.0373569056, 0
-0.0247069988, 0.032219857 , -9.786676   , 0.00225358037, -0.002506073, -0.000847758143, 0.759403467 , 0.456984    , 0.74565196  , -0.000685461855, -0.00365580036, -0.5440855  , 1.19        , 23          , 50          , 0           , 0
-0.0342342854, 0.0266192611, -9.797622   , -0.00459410576, -0.0009999538, -0.000270354882, 0.7603613   , 0.456972271 , 0.7443623   , -0.0008872227, -0.00359817687, -0.544087648, 1.2         , 23          , 11          , 0.0119338147, 0.0119337933
-0.0271291472, 0.01761857  , -9.818771   , -0.000635375443, 0.00039251463, -0.0008150233, 0.7595527   , 0.456972957 , 0.7430823   , -0.0008935471, -0.00359425857, -0.544095755, 1.21        , 23          , 12          , 0.03789479  , 0
-0.0247866679, 0.02296992  , -9.816903   , 0.000220830145, 0.00152461592, -0.00136707944, 0.7595527   , 0.456972957 , 0.7430823   , -0.0008912898, -0.00357902469, -0.544109344, 1.22        , 23          , 50          , 0           , 0
-0.0348325334, 0.0154898968, -9.815721   , -0.00291380426, -0.00215110974, 0.000284815673, 0.7598084   , 0.4568428   , 0.7463628   , -0.000920438033, -0.003600533, -0.5441065  , 1.23        , 23          , 11          , 0.0119338147, 0.0119337933
-0.0215716027, 0.0042933356, -9.798122   , -7.392491E-05, 0.000658542034, 0.00117522385, 0.760498166 , 0.456830144 , 0.744361    , -0.000921219762, -0.0035939368, -0.5440948  , 1.24        , 23          , 12          , 0.03789479  , 0
-0.0254788324, 0.008166009 , -9.825132   , -0.00258471863, 0.00324389851, -0.0007816291, 0.7596795   , 0.457119375 , 0.744652033 , -0.000947038934, -0.003561506, -0.544102669, 1.25        , 23          , 50          , 0           , 0
-0.0229963884, 0.0242047478, -9.805175   , 0.00134399149, 0.00178066839, 0.00147499109, 0.7596795   , 0.457119375 , 0.744652033 , -0.0009336512, -0.00354368542, -0.5440881  , 1.26        , 23          , 11          , 0.0119338147, 0.0119337933
-0.0314254761, 0.00589818135, -9.807214   , -0.00152134092, -0.00387128838, 0.00139989785, 0.760356545 , 0.456695    , 0.745645642 , -0.0009489145, -0.00358238514, -0.544074059, 1.27        , 23          , 12          , 0.03789479  , 0
-0.0329052843, 0.0235217251, -9.809335   , -0.00148153014, 0.000396952615, -0.000532350852, 0.759683    , 0.457257152 , 0.7437962   , -0.0009637107, -0.003578421, -0.5440793  , 1.28        , 23          , 50          , 0           , 0
-0.0245743319, 0.0355548561, -9.812298   , -0.0009217769, 0.000381237129, 0.001170604 , 0.75980854  , 0.457264036 , 0.7457936   , -0.000972970447, -0.00357459718, -0.5440676  , 1.29        , 23          , 11          , 0.0119338147, 0.0119337933
-0.0190251041, 0.018758107 , -9.810577   , 0.0009509109, -0.000153641391, 3.14129866E-05, 0.760358155 , 0.456132054 , 0.7460716   , -0.00112040224, -0.00351276738, -0.544066668, 1.3         , 23          , 12          , 0.0384731255, 0
-0.0125488546, 0.0268147774, -9.819893   , -0.00609376561, 0.000733035849, 0.00258690142, 0.760358155 , 0.456132054 , 0.7460716   , -0.00118143053, -0.00350540737, -0.5440409  , 1.31        , 23          , 50          , 0           , 0
-0.02998355 , 0.009972097 , -9.813464   , -0.000481363328, -0.00270170346, 0.0008485794, 0.7598283   , 0.4564064   , 0.74307853  , -0.00118627411, -0.00353241432, -0.544032335, 1.32        , 23          , 11          , 0.0122739486, 0.0122739291
-0.031680584, -0.00635670871, -9.794717   , -0.002136472, 0.0015677592, 0.000616517558, 0.7592652   , 0.457127273 , 0.7459387   , -0.00120766088, -0.00351672922, -0.544026136, 1.33        , 23          , 12          , 0.0384731255, 0
-0.02668547 , 0.0193203259, -9.805703   , -0.0007336977, 0.0007081175, 0.00032379225, 0.7603542   , 0.457258523 , 0.745362461 , -0.001215009, -0.00350964442, -0.544023037, 1.34        , 23          , 50          , 0           , 0
-0.0180482864, 0.0206479449, -9.825401   , 0.00321994117, 0.00125535717, -0.00108275237, 0.7592778   , 0.457117736 , 0.743512452 , -0.00118277187, -0.003497104, -0.544033766, 1.35        , 23          , 11          , 0.0122739486, 0.0122739291
-0.03137585 , 0.0077418   , -9.813048   , 0.00492674066, 0.00322633586, -0.000771894469, 0.7592778   , 0.457117736 , 0.743512452 , -0.00113347732, -0.00346485013, -0.544041634, 1.36        , 23          , 12          , 0.0384731255, 0
-0.03163784 , 0.019846689 , -9.803051   , -0.00494698342, 0.00161189318, -0.00279146875, 0.7602151   , 0.4569811   , 0.746361136 , -0.00118285045, -0.003448763, -0.5440695  , 1.37        , 23          , 50          , 0           , 0
-0.0232744776, 0.008875001 , -9.803952   , -0.00130284927, -0.000410792767, -0.00139348931, 0.760356963 , 0.4573969   , 0.7446494   , -0.00119583076, -0.00345288683, -0.544083357, 1.38        , 23          , 11          , 0.0122739486, 0.0122739291
-0.0215957854, 0.00294155255, -9.798135   , 9.196352E-05, -0.00184731476, -0.0002748255, 0.759674668 , 0.457403928 , 0.745224    , -0.00119490165, -0.00347136334, -0.5440862  , 1.39        , 23          , 12          , 0.0384731255, 0
-0.045345895, 0.009271939 , -9.800582   , 0.00094537437, 0.000518137647, 0.0006014538, 0.759674668 , 0.457403928 , 0.745224    , -0.0007508526, -0.00285056164, -0.54408145 , 1.4         , 23          , 50          , 0           , 0
-0.05371356 , 0.0167816337, -9.819959   , 0.00320344162, 0.00106468587, 0.00117880618, 0.7604901   , 0.45627448  , 0.7466423   , -0.000718851632, -0.00283990568, -0.544069767, 1.41        , 23          , 11          , 0.0126643507, 0.0126643423
-0.0206686743, 0.002124643 , -9.812531   , 0.007454317 , 0.003315574 , -0.000773323642, 0.7602267   , 0.4571127   , 0.7439354   , -0.0006442866, -0.00280675548, -0.544077635, 1.42        , 23          , 12          , 0.0390897542, 0
-0.0324872136, -0.00395959429, -9.812706   , -0.005257718, 3.143388E-06, -0.000264453585, 0.7595377   , 0.4571248   , 0.7457945   , -0.0006968563, -0.002806726, -0.54408    , 1.43        , 23          , 50          , 0           , 0
-0.0461941  , 0.01027602  , -9.812733   , 0.00265047653, 0.002207373 , 0.0006250199, 0.760486662 , 0.4571198   , 0.7462174   , -0.0006703689, -0.002784648, -0.544074059, 1.44        , 23          , 11          , 0.0126643507, 0.0126643423
-0.03348047 , 0.0163303427, -9.810749   , -0.00297354558, 0.00339391  , -0.000786126649, 0.760486662 , 0.4571198   , 0.7462174   , -0.0007000826, -0.002750715, -0.5440819  , 1.45        , 23          , 12          , 0.0390897542, 0
-0.019350078, 0.002454211 , -9.799014   , -0.00441091042, 6.18892955E-07, -0.0008308366, 0.7599664   , 0.4564038   , 0.7426496   , -0.000744169, -0.00275071431, -0.544090033, 1.46        , 23          , 50          , 0           , 0
-0.023336187, 0.006571267 , -9.796772   , -0.0004669301, -0.000310764357, -0.001113284, 0.759401    , 0.457126319 , 0.745938    , -0.000748807564, -0.00275383028, -0.544101238, 1.47        , 23          , 11          , 0.0126643507, 0.0126643423
-0.0325436033, -0.006682204, -9.810028   , -0.00301753473, -0.00199364848, -0.00113788818, 0.760222435 , 0.456554234 , 0.745503068 , -0.0007789515, -0.00277377549, -0.5441127  , 1.48        , 23          , 12          , 0.0390897542, 0
-0.0194591079, -0.00600240566, -9.813936   , 9.647787E-05, -3.899666E-05, 2.58314558E-05, 0.759956837 , 0.4568323   , 0.743935764 , -0.0007779874, -0.002774165, -0.544112444, 1.49        , 23          , 50          , 0           , 0
-0.035560973, 0.025407536 , -9.813848   , 0.00463592447, -5.88167168E-05, 0.000598699844, 0.759956837 , 0.4568323   , 0.743935764 , -0.0006843314, -0.00274780439, -0.5441065  , 1.5         , 23          , 11          , 0.009677687 , 0.009677684
-0.03694113 , 0.0245004836, -9.809369   , 0.006909002 , 0.00191558164, -0.000224591873, 0.759806752 , 0.45698455  , 0.746506035 , -0.0006152353, -0.00272865058, -0.5441086  , 1.51        , 23          , 12          , 0.03974254  , 0
-0.010717012, 0.00247762352, -9.825474   , 0.00239299936, 0.00137640291, 0.000613839831, 0.759947836 , 0.4574009   , 0.744937062 , -0.000591322, -0.00271488237, -0.54410243 , 1.52        , 23          , 50          , 0           , 0
-0.02478403 , 0.0225447044, -9.820506   , -0.00379155716, 0.00340666226, 0.000915009063, 0.7598132   , 0.4571201   , 0.7450794   , -0.000629262242, -0.0026808104, -0.5440934  , 1.53        , 23          , 11          , 0.009677687 , 0.009677684
-0.01990801 , 0.02054283  , -9.805622   , -0.0007113545, 0.0002803744, -0.00167397689, 0.7598132   , 0.4571201   , 0.7450794   , -0.0006363311, -0.00267801713, -0.54411006 , 1.54        , 23          , 12          , 0.03974254  , 0
-0.01839325 , 0.00515957456, -9.801682   , -0.0012722807, 0.000846181065, -0.0008163745, 0.7602182   , 0.456417024 , 0.746501565 , -0.000649032, -0.002669561, -0.5441184  , 1.55        , 23          , 50          , 0           , 0
-0.0359290764, 0.005118072 , -9.812218   , -0.0004364372, -1.87938567E-05, 0.00030876082, 0.760226    , 0.457113266 , 0.744078159 , -0.0006534047, -0.002669747, -0.5441153  , 1.56        , 23          , 11          , 0.009677687 , 0.009677684
-0.0455651954, 0.0201836657, -9.813095   , -0.00184860965, -0.000293777644, 0.000587159535, 0.7598095   , 0.4571229   , 0.745793    , -0.0006719064, -0.002672681, -0.544109344, 1.57        , 23          , 12          , 0.03974254  , 0
-0.0218057986, 0.0130123654, -9.819203   , -0.00129003264, -0.00114324072, -0.000274024846, 0.760354459 , 0.457117945 , 0.7455046   , -0.000684799452, -0.00268411543, -0.544111967, 1.58        , 23          , 50          , 0           , 0
-0.0294351485, 0.0166684743, -9.805754   , -0.004673739, -0.00139957748, -0.0005654694, 0.760354459 , 0.457117945 , 0.7455046   , -0.000731521635, -0.002698115, -0.5441177  , 1.59        , 23          , 11          , 0.009677687 , 0.009677684
-0.0243937969, -0.00198231451, -9.795504   , -0.00416909764, -0.00227107853, -0.0005753679, 0.760092139 , 0.457253128 , 0.7435086   , -0.000850109151, -0.002744952, -0.5441232  , 1.6         , 23          , 12          , 0.04042939  , 0
-0.02282871 , 0.00367814116, -9.835041   , 0.000942814862, 0.002233142 , -0.00107925374, 0.7599493   , 0.4564167   , 0.7459322   , -0.0008406514, -0.00272262958, -0.5441339  , 1.61        , 23          , 50          , 0           , 0
-0.0308921561, 0.008244055 , -9.82158852 , -0.000781736162, -0.00172725832, -0.000847762742, 0.7604945   , 0.456832945 , 0.74507457  , -0.0008484458, -0.00273990957, -0.5441425  , 1.62        , 23          , 11          , 0.010153302 , 0.0101533066
-0.0314267837, 0.00632657064, -9.80406    , 0.000366878317, 0.00137109868, 0.00117899291, 0.7599574   , 0.456972361 , 0.7436509   , -0.0008448093, -0.00272618816, -0.544130564, 1.63        , 23          , 12          , 0.04042939  , 0
-0.0284375623, 0.000272089615, -9.784727   , 0.00462206127, 0.00391138345, -0.00162068661, 0.7599574   , 0.456972361 , 0.7436509   , -0.0007985447, -0.00268708821, -0.5441468  , 1.64        , 23          , 50          , 0           , 0
-0.0237354729, 0.00799512  , -9.805765   , 0.00120285049, -0.0003237965, -0.0008274324, 0.760079    , 0.457122654 , 0.746219635 , -0.000786494, -0.00269033271, -0.5441551  , 1.65        , 23          , 11          , 0.010153302 , 0.0101533066
-0.03595073 , 0.002046395 , -9.823943   , -0.001061873, -0.0014433983, -0.0005608166, 0.760083735 , 0.4573999   , 0.7449363   , -0.0007970975, -0.002704771, -0.544160843, 1.66        , 23          , 12          , 0.04042939  , 0
-0.0511546731, 0.008625556 , -9.820899   , -0.00104607851, 0.000540283043, -0.000252034573, 0.7595415   , 0.457543224 , 0.744511664 , -0.0008075515, -0.00269937026, -0.5441632  , 1.67        , 23          , 50          , 0           , 0
-0.0299361981, 0.0165565386, -9.78866    , 0.00174941914, -0.0023155394, -0.0005681013, 0.7595415   , 0.457543224 , 0.744511664 , -0.000790042046, -0.00272253 , -0.544168949, 1.68        , 23          , 11          , 0.010153302 , 0.0101533066
-0.042466104, 0.04351213  , -9.805671   , -0.000498465262, -0.00117163034, 0.0005782991, 0.7606249   , 0.4565553   , 0.7464999   , -0.00079504255, -0.00273424177, -0.5441632  , 1.69        , 23          , 12          , 0.04042939  , 0
-0.045918718, 0.0251678638, -9.815758   , 0.000693281938, -0.003247739, -0.000863035442, 0.7602255   , 0.456973225 , 0.74436307  , -0.00108990469, -0.00289901975, -0.544170856, 1.7         , 23          , 50          , 0           , 0
-0.03900408 , 0.008811714 , -9.81627    , 0.002416268 , 0.0009848361, 0.0006113179, 0.759808    , 0.457124025 , 0.746078432 , -0.0010657598, -0.002889165, -0.5441649  , 1.71        , 23          , 11          , 0.010420722 , 0.0104207331
-0.0304607358, 0.00732789934, -9.820692   , 0.00130668329, 0.00298272679, 6.758435E-05, 0.760760665 , 0.4571162   , 0.7457878   , -0.00105269474, -0.002859337, -0.5441642  , 1.72        , 23          , 12          , 0.041148264 , 0
-0.0181124844, 0.0204956662, -9.80380249 , -0.00437934 , -0.002931714, -1.455078E-05, 0.760760665 , 0.4571162   , 0.7457878   , -0.00109648763, -0.002888654, -0.5441642  , 1.73        , 23          , 50          , 0           , 0
-0.02318855 , 0.01296208  , -9.808419   , 0.00242292439, 0.00155788928, -0.000232650229, 0.760229    , 0.457111031 , 0.743507266 , -0.00107225159, -0.00287307752, -0.544166565, 1.74        , 23          , 11          , 0.010420722 , 0.0104207331
-0.0421462134, 0.0093258135, -9.816749   , 0.000443297264, 0.000445738347, -0.00138424081, 0.759807765 , 0.4572646   , 0.745936334 , -0.00106777879, -0.00286863535, -0.5441804  , 1.75        , 23          , 12          , 0.041148264 , 0
-0.0424863622, 0.014341739 , -9.823911   , 0.000160550335, 0.0007219443, 3.754707E-05, 0.7606272   , 0.456974864 , 0.745502532 , -0.00106617447, -0.00286141527, -0.544180155, 1.76        , 23          , 50          , 0           , 0
-0.0255863238, 0.0288353767, -9.815515   , -0.000695002847, -0.000408243126, 0.0003058929, 0.760230541 , 0.456548035 , 0.743933141 , -0.00107313308, -0.00286549469, -0.544177055, 1.77        , 23          , 11          , 0.010420722 , 0.0104207331
-0.030945655, 0.008117157 , -9.80359    , -0.00152784435, 0.0007423015, -0.00109937089, 0.760230541 , 0.456548035 , 0.743933141 , -0.00108838012, -0.00285808346, -0.544188   , 1.78        , 23          , 12          , 0.041148264 , 0
-0.050594084, 0.0170767233, -9.806423   , 0.006088597 , 0.00236602733, 0.00205227686, 0.760347962 , 0.456982374 , 0.746931255 , -0.00102755253, -0.002834402, -0.5441675  , 1.79        , 23          , 50          , 0           , 0
-0.0436663963, 0.0238332637, -9.824295   , 0.002110336 , 0.00228789728, -0.0002222372, 0.7603552   , 0.457117379 , 0.7453619   , -0.00106288 , -0.00299533526, -0.5441694  , 1.8         , 23          , 11          , 0.0106815966, 0.0106816059
-0.0214484334, 0.0328448862, -9.819938   , -0.0010323918, -0.0025186264, 0.000847910356, 0.7598139   , 0.457119524 , 0.744936645 , -0.00107322948, -0.00302051241, -0.5441611  , 1.81        , 23          , 12          , 0.04189718  , 0
-0.0286436677, 0.009057735 , -9.815257   , 0.0001297961, 0.0014498349, 4.830612E-05, 0.7598139   , 0.457119524 , 0.744936645 , -0.001071933, -0.00300601334, -0.5441606  , 1.82        , 23          , 50          , 0           , 0
-0.04156716 , 0.0148004787, -9.82749748 , 0.004640055 , 0.00114187144, -0.00136829133, 0.7604895   , 0.4566963   , 0.746215761 , -0.00102549151, -0.002994609, -0.5441742  , 1.83        , 23          , 11          , 0.0106815966, 0.0106816059
-0.0349427164, 0.009187916 , -9.816672   , -0.00298460829, -0.000782732444, -0.00197012676, 0.759815753 , 0.45739904  , 0.7442242   , -0.00105527847, -0.00300245662, -0.544194   , 1.84        , 23          , 12          , 0.04189718  , 0
-0.03124788 , 0.01883219  , -9.788205   , -0.004675873, -0.000494027, -0.000833779457, 0.7596728   , 0.4571244   , 0.7459365   , -0.00110201223, -0.003007406, -0.5442021  , 1.85        , 23          , 50          , 0           , 0
-0.0462745652, 0.007496315 , -9.801956   , -0.00305901025, -0.009303906, -0.000375313219, 0.760486841 , 0.4569792   , 0.746359646 , -0.00113259128, -0.00310044875, -0.5442059  , 1.86        , 23          , 11          , 0.0106815966, 0.0106816059
-0.0164231267, 0.0141560333, -9.804288   , -0.00357190077, -0.002785142, 0.001124925 , 0.760486841 , 0.4569792   , 0.746359646 , -0.00116834522, -0.00312828738, -0.54419446 , 1.87        , 23          , 12          , 0.04189718  , 0
-0.0299082119, 0.0153284753, -9.80622    , 0.000437867682, 0.004845854 , 0.0009427633, 0.759684265 , 0.457396626 , 0.7433687   , -0.00116399582, -0.00307981786, -0.544185162, 1.88        , 23          , 50          , 0           , 0
-0.04509606 , 0.0493422635, -9.7944     , 0.00185160537, 0.00484866276, -0.00104147976, 0.7596714   , 0.457125545 , 0.7462219   , -0.001145448, -0.003031343, -0.544195652, 1.89        , 23          , 11          , 0.0106815966, 0.0106816059
-0.0291030649, 0.0112019507, -9.798595   , -0.001645543, -0.00236434583, 0.000284600217, 0.7603535   , 0.4572591   , 0.745505154 , -0.001671773, -0.00326101528, -0.5441911  , 1.9         , 23          , 12          , 0.04267424  , 0
-0.0234197844, 0.025139939 , -9.808771   , 5.95590973E-05, -0.000675110146, 0.0003081663, 0.759956658 , 0.456972927 , 0.7437936   , -0.0016711877, -0.00326776085, -0.544188261, 1.91        , 23          , 50          , 0           , 0
-0.0281785876, 0.0108102607, -9.809389   , 7.19594245E-05, 0.0007450853, 4.2364E-05  , 0.759956658 , 0.456972927 , 0.7437936   , -0.00167046965, -0.00326030958, -0.5441878  , 1.92        , 23          , 11          , 0.0109678134, 0.01096782
-0.00876405649, 0.0140222115, -9.806008   , -0.00276674354, -0.00123081892, 0.001716095 , 0.7600766   , 0.45726493  , 0.7465057   , -0.00169819314, -0.00327258836, -0.5441706  , 1.93        , 23          , 12          , 0.04267424  , 0
-0.03378956 , 0.0248717144, -9.806633   , -0.0008150509, -0.003798547, 0.00168628257, 0.7602189   , 0.457399517 , 0.7450783   , -0.00170639926, -0.00331054442, -0.544153452, 1.94        , 23          , 50          , 0           , 0
-0.03896504 , 0.0119246449, -9.810392   , 6.39979553E-05, 0.000168204831, 0.0014537531, 0.759540439 , 0.457263142 , 0.7450815   , -0.0017058074, -0.00330883777, -0.5441389  , 1.95        , 23          , 11          , 0.0109678134, 0.01096782
-0.0254838578, 0.0120373592, -9.799001   , -0.00388677116, -0.0006473831, 0.0005870324, 0.759540439 , 0.457263142 , 0.7450815   , -0.00174469443, -0.00331530115, -0.544132948, 1.96        , 23          , 12          , 0.04267424  , 0
-0.03945659 , -0.0134038469, -9.797107   , -0.00332740974, -0.000941014558, 0.00143527426, 0.76034987  , 0.456700057 , 0.7469301   , -0.00177801622, -0.003324686, -0.544118643, 1.97        , 23          , 50          , 0           , 0
-0.03869347 , 0.00243132375, -9.807319   , 5.35550353E-05, -0.00124625012, 0.000868423958, 0.7602245   , 0.4571144   , 0.7443636   , -0.00177750946, -0.003337133, -0.54411006 , 1.98        , 23          , 11          , 0.0109678134, 0.01096782
-0.0395106077, 0.03392586  , -9.796719   , 0.00172367366, -0.004087863, -0.000300158281, 0.7595343   , 0.457408249 , 0.746081054 , -0.00176026276, -0.00337801687, -0.5441129  , 1.99        , 23          , 12          , 0.04267424  , 0
-0.0339172035, 0.0176653638, -9.807142   , -0.00103159237, -0.000473845575, -0.000823479437, 0.7603519   , 0.456838965 , 0.7463598   , -0.00216079666, -0.0035328907, -0.544119835, 2           , 23          , 50          , 0           , 0
-0.0153940339, 0.0174642764, -9.82855    , -0.00215527415, -0.00017789338, -0.00138870277, 0.7603519   , 0.456838965 , 0.7463598   , -0.0021823  , -0.00353469979, -0.544133663, 2.01        , 23          , 11          , 0.0109280813, 0.0109280916
-0.0181728154, 0.0186266638, -9.794369   , -0.00582812354, -0.00100707961, -0.000552814745, 0.7600952   , 0.45668906  , 0.743649    , -0.00224056188, -0.00354478275, -0.544139147, 2.02        , 23          , 12          , 0.04347762  , 0
-0.0301071778, 0.002775265 , -9.815325   , 0.00151705439, 0.00120329764, 5.225622E-05, 0.7595362   , 0.457125932 , 0.7460799   , -0.002225393, -0.00353274844, -0.54413867 , 2.03        , 23          , 50          , 0           , 0
-0.0236215629, 0.010854139 , -9.827791   , -0.00332072447, -0.00415592175, 0.000829453929, 0.7604875   , 0.457540452 , 0.7455055   , -0.00225863 , -0.00357428868, -0.5441303  , 2.04        , 23          , 11          , 0.0109280813, 0.0109280916
-0.02198036 , 0.00440030172, -9.81207752 , 0.00432873936, 0.0006090725, 0.0008996846, 0.7598167   , 0.457257867 , 0.744223654 , -0.00221537426, -0.00356817758, -0.544121265, 2.05        , 23          , 12          , 0.04347762  , 0
-0.037944857, -0.00614404632, -9.807831   , -0.00101005414, 0.00235697813, 6.346854E-05, 0.7598167   , 0.457257867 , 0.744223654 , -0.00222547678, -0.0035446065, -0.5441208  , 2.06        , 23          , 50          , 0           , 0
-0.02451098 , 0.014780798 , -9.807068   , -0.003270731, 0.00180277589, 0.000620958046, 0.7599384   , 0.457267582 , 0.7469346   , -0.00225820648, -0.00352656469, -0.5441146  , 2.07        , 23          , 11          , 0.0109280813, 0.0109280916
-0.03133706 , 0.007833798 , -9.826097   , -0.004139077, -0.00102552329, 0.000300392974, 0.760223448 , 0.4568343   , 0.7449333   , -0.0022996082, -0.00353681343, -0.5441115  , 2.08        , 23          , 12          , 0.04347762  , 0
-0.0323743448, 0.0293137375, -9.801181   , 0.000638658355, -0.00276154047, 1.07506639E-06, 0.7599505   , 0.457118    , 0.744793236 , -0.00229322142, -0.00356442854, -0.5441115  , 2.09        , 23          , 50          , 0           , 0
-0.0447721966, 0.0147339106, -9.809531   , -0.00026012765, 0.00182383554, -0.0007934575, 0.7599505   , 0.457118    , 0.744793236 , -0.00244335341, -0.00349092856, -0.5441191  , 2.1         , 23          , 11          , 0.0102412719, 0.01024128
-0.0427229181, -2.6544556E-05, -9.831231   , 0.000305629743, 0.00237925956, 0.00034923997, 0.760080934 , 0.4568403   , 0.746218562 , -0.00244030915, -0.003467128, -0.544115543, 2.11        , 23          , 12          , 0.0443055853, 0
-0.0494813  , 0.003110975 , -9.810576   , -0.0005486184, 0.001252899 , 5.01648028E-05, 0.7602263   , 0.4573939   , 0.7436511   , -0.002445797, -0.00345459813, -0.544115067, 2.12        , 23          , 50          , 0           , 0
-0.04714836 , 0.00628231745, -9.819076   , -0.00140273478, 0.0006804568, 0.0017442262, 0.759404242 , 0.456983477 , 0.7455092   , -0.00245988485, -0.00344775035, -0.544097662, 2.13        , 23          , 11          , 0.0102412719, 0.01024128
-0.0346404165, -0.0006639976, -9.826652   , 0.00562993344, -0.00134850014, 0.0003092531, 0.7602185   , 0.456697643 , 0.746074557 , -0.00240359618, -0.003461228, -0.544094563, 2.14        , 23          , 12          , 0.0443055853, 0
-0.0415587723, 0.0191351175, -9.803161   , 0.00314407237, 0.004631166 , -0.00018606754, 0.7602185   , 0.456697643 , 0.746074557 , -0.002372149, -0.00341492053, -0.54409647 , 2.15        , 23          , 50          , 0           , 0
-0.0386464447, 0.005131715 , -9.806845   , -0.001929594, 0.00466736173, 9.141443E-05, 0.759955466 , 0.457254678 , 0.743652    , -0.00239144731, -0.00336824474, -0.544095755, 2.16        , 23          , 11          , 0.0102412719, 0.01024128
-0.0135874609, -0.005206909, -9.814767   , -0.00395686552, -0.002119831, -0.0008480989, 0.7594014   , 0.457406968 , 0.7455109   , -0.00243098754, -0.00338946376, -0.5441041  , 2.17        , 23          , 12          , 0.0443055853, 0
-0.0340717137, -0.0178641118, -9.818237   , -0.00084089546, -0.000159438758, -0.0005355105, 0.7604931   , 0.4572553   , 0.744790852 , -0.00243937853, -0.003391071, -0.5441096  , 2.18        , 23          , 50          , 0           , 0
-0.0340651274, 0.00782207  , -9.817125   , 0.003119532 , 0.00151477288, -0.000792886654, 0.759684145 , 0.456975371 , 0.7439378   , -0.00240815617, -0.00337594259, -0.544117451, 2.19        , 23          , 11          , 0.0102412719, 0.01024128
-0.0199794  , 0.0143328412, -9.819623   , 0.000861974549, -0.00188145041, 0.000296116545, 0.759684145 , 0.456975371 , 0.7439378   , -0.00235430524, -0.00339738932, -0.544114351, 2.2         , 23          , 12          , 0.0451564863, 0
-0.008385092, 0.009529846 , -9.809191   , -0.0005364927, -0.0007324117, -0.000258708023, 0.760076761 , 0.457124323 , 0.746647835 , -0.00235966174, -0.00340471929, -0.544117   , 2.21        , 23          , 50          , 0           , 0
-0.03277515 , 0.0285766087, -9.823241   , -0.0033766327, -0.003266061, -1.06926309E-05, 0.7604952   , 0.456832379 , 0.7449318   , -0.00239342754, -0.00343738 , -0.5441172  , 2.22        , 23          , 11          , 0.009693872 , 0.009693882
-0.038748417, 0.00100657158, -9.79698    , -0.00560337072, 0.000430755579, 0.00116794242, 0.7598136   , 0.456838876 , 0.7453638   , -0.00244950154, -0.0034330443, -0.5441053  , 2.23        , 23          , 12          , 0.0451564863, 0
-0.0352676064, 0.02071214  , -9.788232   , -0.003356139, -0.0007150669, 0.0003052527, 0.7598136   , 0.456838876 , 0.7453638   , -0.00248307339, -0.003440187, -0.5441022  , 2.24        , 23          , 50          , 0           , 0
-0.02881724 , 0.023098249 , -9.824145   , -0.00135588949, 0.002118158 , -0.00135877146, 0.760215759 , 0.456559271 , 0.746787548 , -0.00249658572, -0.00341904024, -0.544116   , 2.25        , 23          , 11          , 0.009693872 , 0.009693882
-0.0270955656, 0.0194241144, -9.819207   , 0.00173371448, 0.00151033443, 0.00119126576, 0.760088444 , 0.45725593  , 0.744222164 , -0.002479289, -0.00340390671, -0.5441041  , 2.26        , 23          , 12          , 0.0451564863, 0
-0.01739608 , 0.01054948  , -9.801628   , 0.0065422547, 0.00318584824, -0.000199914241, 0.759540558 , 0.4567013   , 0.7457928   , -0.00241385959, -0.00337205362, -0.544106245, 2.27        , 23          , 50          , 0           , 0
-0.042655535, 0.00617392175, -9.81588    , -0.00502599729, 0.001850544 , 0.000335411343, 0.760081232 , 0.457120955 , 0.7457915   , -0.00246413052, -0.00335353985, -0.5441029  , 2.28        , 23          , 11          , 0.009693872 , 0.009693882
-0.0503641628, 0.00532726  , -9.80291748 , -0.00136398291, 0.0009873594, -0.00194051943, 0.760081232 , 0.457120955 , 0.7457915   , -0.00247770571, -0.00334371417, -0.5441222  , 2.29        , 23          , 12          , 0.0451564863, 0
-0.03551099 , 0.00460176  , -9.804117   , -0.00348811736, -0.0011201452, -0.00168538047, 0.759685457 , 0.457114875 , 0.743510246 , -0.00226694741, -0.00358271622, -0.5441401  , 2.3         , 23          , 50          , 0           , 0
-0.0185722783, 0.017892722 , -9.816879   , -0.0009469112, -0.0005718873, -0.001675103, 0.7596709   , 0.457406729 , 0.745937645 , -0.00227635656, -0.003588473, -0.5441568  , 2.31        , 23          , 11          , 0.0101735834, 0.0101735974
-0.0403047055, 0.0154283568, -9.792377   , 0.00215874752, 0.0005279683, 4.529272E-05, 0.7603516   , 0.4575414   , 0.7455063   , -0.00225477084, -0.003583192, -0.5441563  , 2.32        , 23          , 12          , 0.0460287519, 0
-0.0348887853, 0.0144935418, -9.802229   , 0.0038510575, 0.0005190922, -0.000520052155, 0.7595468   , 0.456977457 , 0.744224    , -0.00221624156, -0.00357801258, -0.544161558, 2.33        , 23          , 50          , 0           , 0
-0.01942133 , -0.00202953257, -9.802201   , -0.00152989675, -0.00228489935, 0.0005723989, 0.7595468   , 0.456977457 , 0.744224    , -0.002231561, -0.00360084884, -0.544155836, 2.34        , 23          , 11          , 0.0101735834, 0.0101735974
-0.02965055 , 0.0262950286, -9.827728   , -0.005175075, -0.000542043, -0.00139658293, 0.760079741 , 0.4571221   , 0.746076941 , -0.00228326162, -0.00360630127, -0.544169664, 2.35        , 23          , 12          , 0.0460287519, 0
-0.03863041 , 0.0317032263, -9.803477   , -0.005750751, -0.00168008835, -0.000276759733, 0.759945631 , 0.4574026   , 0.745365262 , -0.00234075915, -0.00362310768, -0.5441723  , 2.36        , 23          , 50          , 0           , 0
-0.03366269 , 0.0120148445, -9.773886   , -0.006314288, -0.00112193567, 0.00171568489, 0.759676337 , 0.4572622   , 0.7450807   , -0.002403964, -0.00363428635, -0.5441551  , 2.37        , 23          , 11          , 0.0101735834, 0.0101735974
-0.02484561 , -0.004997788, -9.813983   , 0.00211488968, -0.00430567143, 0.00168666756, 0.759676337 , 0.4572622   , 0.7450807   , -0.00238287728, -0.00367730251, -0.5441382  , 2.38        , 23          , 12          , 0.0460287519, 0
-0.0387934074, 0.01750943  , -9.83554649 , -0.0006846546, -0.00201524864, 0.00171186042, 0.7604837   , 0.457122028 , 0.7467883   , -0.00238978723, -0.00369741418, -0.544121   , 2.39        , 23          , 50          , 0           , 0
-0.0397967957, 0.01771396  , -9.798203   , -0.0009309153, 0.00139429164, 0.0009033386, 0.7598189   , 0.4572562   , 0.7437955   , -0.00238986 , -0.00368720246, -0.544111967, 2.4         , 23          , 11          , 0.0101053612, 0.0101053761
-0.0314670168, 0.00493671466, -9.798672   , 0.002984218 , -0.00232288265, 0.0008616216, 0.7596714   , 0.457125545 , 0.7462219   , -0.00236005057, -0.00371041126, -0.5441034  , 2.41        , 23          , 12          , 0.0469209179, 0
-0.0240151044, 0.017037848 , -9.808845   , 0.0015890128, -0.00116427627, -0.001111755, 0.7604861   , 0.456979752 , 0.74650234  , -0.0023441196, -0.0037220798, -0.544114351, 2.42        , 23          , 50          , 0           , 0
-0.0276920442, 0.0134766558, -9.805312   , -0.000133709284, -0.004289015, 0.00140016479, 0.7604861   , 0.456979752 , 0.74650234  , -0.00234550913, -0.003764937, -0.5441005  , 2.43        , 23          , 11          , 0.0101053612, 0.0101053761
-0.02633208 , 0.03957489  , -9.802384   , -0.003782935, -0.00311155827, -0.000859690947, 0.759548068 , 0.457116961 , 0.7437964   , -0.00238330662, -0.00379607268, -0.544108868, 2.44        , 23          , 12          , 0.0469209179, 0
-0.01626628 , 0.0188428089, -9.829898   , -0.00010199182, -0.00115157315, -0.0011138313, 0.7598046   , 0.457407475 , 0.746365    , -0.002384284, -0.00380761526, -0.5441201  , 2.45        , 23          , 50          , 0           , 0
-0.040134564, -0.00768126361, -9.839367   , -0.00181466318, -0.00313977338, 0.00112870464, 0.760627    , 0.457115471 , 0.745360434 , -0.00240247371, -0.00383898569, -0.5441086  , 2.46        , 23          , 11          , 0.0101053612, 0.0101053761
-0.028716255, 0.004570825 , -9.817997   , -0.00124459888, -0.00229495182, 0.00142385229, 0.7596844   , 0.456834763 , 0.74408     , -0.00241497485, -0.00386190019, -0.5440943  , 2.47        , 23          , 12          , 0.0469209179, 0
-0.0138002085, 0.0309594367, -9.828873   , -0.00348426146, -0.0008501647, 2.04397948E-05, 0.7596844   , 0.456834763 , 0.74408     , -0.00244981819, -0.00387040153, -0.5440941  , 2.48        , 23          , 50          , 0           , 0
-0.04008855 , -0.00109999441, -9.814112   , -0.005205158, -0.00452308124, -0.000311908283, 0.7602131   , 0.456842154 , 0.746931434 , -0.0025018584, -0.003915639, -0.5440972  , 2.49        , 23          , 11          , 0.0101053612, 0.0101053761
-0.0301727857, 0.00175669417, -9.798684   , -0.004579572, -0.00369163114, 0.00140157982, 0.7604856   , 0.45782277  , 0.745506644 , -0.00244394736, -0.003959236, -0.544083357, 2.5         , 23          , 12          , 0.0478315838, 0
-0.0136396838, 0.02077124  , -9.791153   , 0.0008037314, -0.000603983062, 0.0003127105, 0.7596775   , 0.456980437 , 0.7452223   , -0.00243592239, -0.00396526838, -0.544080257, 2.51        , 23          , 50          , 0           , 0
-0.0282378066, 0.0063550733, -9.816627   , 0.00250217714, 0.000512198952, 0.00118024461, 0.7596775   , 0.456980437 , 0.7452223   , -0.002410947, -0.0039601177, -0.5440686  , 2.52        , 23          , 11          , 0.010642848 , 0.0106428629
-0.05604671 , 0.01102092  , -9.827681   , -0.0017477856, -0.00201277784, 0.00171024038, 0.7602136   , 0.4569822   , 0.7466466   , -0.002428493, -0.003980204, -0.5440514  , 2.53        , 23          , 12          , 0.0478315838, 0
-0.03810233 , 0.0353310965, -9.807941   , 0.00306571345, -4.595355E-05, -0.000812199956, 0.7596769   , 0.457402229 , 0.744795859 , -0.002397804, -0.003980683, -0.5440595  , 2.54        , 23          , 50          , 0           , 0
-0.04357054 , 0.00788250752, -9.800124   , 0.00333123258, -0.00147974747, 0.00115621113, 0.759401    , 0.457126319 , 0.745938    , -0.00236453745, -0.00399545254, -0.544047832, 2.55        , 23          , 11          , 0.010642848 , 0.0106428629
-0.03302468 , 0.0189237762, -9.796323   , 0.000246591342, 0.000803225266, 0.00259961048, 0.7600819   , 0.456699163 , 0.746217966 , -0.00236217515, -0.00398735935, -0.544021845, 2.56        , 23          , 12          , 0.0478315838, 0
-0.0304389689, 0.0116942665, -9.800855   , -0.0002934527, 0.00281410315, -0.0004968254, 0.7600819   , 0.456699163 , 0.746217966 , -0.00236508972, -0.00395922968, -0.544026852, 2.57        , 23          , 50          , 0           , 0
-0.026861405, 0.0102735339, -9.800829   , 0.00364830974, 0.00277298153, 0.00121028186, 0.7596811   , 0.457539469 , 0.743797362 , -0.002328654, -0.00393147161, -0.5440147  , 2.58        , 23          , 11          , 0.010642848 , 0.0106428629
-0.03236203 , 0.00582976639, -9.79507351 , 0.00166607287, 0.00165317615, 0.00119353319, 0.759535253 , 0.457267076 , 0.7460805   , -0.00231203972, -0.00391491177, -0.5440028  , 2.59        , 23          , 12          , 0.0478315838, 0
-0.0228617471, 0.008345998 , -9.794053   , -0.00273777451, -0.00167427538, 0.00199579354, 0.7603501   , 0.4575425   , 0.745791733 , -0.002091731, -0.00384343765, -0.5439837  , 2.6         , 23          , 50          , 0           , 0
-0.0300064348, 0.00819192547, -9.816629   , -0.003003946, -0.000242395152, 0.000311093056, 0.75968194  , 0.456977069 , 0.744366    , -0.00212178216, -0.00384585513, -0.5439806  , 2.61        , 23          , 11          , 0.011049415 , 0.0110494234
-0.041531954, 0.0200616866, -9.806753   , 9.322731E-05, -0.000551254139, 0.0005950282, 0.75968194  , 0.456977069 , 0.744366    , -0.00212087319, -0.00385135482, -0.543974638, 2.62        , 23          , 12          , 0.0487594455, 0
-0.0199848618, 0.013025471 , -9.825935   , -0.000479318667, -0.00223364984, -0.0016968376, 0.7598043   , 0.457126826 , 0.746792    , -0.002125601, -0.00387372682, -0.543991566, 2.63        , 23          , 50          , 0           , 0
-0.0191784836, 0.00760744233, -9.826871   , 0.000113849412, 0.0011698195, -0.00222058687, 0.7604894   , 0.457258135 , 0.745504439 , -0.00212437683, -0.003862076, -0.544013739, 2.64        , 23          , 11          , 0.011049415 , 0.0110494234
-0.0313675  , 0.0116448821, -9.791415   , -0.00126438471, 0.00514585525, -0.00132104231, 0.759674132 , 0.4572639   , 0.74550885  , -0.00213696947, -0.00381064555, -0.5440271  , 2.65        , 23          , 12          , 0.0487594455, 0
-0.02792556 , 0.00343032368, -9.786496   , -0.0004477296, 0.00173371262, -0.00107927341, 0.759674132 , 0.4572639   , 0.74550885  , -0.00214140583, -0.00379333156, -0.544038057, 2.66        , 23          , 50          , 0           , 0
-0.0278937146, 0.0004855413, -9.81622    , 0.00152249925, 0.00171123852, 5.79905136E-05, 0.7603446   , 0.457265824 , 0.7472178   , -0.002126183, -0.003776218, -0.5440376  , 2.67        , 23          , 11          , 0.011049415 , 0.0110494234
-0.03323984 , 0.00460625254, -9.810843   , -0.00215883576, -0.000526662567, -0.0005425821, 0.7603598   , 0.4569734   , 0.744647741 , -0.00214775046, -0.00378149631, -0.5440428  , 2.68        , 23          , 12          , 0.0487594455, 0
-0.056831006, 0.024689354 , -9.782575   , -0.00161487679, -0.00252605928, 0.000851590943, 0.7596721   , 0.457124978 , 0.7460792   , -0.00216393173, -0.00380673842, -0.544034243, 2.69        , 23          , 50          , 0           , 0
-0.0326459259, 0.011842045 , -9.815727   , -0.00188532472, -1.84887322E-05, 0.00201823679, 0.760619342 , 0.457261652 , 0.746645451 , -0.002196366, -0.003882017, -0.5440142  , 2.7         , 23          , 11          , 0.0108081875, 0.0108081913
-0.0262097325, 0.0206666663, -9.806138   , 0.002360199 , 0.00166317332, 0.000342654268, 0.760619342 , 0.457261652 , 0.746645451 , -0.002172777, -0.003865378, -0.5440109  , 2.71        , 23          , 12          , 0.04970328  , 0
-0.0237491578, 0.031044364 , -9.814126   , 0.002914209 , 0.0008003154, 0.0014674433, 0.7600894   , 0.4571148   , 0.744221568 , -0.002143692, -0.00385734416, -0.5439961  , 2.72        , 23          , 50          , 0           , 0
-0.0283585377, 0.00175394944, -9.803165   , 0.00407261029, 0.003927375 , -0.000761458534, 0.760074556 , 0.457126021 , 0.747076    , -0.00210293639, -0.00381808588, -0.5440037  , 2.73        , 23          , 11          , 0.0108081875, 0.0108081913
-0.0380621739, 0.03585783  , -9.818737   , 0.0017915715, 0.00137609709, 0.00147322251, 0.760622859 , 0.457399458 , 0.7457897   , -0.00208507641, -0.003804295, -0.543988943, 2.74        , 23          , 12          , 0.04970328  , 0
-0.04495762 , 0.0309036709, -9.80085    , 0.006036311 , 0.002501927 , -0.0019117865, 0.7600818   , 0.457682222 , 0.7449374   , -0.00202464079, -0.00377931469, -0.544008255, 2.75        , 23          , 50          , 0           , 0
-0.04921771 , -0.00596982241, -9.802097   , 0.00151495717, 0.0013935226, -0.0007968076, 0.7600818   , 0.457682222 , 0.7449374   , -0.0020094607, -0.00376539538, -0.5440161  , 2.76        , 23          , 11          , 0.0108081875, 0.0108081913
-0.0304149  , 0.0117513658, -9.808954   , 0.00150373322, 0.000807074364, 0.002033134 , 0.760346    , 0.456843436 , 0.747501552 , -0.00199450017, -0.00375728379, -0.543995857, 2.77        , 23          , 12          , 0.04970328  , 0
-0.05141233 , 0.0246239975, -9.787919   , 0.004014916 , -0.00288420566, -0.000279996864, 0.760352731 , 0.457259625 , 0.7456479   , -0.00195434014, -0.00378613127, -0.5439987  , 2.78        , 23          , 50          , 0           , 0
-0.0448812731, 0.03237918  , -9.818388   , 0.00094802666, 0.00138818915, 0.000621053 , 0.759938955 , 0.457407624 , 0.746649742 , -0.00194488373, -0.003772237, -0.5439925  , 2.79        , 23          , 11          , 0.0108081875, 0.0108081913
-0.04881885 , 0.0143926088, -9.814077   , -0.002182272, 0.0008245653, 0.00146126118, 0.759938955 , 0.457407624 , 0.746649742 , -0.00201262161, -0.00379104144, -0.543977737, 2.8         , 23          , 12          , 0.0506619364, 0
-0.0342152119, 0.00401427038, -9.788358   , -0.005558537, 0.00169711409, 0.00203527464, 0.7604821   , 0.4567019   , 0.747643    , -0.002068284, -0.00377402827, -0.5439575  , 2.81        , 23          , 50          , 0           , 0
-0.00527252536, 0.007219707 , -9.809628   , 0.000323038 , -0.00288393628, 0.0017015246, 0.7600849   , 0.457118154 , 0.7450779   , -0.0020651184, -0.00380283268, -0.5439403  , 2.82        , 23          , 11          , 0.0111912712, 0.0111912834
-0.0461953953, 0.0107044093, -9.809579   , 0.0006262787, -0.0006091482, 0.000595681835, 0.75994277  , 0.456842959 , 0.7466475   , -0.00205887854, -0.00380891282, -0.543934345, 2.83        , 23          , 12          , 0.0506619364, 0
-0.0336066969, 0.009990286 , -9.806303   , 0.00176901708, 0.00108814857, 5.113488E-05, 0.7607545   , 0.457261264 , 0.7467874   , -0.00204119 , -0.00379803 , -0.5439341  , 2.84        , 23          , 50          , 0           , 0
-0.0353618823, 0.0127219874, -9.805399   , 0.00117545715, -0.002593237, -0.000279829052, 0.7607545   , 0.457261264 , 0.7467874   , -0.00202942477, -0.00382396765, -0.5439365  , 2.85        , 23          , 11          , 0.0111912712, 0.0111912834
-0.03218212 , 0.0144545119, -9.804001   , -0.00131131685, 0.00366051844, 0.0006469844, 0.7602253   , 0.457113832 , 0.744220853 , -0.00204256247, -0.00378734968, -0.5439303  , 2.86        , 23          , 12          , 0.0506619364, 0
-0.0305076186, 0.00635374524, -9.810349   , 0.000102160942, 0.00393932872, -0.0001988353, 0.7598004   , 0.457270235 , 0.7473635   , -0.00204153266, -0.00374796032, -0.5439322  , 2.87        , 23          , 50          , 0           , 0
-0.0280565061, 0.0423795544, -9.811828   , -0.002756123, -0.000861657551, -0.000263183581, 0.7604844   , 0.457121462 , 0.7466456   , -0.00206908421, -0.003756582, -0.5439348  , 2.88        , 23          , 11          , 0.0111912712, 0.0111912834
-0.044442948, 0.0340682529, -9.803519   , -0.00219141017, -0.0005860628, 0.0003085111, 0.7599437   , 0.4576849   , 0.7453664   , -0.00209100987, -0.003762436, -0.5439317  , 2.89        , 23          , 12          , 0.0506619364, 0
-0.02919575 , 0.00623588776, -9.797287   , -0.00113806478, 0.00107227825, -0.002221808, 0.7599437   , 0.4576849   , 0.7453664   , -0.00229253247, -0.00385771366, -0.5439534  , 2.9         , 23          , 50          , 0           , 0
-0.03562662 , 0.02395741  , -9.799909   , -0.002293332, -0.00121529342, 0.00172010157, 0.76020503  , 0.457269579 , 0.747932136 , -0.00231553242, -0.003869827, -0.543936   , 2.91        , 23          , 11          , 0.0115896137, 0.0115896193
-0.03301561 , 0.0154935019, -9.821102   , -0.00737417862, -0.00258398522, -6.298156E-06, 0.7602147   , 0.457262278 , 0.746076763 , -0.0023892743, -0.00389566645, -0.543936   , 2.92        , 23          , 12          , 0.051634334 , 0
-0.0264007058, 0.007700925 , -9.820646   , -0.000905047462, -0.00405478943, 0.000551173231, 0.7596683   , 0.4576896   , 0.7460814   , -0.002398347, -0.00393620227, -0.5439303  , 2.93        , 23          , 50          , 0           , 0
-0.0506990664, 0.009061178 , -9.81999    , -0.000593061151, -0.000647289329, -0.000256632426, 0.7596683   , 0.4576896   , 0.7460814   , -0.00240426767, -0.00394268148, -0.5439329  , 2.94        , 23          , 11          , 0.0115896137, 0.0115896193
-0.0458152071, 0.00492054224, -9.821322   , 0.00140327332, 0.00217445474, -0.00021839379, 0.7607518   , 0.457122922 , 0.7475004   , -0.00239022542, -0.003920942, -0.5439353  , 2.95        , 23          , 12          , 0.051634334 , 0
-0.0414996743, 0.022295624 , -9.804034   , 0.00419772649, -0.000961197, -0.0011054629, 0.760352135 , 0.457681447 , 0.7452214   , -0.002348205, -0.00393058 , -0.543946266, 2.96        , 23          , 50          , 0           , 0
-0.0243900977, 0.0211081654, -9.809714   , -0.003971808, -0.0006123155, -0.00167933723, 0.759665251 , 0.457270622 , 0.74722147  , -0.00238785753, -0.003936743, -0.543962955, 2.97        , 23          , 11          , 0.0115896137, 0.0115896193
-0.0453959256, 0.00268115662, -9.824487   , -0.00453795446, -6.181694E-05, 0.00144794933, 0.7604807   , 0.4571243   , 0.7473592   , -0.00243329373, -0.003937326, -0.5439484  , 2.98        , 23          , 12          , 0.051634334 , 0
-0.045893304, 0.0252281372, -9.82430649 , -0.000614467543, -0.00292419456, 0.0008495563, 0.7604807   , 0.4571243   , 0.7473592   , -0.00243947213, -0.00396654662, -0.5439398  , 2.99        , 23          , 50          , 0           , 0
-0.0335935652, 0.0339660868, -9.818255   , -0.00399132026, -0.00178077479, 0.0019945486, 0.7600862   , 0.457257628 , 0.744650364 , -0.002482884, -0.004003066, -0.54392004 , 3           , 23          , 11          , 0.0113208462, 0.0113208592
-0.0246896856, 0.0313979834, -9.797933   , -0.00256478973, -7.985486E-05, 0.0005992163, 0.7600716   , 0.457128257 , 0.747646868 , -0.00250855577, -0.00400385 , -0.5439141  , 3.01        , 23          , 12          , 0.05261948  , 0
-0.0404013358, 0.0113158943, -9.784312   , -0.00172098435, -0.0003679493, 0.000312962249, 0.760888636 , 0.45740205  , 0.74693     , -0.00252577849, -0.00400752062, -0.543910742, 3.02        , 23          , 50          , 0           , 0
-0.0463726372, 0.00208599865, -9.801552   , -0.000329565839, -0.002367957, 0.0008570417, 0.7602182   , 0.457400084 , 0.745221    , -0.00252910866, -0.00403117854, -0.543902159, 3.03        , 23          , 11          , 0.0113208462, 0.0113208592
-0.0401466675, 0.0183920674, -9.829253   , 0.00220550434, -0.002944757, -0.0005655597, 0.7602182   , 0.457400084 , 0.745221    , -0.00250703073, -0.00406064 , -0.5439079  , 3.04        , 23          , 12          , 0.05261948  , 0
-0.0252409372, 0.02253746  , -9.818261   , 0.003376178 , 0.002432419 , 7.12967158E-05, 0.760201156 , 0.457413    , 0.748503566 , -0.002473272, -0.00403631572, -0.543907166, 3.05        , 23          , 50          , 0           , 0
-0.0323635377, 0.0306338   , -9.796671   , -0.00169762049, 0.00191469654, -0.001644358, 0.76062113  , 0.457541168 , 0.745933    , -0.00249018171, -0.0040172087, -0.5439236  , 3.06        , 23          , 11          , 0.0113208462, 0.0113208592
-0.04489842 , 0.008393858 , -9.805085   , -0.000884228037, -0.00150701287, 1.59632473E-05, 0.7600739   , 0.457547784 , 0.746649563 , -0.00249902462, -0.004032278, -0.5439234  , 3.07        , 23          , 12          , 0.05261948  , 0
-0.05417163 , -0.008035988, -9.815217   , 0.000226921751, -0.00377707882, -0.00114614749, 0.7600739   , 0.457547784 , 0.746649563 , -0.00249670935, -0.004070077, -0.5439348  , 3.08        , 23          , 50          , 0           , 0
-0.0371627174, 0.0131880157, -9.802714   , 0.0036274672, -0.00125723134, 2.50813318E-05, 0.7606129   , 0.457126141 , 0.7480721   , -0.0024604355, -0.004082649, -0.5439346  , 3.09        , 23          , 11          , 0.0113208462, 0.0113208592
-0.0252486859, -0.0009940919, -9.805405   , 0.00144981488, -0.00207449542, 0.0008624203, 0.760485768 , 0.457682163 , 0.745648861 , -0.00225947658, -0.00405460363, -0.5439265  , 3.1         , 23          , 12          , 0.053616412 , 0
-0.0235661231, -0.008644264, -9.81175    , -0.000218738685, 0.0004949424, 0.000325157976, 0.759663761 , 0.457271725 , 0.7475069   , -0.002261677, -0.00404964667, -0.5439234  , 3.11        , 23          , 50          , 0           , 0
-0.0163143687, -0.007373282, -9.819764   , -0.00108212489, -0.002042046, -0.00112666714, 0.7608879   , 0.457402617 , 0.7470727   , -0.00227245269, -0.004070093, -0.5439346  , 3.12        , 23          , 11          , 0.011726602 , 0.0117266187
-0.0283803586, 0.0234894641, -9.81693649 , 0.00514341844, 0.00102968269, -0.0007959462, 0.7608879   , 0.457402617 , 0.7470727   , -0.002220986, -0.004059814, -0.5439427  , 3.13        , 23          , 12          , 0.053616412 , 0
-0.0369493365, 0.0223236457, -9.820187   , 0.007138448 , 0.0038475995, -0.00019028649, 0.760085642 , 0.4571176   , 0.744935155 , -0.00214959378, -0.00402134145, -0.5439446  , 3.14        , 23          , 50          , 0           , 0
-0.0096003  , 0.0141917178, -9.827616   , 0.0023254694, 0.00132877065, 5.5306682E-05, 0.760065556 , 0.4576946   , 0.7480773   , -0.00212634075, -0.004008054, -0.5439441  , 3.15        , 23          , 11          , 0.011726602 , 0.0117266187
-0.0113769164, 0.0164411031, -9.822217   , -0.00418556249, -0.00202832464, 0.000288078765, 0.7607502   , 0.4576859   , 0.747074544 , -0.002168208, -0.00402833 , -0.543941   , 3.16        , 23          , 12          , 0.053616412 , 0
-0.0371182933, 0.0167452   , -9.795934   , 0.000889409 , -0.00206069346, -0.000556824263, 0.759942651 , 0.457404822 , 0.745936155 , -0.00215929165, -0.00404894957, -0.5439465  , 3.17        , 23          , 50          , 0           , 0
-0.0407555476, 0.008100445 , -9.838345   , 0.00290323514, 0.00302647473, 7.74886139E-05, 0.759942651 , 0.457404822 , 0.745936155 , -0.00213026255, -0.004018683, -0.543946   , 3.18        , 23          , 11          , 0.011726602 , 0.0117266187
-0.02859812 , 0.0100287227, -9.82515049 , 3.7118356E-05, -0.00318131363, -0.00170703081, 0.7606107   , 0.4571278   , 0.7485002   , -0.0021298225, -0.004050533, -0.543962955, 3.19        , 23          , 12          , 0.053616412 , 0
-0.0282915514, 0.00320724119, -9.817553   , -0.0004979849, -7.27057341E-05, 0.00258732028, 0.760346949 , 0.457685381 , 0.7462204   , -0.002106895, -0.00402241666, -0.543936968, 3.2         , 23          , 50          , 0           , 0
-0.0300627127, 0.006764004 , -9.805841   , -0.00105708581, -5.50767254E-05, 0.000600655 , 0.7600739   , 0.457547784 , 0.746649563 , -0.00211749 , -0.0040229545, -0.543931   , 3.21        , 23          , 11          , 0.0112174079, 0.0112174172
-0.0190825071, 0.0199163761, -9.783118   , 0.004577247 , -0.000381076883, 0.0006039939, 0.7600739   , 0.457547784 , 0.746649563 , -0.00207174174, -0.00402675243, -0.543925047, 3.22        , 23          , 12          , 0.0546242557, 0
-0.02172632 , -0.00686049461, -9.813967   , 0.00288336887, -0.001483864, -0.002249514, 0.7606114   , 0.457127243 , 0.748357534 , -0.00204281742, -0.00404163776, -0.543947458, 3.23        , 23          , 50          , 0           , 0
-0.025894165, 0.009551799 , -9.828726   , -0.0004846718, 0.001073401 , 0.000899384031, 0.7602133   , 0.457684636 , 0.745793045 , -0.00204770081, -0.004030886, -0.5439384  , 3.24        , 23          , 11          , 0.0112174079, 0.0112174172
-0.03716849 , 0.03496161  , -9.821885   , 7.93887E-05 , 0.00134708267, 0.00175478915, 0.7595288   , 0.457131535 , 0.7475071   , -0.00204697764, -0.004017379, -0.543921   , 3.25        , 23          , 12          , 0.0546242557, 0
-0.0207577311, 0.01938593  , -9.83084    , -0.003305102, 0.000534914259, -0.000246081472, 0.7606136   , 0.457125574 , 0.7479294   , -0.0020800184, -0.00401203474, -0.5439234  , 3.26        , 23          , 50          , 0           , 0
-0.03504715 , 0.007645783 , -9.789686   , -0.005292038, -0.00115220388, -0.000269993528, 0.7606136   , 0.457125574 , 0.7479294   , -0.002132928, -0.00402356265, -0.543926   , 3.27        , 23          , 11          , 0.0112174079, 0.0112174172
-0.03870146 , 0.00284384936, -9.801914   , 0.0003435992, -0.001474377, -0.0008340756, 0.760353267 , 0.4573997   , 0.745363    , -0.00212945859, -0.00403832458, -0.543934345, 3.28        , 23          , 12          , 0.0546242557, 0
-0.0380280353, -0.00936166 , -9.798858   , 0.00488179224, 0.00189753831, -0.00106926961, 0.759794    , 0.45755592  , 0.748221    , -0.00208059745, -0.00401937123, -0.5439451  , 3.29        , 23          , 50          , 0           , 0
-0.03789396 , -0.0051603727, -9.819522   , -0.002262804, -0.00196747435, -0.0005664662, 0.760886    , 0.457684934 , 0.7470738   , 0.000356536155, -0.00392679824, -0.5439632  , 3.3         , 23          , 11          , 0.0115905739, 0.0115905767
-0.0324173346, 8.941069E-05, -9.811771   , 0.002861248 , 0.004232944 , -0.000197730944, 0.759945333 , 0.457121938 , 0.74579227  , 0.000385156251, -0.00388446823, -0.5439651  , 3.31        , 23          , 12          , 0.0556422025, 0
-0.03470736 , -0.0016857367, -9.80956    , 0.00195896416, -0.00284637464, -0.00113944151, 0.759945333 , 0.457121938 , 0.74579227  , 0.0004047903, -0.00391292758, -0.543976545, 3.32        , 23          , 50          , 0           , 0
-0.00304684555, 0.00711633731, -9.801055   , -0.0036824178, -0.00337134348, -0.00115352543, 0.7602021   , 0.4572718   , 0.74850297  , 0.000368011359, -0.00394663634, -0.543988   , 3.33        , 23          , 11          , 0.0115905739, 0.0115905767
-0.007880792, 0.0165530927, -9.783927   , 0.003387455 , 0.000244125025, 0.00173879124, 0.76088506  , 0.457826078 , 0.747074366 , 0.000401817379, -0.003944202, -0.5439706  , 3.34        , 23          , 12          , 0.0556422025, 0
-0.0396585651, 0.0236510038, -9.809404   , 0.000845464761, -0.000859964755, 1.90877181E-05, 0.759936035 , 0.4574099   , 0.7472206   , 0.000410271459, -0.003952802, -0.543970346, 3.35        , 23          , 50          , 0           , 0
-0.04163675 , 0.0142039489, -9.806803   , 0.005359117 , -0.0006044429, -0.000822925766, 0.759936035 , 0.4574099   , 0.7472206   , 0.000463895267, -0.00395884365, -0.5439787  , 3.36        , 23          , 11          , 0.0115905739, 0.0115905767
-0.02555796 , 0.00538947247, -9.814806   , 0.00340807717, 0.00196519867, -0.00107682333, 0.76047194  , 0.457552224 , 0.7485026   , 0.0004980184, -0.00393918576, -0.5439894  , 3.37        , 23          , 12          , 0.0556422025, 0
-0.0224896446, 0.00167996809, -9.808504   , 0.00028923733, 0.000273154583, 0.0008838536, 0.7604881   , 0.45711866  , 0.745932043 , 0.0005008759, -0.003936459, -0.5439806  , 3.38        , 23          , 50          , 0           , 0
-0.0259435866, 0.0102975313, -9.80667    , 0.006484757 , -0.0008946544, -0.00110883359, 0.7596581   , 0.457556874 , 0.7482217   , 0.0005657673, -0.00394539954, -0.543991566, 3.39        , 23          , 11          , 0.0115905739, 0.0115905767
-0.0359252319, 0.0299347918, -9.815614   , 0.00621315651, 0.0022329262, -0.000218576475, 0.7608822   , 0.45726648  , 0.7483566   , 0.0005967517, -0.00389800477, -0.5439937  , 3.4         , 23          , 12          , 0.0566694736, 0
-0.03635391 , 0.0317204148, -9.812003   , 0.00391958561, -0.002292466, 0.000288769952, 0.7608822   , 0.45726648  , 0.7483566   , 0.0006359362, -0.003920932, -0.54399085 , 3.41        , 23          , 50          , 0           , 0
-0.0249583777, 0.0165220052, -9.797157   , 0.003355265 , -0.002290145, 0.0005717884, 0.7599478   , 0.456979662 , 0.7455063   , 0.0006694663, -0.003943837, -0.5439851  , 3.42        , 23          , 11          , 0.00528352475, 0.005283487
-0.0399757251, 0.0317417756, -9.805291   , -0.0005763152, -0.0005585662, 0.0005884339, 0.7603384   , 0.457410932 , 0.7482174   , 0.000663679966, -0.00394942658, -0.543979168, 3.43        , 23          , 12          , 0.0566694736, 0
-0.05883811 , 0.005249787 , -9.832707   , 0.004795892 , 0.00111271325, -0.0008020543, 0.760890245 , 0.456839085 , 0.7473559   , 0.000711670553, -0.003938294, -0.543987036, 3.44        , 23          , 50          , 0           , 0
-0.03690487 , 0.0263123773, -9.810703   , 0.00365720061, -1.91840227E-05, 3.33665957E-05, 0.760352969 , 0.457119048 , 0.745790064 , 0.000748241146, -0.003938486, -0.5439868  , 3.45        , 23          , 11          , 0.00528352475, 0.005283487
-0.04037363 , 0.0336003639, -9.81203    , -5.33822458E-06, 1.21663907E-05, -0.000538552762, 0.760352969 , 0.457119048 , 0.745790064 , 0.0007482089, -0.00393836 , -0.5439923  , 3.46        , 23          , 12          , 0.0566694736, 0
-0.0299406033, 0.0117998542, -9.817049   , 0.001097982 , -0.0022808616, 0.001703862 , 0.760199666 , 0.45741412  , 0.748789    , 0.0007591215, -0.00396118127, -0.5439751  , 3.47        , 23          , 50          , 0           , 0
-0.044157926, 0.0254697762, -9.799537   , 0.000253784558, -0.00227068318, 0.00113540294, 0.7607545   , 0.457261264 , 0.7467874   , 0.000761614065, -0.00398389669, -0.5439637  , 3.48        , 23          , 11          , 0.00528352475, 0.005283487
-0.0376976244, 0.0347830541, -9.79534149 , 0.0008288085, -0.00113455125, 0.00029929023, 0.760073066 , 0.457127154 , 0.7473614   , 0.000769890146, -0.00399524439, -0.5439608  , 3.49        , 23          , 12          , 0.0566694736, 0
-0.033777602, 0.0240371376, -9.81609    , 0.00161968428, 0.0019820435, 0.000340142462, 0.760073066 , 0.457127154 , 0.7473614   , 0.000603243941, -0.003969218, -0.543956041, 3.5         , 23          , 50          , 0           , 0
-0.0280296616, 0.0167726837, -9.824188   , 0.00162359909, 0.00199352461, -0.00136212038, 0.7607439   , 0.457409739 , 0.748643339 , 0.0006195339, -0.00394927431, -0.54396987 , 3.51        , 23          , 11          , 0.00546627  , 0.00546622276
-0.0122933285, 0.0172833968, -9.811419   , 0.001859226 , -0.003125889, 0.000276018865, 0.760484    , 0.457402676 , 0.7463613   , 0.000638115453, -0.003980536, -0.543967   , 3.52        , 23          , 12          , 0.0577053577, 0
-0.0284960028, 0.0158801079, -9.824201   , 0.0004725065, -0.0005585685, -0.000260897446, 0.760066748 , 0.457412839 , 0.7482189   , 0.0006428507, -0.003986119, -0.543969631, 3.53        , 23          , 50          , 0           , 0
-0.0279392581, -0.000485438854, -9.80633    , -0.000957025739, -0.00254505849, 0.00141456374, 0.7608844   , 0.4572648   , 0.747928441 , 0.0006332241, -0.004011579, -0.543955564, 3.54        , 23          , 11          , 0.00546627  , 0.00546622276
-0.0137809552, 0.0105122542, -9.806089   , 0.0004457485, -0.0034047  , 0.00112183846, 0.7608844   , 0.4572648   , 0.747928441 , 0.0006376364, -0.00404563267, -0.543944359, 3.55        , 23          , 12          , 0.0577053577, 0
-0.0141479736, -0.0127949612, -9.823835   , -0.0009405787, -0.0005594637, 0.00143963529, 0.7602184   , 0.457259476 , 0.7453632   , 0.000628172245, -0.00405123737, -0.5439298  , 3.56        , 23          , 50          , 0           , 0
-0.0214535929, -0.01850845 , -9.824859   , 0.000454362424, -0.00282590627, -0.0005732612, 0.760065    , 0.457554519 , 0.7483622   , 0.00063273916, -0.00407949137, -0.543935537, 3.57        , 23          , 11          , 0.00546627  , 0.00546622276
-0.026604725, -0.00141248293, -9.806323   , 0.00160832843, 0.000841677363, 0.00117694726, 0.7608855   , 0.4575449   , 0.7473587   , 0.0006487742, -0.00407108245, -0.543923855, 3.58        , 23          , 12          , 0.0577053577, 0
-0.0282820836, 0.004524138 , -9.812592   , 0.004726124 , 0.00225389213, -0.00135473243, 0.7600781   , 0.4572638   , 0.746220231 , 0.0006960905, -0.004048534, -0.543937445, 3.59        , 23          , 50          , 0           , 0
-0.02390897 , 0.0228987522, -9.809244   , -0.00035819842, 0.00145303772, -0.00222282927, 0.7600781   , 0.4572638   , 0.746220231 , 0.000678443233, -0.004019722, -0.5439596  , 3.6         , 23          , 11          , 0.005590651 , 0.00559059
-0.0304243714, 0.0104344795, -9.813915   , 0.00160263246, 0.000295937643, -0.00109989126, 0.7601955   , 0.457698137 , 0.749218345 , 0.000694513845, -0.00401675468, -0.5439706  , 3.61        , 23          , 12          , 0.0587491877, 0
-0.0358119942, 0.0140252821, -9.797293   , 0.00300919288, 0.000277697574, 3.66805471E-05, 0.7606111   , 0.457829654 , 0.747504    , 0.0007246043, -0.00401397841, -0.543970346, 3.62        , 23          , 50          , 0           , 0
-0.0237273742, 0.008877275 , -9.803058   , 0.00527796336, 0.00196269853, 6.09386479E-05, 0.7600684   , 0.4572711   , 0.7480756   , 0.000777381356, -0.00399435265, -0.543969631, 3.63        , 23          , 11          , 0.005590651 , 0.00559059
-0.036321532, 0.008284025 , -9.812645   , 0.003883935 , 0.003955052 , 0.000651701 , 0.7600684   , 0.4572711   , 0.7480756   , 0.0008161946, -0.003954807, -0.543962955, 3.64        , 23          , 12          , 0.0587491877, 0
-0.01726063 , 0.015185494 , -9.820038   , -0.0003942228, -0.00197380153, 0.00113871694, 0.7607419   , 0.457270831 , 0.7492137   , 0.000812207058, -0.00397455366, -0.5439515  , 3.65        , 23          , 50          , 0           , 0
-0.0132741975, 0.0149524771, -9.797948   , -0.00686204946, -0.0004991703, 1.38246114E-05, 0.760615766 , 0.4576857   , 0.7467898   , 0.0007435862, -0.003979546, -0.5439515  , 3.66        , 23          , 11          , 0.005590651 , 0.00559059
-0.05451041 , -0.0025853347, -9.820127   , 0.00160458987, 0.000301678316, -0.00195102312, 0.7599267   , 0.4576978   , 0.748648942 , 0.0007597096, -0.00397651456, -0.543971062, 3.67        , 23          , 12          , 0.0587491877, 0
-0.0274005141, 0.00273624621, -9.817098   , 0.004679704 , -0.00228599971, -0.0002771886, 0.760745168 , 0.4575492   , 0.7482158   , 0.000806517957, -0.003999373, -0.5439737  , 3.68        , 23          , 50          , 0           , 0
-0.03896497 , 0.01278776  , -9.804986   , -0.001515687, -0.001948111, -0.00141606131, 0.760745168 , 0.4575492   , 0.7482158   , 0.0007914178, -0.00401884271, -0.543988   , 3.69        , 23          , 11          , 0.005590651 , 0.00559059
-0.03435672 , 0.0176993646, -9.810747   , -0.00434635067, 5.34879546E-05, -0.0005431591, 0.7604855   , 0.457401544 , 0.746075869 , 0.00068638887, -0.004016986, -0.543992758, 3.7         , 23          , 12          , 0.05980034  , 0
-0.0440868437, 0.00126227364, -9.818635   , -0.00180149043, 0.000889229646, -0.00109672057, 0.760199249 , 0.4576953   , 0.7485047   , 0.000668418 , -0.0040080864, -0.5440037  , 3.71        , 23          , 50          , 0           , 0
-0.0409019068, 0.000849694 , -9.832555   , 0.006108009 , 0.00309728575, -0.0007746684, 0.760747433 , 0.457547516 , 0.7477876   , 0.000729528663, -0.003977108, -0.544011354, 3.72        , 23          , 11          , 0.00580717344, 0.00580711
-0.0200331211, 0.0116165811, -9.817846   , 0.00185948284, 0.00113005424, 0.0011810431, 0.7602117   , 0.4572645   , 0.746647656 , 0.0007480766, -0.003965816, -0.5439997  , 3.73        , 23          , 12          , 0.05980034  , 0
-0.0365434363, 0.0200525336, -9.818851   , 0.0035269917, -0.00171921274, 0.0011473028, 0.7602117   , 0.4572645   , 0.746647656 , 0.000783300959, -0.00398301752, -0.5439882  , 3.74        , 23          , 50          , 0           , 0
-0.0301206876, 0.0279823057, -9.810168   , 0.005488735 , -0.00315040164, 0.000848106167, 0.760468    , 0.457695663 , 0.7490741   , 0.0008381546, -0.004014528, -0.5439799  , 3.75        , 23          , 11          , 0.00580717344, 0.00580711
-0.0266205259, 0.00157036632, -9.781998   , 0.00271725352, 0.00198998  , -0.00107685756, 0.7604769   , 0.457688928 , 0.7473615   , 0.000865370152, -0.003994619, -0.5439904  , 3.76        , 23          , 12          , 0.05980034  , 0
-0.0374743566, -0.00351571478, -9.798353   , 0.00724174175, 0.003937873 , -0.000478828879, 0.760338545 , 0.457832128 , 0.747648239 , 0.000937806442, -0.003955236, -0.543995142, 3.77        , 23          , 50          , 0           , 0
-0.0320342854, -0.003530312, -9.810897   , 0.00213348377, -0.000278863765, -0.0005387821, 0.760338545 , 0.457832128 , 0.747648239 , 0.000959162659, -0.00395802 , -0.5440006  , 3.78        , 23          , 11          , 0.00580717344, 0.00580711
-0.0240338631, 0.0165618751, -9.805248   , -0.000435264723, -0.00422908459, -0.000875750033, 0.7608819   , 0.456985861 , 0.7487836   , 0.000954845 , -0.00400030334, -0.544009447, 3.79        , 23          , 12          , 0.05980034  , 0
-0.04749248 , 0.0117202792, -9.822184   , 0.00632536  , -1.848326E-05, 0.00117229391, 0.7602135   , 0.457544029 , 0.7459352   , 0.0009387671, -0.003954044, -0.543997765, 3.8         , 23          , 50          , 0           , 0
-0.04309513 , 0.00534480624, -9.824891   , 0.000694421 , 0.0008710026, 0.00174353924, 0.7600635   , 0.457555652 , 0.74864763  , 0.000945642358, -0.00394534925, -0.54398036 , 3.81        , 23          , 11          , 0.005977983 , 0.00597792724
-0.0239250585, 0.02242912  , -9.806548   , 0.00268227  , 0.00228403183, 0.0003453173, 0.7608784   , 0.4578311   , 0.748358846 , 0.0009724512, -0.00392251229, -0.543977   , 3.82        , 23          , 12          , 0.06085823  , 0
-0.0418531224, 0.0281429384, -9.80129051 , -0.00301275938, -0.00448711868, 0.00110356859, 0.7608784   , 0.4578311   , 0.748358846 , 0.000942280341, -0.003967393, -0.543966055, 3.83        , 23          , 50          , 0           , 0
-0.05505741 , 0.0181180313, -9.814112   , 0.000686195854, -0.000813713938, -0.0008313451, 0.7604845   , 0.4575427   , 0.7460764   , 0.0009491752, -0.0039755227, -0.543974161, 3.84        , 23          , 11          , 0.005977983 , 0.00597792724
-0.0261977669, 0.0198321   , -9.815595   , 0.001535745 , -0.000254666375, -0.000539433153, 0.7599264   , 0.4574172   , 0.749075949 , 0.00096455426, -0.00397806428, -0.543979645, 3.85        , 23          , 12          , 0.06085823  , 0
-0.03547463 , 0.00770833436, -9.79734    , -0.00101772975, -0.00166920188, 0.00170922838, 0.7610167   , 0.4576879   , 0.7480721   , 0.000954308838, -0.003994773, -0.5439625  , 3.86        , 23          , 50          , 0           , 0
-0.04517755 , 0.023478426 , -9.770312   , 0.00349579146, -0.00196759822, -0.00112592161, 0.7600758   , 0.457265466 , 0.746648431 , 0.0009893117, -0.004014437, -0.5439737  , 3.87        , 23          , 11          , 0.005977983 , 0.00597792724
-0.05893739 , 0.0280959979, -9.812271   , 0.00381300063, 0.00283904886, 0.0009212856, 0.7600758   , 0.457265466 , 0.746648431 , 0.0010274048, -0.003986056, -0.5439646  , 3.88        , 23          , 12          , 0.06085823  , 0
-0.03849212 , 0.011538391 , -9.820742   , 0.00296880328, 0.00284922775, 0.0003528266, 0.760606945 , 0.457130641 , 0.7492139   , 0.00105707883, -0.003957568, -0.5439608  , 3.89        , 23          , 50          , 0           , 0
-0.0198178682, 0.000263780355, -9.806688   , 0.00296859187, 0.0042580897, 0.001789345 , 0.760746062 , 0.457969874 , 0.7475038   , 0.00106611976, -0.003914654, -0.5439429  , 3.9         , 23          , 11          , 0.006148963 , 0.006148903
-0.0273573548, 0.007153363 , -9.804461   , 0.0009334879, -0.003935904, -0.0008703395, 0.7600701   , 0.4571294   , 0.7479323   , 0.001075489 , -0.003954003, -0.54395175 , 3.91        , 23          , 12          , 0.06192231  , 0
-0.03125894 , 0.01449121  , -9.811642   , -0.00214384426, -0.0010779642, -0.0005546188, 0.7600701   , 0.4571294   , 0.7479323   , 0.0010540724, -0.003964777, -0.543957   , 3.92        , 23          , 50          , 0           , 0
-0.0251885559, 0.0252505541, -9.81959    , 0.0009661216, 0.000311288226, 0.000318227278, 0.760742843 , 0.4571297   , 0.7492131   , 0.001063721 , -0.003961667, -0.5439539  , 3.93        , 23          , 11          , 0.006148963 , 0.006148903
-0.04142188 , 0.025068989 , -9.813911   , -0.00158983446, -0.00194082211, 0.000570170349, 0.7606199   , 0.457401723 , 0.7463606   , 0.0010478   , -0.003981082, -0.5439482  , 3.94        , 23          , 12          , 0.06192231  , 0
-0.0399700925, 0.008241947 , -9.796934   , 0.00411890028, 0.006254351 , -0.00102130417, 0.7600643   , 0.4575551   , 0.7485049   , 0.0010890289, -0.003918527, -0.5439584  , 3.95        , 23          , 50          , 0           , 0
-0.0533263572, 0.0148976631, -9.809619   , 0.00182467664, 0.00172704586, -0.000230247388, 0.761015058 , 0.457829624 , 0.748215437 , 0.00110728457, -0.00390125369, -0.5439608  , 3.96        , 23          , 11          , 0.006148963 , 0.006148903
-0.0390333645, 0.0104681617, -9.795555   , 0.00378916156, 0.0008574292, 0.000328850874, 0.761015058 , 0.457829624 , 0.748215437 , 0.00114516355, -0.003892683, -0.5439575  , 3.97        , 23          , 12          , 0.06192231  , 0
-0.0178369358, 0.010580305 , -9.804782   , 0.0006654908, -0.00195584586, 0.0002892281, 0.760215    , 0.4575429   , 0.745649755 , 0.00115180737, -0.00391224539, -0.5439546  , 3.98        , 23          , 50          , 0           , 0
-0.03831322 , 0.0240440182, -9.804887   , 0.0054694633, -0.000293726742, 0.000884021341, 0.7601929   , 0.457981    , 0.7493622   , 0.00120646716, -0.003915193, -0.5439458  , 3.99        , 23          , 11          , 0.006148963 , 0.006148903
-0.0379114747, 0.0200371519, -9.813015   , 0.000606285059, -0.002800966, -0.00057228806, 0.760476351 , 0.457548857 , 0.747646332 , 0.001082    , -0.003942925, -0.5439503  , 4           , 23          , 12          , 0.06299208  , 0
-0.02624053 , 0.020162141 , -9.79849148 , 0.00173336128, -0.00253343233, 0.0005675197, 0.760208845 , 0.457688    , 0.7466494   , 0.001099311 , -0.00396826444, -0.5439446  , 4.01        , 23          , 50          , 0           , 0
-0.03578134 , 0.012803576 , -9.815753   , 0.00144617551, -0.00310054142, 0.0008437207, 0.760208845 , 0.457688    , 0.7466494   , 0.00111373956, -0.00399927935, -0.543936   , 4.02        , 23          , 11          , 0.006388033 , 0.00638797041
-0.03695061 , -0.003781408, -9.825802   , 0.00147097616, -0.0002601503, 0.000312116317, 0.7603306   , 0.457697719 , 0.749360263 , 0.00112843688, -0.00400188426, -0.543933153, 4.03        , 23          , 12          , 0.06299208  , 0
-0.05013057 , 0.0162367   , -9.816326   , 0.00259531057, -0.0005541891, 0.0005936293, 0.7604767   , 0.4578295   , 0.747219265 , 0.00115436618, -0.00400743261, -0.543926954, 4.04        , 23          , 50          , 0           , 0
-0.03990972 , 0.01054251  , -9.803665   , 5.86716342E-05, -0.0010890523, -0.00140262162, 0.759931564 , 0.457413256 , 0.7480769   , 0.00115500926, -0.004018307, -0.543941259, 4.05        , 23          , 11          , 0.006388033 , 0.00638797041
-0.0315437242, -0.0008543972, -9.80817    , -0.00337150251, -0.00618668273, 0.00108215061, 0.759931564 , 0.457413256 , 0.7480769   , 0.00112125068, -0.004080187, -0.5439303  , 4.06        , 23          , 12          , 0.06299208  , 0
-0.0131290974, 0.023063194 , -9.797879   , -0.000219636408, 3.04686237E-05, 0.00116475322, 0.7608766   , 0.457551628 , 0.7490713   , 0.00111900689, -0.00407989463, -0.543918848, 4.07        , 23          , 50          , 0           , 0
-0.0210404638, -0.0142902955, -9.785219   , 0.004290622 , -0.000277495128, -0.00025184438, 0.7607507   , 0.4578259   , 0.746789634 , 0.0011619234, -0.00408266671, -0.543921232, 4.08        , 23          , 11          , 0.006388033 , 0.00638797041
-0.0464140959, 0.00198765285, -9.787602   , 0.0009033931, -0.0002673971, 0.002013687 , 0.759929538 , 0.457274318 , 0.7486472   , 0.001170875 , -0.00408536429, -0.5439012  , 4.09        , 23          , 12          , 0.06299208  , 0
-0.0292241517, 0.0292502288, -9.800698   , -0.000234347914, -0.000816156855, -0.000264391128, 0.761016965 , 0.4575473   , 0.7482143   , 0.00114161323, -0.00410639541, -0.5439031  , 4.1         , 23          , 50          , 0           , 0
-0.009733033, 0.00999360252, -9.807402   , -0.0027730728, -0.0005268407, 0.00172204967, 0.761016965 , 0.4575473   , 0.7482143   , 0.00111381174, -0.00411168346, -0.543885946, 4.11        , 23          , 11          , 0.006542171 , 0.006542114
-0.03495204 , 0.009597268 , -9.81082    , -0.000224949647, 0.000318468665, -0.000250064535, 0.7606185   , 0.457824051 , 0.7460768   , 0.00111157238, -0.00410849554, -0.54388833 , 4.12        , 23          , 12          , 0.06406706  , 0
-0.034483023, 0.0104961852, -9.811708   , 0.0017499784, 0.000863307039, 0.0008943628, 0.7601974   , 0.457415819 , 0.7492172   , 0.00112903561, -0.004099873, -0.5438795  , 4.13        , 23          , 50          , 0           , 0
-0.03914143 , 0.0242325682, -9.829195   , -0.0005375885, -0.003090945, 0.0008414516, 0.760744035 , 0.457830966 , 0.7480741   , 0.0011236252, -0.00413079141, -0.543871164, 4.14        , 23          , 11          , 0.006542171 , 0.006542114
-0.042437993, 0.0170453079, -9.823889   , 5.362215E-05, 0.000306783826, 0.00116883381, 0.7603502   , 0.4569807   , 0.746503055 , 0.0011241131, -0.0041277376, -0.543859243, 4.15        , 23          , 12          , 0.06406706  , 0
-0.03570998 , 0.0185819976, -9.804454   , 6.093117E-05, 0.00088175066, 4.11552755E-05, 0.7603502   , 0.4569807   , 0.746503055 , 0.00112472067, -0.00411892 , -0.543859   , 4.16        , 23          , 50          , 0           , 0
-0.0196956135, 0.0070258826, -9.807081   , -0.0013636417, -0.0008134287, 0.000585356262, 0.7604672   , 0.457274973 , 0.749786    , 0.00111106  , -0.00412706 , -0.543853045, 4.17        , 23          , 11          , 0.006542171 , 0.006542114
-0.03594531 , 0.00292220712, -9.820335   , -0.00275910716, 0.0006211797, -0.000249597128, 0.760476351 , 0.457548857 , 0.747646332 , 0.00108347926, -0.004120846, -0.543855667, 4.18        , 23          , 12          , 0.06406706  , 0
-0.03602869 , 0.0240802318, -9.816113   , 0.006827039 , 0.0013905972, 0.00119146518, 0.7599294   , 0.457836151 , 0.7479359   , 0.0011517005, -0.004106954, -0.543843746, 4.19        , 23          , 50          , 0           , 0
-0.032070823, 0.0181703158, -9.819719   , 0.004524077 , -0.00254784618, -0.0008473121, 0.7599294   , 0.457836151 , 0.7479359   , 0.001146626 , -0.00412632432, -0.543851852, 4.2         , 23          , 11          , 0.006749683 , 0.006749618
-0.0341526978, 0.0268127713, -9.82507    , 0.00398207549, -0.0005427086, -0.00309261633, 0.760472    , 0.456990421 , 0.749214053 , 0.00118657434, -0.00413171528, -0.5438826  , 4.21        , 23          , 12          , 0.06514681  , 0
-0.0405334756, 0.0250231978, -9.809853   , 0.000874722842, -0.0005404684, 2.439256E-05, 0.7604823   , 0.4575444   , 0.746504545 , 0.00119532039, -0.00413711974, -0.54388237 , 4.22        , 23          , 50          , 0           , 0
-0.0214679316, 0.0127372583, -9.781402   , 0.002281936 , -0.0005567948, 0.0008772541, 0.7600645   , 0.4574145   , 0.748647034 , 0.00121810345, -0.004142699, -0.543873549, 4.23        , 23          , 11          , 0.006749683 , 0.006749618
-0.0253682174, 0.0196467116, -9.791736   , 0.00143460464, -0.00138610415, -0.00140421255, 0.7610111   , 0.457973033 , 0.7487868   , 0.001232508 , -0.00415654341, -0.5438876  , 4.24        , 23          , 12          , 0.06514681  , 0
-0.0522498973, 0.0247903429, -9.809077   , 0.00371199241, 0.00226152921, 0.00204964262, 0.7610111   , 0.457973033 , 0.7487868   , 0.00126954273, -0.00413395232, -0.5438671  , 4.25        , 23          , 50          , 0           , 0
-0.0495203324, -1.95112079E-06, -9.816452   , -0.00274891779, 0.004033212 , -0.00105764112, 0.760075    , 0.457827866 , 0.7460798   , 0.00124209677, -0.00409360742, -0.5438776  , 4.26        , 23          , 11          , 0.006749683 , 0.006749618
-0.0449469  , 0.00439559668, -9.813217   , 0.00372634968, 0.00368746533, 0.000932708965, 0.75992465  , 0.4575589   , 0.749219239 , 0.001279322 , -0.00405674474, -0.5438683  , 4.27        , 23          , 12          , 0.06514681  , 0
-0.0231496617, 0.014348764 , -9.813357   , 0.004550706 , 0.001128206 , 0.000901512161, 0.761020541 , 0.45712328  , 0.7480698   , 0.00132479251, -0.00404547434, -0.543859243, 4.28        , 23          , 50          , 0           , 0
-0.0245770961, 0.00772038149, -9.828277   , 0.005117245 , 0.0008556238, -0.001371061, 0.7603444   , 0.457406431 , 0.7470756   , 0.00137602037, -0.004036899, -0.5438731  , 4.29        , 23          , 11          , 0.006749683 , 0.006749618
-0.0250501819, 0.0329138339, -9.819974   , 0.00172894588, 0.00116607046, -0.000804240466, 0.7603444   , 0.457406431 , 0.7470756   , 0.00137438788, -0.004011757, -0.5438812  , 4.3         , 23          , 12          , 0.06623092  , 0
-0.0351658836, 0.0218163654, -9.817022   , 0.002839575 , -0.0005519909, 0.000310495874, 0.760329545 , 0.457417667 , 0.74993     , 0.001402771 , -0.004017281, -0.5438781  , 4.31        , 23          , 50          , 0           , 0
-0.0325668  , 0.0146185765, -9.826054   , 0.00229039625, 0.0014320981, 0.0011860067, 0.7604739   , 0.457691163 , 0.7479324   , 0.0014256275, -0.0040029767, -0.543866158, 4.32        , 23          , 11          , 0.006977553 , 0.006977501
-0.0282150283, 0.006840561 , -9.821572   , -0.0008172197, 0.0003265019, 0.000316742458, 0.760068655 , 0.457130522 , 0.748217762 , 0.00141744257, -0.0039997166, -0.543863058, 4.33        , 23          , 12          , 0.06623092  , 0
-0.0182805061, 0.0101732239, -9.80974    , 0.0008912765, 0.002579223 , 0.000914892647, 0.760068655 , 0.457130522 , 0.748217762 , 0.00142631878, -0.003973937, -0.543854   , 4.34        , 23          , 50          , 0           , 0
-0.0385215469, 0.0114686014, -9.81084251 , 0.0020101273, 0.0011620397, -0.0005201839, 0.7608758   , 0.4575522   , 0.749214053 , 0.0014464407, -0.00396231 , -0.543859   , 4.35        , 23          , 11          , 0.006977553 , 0.006977501
-0.0306983069, -0.003159506, -9.803229   , 0.001718895 , 2.95313639E-05, -0.000534856459, 0.760478139 , 0.457828373 , 0.7469339   , 0.00146365061, -0.003962006, -0.5438645  , 4.36        , 23          , 12          , 0.06623092  , 0
-0.00705190934, -0.01836538 , -9.820207   , 0.00171393575, -0.000261779234, 0.0005964039, 0.7600657   , 0.457132757 , 0.7487886   , 0.00148076646, -0.00396463228, -0.5438583  , 4.37        , 23          , 50          , 0           , 0
-0.0361926965, 0.0137673058, -9.823399   , 0.00254560076, -0.00224607158, -0.00056247157, 0.76128304  , 0.457830518 , 0.748927534 , 0.00150624488, -0.00398708461, -0.543864   , 4.38        , 23          , 11          , 0.006977553 , 0.006977501
-0.03544947 , 0.00474769063, -9.824816   , 0.00623763865, 0.001130282 , -0.000514993444, 0.76128304  , 0.457830518 , 0.748927534 , 0.00156864151, -0.003975774, -0.543869257, 4.39        , 23          , 12          , 0.06623092  , 0
-0.03313628 , 0.0117554944, -9.802233   , 0.003960263 , -0.000831164, -0.0013939254, 0.7603508   , 0.457541943 , 0.74564904  , 0.001586522 , -0.003980162, -0.5438831  , 4.4         , 23          , 50          , 0           , 0
-0.0189055614, 0.0250823051, -9.812774   , -0.00198161718, -0.00306934933, 0.0005561281, 0.7600596   , 0.4576991   , 0.74921906  , 0.00156668376, -0.004010864, -0.543877363, 4.41        , 23          , 11          , 0.007225281 , 0.00722522428
-0.0168223  , 0.0168745741, -9.80517    , -0.00195995066, -0.00106844609, -0.0016884841, 0.761018336 , 0.457124949 , 0.748497963 , 0.00154715218, -0.00402152259, -0.5438943  , 4.42        , 23          , 12          , 0.06731899  , 0
-0.009882315, 0.0266805813, -9.808166   , 0.006482412 , -0.002276155, -0.00027387758, 0.7603451   , 0.457405865 , 0.7469329   , 0.00161198713, -0.004044279, -0.543897152, 4.43        , 23          , 50          , 0           , 0
-0.03799224 , 0.0138049573, -9.823867   , 0.001157456 , 0.0014496916, 4.981979E-05, 0.7603451   , 0.457405865 , 0.7469329   , 0.00162355974, -0.00402978342, -0.543896437, 4.44        , 23          , 11          , 0.007225281 , 0.00722522428
-0.03056028 , 0.0271531753, -9.81918    , -0.000273252925, -0.00137054618, -0.000838858366, 0.7607395   , 0.4574131   , 0.7494997   , 0.00162086135, -0.00404347526, -0.543905   , 4.45        , 23          , 12          , 0.06731899  , 0
-0.0409180149, 0.0269135   , -9.821091   , 1.36725139E-05, -0.000527434866, 2.33641476E-05, 0.7608826   , 0.457968384 , 0.747360349 , 0.00162099686, -0.00404875027, -0.543904543, 4.46        , 23          , 50          , 0           , 0
-0.04549385 , -0.00100291334, -9.813268   , 0.002548222 , -0.000552230165, 0.0008776098, 0.7599299   , 0.457554966 , 0.7482202   , 0.0016464435, -0.004054286, -0.54389596 , 4.47        , 23          , 11          , 0.007225281 , 0.00722522428
-0.0330021568, 0.0163883436, -9.820194   , 0.0005659851, -0.00167203532, 0.000860861037, 0.7599299   , 0.457554966 , 0.7482202   , 0.00165206869, -0.00407102052, -0.5438874  , 4.48        , 23          , 12          , 0.06731899  , 0
-0.017702641, 0.0173709486, -9.809225   , -0.00169443164, -0.00250224024, 0.000279926957, 0.7606038   , 0.457273453 , 0.749642551 , 0.0016351128, -0.004096048, -0.5438845  , 4.49        , 23          , 50          , 0           , 0
-0.0202398524, 0.00206526741, -9.805326   , -0.00173720345, -0.00360736088, -0.0005857223, 0.760480046 , 0.457546055 , 0.746932745 , 0.00152160716, -0.00406742468, -0.543891668, 4.5         , 23          , 11          , 0.00746757165, 0.007467516
-0.05009413 , 0.0202064   , -9.804142   , 0.00278884941, -0.00193164323, -0.00169353769, 0.760332644 , 0.457836628 , 0.748789966 , 0.00154956477, -0.00408671563, -0.5439086  , 4.51        , 23          , 12          , 0.06841065  , 0
-0.0542348363, 0.0144643076, -9.809634   , 0.000542009657, -0.000507905148, 2.38650809E-05, 0.7607413   , 0.457692623 , 0.748787165 , 0.00155498378, -0.0040917946, -0.543908358, 4.52        , 23          , 50          , 0           , 0
-0.03937889 , 0.0150398454, -9.803622   , 0.00225155056, 0.00202464545, 0.00119301793, 0.7607413   , 0.457692623 , 0.748787165 , 0.00157745043, -0.00407156674, -0.543896437, 4.53        , 23          , 11          , 0.00746757165, 0.007467516
-0.0485917367, 0.0009105541, -9.820485   , 0.0008473395, 0.00232654181, 6.00275853E-05, 0.7602094   , 0.457828045 , 0.7463645   , 0.00158592139, -0.004048303, -0.5438957  , 4.54        , 23          , 12          , 0.06841065  , 0
-0.031339705, 0.008259013 , -9.822494   , 0.0008122278, -0.001374386, 0.00199943944, 0.7600635   , 0.457555652 , 0.74864763  , 0.00159396254, -0.0040620775, -0.5438757  , 4.55        , 23          , 50          , 0           , 0
-0.0165748782, 0.00646102335, -9.799402   , 0.00251863454, 0.0003186763, 0.00145558466, 0.761018634 , 0.4574056   , 0.748070955 , 0.00161908974, -0.00405891472, -0.543861151, 4.56        , 23          , 11          , 0.00746757165, 0.007467516
-0.009590657, -0.009298595, -9.820608   , 0.0005387473, -0.0005174728, 0.0014424175, 0.7603444   , 0.457406431 , 0.7470756   , 0.00162441877, -0.00406411244, -0.543846846, 4.57        , 23          , 12          , 0.06841065  , 0
-0.0182415713, 0.0119914673, -9.81197548 , -0.00226118951, 0.0014950349, 0.000612897333, 0.7603444   , 0.457406431 , 0.7470756   , 0.00160178181, -0.004049172, -0.543840647, 4.58        , 23          , 50          , 0           , 0
-0.0261893831, 0.02416673  , -9.791257   , 0.000859347638, 0.00346882129, -0.00106048759, 0.7605983   , 0.457979828 , 0.749788046 , 0.00161041773, -0.00401446642, -0.543851137, 4.59        , 23          , 11          , 0.00746757165, 0.007467516
-0.0340704359, 0.008240942 , -9.812621   , 0.000814215629, 0.0049015237, -0.000475103123, 0.760341763 , 0.457689315 , 0.747219443 , 0.00146325771, -0.003914428, -0.5438559  , 4.6         , 23          , 12          , 0.06950557  , 0
-0.0359747671, 0.00242085382, -9.813139   , 0.003324225 , 0.00176033564, -0.000227676384, 0.760067046 , 0.457693458 , 0.7477918   , 0.0014965086, -0.00389682129, -0.5438583  , 4.61        , 23          , 50          , 0           , 0
-0.0463742465, 0.0255953521, -9.811258   , 0.000744381 , -0.0036062547, -0.000866263057, 0.760067046 , 0.457693458 , 0.7477918   , 0.00150398677, -0.003932872, -0.5438671  , 4.62        , 23          , 11          , 0.007641476 , 0.0076414193
-0.0360381268, 0.0231949016, -9.81837    , -8.702406E-05, -0.00189796474, -0.000845811155, 0.76060313  , 0.457695276 , 0.7492161   , 0.00150314986, -0.00395183824, -0.543875456, 4.63        , 23          , 12          , 0.06950557  , 0
-0.03613721 , 0.0216654614, -9.793182   , -0.00376222376, -0.00301080756, -1.35046139E-05, 0.7604789   , 0.4578278   , 0.7467911   , 0.00146552827, -0.00398194557, -0.5438757  , 4.64        , 23          , 50          , 0           , 0
-0.0530948974, 0.005309172 , -9.793045   , 0.00217717886, -0.000226358417, 0.00116442028, 0.7596537   , 0.457560241 , 0.749078    , 0.00148725382, -0.00398422638, -0.543864   , 4.65        , 23          , 11          , 0.007641476 , 0.0076414193
-0.0429040231, -0.00692822 , -9.81104    , -0.00375896133, -0.00300123985, -0.00143205689, 0.761015654 , 0.457407832 , 0.748641849 , 0.00144972152, -0.00401421776, -0.543878555, 4.66        , 23          , 12          , 0.06950557  , 0
-0.003208318, -0.004916478, -9.820055   , 0.002185925 , 0.000906353758, 0.00146245747, 0.761015654 , 0.457407832 , 0.748641849 , 0.00147152226, -0.00400517555, -0.543864   , 4.67        , 23          , 50          , 0           , 0
-0.0215061978, 0.02968755  , -9.819513   , 0.000208515325, -0.000476059329, -0.00167868845, 0.7604845   , 0.4575427   , 0.7460764   , 0.00147367455, -0.00400991132, -0.5438807  , 4.68        , 23          , 11          , 0.007641476 , 0.0076414193
-0.0272688251, 0.0103836711, -9.815233   , -0.004281642, 0.00210498273, -0.0008008586, 0.760469139 , 0.4574139   , 0.7492157   , 0.00143089017, -0.003988851, -0.5438888  , 4.69        , 23          , 12          , 0.06950557  , 0
-0.0549484342, 0.0261430833, -9.801894   , -0.0006855692, -0.00415293 , -0.00115890731, 0.7606112   , 0.457267851 , 0.7482154   , 0.00137606089, -0.00400700467, -0.5439007  , 4.7         , 23          , 50          , 0           , 0
-0.0294418726, 0.0162210446, -9.806208   , 0.00130554568, -0.00134649454, 0.001149015 , 0.7602131   , 0.456842154 , 0.746931434 , 0.00138907018, -0.00402048556, -0.543889046, 4.71        , 23          , 11          , 0.007771928 , 0.007771883
-0.0120782945, 0.00334122428, -9.816482   , -0.0009219769, 0.00179449061, 0.000618224032, 0.7602131   , 0.456842154 , 0.746931434 , 0.00137982576, -0.00400254969, -0.543882847, 4.72        , 23          , 12          , 0.07060344  , 0
-0.0176326726, -0.00425036438, -9.811652   , -0.00177557266, 0.0006700434, 3.54383519E-05, 0.7604645   , 0.457557857 , 0.749929845 , 0.00136206858, -0.00399584975, -0.5438826  , 4.73        , 23          , 50          , 0           , 0
-0.0152348895, 0.006841343 , -9.793085   , -0.00317873945, 0.001251769 , -0.0005265495, 0.7607468   , 0.457969338 , 0.7473611   , 0.0013303021, -0.00398332532, -0.543887854, 4.74        , 23          , 11          , 0.007771928 , 0.007771883
-0.00314363861, 0.0278110877, -9.795036   , -0.00319466251, 9.800831E-05, 0.00229622866, 0.760336041 , 0.457553178 , 0.7485034   , 0.00129826413, -0.00398237538, -0.5438647  , 4.75        , 23          , 12          , 0.07060344  , 0
-0.0196284112, 0.0110685416, -9.805246   , 0.0004841915, 0.00149833481, 0.00090008293, 0.760336041 , 0.457553178 , 0.7485034   , 0.00130307046, -0.00396740343, -0.5438559  , 4.76        , 23          , 50          , 0           , 0
-0.0202644225, 0.0229313225, -9.82360649 , 0.00101052679, -0.00332040433, -0.0002949549, 0.760878265 , 0.457409918 , 0.74892807  , 0.00131318765, -0.004000605, -0.543858767, 4.77        , 23          , 11          , 0.007771928 , 0.007771883
-0.0460302755, 0.01843115  , -9.818964   , -9.997046E-05, -0.0010484251, 0.000583445653, 0.7604784   , 0.4576878   , 0.747076035 , 0.00131216459, -0.00401109643, -0.543853045, 4.78        , 23          , 12          , 0.07060344  , 0
-0.0513707548, 0.0260170288, -9.79375648 , 0.00329874642, 0.000635761069, -0.0005257542, 0.7599265   , 0.4578384   , 0.7485067   , 0.00134517322, -0.00400473271, -0.5438583  , 4.79        , 23          , 50          , 0           , 0
-0.061465133, 0.0141072031, -9.80341148 , 0.00320591824, -0.0008042458, -0.00110983674, 0.7611506   , 0.457548022 , 0.74864167  , 0.00113443553, -0.00408804463, -0.5438633  , 4.8         , 23          , 11          , 0.007974032 , 0.007974
-0.0398278162, 0.014620075 , -9.806781   , 0.000965995 , 0.0009165436, -0.0013748256, 0.7611506   , 0.457548022 , 0.74864167  , 0.00114415155, -0.00407886365, -0.5438771  , 4.81        , 23          , 12          , 0.07170394  , 0
-0.0281556025, 0.0138851078, -9.798113   , 0.002686239 , 0.004587546 , -0.000758767361, 0.7604833   , 0.457824439 , 0.745934844 , 0.00117104442, -0.00403297972, -0.5438845  , 4.82        , 23          , 50          , 0           , 0
-0.0160507  , 0.0113740508, -9.794406   , 0.00493151369, 0.003435983 , -0.000770325656, 0.760331869 , 0.4578372   , 0.7489327   , 0.00122039032, -0.00399861066, -0.543892145, 4.83        , 23          , 11          , 0.007974032 , 0.007974
-0.0295050237, 0.0126194591, -9.806688   , 0.00571031542, -0.004238658, 0.000552560552, 0.7612875   , 0.457827151 , 0.7480712   , 0.00127747143, -0.004041004, -0.5438869  , 4.84        , 23          , 12          , 0.07170394  , 0
-0.0377591625, 0.007672114 , -9.786114   , -0.0007496785, -0.0013572264, 0.00114783924, 0.760346055 , 0.4572647   , 0.7469324   , 0.0012699283, -0.004054591, -0.543875456, 4.85        , 23          , 50          , 0           , 0
-0.028139621, 0.0130600622, -9.808921   , -0.00106231717, -0.00476664025, 0.00223935535, 0.760346055 , 0.4572647   , 0.7469324   , 0.00125921413, -0.004102285, -0.543853045, 4.86        , 23          , 11          , 0.007974032 , 0.007974
-0.0233539566, 0.0287478678, -9.80919    , -0.00500577642, -0.00500726141, 0.000244956 , 0.7604672   , 0.457274973 , 0.749786    , 0.00120914646, -0.0041523613, -0.54385066 , 4.87        , 23          , 12          , 0.07170394  , 0
-0.03073854 , -0.00454936 , -9.797841   , 0.0009444567, -0.00191427988, -0.00226177368, 0.7607453   , 0.45797044  , 0.7476466   , 0.00121868518, -0.00417147623, -0.5438733  , 4.88        , 23          , 50          , 0           , 0
-0.0400469825, 0.0002930332, -9.81995    , 0.00178017188, -0.00194933417, 0.00199492159, 0.7597957   , 0.4574142   , 0.748077631 , 0.00123640348, -0.0041909935, -0.5438533  , 4.89        , 23          , 11          , 0.007974032 , 0.007974
-0.03386215 , 0.020384796 , -9.80937    , 0.000667893561, 6.06259018E-05, -0.000251031073, 0.7597957   , 0.4574142   , 0.748077631 , 0.001223096 , -0.004188601, -0.543855667, 4.9         , 23          , 12          , 0.07280679  , 0
-0.03587293 , 0.031784758 , -9.822348   , -0.00413372973, -0.00131783693, -0.000842242967, 0.7611495   , 0.45726797  , 0.749211431 , 0.0011817941, -0.004201769, -0.543864   , 4.91        , 23          , 50          , 0           , 0
-0.02407056 , 0.009571249 , -9.836356   , -0.0010128  , 0.000933866 , -0.00166091474, 0.760341763 , 0.4581105   , 0.746650338 , 0.0011717357, -0.0041924105, -0.5438807  , 4.92        , 23          , 11          , 0.007999266 , 0.007999248
-0.007346204, 0.0180390142, -9.80416    , 0.00460587069, -0.000821897353, 2.67788419E-05, 0.7601994   , 0.4575547   , 0.748646855 , 0.00121779321, -0.00420063 , -0.543880463, 4.93        , 23          , 12          , 0.07280679  , 0
-0.04021726 , 0.0216764137, -9.783775   , -0.00215645158, -0.000489342259, 0.000305766327, 0.761152864 , 0.457546353 , 0.7482135   , 0.00119621551, -0.004205526, -0.543877363, 4.94        , 23          , 50          , 0           , 0
-0.0326929241, 0.009573213 , -9.813497   , -0.000187399346, -0.001345564, -0.00112110865, 0.761152864 , 0.457546353 , 0.7482135   , 0.00119438872, -0.00421896856, -0.54388833 , 4.95        , 23          , 11          , 0.007999266 , 0.007999248
-0.02120896 , 0.02327543  , -9.806064   , -0.000174606845, 0.000352547329, -0.000532198057, 0.760620654 , 0.457401156 , 0.746217847 , 0.00119266519, -0.004215437, -0.5438938  , 4.96        , 23          , 12          , 0.07280679  , 0
-0.03511589 , 0.0279755928, -9.795821   , 0.00376480655, 2.7769187E-05, 0.00117132766, 0.7601938   , 0.457839817 , 0.7493616   , 0.001230264 , -0.004215173, -0.543882132, 4.97        , 23          , 50          , 0           , 0
-0.04456401 , 0.0255830884, -9.814389   , 0.00346560916, -0.0030654585, -0.00255665276, 0.760746658 , 0.457548082 , 0.747930348 , 0.00126502826, -0.004245796, -0.543907642, 4.98        , 23          , 11          , 0.007999266 , 0.007999248
-0.02588972 , 0.0147400359, -9.797631   , -0.00272181723, -0.000766850542, 1.778212E-05, 0.760208547 , 0.4574074   , 0.7470764   , 0.00123780943, -0.00425346475, -0.5439074  , 4.99        , 23          , 12          , 0.07280679  , 0
-0.0285816323, 0.0152455149, -9.798107   , -6.936695E-05, 0.0007254228, 0.00117296877, 0.760208547 , 0.4574074   , 0.7470764   , 0.0006934361, -0.00392684434, -0.5439029  , 5           , 23          , 50          , 0           , 0
0.002009401 , -0.009341741, -9.782236   , -0.0006334274, 0.000451741333, 0.000317563681, 0.7606      , 0.4578381   , 0.7496448   , 0.000687089167, -0.00392233 , -0.5438998  , 5.01        , 23          , 11          , 0.008206924 , 0.008206897
-0.025104776, 0.008839682 , -9.794072   , 0.000225127791, 0.001867499 , -0.000230911028, 0.760471761 , 0.458114058 , 0.7477913   , 0.0006893495, -0.003903653, -0.543902159, 5.02        , 23          , 12          , 0.07391177  , 0
-0.0368538275, 0.0290222913, -9.81158    , 0.005574364 , 0.00153404835, 0.00119063421, 0.760198534 , 0.4581171   , 0.7480782   , 0.0007450467, -0.00388832064, -0.543890238, 5.03        , 23          , 50          , 0           , 0
-0.03175337 , 0.0135320174, -9.802203   , -0.009980685, -0.00542752258, -0.000903911947, 0.760198534 , 0.4581171   , 0.7480782   , 0.0006452753, -0.00394258974, -0.543899059, 5.04        , 23          , 11          , 0.008206924 , 0.008206897
