Acc X       , Acc Y       , Acc Z       , Gyro X      , Gyro Y      , Gyro Z      , Magn X      , Magn Y      , Magn Z      , Euler X     , Euler Y     , Euler Z     , Time        , Status      , LowRate X   , LowRate Y   , LowRate Z    
-0.004777197, -0.0187412053, -9.803214   , 0.00222040643, 0.002474832 , 0.00145512586, -0.460496157, -0.0192800332, 0.2956047   , 0.0009138208, -0.0008626741, 3.0992167   , 0           , 3           , 11          , 0.0346410163, 0.0346410163
-0.009062678, -0.0252147  , -9.783455   , 0.00113772787, -0.00124278921, 0.00114991015, -0.4602265  , -0.01948227 , 0.295335054 , 0.000925188 , -0.000875112542, 3.09922814  , 0.01        , 3           , 12          , 0.0346410163, 0
-0.006470636, -0.0271422714, -9.772149   , -0.00522385025, -0.000125642313, -0.00206249766, -0.460293919, -0.0191452075, 0.29641363  , 0.0008729677, -0.00087635027, 3.09920716  , 0.02        , 3           , 50          , 0           , 0
-0.0201981682, -0.02140378 , -9.796654   , -0.00123775785, 0.002755376 , 0.00170458888, -0.46150735 , -0.0190777946, 0.296481043 , 0.0008605753, -0.0008488113, 3.09922433  , 0.03        , 3           , 11          , 0.0346410163, 0.0346410163
-0.03357344 , -0.0256327279, -9.818092   , -0.000162393946, 0.00197303365, -0.00121903687, -0.4602265  , -0.01921262 , 0.295806944 , 0.0008589616, -0.0008290705, 3.099212    , 0.04        , 3           , 12          , 0.0346410163, 0
0.00697729  , -0.02642842 , -9.761588   , 0.00116049021, 0.000108233326, -0.00176009734, -0.4602265  , -0.01921262 , 0.295806944 , 0.000870581134, -0.000827973, 3.09919477  , 0.05        , 3           , 50          , 0           , 0
0.0150245978, -0.0202770643, -9.79847    , 0.00141947612, 0.00141824211, 0.000909872644, -0.460024267, -0.019414857, 0.296548456 , 0.0008847684, -0.00081379863, 3.09920382  , 0.06        , 3           , 11          , 0.0346410163, 0.0346410163
-0.01831494 , -0.0114726722, -9.797434   , 0.004611574 , 8.23714654E-05, -0.000413272181, -0.461439937, -0.0192800332, 0.296615869 , 0.000930887356, -0.0008129711, 3.09919953  , 0.07        , 3           , 12          , 0.0346410163, 0
-0.0237641279, -0.008330166, -9.791145   , 0.00220182142, -0.0004553936, 0.00195982167, -0.4601591  , -0.0192800332, 0.2956047   , 0.000952889735, -0.0008175435, 3.09921956  , 0.08        , 3           , 50          , 0           , 0
-0.006385766, -0.0162951611, -9.7729435  , 0.00193572964, -0.00203901413, 0.000350014074, -0.4601591  , -0.0192800332, 0.2956047   , 0.0009722442, -0.0008379369, 3.09922242  , 0.09        , 3           , 11          , 0.0346410163, 0.0346410163
-0.0376176126, -0.00316565274, -9.802105   , 0.0008788332, -0.000703769154, 0.000356379547, -0.459889442, -0.0193474442, 0.296481043 , 0.0009810302, -0.000844978145, 3.09922624  , 0.1         , 3           , 12          , 0.0346410163, 0
-0.0177399758, -0.00776498951, -9.808231   , -0.00231336965, -0.00148107437, -0.00046497758, -0.461372524, -0.0190777946, 0.296481043 , 0.0009579004, -0.0008597844, 3.09922147  , 0.11        , 3           , 50          , 0           , 0
0.00336436764, -0.0349266753, -9.768041   , 0.002213131 , -0.00123269064, -0.0009695273, -0.4601591  , -0.0190103818, 0.295739532 , 0.0009800402, -0.0008721019, 3.099212    , 0.12        , 3           , 11          , 0.0346410163, 0.0346410163
0.000487953424, -0.0180311818, -9.785977   , -0.000452653534, -0.0006993556, 0.0006148709, -0.4601591  , -0.0190103818, 0.295739532 , 0.0009755083, -0.000879101455, 3.09921813  , 0.13        , 3           , 12          , 0.0346410163, 0
-0.008786272, -0.009692308, -9.801817   , 0.00142227416, 0.0006295871, -0.0004256057, -0.4601591  , -0.0193474442, 0.296615869 , 0.0009897348, -0.00087280164, 3.09921384  , 0.14        , 3           , 50          , 0           , 0
-8.707866E-06, -0.00148108229, -9.767748   , -0.00124352344, 0.0008987751, 0.000890729832, -0.461372524, -0.0190103818, 0.296481043 , 0.0009772917, -0.0008638226, 3.09922242  , 0.15        , 3           , 11          , 0.0346410163, 0.0346410163
2.03941017E-05, -0.0180443041, -9.784176   , -0.00229048985, 0.00224727113, -0.000962419959, -0.460293919, -0.0192800332, 0.295672119 , 0.000954395 , -0.000841340632, 3.099213    , 0.16        , 3           , 12          , 0.0346410163, 0
0.00150143355, -0.0120971184, -9.793585   , -0.0015096023, -0.000420698459, -0.0004510146, -0.460293919, -0.0192800332, 0.295672119 , 0.0009393028, -0.0008455433, 3.09920859  , 0.17        , 3           , 50          , 0           , 0
-0.0157646  , -0.00895742 , -9.777954   , -0.00389797217, 0.001183107 , 8.19050038E-05, -0.4601591  , -0.0193474442, 0.2967507   , 0.0009003224, -0.000833713, 3.099209    , 0.18        , 3           , 11          , 0.0346410163, 0.0346410163
-0.004802432, -0.01024602 , -9.793643   , -0.00148676161, 0.002515206 , -0.00175264548, -0.461372524, -0.0193474442, 0.296548456 , 0.0008854692, -0.0008085452, 3.099192    , 0.19        , 3           , 12          , 0.0346410163, 0
-0.0118875746, -0.03607104 , -9.829224   , -0.000970440859, 0.0003786853, -0.00097219 , -0.46009168 , -0.019414857, 0.2956047   , 0.000875834 , -0.0008047333, 3.09918237  , 0.2         , 3           , 50          , 0           , 0
-0.0246113427, -0.01947978 , -9.806174   , -0.000712990935, -0.0006905219, -0.000449140061, -0.46009168 , -0.019414857, 0.2956047   , 0.0008687077, -0.0008116345, 3.0991776   , 0.21        , 3           , 11          , 0.0346699171, 0.0346699134
-0.0157405473, -0.0107272137, -9.782037   , -0.00149387843, 0.00197744765, -0.0009605454, -0.460024267, -0.019414857, 0.296683282 , 0.0008537767, -0.0007918518, 3.099168    , 0.22        , 3           , 12          , 0.0346698835, 0
-0.0102726929, -0.0129542211, -9.789671   , -0.00177276367, -0.000151503686, -0.000715672737, -0.4613051  , -0.0190103818, 0.296481043 , 0.0008360548, -0.0007933608, 3.099161    , 0.23        , 3           , 50          , 0           , 0
-0.00672130845, -0.0269392449, -9.794286   , 0.001152033 , 0.00115346385, 0.0009060242, -0.459889442, -0.0193474442, 0.295874357 , 0.000847568 , -0.000781833834, 3.09917     , 0.24        , 3           , 11          , 0.0346699171, 0.0346699134
0.000546187162, -3.55914235E-05, -9.778116   , -0.000162339769, 0.00302962214, -0.000146785824, -0.46009168 , -0.019414857, 0.2967507   , 0.000845945731, -0.000751536456, 3.09916854  , 0.25        , 3           , 12          , 0.0346698835, 0
-0.0165290218, -0.00208697841, -9.787832   , 0.0008817506, 0.000884899229, 0.001433466 , -0.46009168 , -0.019414857, 0.2967507   , 0.0008547524, -0.0007426996, 3.09918284  , 0.26        , 3           , 50          , 0           , 0
-0.0179448538, -0.034427058, -9.806694   , -0.00628507836, -0.000380957645, -0.00286757364, -0.4612377  , -0.01921262 , 0.296548456 , 0.000791923 , -0.0007464856, 3.09915423  , 0.27        , 3           , 11          , 0.0346699171, 0.0346699134
-0.01991163 , -0.00677258754, -9.766688   , -0.000425503065, 0.00329881674, -0.000411443965, -0.459822029, -0.0192800332, 0.295806944 , 0.000787671 , -0.0007134942, 3.09915     , 0.28        , 3           , 12          , 0.0346698835, 0
-0.0152461957, 0.00455953367, -9.774651   , 0.00169115327, 0.00116040616, -0.000419339543, -0.4601591  , -0.0192800332, 0.2967507   , 0.0008045855, -0.0007018868, 3.09914613  , 0.29        , 3           , 50          , 0           , 0
-0.0201451462, -0.0110368486, -9.794291   , 0.00197497522, 0.00219891313, -0.000142583551, -0.4601591  , -0.0192800332, 0.2967507   , 0.0011024233, -0.00114327855, 3.09914422  , 0.3         , 3           , 11          , 0.0347534865, 0.0347534865
-0.00217551738, -0.000927884132, -9.777255   , -0.0004434718, -0.00204826775, 7.150176E-05, -0.4611703  , -0.0190103818, 0.296346217 , 0.00109798764, -0.00116376206, 3.09914517  , 0.31        , 3           , 12          , 0.03475603  , 0
0.00164555758, -0.012401917, -9.809848   , 9.570033E-05, -0.0009847373, -0.000181611031, -0.459822029, -0.0193474442, 0.295806944 , 0.0010989469, -0.00117360742, 3.09914327  , 0.32        , 3           , 50          , 0           , 0
-0.00234876387, -0.0127555262, -9.817581   , 0.00117412326, 0.00272720517, 0.0009205398, -0.460293919, -0.0190777946, 0.296683282 , 0.00111067726, -0.00114634528, 3.09915233  , 0.33        , 3           , 11          , 0.0347534865, 0.0347534865
0.00240689144, -0.0156879332, -9.796771   , -0.0006865928, 0.00194548629, -0.000159308664, -0.460293919, -0.0190777946, 0.296683282 , 0.00110381306, -0.00112688879, 3.099151    , 0.34        , 3           , 12          , 0.03475603  , 0
0.00465493463, -0.02198987 , -9.800872   , 0.001964954 , 0.0003366334, -0.000159507385, -0.4611703  , -0.0191452075, 0.296346217 , 0.00112346432, -0.00112352078, 3.099149    , 0.35        , 3           , 50          , 0           , 0
-0.0152946189, -0.0367450751, -9.802168   , 0.004892549 , 0.000852945959, 0.0001267112, -0.4596198  , -0.019414857, 0.29594177  , 0.00117238832, -0.00111499289, 3.09915042  , 0.36        , 3           , 11          , 0.0347534865, 0.0347534865
-0.00529873744, -0.0143237514, -9.791883   , 0.0006092862, -0.00101186871, 0.00327463658, -0.459956855, -0.0193474442, 0.296683282 , 0.00117844436, -0.00112515 , 3.09918332  , 0.37        , 3           , 12          , 0.03475603  , 0
0.0113107655, -0.027530551, -9.792716   , -0.00361278141, 0.0011669196, -0.000979235, -0.459956855, -0.0193474442, 0.296683282 , 0.00114232767, -0.00111346948, 3.09917331  , 0.38        , 3           , 50          , 0           , 0
-0.00328720361, 0.0154665466, -9.791109   , -0.00282752118, 0.0008819519, 0.0011478   , -0.46103546 , -0.0192800332, 0.296346217 , 0.00111403968, -0.00110466289, 3.09918523  , 0.39        , 3           , 11          , 0.0347534865, 0.0347534865
-0.0229872037, -0.00711625861, -9.776217   , -0.003889384, -0.00120126549, 0.000325756351, -0.459822029, -0.0193474442, 0.295874357 , 0.001161613 , -0.0008000649, 3.099188    , 0.4         , 3           , 12          , 0.0348986052, 0
-0.01787031 , -0.00206518546, -9.789204   , 0.000363970932, -0.00175352639, 0.000343812833, -0.4602265  , -0.0193474442, 0.2967507   , 0.00116524985, -0.000817604247, 3.09919143  , 0.41        , 3           , 50          , 0           , 0
-0.0006666053, -0.023204539, -9.812243   , 0.00115784758, 8.603971E-05, 0.00302147935, -0.4602265  , -0.0193474442, 0.2967507   , 0.00117680361, -0.0008167792, 3.09922147  , 0.42        , 3           , 11          , 0.01772473  , 0.0177247282
-0.0136922812, -0.01767227 , -9.814606   , 0.0009203095, 0.00223833672, -0.000148350417, -0.461102873, -0.01921262 , 0.2962788   , 0.00118600775, -0.000794394058, 3.09922051  , 0.43        , 3           , 12          , 0.0348986052, 0
-0.01785629 , -0.0213340651, -9.80611    , 0.001166346 , -0.000166749436, 0.00115954643, -0.459822029, -0.0192800332, 0.295806944 , 0.00119766209, -0.0007960753, 3.099232    , 0.44        , 3           , 50          , 0           , 0
-0.0216831863, -0.02331899 , -9.783591   , 0.000108004671, 0.00063830876, 0.0008954313, -0.460293919, -0.0192800332, 0.2968181   , 0.001198735 , -0.0007897029, 3.09924054  , 0.45        , 3           , 11          , 0.01772473  , 0.0177247282
-0.0139122512, -0.014304   , -9.787471   , 0.000372573675, 0.000106860505, 0.0006263817, -0.460293919, -0.0192800332, 0.2968181   , 0.00120245584, -0.000788641861, 3.09924722  , 0.46        , 3           , 12          , 0.0348986052, 0
-0.00321915722, -0.0122732585, -9.770605   , 0.0003825819, 0.00170499342, 0.000375242817, -0.4612377  , -0.0192800332, 0.2962788   , 0.00120627857, -0.0007715965, 3.099251    , 0.47        , 3           , 50          , 0           , 0
-0.0192190614, 0.007814826 , -9.781894   , 0.00331298774, 0.00169679814, -0.0004059542, -0.459754616, -0.01921262 , 0.29594177  , 0.00123941165, -0.0007546236, 3.09924674  , 0.48        , 3           , 11          , 0.01772473  , 0.0177247282
-0.0119007658, -0.0253260918, -9.769036   , 0.00305695622, 0.00276789814, -0.00119464938, -0.460293919, -0.0193474442, 0.29688552  , 0.00126999011, -0.0007269297, 3.09923482  , 0.49        , 3           , 12          , 0.0348986052, 0
-0.0189482663, -0.00447599031, -9.771623   , -0.000945025939, -0.000177076348, -0.000445740734, -0.460293919, -0.0193474442, 0.29688552  , 0.00130016508, -0.000881764456, 3.09923     , 0.5         , 3           , 50          , 0           , 0
-0.005411813, -0.009055177, -9.775118   , -0.000415848917, -0.000447532017, -0.0001796518, -0.4612377  , -0.0190103818, 0.2962788   , 0.00129600812, -0.0008862375, 3.09922862  , 0.51        , 3           , 11          , 0.0134517383, 0.0134517383
-0.0007154979, -0.0151813775, -9.800419   , -0.0009507003, -0.000184648292, 0.0006168396, -0.4596872  , -0.0192800332, 0.295806944 , 0.00128649559, -0.000888092, 3.09923482  , 0.52        , 3           , 12          , 0.0350965   , 0
0.002126569 , -0.01910196 , -9.818493   , -0.0001455667, -0.000178967341, -0.0007070935, -0.460428745, -0.0195496827, 0.29688552  , 0.00128504622, -0.0008898725, 3.09922767  , 0.53        , 3           , 50          , 0           , 0
-0.00288420916, -0.0177691374, -9.812216   , -0.0009407572, 9.274957E-05, -0.000974613, -0.460428745, -0.0195496827, 0.29688552  , 0.00127564732, -0.0008889325, 3.09921765  , 0.54        , 3           , 11          , 0.0134517383, 0.0134517383
-0.002544526, 0.0112650432, -9.776686   , 0.000116126052, -0.00150664244, -0.00124904141, -0.4611703  , -0.0192800332, 0.296143979 , 0.00127681985, -0.000903983, 3.09920526  , 0.55        , 3           , 12          , 0.0350965   , 0
0.0178321153, 0.009400824 , -9.785942   , -0.0009449737, 0.0008795116, 0.000626510358, -0.4596198  , -0.0190103818, 0.295874357 , 0.0012673646, -0.0008951959, 3.099212    , 0.56        , 3           , 50          , 0           , 0
-0.00221020728, -0.0224875119, -9.790571   , 0.0003736022, -0.002047556, -0.0001898657, -0.460293919, -0.0191452075, 0.297020346 , 0.00127110223, -0.000915669, 3.09921     , 0.57        , 3           , 11          , 0.0134517383, 0.0134517383
-0.02749976 , -0.0313007459, -9.795486   , 0.002252877 , 0.0011360948, -0.000150838227, -0.460293919, -0.0191452075, 0.297020346 , 0.00129363232, -0.0009043061, 3.099208    , 0.58        , 3           , 12          , 0.0350965   , 0
-0.01594768 , -0.0199024118, -9.766319   , -0.00333340955, 0.00116258219, -0.000180883828, -0.46103546 , -0.0190777946, 0.2962114   , 0.00126029958, -0.000892678, 3.09920621  , 0.59        , 3           , 50          , 0           , 0
-0.00447881967, -0.0202420019, -9.787415   , -0.001980868, 0.001965845 , -0.000963431, -0.4596872  , -0.01921262 , 0.29594177  , 0.00128216913, -0.0008557361, 3.09919667  , 0.6         , 3           , 11          , 0.0113657294, 0.0113657266
0.00548197143, -0.0171385184, -9.788617   , -0.00199232087, -0.0001624747, -0.0009827726, -0.46056357 , -0.019414857, 0.29688552  , 0.0012622542, -0.0008573485, 3.09918714  , 0.61        , 3           , 12          , 0.03534837  , 0
0.0285707284, 0.0132706808, -9.772671   , 0.000128734449, 0.000610410934, 0.001161087 , -0.46056357 , -0.019414857, 0.29688552  , 0.00126353174, -0.000851259, 3.09919858  , 0.62        , 3           , 50          , 0           , 0
-0.00748726167, 0.007284431 , -9.782207   , -0.000112954811, 0.00487020472, 0.000932694 , -0.460968047, -0.01921262 , 0.296076566 , 0.00126239436, -0.0008025687, 3.099208    , 0.63        , 3           , 11          , 0.0113657294, 0.0113657266
-0.0102347434, -0.00529294834, -9.78778648 , 0.00013436962, -0.000174458139, -0.0007056817, -0.4596872  , -0.0192800332, 0.29594177  , 0.00126374385, -0.000804304436, 3.099201    , 0.64        , 3           , 12          , 0.03534837  , 0
-0.0116159506, -0.00172342535, -9.781897   , -0.00172060682, 0.000372129929, -0.0015077967, -0.460630983, -0.0192800332, 0.297087759 , 0.00124654965, -0.000800564245, 3.09918618  , 0.65        , 3           , 50          , 0           , 0
-0.0137083773, 0.00876956247, -9.791755   , -0.00357558276, 0.0009187179, -0.002309912, -0.460630983, -0.0192800332, 0.297087759 , 0.00121081248, -0.000791348633, 3.09916282  , 0.66        , 3           , 11          , 0.0113657294, 0.0113657266
-0.0161744729, -0.0111552589, -9.784305   , 0.0006807261, 0.002747566 , -0.0004105805, -0.460900635, -0.0191452075, 0.295874357 , 0.00121762289, -0.00076386804, 3.09915853  , 0.67        , 3           , 12          , 0.03534837  , 0
-0.0364303663, -0.0163456965, -9.79409    , 0.00227105548, 0.00114754424, -0.000947792258, -0.4596198  , -0.01948227 , 0.296076566 , 0.00124034064, -0.0007523809, 3.099149    , 0.68        , 3           , 50          , 0           , 0
-0.0290618371, -0.0193867385, -9.81300449 , -0.00305351242, 0.000374650466, -0.0009836601, -0.46056357 , -0.0193474442, 0.296952933 , 0.00120981282, -0.0007486225, 3.09913945  , 0.69        , 3           , 11          , 0.0113657294, 0.0113657266
-0.00174282491, -0.0121604577, -9.784139   , -0.003348549, 0.0016228864, 0.000355335331, -0.46056357 , -0.0193474442, 0.296952933 , 0.0011146774, -0.0008887402, 3.09914327  , 0.7         , 3           , 12          , 0.03565266  , 0
0.005528044 , 0.00488089025, -9.776199   , -0.002293175, -0.00182742777, -0.00152988732, -0.46103546 , -0.01921262 , 0.295874357 , 0.00109175942, -0.0009069976, 3.099128    , 0.71        , 3           , 50          , 0           , 0
0.002933761 , -0.008440673, -9.799403   , 0.000111060086, 0.00187252916, 0.000376352662, -0.459889442, -0.019414857, 0.296076566 , 0.00109286653, -0.0008882765, 3.09913182  , 0.72        , 3           , 11          , 0.010143837 , 0.010143836
9.483844E-05, -0.02245449 , -9.795964   , 0.001173618 , 0.000280709122, -0.0009606557, -0.460428745, -0.0190777946, 0.296952933 , 0.0011046112, -0.0008854587, 3.09912181  , 0.73        , 3           , 12          , 0.03565266  , 0
-0.01727141 , -0.00416334532, -9.807287   , 0.00250514387, 0.00106873654, -0.000414958922, -0.460428745, -0.0190777946, 0.296952933 , 0.00112966634, -0.000874766731, 3.09911752  , 0.74        , 3           , 50          , 0           , 0
-0.040521726, -0.0235225856, -9.796472   , -0.0014935853, 0.0008121513, 0.0008893875, -0.460968047, -0.0188755561, 0.29594177  , 0.00111472269, -0.0008666552, 3.09912658  , 0.75        , 3           , 11          , 0.010143837 , 0.010143836
-0.00855498947, -0.020677181, -9.786114   , 0.00249091885, 0.000257365755, 0.00143730349, -0.459889442, -0.01921262 , 0.295874357 , 0.0011396195, -0.000864097732, 3.09914136  , 0.76        , 3           , 12          , 0.03565266  , 0
-0.00256128237, -0.0192454662, -9.799126   , -0.000699917437, -0.00157463446, -0.0007219498, -0.4606984  , -0.0193474442, 0.29688552  , 0.00113262655, -0.0008798358, 3.09913373  , 0.77        , 3           , 50          , 0           , 0
-0.0132728135, -0.0141195692, -9.808242   , 0.00273834751, -0.00267412141, 0.00194342982, -0.4606984  , -0.0193474442, 0.29688552  , 0.00115999265, -0.0009065993, 3.09915328  , 0.78        , 3           , 11          , 0.010143837 , 0.010143836
-0.0114419367, -0.0230750479, -9.818247   , 0.00143397017, 0.000536022941, 0.0003714179, -0.461102873, -0.0193474442, 0.29594177  , 0.00117432885, -0.0009012434, 3.09915662  , 0.79        , 3           , 12          , 0.03565266  , 0
0.0123928506, -0.006729642, -9.796108   , 0.0012105623, -0.000550715951, -0.0004366209, -0.4596198  , -0.019414857, 0.29594177  , 0.00125953706, -0.0009556991, 3.0991528   , 0.8         , 3           , 50          , 0           , 0
-0.000675356, -0.0106569808, -9.801276   , 0.0006914455, 0.00237446046, 0.000118402335, -0.460630983, -0.01921262 , 0.2968181   , 0.0012664505, -0.000931956, 3.09915376  , 0.81        , 3           , 11          , 0.009387537 , 0.009387552
-0.0132257324, -0.0212476514, -9.819154   , -0.003047075, -0.0005324281, -0.000193867687, -0.460630983, -0.01921262 , 0.2968181   , 0.00123598147, -0.0009372778, 3.09915185  , 0.82        , 3           , 12          , 0.03600763  , 0
-0.0227360763, -0.02391106 , -9.767347   , 0.000951732742, 0.0013090393, 0.000110162313, -0.4607658  , -0.0193474442, 0.296076566 , 0.00124549773, -0.00092418876, 3.0991528   , 0.83        , 3           , 50          , 0           , 0
-0.0191744976, -0.008284546, -9.799671   , -0.0006472384, 0.000256233121, -0.000439383031, -0.459822029, -0.0195496827, 0.296009183 , 0.00123902946, -0.0009216212, 3.09914851  , 0.84        , 3           , 11          , 0.009387537 , 0.009387552
0.0133896377, -0.0129200723, -9.811517   , -0.00278107426, -0.0007978364, -0.000460499723, -0.460900635, -0.0188755561, 0.296952933 , 0.00121122284, -0.000929593749, 3.09914422  , 0.85        , 3           , 12          , 0.03600763  , 0
0.00117944926, 0.007317699 , -9.79249    , -0.00144960021, -0.001066397, -0.0009870537, -0.460900635, -0.0188755561, 0.296952933 , 0.001196736 , -0.0009402458, 3.09913373  , 0.86        , 3           , 50          , 0           , 0
-0.02298922 , -0.01429329 , -9.78171    , 0.000419601041, -0.0008016141, -0.00203720131, -0.460900635, -0.0190777946, 0.295806944 , 0.00120095129, -0.0009482377, 3.0991137   , 0.87        , 3           , 11          , 0.009387537 , 0.009387552
0.002765648 , -0.0207160581, -9.790492   , 0.000403983722, -0.00108658383, 0.000616831763, -0.4596198  , -0.0193474442, 0.296143979 , 0.00120498519, -0.000959110854, 3.09911942  , 0.88        , 3           , 12          , 0.03600763  , 0
-0.008769684, -0.001603879, -9.797218   , -0.002516453, -0.000272696663, 0.000342701562, -0.460833222, -0.0190777946, 0.297087759 , 0.00117981737, -0.000961841841, 3.09912324  , 0.89        , 3           , 50          , 0           , 0
-0.0104397945, -0.0216411  , -9.778015   , -0.00277373986, 0.00162290607, -0.000173125358, -0.460833222, -0.0190777946, 0.297087759 , 0.00114629033, -0.00090598996, 3.09912133  , 0.9         , 3           , 11          , 0.008918853 , 0.008918858
0.00410671532, -0.0288099758, -9.795527   , -0.004379843, -0.000231806291, -0.000198633643, -0.460968047, -0.0191452075, 0.295874357 , 0.00110249373, -0.000908305869, 3.09911942  , 0.91        , 3           , 12          , 0.0364114158, 0
-0.016958   , -0.0213445146, -9.805648   , -0.001456595, -0.00157020148, -0.0009919191, -0.459822029, -0.0193474442, 0.2962114   , 0.00108793692, -0.000923996966, 3.09911     , 0.92        , 3           , 50          , 0           , 0
0.004085798 , -0.0122385956, -9.780003   , -0.00013365905, -0.002378414, -0.0004607284, -0.460833222, -0.0190103818, 0.2967507   , 0.00108660467, -0.0009477761, 3.09910512  , 0.93        , 3           , 11          , 0.008918853 , 0.008918858
0.000770186947, 0.01095018  , -9.794266   , -0.00145226123, 2.035941E-05, -0.000180477771, -0.460833222, -0.0190103818, 0.2967507   , 0.00107208372, -0.0009475705, 3.09910321  , 0.94        , 3           , 12          , 0.0364114158, 0
-0.0198037587, 0.00275654718, -9.821253   , -0.00145515054, -0.00104001455, -0.00072143873, -0.460900635, -0.0193474442, 0.295874357 , 0.00105753914, -0.0009579629, 3.09909558  , 0.95        , 3           , 50          , 0           , 0
-0.0217025224, 0.00671154447, -9.807684   , -0.0009258429, 0.00133099977, 0.00222527748, -0.4596872  , -0.0193474442, 0.296143979 , 0.00104825944, -0.0009446762, 3.09911847  , 0.96        , 3           , 11          , 0.008918853 , 0.008918858
-0.0117410608, -0.0211309735, -9.783447   , -0.0006642154, -0.00131741026, 0.000343016058, -0.46103546 , -0.0191452075, 0.297087759 , 0.001041614 , -0.000957854, 3.09912133  , 0.97        , 3           , 12          , 0.0364114158, 0
0.006945461 , -0.004482232, -9.790731   , -0.00250348356, 0.00136317639, -0.00123669265, -0.46103546 , -0.0191452075, 0.297087759 , 0.00101659086, -0.0009442096, 3.099109    , 0.98        , 3           , 50          , 0           , 0
-0.0106034148, -0.0137278493, -9.803686   , 0.0049249474, -0.0005476709, 0.0006459598, -0.461102873, -0.0191452075, 0.295874357 , 0.00106583431, -0.000949692971, 3.09911561  , 0.99        , 3           , 11          , 0.008918853 , 0.008918858
-0.004638914, -0.022195315, -9.77117348 , 0.00412730966, 0.00267297961, 0.000405025232, -0.459822029, -0.0193474442, 0.296143979 , 0.00108425424, -0.0008947217, 3.09912     , 1           , 3           , 12          , 0.03686201  , 0
-0.0244988985, 0.00215733983, -9.801439   , 0.002246707 , 0.001336465 , 0.002508082 , -0.46103546 , -0.01921262 , 0.297020346 , 0.00110669911, -0.0008813845, 3.09914517  , 1.01        , 3           , 50          , 0           , 0
-0.0168920867, -0.005135035, -9.800064   , -0.00121445057, -0.001556541, 7.20823155E-05, -0.46103546 , -0.01921262 , 0.297020346 , 0.001094554 , -0.00089695066, 3.09914565  , 1.02        , 3           , 11          , 0.008640118 , 0.008640125
-0.000277476385, -0.0147492457, -9.798601   , 0.000118467578, -0.0012949144, -0.000183991331, -0.460900635, -0.01948227 , 0.295672119 , 0.00109574047, -0.0009098978, 3.09914374  , 1.03        , 3           , 12          , 0.03686201  , 0
0.003218971 , 0.012920199 , -9.814093   , -0.00227283128, -0.00154392363, -0.0009962209, -0.459754616, -0.019414857, 0.296143979 , 0.00107302121, -0.0009253262, 3.09913373  , 1.04        , 3           , 50          , 0           , 0
0.01366519  , -0.0009904634, -9.782483   , 0.00144865317, 0.00107610179, 0.002235727 , -0.4612377  , -0.01874073 , 0.2968181   , 0.00108748709, -0.000914589269, 3.09915614  , 1.05        , 3           , 11          , 0.008640118 , 0.008640125
0.00321274437, -0.020723328, -9.790035   , 0.00171743869, -0.00024210845, 0.000365553977, -0.4612377  , -0.01874073 , 0.2968181   , 0.00110465812, -0.0009170145, 3.09915948  , 1.06        , 3           , 12          , 0.03686201  , 0
-0.0163762085, -0.0005893763, -9.803627   , 0.000654841948, 0.0005572707, 0.0008983741, -0.460900635, -0.0192800332, 0.295806944 , 0.00111119822, -0.0009114517, 3.099169    , 1.07        , 3           , 50          , 0           , 0
-0.009382421, -0.0232867468, -9.796539   , 0.000394463423, -0.000226337012, -0.000969824963, -0.459754616, -0.0193474442, 0.296076566 , 0.00111515191, -0.0009137043, 3.099159    , 1.08        , 3           , 11          , 0.008640118 , 0.008640125
-0.0237419847, -0.01324092 , -9.797519   , 0.00358091388, -0.00104148558, -0.0006942642, -0.4611703  , -0.0190103818, 0.2968181   , 0.00115096744, -0.0009241112, 3.09915185  , 1.09        , 3           , 12          , 0.03686201  , 0
-0.00314032845, -0.0229572318, -9.787877   , 0.000623189553, 2.29771249E-05, 0.00222177571, -0.4611703  , -0.0190103818, 0.2968181   , 0.001131657 , -0.0009153768, 3.09917474  , 1.1         , 3           , 50          , 0           , 0
-0.0217015035, -0.0224359464, -9.831015   , 0.000924836961, 0.003502951 , -0.0009331042, -0.4607658  , -0.0190103818, 0.29546988  , 0.00114091393, -0.000880336738, 3.0991652   , 1.11        , 3           , 11          , 0.008486741 , 0.008486752
-0.0214321613, -0.02172349 , -9.810224   , 0.00117652153, 0.0005771433, -0.00122391328, -0.459889442, -0.0192800332, 0.2962114   , 0.0011526898, -0.000874551246, 3.0991528   , 1.12        , 3           , 12          , 0.0373573378, 0
-0.0138126388, -0.0128593994, -9.797394   , 0.00012536443, 0.00324069522, -0.0009398142, -0.4611703  , -0.0192800332, 0.2967507   , 0.00115395151, -0.0008421334, 3.09914327  , 1.13        , 3           , 50          , 0           , 0
-0.0012848489, -0.0135022048, -9.78595352 , -0.00122179172, 0.00190355093, 0.000900459 , -0.4611703  , -0.0192800332, 0.2967507   , 0.00114172616, -0.000823108247, 3.0991528   , 1.14        , 3           , 11          , 0.008486741 , 0.008486752
-0.0104837324, -0.0100210626, -9.814038   , 0.00116378046, 0.00108840037, 0.00170301774, -0.460833222, -0.0192800332, 0.2956047   , 0.00115335  , -0.0008122437, 3.09916949  , 1.15        , 3           , 12          , 0.0373573378, 0
-0.009885784, 0.00267828442, -9.820229   , 9.8268094E-05, 0.000299111649, 0.00115875166, -0.459822029, -0.0193474442, 0.2962788   , 0.00115432322, -0.000809266, 3.09918141  , 1.16        , 3           , 50          , 0           , 0
-0.002838293, -0.01817181 , -9.81764    , -0.00202557235, 0.000579028041, 0.000618433347, -0.461102873, -0.0190777946, 0.2967507   , 0.00113406254, -0.0008034827, 3.09918714  , 1.17        , 3           , 11          , 0.008486741 , 0.008486752
0.00304784067, -0.0101207346, -9.813422   , -0.002012779, 0.00112435874, -0.0012362469, -0.460900635, -0.0192800332, 0.295672119 , 0.00111394469, -0.0007922252, 3.09917474  , 1.18        , 3           , 12          , 0.0373573378, 0
-0.00523416325, -0.0138109494, -9.798653   , -0.001221896, -0.000209624937, -0.00124404312, -0.460900635, -0.0192800332, 0.295672119 , 0.00110173575, -0.0007943077, 3.09916234  , 1.19        , 3           , 50          , 0           , 0
-0.0170137845, -0.0160188451, -9.795205   , 0.00171082583, -0.000757182366, 0.0008919864, -0.459956855, -0.0192800332, 0.296143979 , 0.00114249566, -0.000786476245, 3.0991714   , 1.2         , 3           , 11          , 0.00840731151, 0.008407306
0.00456681475, -0.0189386364, -9.788647   , 0.001996817 , 0.0016453811, -0.0004130489, -0.4613051  , -0.0191452075, 0.2968181   , 0.00116246729, -0.0007700176, 3.099167    , 1.21        , 3           , 12          , 0.0378952771, 0
0.00277350657, -0.0328160748, -9.801004   , 0.000662506 , 0.00191015552, 0.0006447953, -0.4606984  , -0.0190103818, 0.29546988  , 0.00116908725, -0.000750923529, 3.09917378  , 1.22        , 3           , 50          , 0           , 0
-0.005855033, -0.01711595 , -9.782432   , 0.00171933742, -0.0007458244, -0.000701884, -0.4606984  , -0.0190103818, 0.29546988  , 0.00118628587, -0.0007583735, 3.099167    , 1.23        , 3           , 11          , 0.00840731151, 0.008407306
-0.0184839424, -0.0233005174, -9.788069   , -0.00200477545, 0.000856715837, 0.0008864621, -0.459822029, -0.019414857, 0.296143979 , 0.00116623146, -0.000749816769, 3.09917569  , 1.24        , 3           , 12          , 0.0378952771, 0
-0.0137629192, -0.00698014349, -9.798237   , -0.00279146782, 0.000875643629, -0.00124299049, -0.4611703  , -0.01921262 , 0.29688552  , 0.001138326 , -0.000741046, 3.09916329  , 1.25        , 3           , 50          , 0           , 0
-0.009983227, -0.024329558, -9.780746   , 0.00172509  , 0.000846629438, -0.000156087612, -0.460630983, -0.0192800332, 0.2955373   , 0.00115557807, -0.00073257793, 3.09916139  , 1.26        , 3           , 11          , 0.00840731151, 0.008407306
0.0008472055, -0.021265056, -9.778326   , 0.00306948717, 0.00376486988, 0.000143305733, -0.460630983, -0.0192800332, 0.2955373   , 0.00118627213, -0.000694930961, 3.09916329  , 1.27        , 3           , 12          , 0.0378952771, 0
-0.00357431942, -0.009035297, -9.778708   , -0.00198352314, 0.00035681657, -0.0036343392, -0.4596872  , -0.01921262 , 0.2962114   , 0.001166462 , -0.0006913199, 3.099127    , 1.28        , 3           , 50          , 0           , 0
0.0149495862, -0.00331115932, -9.776618   , -0.00385838514, 0.000348608854, -0.00125354889, -0.4612377  , -0.0190777946, 0.2967507   , 0.0011278867, -0.0006878195, 3.09911418  , 1.29        , 3           , 11          , 0.00840731151, 0.008407306
-0.01161118 , -0.010239007, -9.789208   , -0.000346404035, 0.00118115824, -0.0006965116, -0.46056357 , -0.01948227 , 0.2956047   , 0.00118345057, -0.000614416553, 3.099107    , 1.3         , 3           , 12          , 0.03847367  , 0
-0.008862842, -0.016495198, -9.798724   , 0.00203491235, 0.0003603287, 0.0009029823, -0.46056357 , -0.01948227 , 0.2956047   , 0.00120379427, -0.00061082415, 3.09911656  , 1.31        , 3           , 50          , 0           , 0
-0.0305273049, -0.0208340064, -9.801743   , 0.000438739167, -0.00148113235, -0.0009820412, -0.460024267, -0.0191452075, 0.296346217 , 0.00120818766, -0.0006256236, 3.09910655  , 1.32        , 3           , 11          , 0.00836840551, 0.008368413
-0.0202307887, 0.005026009 , -9.822138   , -0.005400716, 0.000148535124, -0.00179594685, -0.4611703  , -0.0190777946, 0.296683282 , 0.00115419179, -0.0006241171, 3.09908843  , 1.33        , 3           , 12          , 0.03847367  , 0
-0.0235791411, 0.005755784 , -9.800488   , -0.00326258526, 0.00200072443, -0.001767577, -0.460630983, -0.0193474442, 0.295200229 , 0.00112157664, -0.000604089757, 3.09907079  , 1.34        , 3           , 50          , 0           , 0
-0.0164713375, -0.004271686, -9.795984   , -0.000349228154, 0.00144151924, 0.000102841317, -0.460630983, -0.0193474442, 0.295200229 , 0.00111808372, -0.0005896758, 3.09907174  , 1.35        , 3           , 11          , 0.00836840551, 0.008368413
-0.00485426933, -0.0273383688, -9.801495   , -0.00223128824, -0.00068932923, 0.00166735507, -0.459956855, -0.0193474442, 0.2962788   , 0.001095761 , -0.000596587546, 3.099089    , 1.36        , 3           , 12          , 0.03847367  , 0
-0.0197053384, -0.0114998091, -9.793386   , 0.0009836119, 0.000118263793, -0.00176160911, -0.461439937, -0.0190777946, 0.2967507   , 0.0011056076, -0.000595385442, 3.09907079  , 1.37        , 3           , 50          , 0           , 0
-0.0306933485, -0.00754633872, -9.772701   , -8.899331E-05, -0.000680489931, -0.0009776496, -0.460428745, -0.0191452075, 0.295402467 , 0.00110472366, -0.000602179556, 3.09906125  , 1.38        , 3           , 11          , 0.00836840551, 0.008368413
-0.0113278218, -0.0287954416, -9.785326   , 0.00309465919, -0.0007069835, 0.0006333896, -0.460428745, -0.0191452075, 0.295402467 , 0.00113566627, -0.0006092564, 3.09906745  , 1.39        , 3           , 12          , 0.03847367  , 0
0.0129632205, -0.0048202984, -9.807827   , 0.00154539943, 0.0007572591, 0.0006394404, -0.459822029, -0.019414857, 0.296143979 , 0.001194545 , -0.000760186638, 3.09907365  , 1.4         , 3           , 50          , 0           , 0
-0.0221876241, 0.0134075023, -9.798588   , 0.002058881 , -0.00138304813, 0.00195118575, -0.461574763, -0.0191452075, 0.296615869 , 0.00121511891, -0.0007740406, 3.09909368  , 1.41        , 3           , 11          , 0.00835013948, 0.008350151
-0.0141807  , 0.0172720067, -9.78264    , 0.002609389 , -0.0005685211, -0.000695150462, -0.460428745, -0.019414857, 0.295267642 , 0.00124121818, -0.000779717229, 3.09908652  , 1.42        , 3           , 12          , 0.039090354 , 0
-0.00367195532, 0.0007374659, -9.810233   , 0.00130646932, 0.00343595678, -0.0017286191, -0.460428745, -0.019414857, 0.295267642 , 0.00125429581, -0.0007453362, 3.09906888  , 1.43        , 3           , 50          , 0           , 0
-0.0155941322, -0.01013284 , -9.797838   , -0.00031538168, -0.00134519464, -0.001780722, -0.460024267, -0.0193474442, 0.29641363  , 0.00125115539, -0.0007587657, 3.09905171  , 1.44        , 3           , 11          , 0.00835013948, 0.008350151
-0.0262636319, 0.00265841745, -9.805522   , 0.001014869 , 0.00234655663, 0.00197931053, -0.461372524, -0.01921262 , 0.296615869 , 0.00126128935, -0.000735325, 3.09907126  , 1.45        , 3           , 12          , 0.039090354 , 0
-0.0223155469, -0.00869347 , -9.801973   , 0.0007687023, 0.00211017276, -0.00200921413, -0.4602265  , -0.0193474442, 0.2956047   , 0.0012689908, -0.0007141979, 3.09905124  , 1.46        , 3           , 50          , 0           , 0
-0.004052911, -0.0301360339, -9.792479   , 0.00368208531, 0.00207926147, 0.000397329626, -0.4602265  , -0.0193474442, 0.2956047   , 0.00130580878, -0.0006934104, 3.099055    , 1.47        , 3           , 11          , 0.00835013948, 0.008350151
-0.005800262, -0.0260301344, -9.79562    , -0.00271231565, -0.000809334859, -0.000726183, -0.460024267, -0.0193474442, 0.29641363  , 0.00127869076, -0.0007014943, 3.099048    , 1.48        , 3           , 12          , 0.039090354 , 0
-0.01101722 , 0.00649232976, -9.791744   , -0.0016510461, 0.000238421839, 0.0008830811, -0.461642176, -0.0191452075, 0.296615869 , 0.00126217387, -0.0006991212, 3.09905648  , 1.49        , 3           , 50          , 0           , 0
0.005926881 , -0.0140088871, -9.785418   , -0.00383110647, 0.00149955752, 0.000883860048, -0.4601591  , -0.0196170956, 0.295402467 , 0.00115547073, -0.000775724067, 3.09906554  , 1.5         , 3           , 11          , 0.008334114 , 0.008334125
-0.00289496966, -0.0123986043, -9.806742   , -0.00355229969, 0.002043627 , -0.000969389046, -0.4601591  , -0.0196170956, 0.295402467 , 0.00111995533, -0.000755276764, 3.099056    , 1.51        , 3           , 12          , 0.0397432   , 0
-0.0123694353, -0.0105374381, -9.805484   , -0.000390200235, -0.00355834817, -0.00100299169, -0.459889442, -0.01948227 , 0.2962788   , 0.00111606112, -0.000790849, 3.099046    , 1.52        , 3           , 50          , 0           , 0
0.0168144945, -0.01492335 , -9.792521   , 0.0003950734, -0.00357916881, 0.00139210606, -0.4613051  , -0.0190103818, 0.2962788   , 0.00112000073, -0.0008266562, 3.09905982  , 1.53        , 3           , 11          , 0.008334114 , 0.008334125
-0.005240338, -0.00664207945, -9.792257   , -0.0019661875, 0.00123036723, 9.45224456E-05, -0.460293919, -0.0192800332, 0.295335054 , 0.001100338 , -0.0008143536, 3.09906077  , 1.54        , 3           , 12          , 0.0397432   , 0
-0.008996479, -0.0152830733, -9.782904   , -0.00303741312, -0.0003589344, -0.0001913517, -0.460293919, -0.0192800332, 0.295335054 , 0.00106996531, -0.0008179408, 3.09905887  , 1.55        , 3           , 50          , 0           , 0
-0.00333523937, 0.004656138 , -9.794379   , -0.00171590864, -0.0014331867, 0.0003374213, -0.459956855, -0.019414857, 0.296346217 , 0.00105280348, -0.0008322763, 3.0990622   , 1.56        , 3           , 11          , 0.008334114 , 0.008334125
-0.009986913, -0.00414907373, -9.814425   , -0.000906466739, -0.0003652388, -0.0007111959, -0.461372524, -0.0190103818, 0.296548456 , 0.00104374462, -0.0008359212, 3.099055    , 1.57        , 3           , 12          , 0.0397432   , 0
-0.000165261328, -0.00118424743, -9.800271   , -0.00116814638, 0.00122658338, 9.881468E-05, -0.460293919, -0.0191452075, 0.29546988  , 0.00103206246, -0.0008236564, 3.099056    , 1.58        , 3           , 50          , 0           , 0
-0.00670691 , -0.0157139283, -9.786945   , -0.00116670178, 0.00175677042, 0.00036929507, -0.460293919, -0.0191452075, 0.29546988  , 0.00102039252, -0.0008060924, 3.09905982  , 1.59        , 3           , 11          , 0.008334114 , 0.008334125
0.00112311356, -0.007536929, -9.79806    , -0.0009400057, 0.000189738887, 0.001153134 , -0.46009168 , -0.019414857, 0.29641363  , 0.0009795304, -0.00076126057, 3.09907126  , 1.6         , 3           , 12          , 0.0404301174, 0
0.00506676733, 0.00173495524, -9.777592   , -0.0003980615, -6.367982E-05, -0.000971582544, -0.4612377  , -0.0190777946, 0.296481043 , 0.000975557254, -0.000761887932, 3.09906125  , 1.61        , 3           , 50          , 0           , 0
-0.01739473 , -0.0244659837, -9.809751   , -0.000406572915, -7.503771E-05, 0.000622287742, -0.4601591  , -0.0193474442, 0.295402467 , 0.0009714868, -0.0007626443, 3.099068    , 1.62        , 3           , 11          , 0.008311462 , 0.008311465
0.005914608 , -0.0140211182, -9.784063   , 0.00172436016, -0.000345489243, -0.000165619189, -0.4601591  , -0.0193474442, 0.295402467 , 0.0009887316, -0.0007660975, 3.099066    , 1.63        , 3           , 12          , 0.0404301174, 0
0.00285751931, -0.00313539617, -9.786702   , -0.00198843 , 0.0007439009, -0.00123855914, -0.459822029, -0.0192800332, 0.2962788   , 0.0009688568, -0.000758646464, 3.09905362  , 1.64        , 3           , 50          , 0           , 0
-0.0133153154, -0.0051931534, -9.796407   , -0.00173523568, -0.000330985233, 8.14261948E-05, -0.4612377  , -0.0190103818, 0.296615869 , 0.000951503753, -0.000761957141, 3.09905457  , 1.65        , 3           , 11          , 0.008311462 , 0.008311465
-0.00468191132, 0.007363204 , -9.793014   , -0.0006668862, 0.0004620895, 9.440224E-05, -0.4602265  , -0.0192800332, 0.295402467 , 0.000944834261, -0.00075733714, 3.09905553  , 1.66        , 3           , 12          , 0.0404301174, 0
0.002676351 , 0.0114869419, -9.80507851 , -0.003846165, 0.002871585 , 9.89925538E-05, -0.4602265  , -0.0192800332, 0.295402467 , 0.0009063718, -0.000728622254, 3.09905648  , 1.67        , 3           , 50          , 0           , 0
-0.0186208822, -0.00414971262, -9.807755   , -0.000130616434, 0.000201098839, -0.000967734144, -0.46009168 , -0.01921262 , 0.296548456 , 0.0009050726, -0.0007266027, 3.099047    , 1.68        , 3           , 11          , 0.008311462 , 0.008311465
-0.03767732 , -0.008157983, -9.799445   , -0.0009243493, 0.00126714958, -0.00069671066, -0.4612377  , -0.0190777946, 0.29641363  , 0.0008958342, -0.0007139248, 3.09904027  , 1.69        , 3           , 12          , 0.0404301174, 0
-0.02641751 , 0.0119222533, -9.781036   , 0.00114014547, 0.00200014538, 0.000119022581, -0.46009168 , -0.01921262 , 0.295402467 , 0.0008291737, -0.00075445883, 3.09904122  , 1.7         , 3           , 50          , 0           , 0
-0.0157236177, -0.02326661 , -9.793907   , -0.0004588518, 0.000419045362, -0.000966648164, -0.46009168 , -0.01921262 , 0.295402467 , 0.0008245926, -0.000750260369, 3.09903169  , 1.71        , 3           , 11          , 0.008278798 , 0.008278816
-0.0247013681, -0.0195695143, -9.796238   , -0.00128112582, -0.00198667427, 0.00113246089, -0.460024267, -0.01948227 , 0.2962788   , 0.0008117727, -0.0007701364, 3.09904313  , 1.72        , 3           , 12          , 0.0411490574, 0
-0.00134393759, -0.0126642166, -9.778717   , -0.000199931223, 0.000408319145, 0.00036300777, -0.4613051  , -0.0188755561, 0.296615869 , 0.0008097706, -0.0007660562, 3.09904647  , 1.73        , 3           , 50          , 0           , 0
0.005998241 , -0.0148346443, -9.794008   , -0.000481666357, -0.00198856532, 0.000871107855, -0.459956855, -0.01921262 , 0.2956047   , 0.000804947165, -0.0007859489, 3.099055    , 1.74        , 3           , 11          , 0.008278798 , 0.008278816
-0.0146576092, -0.008759871, -9.800525   , 0.00193816039, 0.00146806752, -0.0004128107, -0.459956855, -0.01921262 , 0.2956047   , 0.000824331946, -0.000771264837, 3.09905076  , 1.75        , 3           , 12          , 0.0411490574, 0
-0.0160453152, -0.0101296529, -9.797846   , -0.000460257346, 0.000681299367, -0.000432940462, -0.459956855, -0.0193474442, 0.2962788   , 0.000819732668, -0.000764448254, 3.099047    , 1.76        , 3           , 50          , 0           , 0
-0.0132563515, -0.010067204, -9.806844   , -0.0004517068, 0.00148509827, -0.00122262258, -0.461102873, -0.0190103818, 0.296143979 , 0.0008152249, -0.0007495873, 3.09903455  , 1.77        , 3           , 11          , 0.008278798 , 0.008278816
-0.00231228769, -0.0145173492, -9.772875   , -0.0020563656, 0.00016057321, -0.0009776503, -0.459889442, -0.01948227 , 0.29546988  , 0.000794668566, -0.0007479737, 3.099025    , 1.78        , 3           , 12          , 0.0411490574, 0
0.0009193998, -0.008188387, -9.775934   , 0.00353713124, 0.00252087368, 0.000136734627, -0.459889442, -0.01948227 , 0.29546988  , 0.000830038858, -0.000722766039, 3.099026    , 1.79        , 3           , 50          , 0           , 0
-0.003543027, -0.0287354141, -9.797878   , 0.00221836  , 0.001435969 , 0.00118249329, -0.459956855, -0.01921262 , 0.296548456 , 0.000881048036, -0.0007331596, 3.099038    , 1.8         , 3           , 11          , 0.008234132 , 0.008234156
-0.0192229263, -0.0168531425, -9.801112   , -0.0009895384, -0.00121118827, 0.00140679255, -0.46150735 , -0.0191452075, 0.296143979 , 0.0008711422, -0.0007452838, 3.09905171  , 1.81        , 3           , 12          , 0.0418980457, 0
-0.0206244159, -0.023617927, -9.801197   , -0.00282451161, 0.00226751855, -0.000165663063, -0.459822029, -0.0193474442, 0.295335054 , 0.0008428983, -0.0007226072, 3.09905028  , 1.82        , 3           , 50          , 0           , 0
-0.0146674886, -0.00383687951, -9.79550648 , -0.00149306387, 0.001470664 , -0.00122834276, -0.459822029, -0.0193474442, 0.295335054 , 0.0008279765, -0.0007078903, 3.09903836  , 1.83        , 3           , 11          , 0.008234132 , 0.008234156
-0.0302073471, -0.0146898534, -9.782253   , 0.003285213 , 0.000642268569, -0.000147262137, -0.4602265  , -0.0193474442, 0.29641363  , 0.000860829547, -0.0007014664, 3.09903646  , 1.84        , 3           , 12          , 0.0418980457, 0
-0.0120989159, -0.0165503882, -9.790182   , -0.000959539553, 0.00305491639, 0.000117250238, -0.4613051  , -0.0189429689, 0.2962788   , 0.000851233432, -0.000670918263, 3.099038    , 1.85        , 3           , 50          , 0           , 0
-0.0128840189, -0.0177724473, -9.804207   , 0.00143020984, 0.0006605626, -0.00148550281, -0.459754616, -0.0192800332, 0.295335054 , 0.0008655454, -0.000664299936, 3.099023    , 1.86        , 3           , 11          , 0.008234132 , 0.008234156
0.00691440329, -0.009446006, -9.791233   , -0.0001558507, 0.00253041042, -0.0014771634, -0.459754616, -0.0192800332, 0.295335054 , 0.0008639965, -0.000638983038, 3.09900832  , 1.87        , 3           , 12          , 0.0418980457, 0
-0.017375404, 0.000665839761, -9.791881   , 8.1648046E-05, -0.0004143276, 0.0008884784, -0.4601591  , -0.0195496827, 0.2962114   , 0.0008648073, -0.000643134059, 3.09901738  , 1.88        , 3           , 50          , 0           , 0
-0.0198089276, -0.008912431, -9.77981    , -0.0009609843, 0.00252472935, -0.000153230169, -0.4612377  , -0.0188755561, 0.2962114   , 0.0008551984, -0.000617885438, 3.09901547  , 1.89        , 3           , 11          , 0.008234132 , 0.008234156
-0.0259789154, -0.03293734 , -9.815361   , 0.002527523 , 0.00136204518, -0.000675534131, -0.459889442, -0.01921262 , 0.29546988  , 0.000924288 , -0.0007175381, 3.0990088   , 1.9         , 3           , 12          , 0.0426751822, 0
0.000901188643, -0.02569564 , -9.787855   , -0.0009521025, -0.0020838636, -0.000194273525, -0.459889442, -0.01921262 , 0.29546988  , 0.000914768432, -0.000738375, 3.099007    , 1.91        , 3           , 50          , 0           , 0
-0.01610939 , -0.0088482  , -9.789701   , -0.00253809779, 0.001106719 , 0.00115437957, -0.46009168 , -0.0192800332, 0.29641363  , 0.000889379 , -0.0007273182, 3.09901834  , 1.92        , 3           , 11          , 0.00817992  , 0.008179939
-0.005571669, -0.013246024, -9.810849   , -0.001737311, -0.0007423079, -0.00124905759, -0.4611703  , -0.0190777946, 0.2962114   , 0.000872015 , -0.000734730333, 3.099006    , 1.93        , 3           , 12          , 0.0426751822, 0
0.00251979  , -0.0106425863, -9.805303   , -0.0006546063, 0.00350360712, -0.000407716376, -0.4596198  , -0.0192800332, 0.295335054 , 0.0008654719, -0.0006996907, 3.09900212  , 1.94        , 3           , 50          , 0           , 0
-0.0174345337, -0.0168822035, -9.799285   , 0.00116883568, -0.003688301, -0.000462978845, -0.4596198  , -0.0192800332, 0.295335054 , 0.000877163664, -0.000736569637, 3.09899735  , 1.95        , 3           , 11          , 0.00817992  , 0.008179939
-0.01628921 , -0.0336915329, -9.789501   , -0.000954965653, -0.00261594355, -0.000199108923, -0.459956855, -0.019414857, 0.296481043 , 0.0008676154, -0.0007627273, 3.09899545  , 1.96        , 3           , 12          , 0.0426751822, 0
-0.009714037, -0.0236128271, -9.8101     , -0.00174721482, -0.000227264769, 0.00114658335, -0.461102873, -0.0190777946, 0.2962114   , 0.000850134529, -0.000765009841, 3.099007    , 1.97        , 3           , 50          , 0           , 0
-0.00104251131, -0.0137091177, -9.813056   , -0.000139732467, 0.000836899155, 0.000102258309, -0.4596872  , -0.01948227 , 0.29546988  , 0.000848736439, -0.0007566416, 3.09900784  , 1.98        , 3           , 11          , 0.00817992  , 0.008179939
-0.027214719, 0.000374037772, -9.801942   , 0.00146060518, 0.0008350103, -0.0006860925, -0.4596872  , -0.01948227 , 0.29546988  , 0.0008633476, -0.0007482857, 3.09900117  , 1.99        , 3           , 12          , 0.0426751822, 0
-0.00703931367, -0.0115564112, -9.79684448 , -0.00355332065, -0.00215208973, 0.00271351659, -0.459889442, -0.0195496827, 0.29641363  , 0.000929911563, -0.000852062134, 3.09902787  , 2           , 3           , 50          , 0           , 0
0.006377911 , -0.0364341661, -9.803255   , 0.000183637021, -0.002152711, 0.0003427416, -0.461372524, -0.0189429689, 0.296076566 , 0.000931745 , -0.000873592333, 3.09903121  , 2.01        , 3           , 11          , 0.008113477 , 0.008113503
0.00232522376, -0.0260834116, -9.795973   , -0.00165989948, 0.000258049869, -0.0007080946, -0.459822029, -0.0192800332, 0.295874357 , 0.0009151522, -0.0008710053, 3.099024    , 2.02        , 3           , 12          , 0.0434786454, 0
-0.0197627377, -0.0155929672, -9.790265   , 0.002862267 , -0.00108412735, -0.002024086, -0.459822029, -0.0192800332, 0.295874357 , 0.0009437927, -0.0008818277, 3.099004    , 2.03        , 3           , 50          , 0           , 0
-0.0119644776, -0.0222461037, -9.809662   , 0.00126912689, 0.00104040233, -0.000419458316, -0.460496157, -0.01948227 , 0.29641363  , 0.000956487667, -0.000871419732, 3.09899974  , 2.04        , 3           , 11          , 0.008113477 , 0.008113503
0.0178020187, -0.0103604738, -9.798336   , 0.00206292514, 0.00129508658, 0.0006498319, -0.460900635, -0.0190103818, 0.2962114   , 0.0009771113, -0.0008584751, 3.099006    , 2.05        , 3           , 12          , 0.0434786454, 0
0.00175054558, -0.0360689461, -9.790208   , -0.00112356432, 0.0013177942, -0.0004299173, -0.459822029, -0.019414857, 0.2955373   , 0.0009658793, -0.000845293, 3.09900212  , 2.06        , 3           , 50          , 0           , 0
-0.0148818791, -0.0462037958, -9.80542    , -6.380478E-05, 0.000514628948, -0.000431447435, -0.459822029, -0.019414857, 0.2955373   , 0.000965244952, -0.000840142544, 3.09899735  , 2.07        , 3           , 11          , 0.008113477 , 0.008113503
-0.00963668 , -0.0212935321, -9.816852   , -0.0008590345, -6.095131E-06, -0.00150315533, -0.4602265  , -0.0192800332, 0.296548456 , 0.000956667238, -0.0008401892, 3.09898257  , 2.08        , 3           , 12          , 0.0434786454, 0
-0.007871835, -0.0177585576, -9.8095665  , 0.000465411518, 0.00103661441, 0.0006388297, -0.4611703  , -0.0193474442, 0.296143979 , 0.000961316 , -0.0008298291, 3.09898877  , 2.09        , 3           , 50          , 0           , 0
0.0009933505, -0.0143928342, -9.789096   , 0.00194753555, 0.00157857337, 0.0006507043, -0.4596872  , -0.0193474442, 0.2955373   , 0.00119333994, -0.0007909743, 3.09899545  , 2.1         , 3           , 11          , 0.008037548 , 0.008037567
-0.0180012491, -0.034931697, -9.800828   , 0.00355207664, 0.0005257755, -0.00200683274, -0.459956855, -0.01948227 , 0.296615869 , 0.00122887653, -0.000785692246, 3.09897542  , 2.11        , 3           , 12          , 0.0443066955, 0
-0.018166   , -0.00190701347, -9.806372   , -0.004441073, 0.00107487175, 0.0008771761, -0.459956855, -0.01948227 , 0.296615869 , 0.00118445884, -0.0007749541, 3.098984    , 2.12        , 3           , 50          , 0           , 0
-0.0327126719, -0.0171602312, -9.806703   , -0.000440938835, 0.001069203 , -0.0009608781, -0.4611703  , -0.01921262 , 0.296076566 , 0.00118005683, -0.0007642507, 3.09897447  , 2.13        , 3           , 11          , 0.008037548 , 0.008037567
-0.0178543832, -0.0181931034, -9.803821   , -0.00151493656, 0.000796850363, 0.0006248516, -0.459822029, -0.0193474442, 0.295739532 , 0.00116490282, -0.000756289635, 3.09898114  , 2.14        , 3           , 12          , 0.0443066955, 0
-0.0175057668, -0.0447563827, -9.813569   , -0.000449489424, 0.0002654042, -0.000171195963, -0.4601591  , -0.0191452075, 0.296683282 , 0.00116040907, -0.0007536335, 3.09897923  , 2.15        , 3           , 50          , 0           , 0
0.005949529 , -0.0171253812, -9.790419   , -0.00337133138, 0.00134154561, 8.838168E-05, -0.4601591  , -0.0191452075, 0.296683282 , 0.00112669508, -0.00074021914, 3.09898019  , 2.16        , 3           , 11          , 0.008037548 , 0.008037567
0.00618333  , 0.003287375 , -9.800149   , 0.00166427752, -0.00293338043, -0.0007200525, -0.46103546 , -0.0192800332, 0.296009183 , 0.00114334328, -0.0007695447, 3.09897256  , 2.17        , 3           , 12          , 0.0443066955, 0
-0.01311705 , 0.012493562 , -9.80435848 , -0.00100291264, -0.002137791, 0.00139805384, -0.459956855, -0.0192800332, 0.295739532 , 0.00113330327, -0.000790938444, 3.09898686  , 2.18        , 3           , 50          , 0           , 0
-0.0105327927, 0.008316025 , -9.793978   , 0.00166145328, -0.00267301919, 7.930042E-05, -0.460361332, -0.01921262 , 0.296615869 , 0.00114991714, -0.000817669556, 3.09898782  , 2.19        , 3           , 11          , 0.008037548 , 0.008037567
-0.0160422325, -0.0137140872, -9.801043   , 0.00139808352, 0.000503631542, 0.000638192 , -0.460361332, -0.01921262 , 0.296615869 , 0.00114656379, -0.000832351448, 3.09899354  , 2.2         , 3           , 12          , 0.0451576859, 0
-0.0258011222, -0.03769739 , -9.78875351 , 6.232785E-05, 0.000238219174, 0.00142555591, -0.46103546 , -0.0190777946, 0.296076566 , 0.00114717521, -0.0008299856, 3.09900784  , 2.21        , 3           , 50          , 0           , 0
-0.0117754154, -0.0305824373, -9.787157   , -0.0009960914, -0.000541604648, -0.0004469357, -0.4596198  , -0.01921262 , 0.295874357 , 0.00113721809, -0.0008353966, 3.09900355  , 2.22        , 3           , 11          , 0.007954444 , 0.00795446
-0.00174293655, -0.016196521, -9.78734    , -0.00233330484, -0.001601351, -0.000198115071, -0.460361332, -0.01921262 , 0.29688552  , 0.0011138866, -0.0008514079, 3.09900165  , 2.23        , 3           , 12          , 0.0451576859, 0
-0.00852192752, -0.008536389, -9.780119   , -0.0009918227, -0.0002717787, -0.000975808071, -0.460361332, -0.01921262 , 0.29688552  , 0.00110397674, -0.000854114944, 3.09899163  , 2.24        , 3           , 50          , 0           , 0
-0.0116474479, -0.02283144 , -9.795208   , 5.939939E-05, -0.00161459565, 8.0406644E-05, -0.461102873, -0.0190103818, 0.296143979 , 0.00110457011, -0.0008702617, 3.09899259  , 2.25        , 3           , 11          , 0.007954444 , 0.00795446
-0.0223790482, -0.01996773 , -9.803894   , -0.000461174757, 0.000516246655, 9.688667E-05, -0.459552377, -0.01921262 , 0.295739532 , 0.0010999575, -0.0008651003, 3.09899354  , 2.26        , 3           , 12          , 0.0451576859, 0
-0.02020535 , -0.0178234261, -9.793004   , 0.00140518951, 0.000777243346, -0.0004219706, -0.460496157, -0.0192800332, 0.2967507   , 0.00111401291, -0.0008573232, 3.09898973  , 2.27        , 3           , 50          , 0           , 0
0.0244357046, -0.0109904073, -9.783807   , -0.000724429556, -0.00106358808, -0.002044211, -0.460496157, -0.0192800332, 0.2967507   , 0.00110678631, -0.000867936353, 3.09896874  , 2.28        , 3           , 11          , 0.007954444 , 0.00795446
0.0101234131, -0.0183865782, -9.803932   , -0.00364771625, -0.000517633744, -0.00205511367, -0.460968047, -0.0188755561, 0.296076566 , 0.00107032689, -0.0008730906, 3.09894872  , 2.29        , 3           , 12          , 0.0451576859, 0
-0.029490225, -7.79703259E-05, -9.800167   , -0.0006740452, 0.00054289226, 0.00142360711, -0.4596872  , -0.0192800332, 0.295874357 , 0.00115633325, -0.000814000261, 3.09896255  , 2.3         , 3           , 50          , 0           , 0
-0.03275853 , 0.00162848085, -9.786638   , 0.00117951271, -5.58873762E-06, 0.00249136682, -0.460428745, -0.0192800332, 0.297020346 , 0.00116810808, -0.0008140851, 3.09898782  , 2.31        , 3           , 11          , 0.007866823 , 0.007866839
-0.015500294, -0.00376117788, -9.803195   , 0.000680229859, 0.00241779536, -0.00120876613, -0.460428745, -0.0192800332, 0.297020346 , 0.00117492  , -0.000789893, 3.09897542  , 2.32        , 3           , 12          , 0.0460300446, 0
-0.0248470064, -0.0246474817, -9.784095   , 0.004129935 , 0.00318248128, 0.0012078922, -0.460968047, -0.0190777946, 0.2962114   , 0.00121621  , -0.000758082548, 3.09898782  , 2.33        , 3           , 50          , 0           , 0
-0.0165795311, -0.0034826342, -9.783329   , -0.00145210885, 0.0029505007, 0.00011284864, -0.4596872  , -0.0195496827, 0.295874357 , 0.00120168808, -0.000728579, 3.09898877  , 2.34        , 3           , 11          , 0.007866823 , 0.007866839
-0.00207629614, 0.002758516 , -9.785348   , -0.00120042439, 2.46928321E-05, -0.000177960261, -0.4607658  , -0.0190777946, 0.2967507   , 0.001189685 , -0.0007283299, 3.09898686  , 2.35        , 3           , 12          , 0.0460300446, 0
0.00689585134, -0.006325433, -9.786685   , -0.00172390125, 0.000831014244, -0.0009705038, -0.4607658  , -0.0190777946, 0.2967507   , 0.00117245317, -0.0007200083, 3.09897733  , 2.36        , 3           , 50          , 0           , 0
0.000892667042, -0.005075967, -9.770483   , -0.00013780134, -0.00024639233, -0.000174654968, -0.461102873, -0.019414857, 0.295874357 , 0.00117107644, -0.000722470169, 3.09897542  , 2.37        , 3           , 11          , 0.007866823 , 0.007866839
-0.03920465 , -0.0114606861, -9.782783   , 0.00197463832, -0.00159804046, 0.001418573 , -0.459956855, -0.0193474442, 0.295874357 , 0.00119081268, -0.0007384673, 3.09898973  , 2.38        , 3           , 12          , 0.0460300446, 0
-0.028703548, -0.007823104, -9.793459   , 0.000139625889, 0.00108822517, -0.0009580709, -0.46056357 , -0.0193474442, 0.2968181   , 0.00119221583, -0.0007275738, 3.09898019  , 2.39        , 3           , 50          , 0           , 0
-0.032479655, -0.0146902334, -9.780474   , -0.00149838673, -0.00111076224, -0.00072025886, -0.46056357 , -0.0193474442, 0.2968181   , 0.00113074575, -0.000860838743, 3.098973    , 2.4         , 3           , 11          , 0.00777604571, 0.0077760634
-0.01656546 , -0.004365489, -9.785597   , -0.002292172, -0.00110129942, -0.00152148632, -0.46103546 , -0.0190103818, 0.295874357 , 0.00110783731, -0.0008718347, 3.09895778  , 2.41        , 3           , 12          , 0.04692231  , 0
-0.00641232543, -0.00107029825, -9.808026   , -0.00289172749, -0.000307440263, -0.000521283364, -0.4596872  , -0.0192800332, 0.2962114   , 0.00107892451, -0.000874903344, 3.09895253  , 2.42        , 3           , 50          , 0           , 0
-0.007511178, -0.01964573 , -9.800998   , -0.00129380077, 0.00114016654, 0.0006295899, -0.460630983, -0.0192800332, 0.297020346 , 0.00106598123, -0.000863508438, 3.09895873  , 2.43        , 3           , 11          , 0.00777604571, 0.0077760634
-0.0217311084, -0.00766697153, -9.815959   , 0.00189268868, 0.001117459 , 0.00170933909, -0.460630983, -0.0192800332, 0.297020346 , 0.00108489336, -0.0008523522, 3.098976    , 2.44        , 3           , 12          , 0.04692231  , 0
-0.0212306958, -0.00358516537, -9.8181715  , 0.00235600979, -0.000406433, 0.0005689496, -0.461102873, -0.0191452075, 0.296143979 , 0.00110844884, -0.000856422761, 3.09898162  , 2.45        , 3           , 50          , 0           , 0
-0.02806295 , 0.0183719229, -9.793641   , 0.00141211331, -0.00206997385, 0.00127935549, -0.4596872  , -0.0193474442, 0.296009183 , 0.00112255884, -0.0008771367, 3.09899449  , 2.46        , 3           , 11          , 0.00777604571, 0.0077760634
-0.0241257939, -0.0100315176, -9.802461   , 0.00115142926, -0.0018635036, 0.000482802774, -0.460630983, -0.0192800332, 0.29688552  , 0.00113406882, -0.000895777252, 3.09899926  , 2.47        , 3           , 12          , 0.04692231  , 0
0.00159588642, 0.000104857616, -9.794365   , 0.00115997  , -0.00125781493, -0.0005079265, -0.460630983, -0.0192800332, 0.29688552  , 0.00114567322, -0.0009083496, 3.098994    , 2.48        , 3           , 50          , 0           , 0
-0.007646617, -0.0175385159, -9.784264   , -0.000825846335, 8.468412E-05, -0.0009050361, -0.4607658  , -0.019414857, 0.295874357 , 0.001137423 , -0.0009074923, 3.098985    , 2.49        , 3           , 11          , 0.00777604571, 0.0077760634
-0.009346947, -0.00621072063, -9.786882   , -0.000942772138, -0.0007694354, 1.71913944E-05, -0.459754616, -0.0192800332, 0.295874357 , 0.00105960108, -0.0009977584, 3.098985    , 2.5         , 3           , 12          , 0.0478330851, 0
-0.0245234519, 0.00213286653, -9.798729   , -0.000745035068, -0.0007727476, 0.00035032077, -0.4607658  , -0.0193474442, 0.2967507   , 0.00105214724, -0.00100548961, 3.09898877  , 2.51        , 3           , 50          , 0           , 0
-0.0125099067, -0.0263727829, -9.802482   , 0.00126044638, 0.0011465823, 0.0003785796, -0.4607658  , -0.0193474442, 0.2967507   , 0.001064748 , -0.0009940278, 3.09899259  , 2.52        , 3           , 11          , 0.007681092 , 0.00768111553
-0.0155569073, -0.03476429 , -9.771434   , -0.00165824639, 0.0013685053, -0.0008307481, -0.460833222, -0.0190103818, 0.296009183 , 0.00104817364, -0.000980334, 3.098984    , 2.53        , 3           , 12          , 0.0478330851, 0
-0.00950770453, -0.0323803872, -9.789857   , -0.00145840773, 0.000839738466, -0.001432212, -0.4596872  , -0.0195496827, 0.29594177  , 0.00103360345, -0.000971921661, 3.0989697   , 2.54        , 3           , 50          , 0           , 0
-0.008331096, -0.0137274712, -9.805466   , -0.00281024235, -0.00189032964, -0.000135921553, -0.460630983, -0.0190777946, 0.297087759 , 0.00100550218, -0.0009908236, 3.09896874  , 2.55        , 3           , 11          , 0.007681092 , 0.00768111553
0.00255274773, -0.00253783725, -9.802511   , -0.00123307761, -0.004366339, 0.0009128794, -0.460630983, -0.0190777946, 0.297087759 , 0.0009931624, -0.00103449624, 3.09897733  , 2.56        , 3           , 12          , 0.0478330851, 0
-0.00986181 , -0.007167885, -9.780575   , 0.00231553381, -0.0009174332, -3.29021532E-05, -0.460900635, -0.0190103818, 0.295739532 , 0.0010163181, -0.00104367023, 3.09897733  , 2.57        , 3           , 50          , 0           , 0
-0.0222965963, -0.0140558463, -9.808351   , 6.372352E-05, 0.0008225478, -2.93484318E-05, -0.459754616, -0.0192800332, 0.295806944 , 0.00101695571, -0.00103544455, 3.09897733  , 2.58        , 3           , 11          , 0.007681092 , 0.00768111553
-0.00125412643, -0.0206465963, -9.795058   , 0.00178419962, -0.00124414766, -0.0005036646, -0.460833222, -0.0191452075, 0.29688552  , 0.00103480311, -0.00104788074, 3.098972    , 2.59        , 3           , 12          , 0.0478330851, 0
-0.0119589288, -0.0352452919, -9.820633   , 0.0007481636, -0.001773471, -0.000713479356, -0.460833222, -0.0191452075, 0.29688552  , 0.0010937074, -0.00107199838, 3.098965    , 2.6         , 3           , 50          , 0           , 0
-0.0159270838, -0.0261556022, -9.823753   , 0.0006756737, -0.0009227232, 0.00128635857, -0.4606984  , -0.0193474442, 0.295874357 , 0.00110045029, -0.00108123966, 3.09897733  , 2.61        , 3           , 11          , 0.007584443 , 0.007584458
-0.0149622727, -0.0265526157, -9.78083    , 0.0004825601, -0.0006491119, 0.0003579454, -0.4596872  , -0.019414857, 0.296076566 , 0.00110527186, -0.00108773494, 3.09898114  , 2.62        , 3           , 12          , 0.048761066 , 0
-0.027481379, -0.0241073966, -9.791801   , 0.000555102248, -0.000443271769, -0.0005696414, -0.46103546 , -0.01921262 , 0.2968181   , 0.00111082918, -0.0010921614, 3.09897542  , 2.63        , 3           , 50          , 0           , 0
-0.00217506476, -0.0175196454, -9.790522   , 0.00380948745, -0.0009926957, -0.000291305128, -0.46103546 , -0.01921262 , 0.2968181   , 0.00114892726, -0.001102085, 3.09897256  , 2.64        , 3           , 11          , 0.007584443 , 0.007584458
0.008528797 , -0.0208594445, -9.779131   , 0.00307189161, -0.001591603, 0.000230610647, -0.4607658  , -0.0190777946, 0.295806944 , 0.00117964356, -0.00111800374, 3.098975    , 2.65        , 3           , 12          , 0.048761066 , 0
0.004705269 , -0.0102803092, -9.79714    , -0.002315245, -0.00169860839, 0.000134018 , -0.4596872  , -0.019414857, 0.296009183 , 0.00115648971, -0.00113499141, 3.09897637  , 2.66        , 3           , 50          , 0           , 0
-0.0291232876, -0.005097948, -9.794792   , -0.00291661359, -0.00169955625, 0.000662089 , -0.460900635, -0.0190103818, 0.296683282 , 0.00112731615, -0.00115199469, 3.098983    , 2.67        , 3           , 11          , 0.007584443 , 0.007584458
-0.0278055463, -0.0015557016, -9.787965   , -0.00256803 , 0.0004993758, -0.000113111892, -0.460900635, -0.0190103818, 0.296683282 , 0.00110163714, -0.00114699954, 3.09898162  , 2.68        , 3           , 12          , 0.048761066 , 0
-0.00233325362, 0.006094359 , -9.80429    , -0.000572586, 0.000226242264, -0.000436855335, -0.460833222, -0.01921262 , 0.295672119 , 0.00109591614, -0.00114473235, 3.09897733  , 2.69        , 3           , 50          , 0           , 0
-0.0179266464, -0.0169197954, -9.794773   , 0.000293914054, 0.000880310137, 0.0001715415, -0.4596872  , -0.0192800332, 0.296076566 , 0.00110165775, -0.001140711, 3.09897923  , 2.7         , 3           , 11          , 0.00748760765, 0.00748761976
-0.0115784444, -0.010206379, -9.792822   , -0.00322365714, 0.00123667123, -0.000840562745, -0.460968047, -0.0190777946, 0.2967507   , 0.00106943049, -0.00112833513, 3.09897065  , 2.71        , 3           , 12          , 0.04970502  , 0
0.00693116523, -0.0116714947, -9.794869   , -0.00184095593, 0.0004191517, 0.000952799746, -0.460968047, -0.0190777946, 0.2967507   , 0.00105101021, -0.00112415373, 3.09898019  , 2.72        , 3           , 50          , 0           , 0
0.006684637 , -0.015504715, -9.770517   , 0.001015388 , -0.00184391614, -0.000712651759, -0.4607658  , -0.0193474442, 0.2955373   , 0.00106117246, -0.0011425853, 3.098973    , 2.73        , 3           , 11          , 0.00748760765, 0.00748761976
0.00584234856, -0.0127478233, -9.775017   , 0.0002802617, -0.00270365761, -0.000923677639, -0.459552377, -0.01921262 , 0.296143979 , 0.00106398563, -0.001169612, 3.098964    , 2.74        , 3           , 12          , 0.04970502  , 0
-0.0117870849, -0.0247643534, -9.781226   , 0.00160357857, -0.00298310281, 7.72274143E-05, -0.46103546 , -0.0191452075, 0.2968181   , 0.00108002056, -0.00119944371, 3.09896445  , 2.75        , 3           , 50          , 0           , 0
-0.0124282409, -0.0159773063, -9.80328    , 1.64476314E-05, -0.00124674838, 0.00015076925, -0.46103546 , -0.0191452075, 0.2968181   , 0.00108018343, -0.00121191307, 3.098966    , 2.76        , 3           , 11          , 0.00748760765, 0.00748761976
-0.009848969, -0.0197113547, -9.791992   , 0.00188534986, 0.0001401858, 0.000306299829, -0.460833222, -0.01921262 , 0.2955373   , 0.00109903328, -0.00121051446, 3.09896874  , 2.77        , 3           , 12          , 0.04970502  , 0
-0.0182635374, -0.0105245635, -9.802394   , 0.000351430819, -0.00157519616, -0.0006473995, -0.460024267, -0.01921262 , 0.296143979 , 0.00110255543, -0.00122625916, 3.09896255  , 2.78        , 3           , 50          , 0           , 0
-0.006568229, 0.0010165181, -9.789034   , -0.0008334585, 0.0007578563, -0.0005662719, -0.46103546 , -0.0190777946, 0.2967507   , 0.00109422766, -0.00121867436, 3.09895682  , 2.79        , 3           , 11          , 0.00748760765, 0.00748761976
-0.002159536, 0.00133023411, -9.777233   , -0.000758693, 0.00157019461, 0.0005702955, -0.46103546 , -0.0190777946, 0.2967507   , 0.00110514765, -0.00116115436, 3.09896255  , 2.8         , 3           , 12          , 0.0506638139, 0
-0.0181606729, 0.00975769  , -9.797672   , 0.00189712562, 0.000297204446, 0.000108240056, -0.4606984  , -0.0193474442, 0.295739532 , 0.00112411764, -0.00115818344, 3.098964    , 2.81        , 3           , 50          , 0           , 0
-0.008772874, -0.0020554997, -9.797223   , 0.00195648731, -0.000703127, 0.000431587774, -0.4596872  , -0.0191452075, 0.296009183 , 0.00114367763, -0.00116521958, 3.09896779  , 2.82        , 3           , 11          , 0.00739052659, 0.007390527
-0.002949359, -0.005726224, -9.7953825  , 8.688569E-05, -0.00189289777, 0.0006099267, -0.4612377  , -0.0190777946, 0.2967507   , 0.00114453933, -0.00118415558, 3.098974    , 2.83        , 3           , 12          , 0.0506638139, 0
-0.00142918155, 0.00115684606, -9.808394   , 0.002954416 , -0.00024512643, 0.0008396515, -0.4612377  , -0.0190777946, 0.2967507   , 0.00117407355, -0.00118661637, 3.098982    , 2.84        , 3           , 50          , 0           , 0
-0.0155358315, -0.006487228, -9.801416   , 0.00250603561, 0.00222315639, 0.000128987449, -0.460900635, -0.0192800332, 0.295806944 , 0.00119913241, -0.0011643864, 3.098984    , 2.85        , 3           , 11          , 0.00739052659, 0.007390527
-0.0003020931, -0.0004237406, -9.784455   , 0.0005798996, 0.001839393 , -0.0007483584, -0.46009168 , -0.01921262 , 0.296143979 , 0.00120494  , -0.00114598346, 3.09897637  , 2.86        , 3           , 12          , 0.0506638139, 0
-0.009930879, -0.00544295646, -9.77152252 , -0.00168729085, 0.0009175545, -0.000569747761, -0.4611703  , -0.0191452075, 0.296952933 , 0.00118807366, -0.001136801, 3.09897065  , 2.87        , 3           , 50          , 0           , 0
-0.0214038659, -0.00106711127, -9.796916   , 0.000101159458, -9.09754162E-05, -0.000237100292, -0.4611703  , -0.0191452075, 0.296952933 , 0.001189088 , -0.001137708, 3.09896827  , 2.88        , 3           , 11          , 0.00739052659, 0.007390527
-0.01746379 , -0.0227410626, -9.800699   , 0.00169545494, -0.000365056447, -0.00016452228, -0.460630983, -0.0193474442, 0.2955373   , 0.00120604422, -0.00114135665, 3.09896684  , 2.89        , 3           , 12          , 0.0506638139, 0
-0.002939092, -0.0128910141, -9.80223    , -0.000262959977, -0.0005501303, -0.000774365442, -0.4601591  , -0.0193474442, 0.296076566 , 0.00114218961, -0.00114483456, 3.09895921  , 2.9         , 3           , 50          , 0           , 0
-0.011785781, -0.005027335, -9.815811   , -0.00158695364, 0.0003887358, -0.000972291, -0.4611703  , -0.0193474442, 0.296683282 , 0.00112633139, -0.001140936, 3.09894919  , 2.91        , 3           , 11          , 0.007294364 , 0.007294361
-0.0055587776, -0.007403474, -9.807628   , -0.001781414, 0.00211326266, -0.000160713971, -0.4611703  , -0.0193474442, 0.296683282 , 0.001108519 , -0.00111980154, 3.09894776  , 2.92        , 3           , 12          , 0.0516363569, 0
-0.03102256 , -0.00293719955, -9.782598   , -0.003970723, 0.00180058344, -0.00150376535, -0.460496157, -0.01921262 , 0.295402467 , 0.00106882839, -0.0011017794, 3.0989325   , 2.93        , 3           , 50          , 0           , 0
-0.02076382 , -0.01747874 , -9.78081    , -0.00112785585, -0.0004804677, -0.00064558856, -0.459754616, -0.019414857, 0.296143979 , 0.001057557 , -0.00110657734, 3.09892583  , 2.94        , 3           , 11          , 0.007294364 , 0.007294361
-0.0143748187, -0.0147605883, -9.786577   , 0.000671338057, 0.0006383758, -0.000160776937, -0.4612377  , -0.0190777946, 0.2967507   , 0.001064272 , -0.00110019173, 3.09892488  , 2.95        , 3           , 12          , 0.0516363569, 0
-0.0164450388, -0.0235283244, -9.814247   , -0.000118103264, 0.00243650982, 5.04840173E-05, -0.4612377  , -0.0190777946, 0.2967507   , 0.0010630904, -0.00107582717, 3.09892488  , 2.96        , 3           , 50          , 0           , 0
-0.011937419, -0.0132503649, -9.805505   , 0.00112795678, -0.000168103681, 0.0006978201, -0.460630983, -0.0193474442, 0.295402467 , 0.00107436243, -0.00107751566, 3.098932    , 2.97        , 3           , 11          , 0.007294364 , 0.007294361
0.002944069 , 0.00278056227, -9.791611   , 7.022716E-05, -0.0013432015, -0.001709588, -0.459552377, -0.0193474442, 0.29641363  , 0.00107508327, -0.00109092938, 3.09891534  , 2.98        , 3           , 12          , 0.0516363569, 0
0.00456916  , 0.000346567482, -9.773545   , -0.000259071967, -0.00080907176, -0.00177295227, -0.46150735 , -0.019414857, 0.296548456 , 0.00107251189, -0.00109900115, 3.09889722  , 2.99        , 3           , 50          , 0           , 0
-0.0247862972, -0.0160666462, -9.784007   , -0.0016049369, -0.000395150768, -0.00131158961, -0.46150735 , -0.019414857, 0.296548456 , 0.00102580863, -0.00107940624, 3.09888387  , 3           , 3           , 11          , 0.00719947834, 0.00719947275
-0.007441394, -0.0115042832, -9.802271   , -0.001469711, 0.00145608687, 0.000167097562, -0.460428745, -0.0193474442, 0.295402467 , 0.00101110968, -0.00106484687, 3.09888577  , 3.01        , 3           , 12          , 0.05262165  , 0
-0.0126659628, -0.0467080437, -9.80133152 , -0.00166532013, 0.00146223872, -0.0005644993, -0.46009168 , -0.0192800332, 0.296143979 , 0.0009944625, -0.00105021894, 3.09888     , 3.02        , 3           , 50          , 0           , 0
-0.00435096025, -0.0389534272, -9.76637    , -0.00119231944, 0.00206430047, -0.001353491, -0.46150735 , -0.0189429689, 0.2968181   , 0.0009825533, -0.00102956279, 3.0988667   , 3.03        , 3           , 11          , 0.00719947834, 0.00719947275
0.0006442256, 0.0103762   , -9.780722   , -0.00201175315, -0.0002715967, 0.000281343528, -0.460361332, -0.0190103818, 0.295402467 , 0.0009624329, -0.00103228143, 3.09886956  , 3.04        , 3           , 12          , 0.05262165  , 0
-0.007909797, 0.007316166 , -9.785374   , -0.001949922, -0.00153276231, -0.000128250351, -0.460361332, -0.0190103818, 0.295402467 , 0.000942935061, -0.00104760786, 3.09886861  , 3.05        , 3           , 50          , 0           , 0
-0.00424321741, -0.000724339858, -9.79805851 , -0.002031444, -0.00406172033, 0.000114068964, -0.459889442, -0.01921262 , 0.2962114   , 0.0009226194, -0.0010882261, 3.09886956  , 3.06        , 3           , 11          , 0.00719947834, 0.00719947275
-0.0159351137, -0.00374168 , -9.805008   , -0.000493256666, -0.0020765122, 0.000538896 , -0.4611703  , -0.0189429689, 0.296481043 , 0.0009176809, -0.00110899622, 3.09887481  , 3.07        , 3           , 12          , 0.05262165  , 0
-0.0179276522, -0.0205083117, -9.79752    , -0.000354529766, -0.00114505622, 0.000415250775, -0.460428745, -0.0192800332, 0.295402467 , 0.000914130942, -0.00112045056, 3.098879    , 3.08        , 3           , 50          , 0           , 0
-0.007249456, -0.009070786, -9.821669   , -0.000880853448, -0.000540631, -4.704974E-05, -0.460428745, -0.0192800332, 0.295402467 , 0.0009053229, -0.00112585642, 3.09887815  , 3.09        , 3           , 11          , 0.00719947834, 0.00719947275
0.008293599 , -0.0201925654, -9.802617   , 0.000384914951, -0.00133977481, 0.00021811841, -0.459889442, -0.0193474442, 0.2962114   , 0.000925395638, -0.00112519215, 3.09888053  , 3.1         , 3           , 12          , 0.0536187477, 0
-0.004375506, -0.0165515356, -9.79595852 , 5.200744E-05, -0.00206507579, -0.0004544313, -0.4613051  , -0.0190103818, 0.2967507   , 0.0009259209, -0.00114583853, 3.09887624  , 3.11        , 3           , 50          , 0           , 0
-0.0211175326, -0.0272440389, -9.799434   , 0.00160159578, 0.000991864 , -0.001082514, -0.460361332, -0.0191452075, 0.2955373   , 0.0009419493, -0.00113590981, 3.09886479  , 3.12        , 3           , 11          , 0.007106111 , 0.00710612629
-0.0147802047, -0.01919614 , -9.79521    , 0.000397070718, 0.000657418 , -2.93940047E-05, -0.460361332, -0.0191452075, 0.2955373   , 0.0009459204, -0.00112933549, 3.09886479  , 3.13        , 3           , 12          , 0.0536187477, 0
0.000706519932, -0.0227461625, -9.814029   , -0.00140857208, -0.00179067883, -0.000659116369, -0.459822029, -0.01921262 , 0.29641363  , 0.000931842136, -0.001147236, 3.098858    , 3.14        , 3           , 50          , 0           , 0
-0.0100130886, -0.013592368, -9.819037   , -0.000217562527, -0.002266657, 7.20355047E-06, -0.4611703  , -0.0190103818, 0.296615869 , 0.0009296664, -0.00116990262, 3.098858    , 3.15        , 3           , 11          , 0.007106111 , 0.00710612629
-0.007626547, -0.015276324, -9.784694   , 0.000127477833, -6.42078248E-06, -3.68689361E-05, -0.460428745, -0.0191452075, 0.295267642 , 0.0009309416, -0.00116996653, 3.098858    , 3.16        , 3           , 12          , 0.0536187477, 0
-0.0009536743, -0.0293203518, -9.785205   , -0.0007495506, -0.00147169363, 0.0008085304, -0.460428745, -0.0191452075, 0.295267642 , 0.0009234366, -0.00118469086, 3.09886575  , 3.17        , 3           , 50          , 0           , 0
0.005976053 , -0.0283099245, -9.802275   , -0.002411394, -0.0008024964, 0.00133692264, -0.459822029, -0.019414857, 0.29641363  , 0.000899306848, -0.00119272794, 3.098879    , 3.18        , 3           , 11          , 0.007106111 , 0.00710612629
0.000217041 , -0.00977643 , -9.799449   , -0.0040622633, -0.0005148492, -0.0005955286, -0.4611703  , -0.0190103818, 0.296548456 , 0.0008586914, -0.00119787129, 3.09887338  , 3.19        , 3           , 12          , 0.0536187477, 0
-0.0172718074, -0.00192154571, -9.805458   , 0.0007682257, -0.00156830647, 0.0005494094, -0.4602265  , -0.0191452075, 0.295335054 , 0.0009806536, -0.00112580741, 3.09887862  , 3.2         , 3           , 50          , 0           , 0
-0.0236270726, -0.00101855025, -9.800557   , 0.00130811718, -0.000305719615, 0.000364521082, -0.4602265  , -0.0191452075, 0.295335054 , 0.0009937305, -0.00112886832, 3.098882    , 3.21        , 3           , 11          , 0.00701419543, 0.007014224
0.00436518155, -0.0267630443, -9.772465   , 0.002702587 , 0.000213113031, 0.00130662555, -0.459889442, -0.0193474442, 0.2962788   , 0.00102074153, -0.00112675026, 3.09889531  , 3.22        , 3           , 12          , 0.0546267778, 0
-0.008514637, -0.00808068551, -9.780567   , 0.00269611552, -0.0015783977, 0.00069260475, -0.461102873, -0.0191452075, 0.296615869 , 0.001047695 , -0.00114254141, 3.098902    , 3.23        , 3           , 50          , 0           , 0
-0.0136388661, -0.0319734961, -9.781772   , 0.000701761339, -0.0007755503, 0.00135323987, -0.459956855, -0.01921262 , 0.295402467 , 0.00105469709, -0.00115031109, 3.09891582  , 3.24        , 3           , 11          , 0.00701419543, 0.007014224
0.004100265 , -0.01536325 , -9.784099   , 0.0007185405, 0.00149194163, 0.0005104439, -0.459956855, -0.01921262 , 0.295402467 , 0.00106187677, -0.00113539712, 3.098921    , 3.25        , 3           , 12          , 0.0546267778, 0
0.003218742 , -0.0175782759, -9.78819752 , 0.00190059934, -0.000712823239, 0.00109463779, -0.4601591  , -0.01921262 , 0.296346217 , 0.00108087016, -0.0011425371, 3.09893155  , 3.26        , 3           , 50          , 0           , 0
0.009824682 , 0.00374205061, -9.803262   , 0.00124911335, 0.000761121744, 4.177789E-05, -0.4611703  , -0.0188755561, 0.296683282 , 0.0010933606, -0.00113492634, 3.0989325   , 3.27        , 3           , 11          , 0.00701419543, 0.007014224
0.006133329 , 0.003685981 , -9.794273   , 0.00231890078, 0.00195231009, 0.00019120294, -0.4601591  , -0.0190777946, 0.29546988  , 0.00111654762, -0.00111540535, 3.09893441  , 3.28        , 3           , 12          , 0.0546267778, 0
-0.03082456 , -0.0117086414, -9.811594   , 0.00378695736, 0.002282182 , -0.000395607232, -0.4601591  , -0.0190777946, 0.29546988  , 0.00115442148, -0.001092579, 3.09893012  , 3.29        , 3           , 50          , 0           , 0
-0.029637089, -0.0168165583, -9.797174   , 0.0005158198, 0.000591654447, -9.681272E-05, -0.459889442, -0.01921262 , 0.296346217 , 0.00115653779, -0.00103064487, 3.09892964  , 3.3         , 3           , 11          , 0.006925395 , 0.00692542
-0.0256451759, -0.0213981718, -9.793106   , 0.0007153299, 0.000590708456, -9.573962E-05, -0.4613051  , -0.0191452075, 0.296481043 , 0.00116369186, -0.00102473679, 3.09892869  , 3.31        , 3           , 12          , 0.0556449033, 0
-0.0184896123, -0.0143373869, -9.7803     , 0.000183667144, 0.000791814469, 3.603468E-05, -0.4602265  , -0.01921262 , 0.29546988  , 0.00116552808, -0.001016819, 3.09892869  , 3.32        , 3           , 50          , 0           , 0
-0.0114582069, 0.013680703 , -9.787161   , -0.00275574182, -0.00198536459, -0.000337145582, -0.4602265  , -0.01921262 , 0.29546988  , 0.00113797421, -0.00103666878, 3.09892535  , 3.33        , 3           , 11          , 0.006925395 , 0.00692542
-0.002139194, -0.00268542953, -9.782693   , 0.000175750858, -0.00152988289, -0.00084846653, -0.460024267, -0.01921262 , 0.29641363  , 0.00113974058, -0.00105195784, 3.09891677  , 3.34        , 3           , 12          , 0.0556449033, 0
-0.0209025685, 0.00256715342, -9.799583   , -0.00134735263, 0.00033491684, -0.000175656824, -0.4612377  , -0.0189429689, 0.296615869 , 0.00112626911, -0.00104860682, 3.09891534  , 3.35        , 3           , 50          , 0           , 0
-0.0253404  , 0.000430632383, -9.809598   , -0.00146857486, 0.00200208323, -0.000692551665, -0.46009168 , -0.01921262 , 0.29546988  , 0.0011115903, -0.00102857815, 3.09890819  , 3.36        , 3           , 11          , 0.006925395 , 0.00692542
-0.01597794 , -0.00692343339, -9.802781   , 0.00118654768, 0.0009922937, -0.000753722, -0.46009168 , -0.01921262 , 0.29546988  , 0.0011234635, -0.001018647, 3.09890056  , 3.37        , 3           , 12          , 0.0556449033, 0
-0.0174436737, -0.00209284015, -9.786488   , 0.000373826246, -0.00186290569, -0.0009168268, -0.459889442, -0.0192800332, 0.296548456 , 0.00112721126, -0.00103726564, 3.0988915   , 3.38        , 3           , 50          , 0           , 0
-0.0197258554, 0.00282977149, -9.779691   , -0.000164288649, -0.00305709 , -0.0009969791, -0.4611703  , -0.0189429689, 0.296481043 , 0.00112557888, -0.00106782536, 3.09888148  , 3.39        , 3           , 11          , 0.006925395 , 0.00692542
-0.00438963063, -0.034054704, -9.80833149 , 4.413377E-06, -0.00142838852, -0.000183757831, -0.459889442, -0.01921262 , 0.29546988  , 0.001045687 , -0.00114387251, 3.09888     , 3.4         , 3           , 12          , 0.0566723756, 0
0.00496038049, -0.031107083, -9.791925   , 0.00148214621, 0.000961400336, -0.000486185949, -0.459889442, -0.01921262 , 0.29546988  , 0.0010605139, -0.00113425357, 3.09887528  , 3.41        , 3           , 50          , 0           , 0
0.004025709 , -0.0149891106, -9.775513   , 0.00034401365, -0.0016186107, -0.001711242, -0.459822029, -0.0193474442, 0.296615869 , 0.00106397364, -0.00115042133, 3.098858    , 3.42        , 3           , 11          , 0.006838671 , 0.006838673
-0.00712193968, -0.00715437345, -9.784154   , -0.000383922015, -0.000487784768, -0.00124002225, -0.4612377  , -0.0190777946, 0.296481043 , 0.0010601487, -0.001155286, 3.09884572  , 3.43        , 3           , 12          , 0.0566723756, 0
-0.0137579776, -0.0258096382, -9.813786   , -0.000450025167, 0.000437518262, -0.0003685716, -0.459822029, -0.0190103818, 0.2956047   , 0.00105565262, -0.001150907, 3.098842    , 3.44        , 3           , 50          , 0           , 0
-0.0131400768, -0.0148841534, -9.82360649 , 0.00114750781, 0.001092211 , 4.4524626E-05, -0.459822029, -0.0190103818, 0.2956047   , 0.00106712733, -0.0011399854, 3.098842    , 3.45        , 3           , 11          , 0.006838671 , 0.006838673
-0.00486089662, -0.003577713, -9.781833   , 0.000892930839, 0.00289160828, -0.000272643054, -0.459822029, -0.0193474442, 0.296481043 , 0.00107605965, -0.00111106643, 3.09883952  , 3.46        , 3           , 12          , 0.0566723756, 0
0.0178239942, -0.00495731272, -9.796475   , 0.00120970327, 2.96287E-05 , -0.000230433521, -0.4612377  , -0.0191452075, 0.29641363  , 0.00108815916, -0.00111076748, 3.09883714  , 3.47        , 3           , 50          , 0           , 0
-0.02172405 , -0.037709754, -9.790511   , 0.00159907329, -0.00150388607, 2.34559484E-05, -0.459822029, -0.01921262 , 0.295806944 , 0.00110414962, -0.00112580659, 3.09883714  , 3.48        , 3           , 11          , 0.006838671 , 0.006838673
-0.0148978652, -0.0157259051, -9.779366   , 0.00187690137, 0.0007557192, 0.00011184832, -0.459822029, -0.01921262 , 0.295806944 , 0.0011229174, -0.00111825054, 3.09883857  , 3.49        , 3           , 12          , 0.0566723756, 0
0.0137700764, -0.00626718625, -9.798345   , -0.000832913269, 0.000773546635, 0.00089406094, -0.459889442, -0.019414857, 0.296481043 , 0.0011634879, -0.00108597567, 3.09884763  , 3.5         , 3           , 50          , 0           , 0
-0.000302929431, -0.0143261757, -9.795436   , 0.000238998822, 0.00190153753, 0.0005780027, -0.4613051  , -0.0190103818, 0.296548456 , 0.00116587162, -0.001066967, 3.09885335  , 3.51        , 3           , 11          , 0.006753257 , 0.006753264
-0.01719417 , -0.0283064712, -9.784941   , 0.000105217579, 0.0005804867, -0.0006302038, -0.4596872  , -0.01921262 , 0.295739532 , 0.00116693042, -0.00106115488, 3.09884667  , 3.52        , 3           , 12          , 0.0577084757, 0
0.00617280742, -0.016005978, -9.814347   , 0.000231476341, 0.000372754148, 0.000431278429, -0.4596872  , -0.01921262 , 0.295739532 , 0.00116924057, -0.00105743238, 3.09885144  , 3.53        , 3           , 50          , 0           , 0
0.00516801141, -0.02013762 , -9.806269   , -3.73971852E-05, -9.202775E-05, 0.000492028 , -0.459956855, -0.01921262 , 0.296683282 , 0.00116886152, -0.00105835823, 3.09885621  , 3.54        , 3           , 11          , 0.006753257 , 0.006753264
-0.0153525369, -0.009896476, -9.77434349 , -0.000564400747, 0.00110578176, 0.000765691162, -0.4611703  , -0.0188755561, 0.29641363  , 0.00116320921, -0.00104730949, 3.09886384  , 3.55        , 3           , 12          , 0.0577084757, 0
-0.0261667743, -0.00263074785, -9.770338   , -0.00110213831, 0.0003743282, 0.00108823739, -0.459822029, -0.01921262 , 0.295402467 , 0.00115217664, -0.00104357884, 3.09887433  , 3.56        , 3           , 50          , 0           , 0
-0.022514157, -0.00575234555, -9.777552   , 0.001767842 , 0.00136504462, 0.000182926553, -0.459822029, -0.01921262 , 0.295402467 , 0.00116985315, -0.00102993043, 3.09887624  , 3.57        , 3           , 11          , 0.006753257 , 0.006753264
-0.0211426448, -0.0147127975, -9.78666    , 0.00176146172, 0.001422563 , 0.00144534523, -0.460024267, -0.0192800332, 0.296548456 , 0.00118745293, -0.0010157217, 3.098891    , 3.58        , 3           , 12          , 0.0577084757, 0
-0.0137260854, -0.00694344 , -9.802301   , -0.000763920834, 0.0009086174, 0.0005635711, -0.4612377  , -0.0190777946, 0.29641363  , 0.001179808 , -0.00100664212, 3.09889674  , 3.59        , 3           , 50          , 0           , 0
-0.028719414, -0.00604516268, -9.790279   , 0.000496479159, 0.0005548907, 0.0010986455, -0.459754616, -0.01948227 , 0.2956047   , 0.00118825585, -0.0010283374, 3.09890771  , 3.6         , 3           , 11          , 0.006669532 , 0.006669533
-0.00574264675, -0.0138648646, -9.79233551 , -0.00122943078, 0.0003032015, 0.000223581519, -0.459754616, -0.01948227 , 0.2956047   , 0.00117595925, -0.001025308, 3.09890962  , 3.61        , 3           , 12          , 0.05875252  , 0
0.00176893  , -0.0288756154, -9.786522   , -0.00163737941, -0.000961435959, 0.0006084189, -0.46009168 , -0.0190777946, 0.296683282 , 0.00115957914, -0.00103492953, 3.09891582  , 3.62        , 3           , 50          , 0           , 0
0.008248301 , -0.0139595643, -9.792616   , -0.00249482086, -0.00074976153, -0.000523409166, -0.4612377  , -0.0189429689, 0.29641363  , 0.00113463646, -0.00104242121, 3.09891057  , 3.63        , 3           , 11          , 0.006669532 , 0.006669533
-0.0244824812, 0.0205596741, -9.788607   , -0.00182407349, 4.70981322E-05, -0.0007782243, -0.459822029, -0.0192800332, 0.295739532 , 0.00111640384, -0.00104194134, 3.098903    , 3.64        , 3           , 12          , 0.05875252  , 0
-0.0107932743, -0.02333428 , -9.790234   , 0.00130872871, 0.001032294 , -0.00108440313, -0.459822029, -0.0192800332, 0.295739532 , 0.00112950231, -0.00103160634, 3.098892    , 3.65        , 3           , 50          , 0           , 0
0.00361718424, -0.03422626 , -9.795588   , 0.0002468933, 0.002889207 , 0.000387845561, -0.4601591  , -0.0192800332, 0.296683282 , 0.00113196752, -0.00100271858, 3.09889627  , 3.66        , 3           , 11          , 0.006669532 , 0.006669533
-0.013257456, -0.017691765, -9.812794   , 0.000577259634, 0.00242253416, 0.000318991777, -0.46103546 , -0.0190777946, 0.296481043 , 0.00113773672, -0.0009784967, 3.09889913  , 3.67        , 3           , 12          , 0.05875252  , 0
-0.0186509322, -0.005524976, -9.80551052 , 0.000313663215, 0.00110637327, -0.00148763182, -0.459822029, -0.0193474442, 0.295806944 , 0.001140888 , -0.000967416156, 3.09888434  , 3.68        , 3           , 50          , 0           , 0
-0.00566417165, -0.00392100029, -9.7931385  , -0.00130591961, -0.000832358957, 0.000943472551, -0.459822029, -0.0193474442, 0.295806944 , 0.00112781953, -0.0009757503, 3.0988934   , 3.69        , 3           , 11          , 0.006669532 , 0.006669533
0.007748002 , -0.0140053164, -9.787203   , 0.0008258254, -0.001174958, 0.000752654159, -0.460428745, -0.0193474442, 0.2967507   , 0.00114679  , -0.0009908954, 3.098901    , 3.7         , 3           , 12          , 0.0598039068, 0
-0.0122063179, -0.0202449411, -9.781185   , 8.822314E-05, -0.00190593861, 0.0011405386, -0.46103546 , -0.0189429689, 0.2962788   , 0.00114766089, -0.001009968, 3.09891248  , 3.71        , 3           , 50          , 0           , 0
-0.0191529226, -0.0230659377, -9.76368    , -0.00244177645, -0.00255810982, 0.0009880797, -0.459889442, -0.0192800332, 0.295739532 , 0.001123233 , -0.00103556039, 3.09892249  , 3.72        , 3           , 11          , 0.006587858 , 0.00658787554
-0.0121870916, -0.0318851769, -9.792594   , -0.00289657945, -0.0008907864, 0.000668630237, -0.459889442, -0.0192800332, 0.295739532 , 0.00109426025, -0.00104447571, 3.09892917  , 3.73        , 3           , 12          , 0.0598039068, 0
-0.02508708 , -0.0195010677, -9.803471   , 0.002359663 , -0.00111049484, 3.096146E-05, -0.460361332, -0.01921262 , 0.29688552  , 0.00111785647, -0.00105558091, 3.09892964  , 3.74        , 3           , 50          , 0           , 0
-0.02088182 , -0.00369031332, -9.806874   , 0.00129417656, -0.0013714896, 2.28207737E-05, -0.4613051  , -0.0188755561, 0.29641363  , 0.00113079813, -0.001069296, 3.09892964  , 3.75        , 3           , 11          , 0.006587858 , 0.00658787554
-0.0158590432, 0.00126696751, -9.809474   , 0.000370280439, -0.000168948522, -0.000104129744, -0.459484965, -0.01921262 , 0.295874357 , 0.001134502 , -0.00107098417, 3.09892869  , 3.76        , 3           , 12          , 0.0598039068, 0
-0.00833475 , 0.002412673 , -9.792204   , -0.00222407165, -0.000355707627, -0.000186304009, -0.459484965, -0.01921262 , 0.295874357 , 0.0011122633, -0.00107453915, 3.09892678  , 3.77        , 3           , 50          , 0           , 0
-0.00396154076, -0.0143496282, -9.79006    , -0.002687458, -0.00015255058, -0.000386228348, -0.4601591  , -0.0192800332, 0.2968181   , 0.0010853929, -0.00107606046, 3.098923    , 3.78        , 3           , 11          , 0.006587858 , 0.00658787554
-0.00711761275, -0.031814184, -9.804276   , 0.000239752888, -0.000231041922, -0.0006367398, -0.4611703  , -0.01921262 , 0.296481043 , 0.00108779734, -0.001078364, 3.09891629  , 3.79        , 3           , 12          , 0.0598039068, 0
0.0159123372, -0.00684486143, -9.786127   , 0.000573666242, -0.00170566584, 0.000480709 , -0.459822029, -0.0191452075, 0.295739532 , 0.00113218871, -0.00109992758, 3.098921    , 3.8         , 3           , 50          , 0           , 0
0.0047122743, -0.00354674272, -9.792556   , 0.000387746521, 0.0006245496, 0.000301556953, -0.459822029, -0.0191452075, 0.295739532 , 0.00113606267, -0.00109368551, 3.098924    , 3.81        , 3           , 11          , 0.006508378 , 0.00650841743
0.007839544 , -0.008532824, -9.79302    , 0.000388433022, 0.000163238888, -0.000300375425, -0.460293919, -0.0193474442, 0.29688552  , 0.00113995036, -0.00109204976, 3.098921    , 3.82        , 3           , 12          , 0.06086205  , 0
-0.005119752, -0.00338283181, -9.803065   , -0.0022069863, -9.09766241E-05, -0.000250331534, -0.460968047, -0.0189429689, 0.29641363  , 0.00111788325, -0.00109295675, 3.09891868  , 3.83        , 3           , 50          , 0           , 0
0.005356416 , 0.00247207657, -9.809202   , 0.00352842617, 0.00313900178, 7.569118E-05, -0.459552377, -0.019414857, 0.29594177  , 0.00115316664, -0.00106156769, 3.09891915  , 3.84        , 3           , 11          , 0.006508378 , 0.00650841743
0.00572525524, 0.0005930569, -9.801537   , 0.00272072479, 0.0014130529, 0.00012209524, -0.459552377, -0.019414857, 0.29594177  , 0.00118037255, -0.00104743848, 3.098921    , 3.85        , 3           , 12          , 0.06086205  , 0
-0.009328214, -0.0196452085, -9.7996645  , 0.000324812543, 0.00109185465, 0.000106196443, -0.460293919, -0.0190103818, 0.2968181   , 0.00118361949, -0.00103652116, 3.098922    , 3.86        , 3           , 50          , 0           , 0
-0.0249954928, 0.004357461 , -9.794647   , 0.00104130839, -0.001903144, -0.000116301817, -0.460968047, -0.0189429689, 0.2962788   , 0.00119403389, -0.00105555123, 3.09892058  , 3.87        , 3           , 11          , 0.006508378 , 0.00650841743
-0.0113955848, -0.00733350031, -9.810861   , 0.00145640189, 0.000427546271, -0.0007571135, -0.4596872  , -0.0193474442, 0.295806944 , 0.00120860606, -0.00105126668, 3.098913    , 3.88        , 3           , 12          , 0.06086205  , 0
-0.00857315 , -0.0197984129, -9.783395   , 0.0006644061, 0.0007695591, -0.001555319, -0.4596872  , -0.0193474442, 0.295806944 , 0.00121526618, -0.00104355218, 3.09889722  , 3.89        , 3           , 50          , 0           , 0
-0.008720573, -0.00155493442, -9.802639   , 0.000178256028, 0.00090465293, 0.0002365023, -0.460428745, -0.019414857, 0.2968181   , 0.00118649355, -0.00100168085, 3.0989      , 3.9         , 3           , 11          , 0.00643089  , 0.00643092161
0.0247638561, 0.01758828  , -9.797521   , 0.00269079325, -0.00018332043, 0.00190070539, -0.460900635, -0.0188755561, 0.2962788   , 0.00121338246, -0.00100353663, 3.09891915  , 3.91        , 3           , 12          , 0.0619263947, 0
-0.00515126437, 0.00824515  , -9.7903     , 0.000373103947, -0.000159033167, 2.86709455E-05, -0.4596198  , -0.0193474442, 0.296009183 , 0.00121711323, -0.00100512756, 3.09891915  , 3.92        , 3           , 50          , 0           , 0
-0.03227213 , -0.007756826, -9.798019   , -0.000289392279, 0.0009700576, 0.0006994819, -0.4596198  , -0.0193474442, 0.296009183 , 0.00121421216, -0.0009954354, 3.09892631  , 3.93        , 3           , 11          , 0.00643089  , 0.00643092161
-0.0183273889, -0.00117098913, -9.787846   , -0.00154517789, 0.000524202944, -0.00123747194, -0.460496157, -0.0192800332, 0.296952933 , 0.00119877269, -0.0009901787, 3.098914    , 3.94        , 3           , 12          , 0.0619263947, 0
-0.01052667 , -0.0172388721, -9.815014   , 0.0023814158, 0.00163200928, -0.0006083918, -0.4612377  , -0.0191452075, 0.296346217 , 0.00122259289, -0.000973851362, 3.09890771  , 3.95        , 3           , 50          , 0           , 0
0.007470878 , -0.0169677269, -9.80892    , 0.002440397 , 0.00010291065, -0.0007547582, -0.4596872  , -0.01948227 , 0.29594177  , 0.001247004 , -0.000972813, 3.0989      , 3.96        , 3           , 11          , 0.00643089  , 0.00643092161
-0.0130449031, -0.0152421715, -9.78430748 , -0.000232893857, -0.0005623539, 0.00101799413, -0.460293919, -0.01921262 , 0.296952933 , 0.001244665 , -0.0009784491, 3.09891057  , 3.97        , 3           , 12          , 0.0619263947, 0
-0.0138384821, -0.0101945251, -9.7923975  , -0.002560917, -0.0015423419, 6.665114E-05, -0.460293919, -0.01921262 , 0.296952933 , 0.00121905538, -0.0009938735, 3.098911    , 3.98        , 3           , 50          , 0           , 0
0.00823697448, 0.00396668725, -9.777079   , -0.00348017 , 0.000326718728, -0.0002534889, -0.461102873, -0.0190777946, 0.2962114   , 0.00118425617, -0.000990603, 3.09890866  , 3.99        , 3           , 11          , 0.00643089  , 0.00643092161
0.00658318773, -0.0120138917, -9.80662251 , -0.0020310455, 0.000867763651, -0.000572813, -0.459754616, -0.01921262 , 0.296143979 , 0.00111439312, -0.000945832639, 3.098903    , 4           , 3           , 12          , 0.06299645  , 0
-0.00247579627, -0.00256804936, -9.795345   , -0.00368900364, 0.0012119828, -0.00111002324, -0.4607658  , -0.0190777946, 0.297155172 , 0.00107751333, -0.00093370094, 3.098892    , 4.01        , 3           , 50          , 0           , 0
0.00255185179, -0.00209029578, -9.802054   , -0.00143071893, 0.00132954924, -0.000432540284, -0.4607658  , -0.0190777946, 0.297155172 , 0.00106321042, -0.000920400664, 3.09888768  , 4.02        , 3           , 11          , 0.00635571964, 0.00635574572
0.00244035013, -0.00578893162, -9.792606   , -0.00143966335, -0.00026716385, -0.000380635232, -0.46103546 , -0.0189429689, 0.296143979 , 0.001048817 , -0.000923068263, 3.09888387  , 4.03        , 3           , 12          , 0.06299645  , 0
0.00206024945, -0.000333633274, -9.79617    , -0.000187187121, -0.00220289151, -0.0002585449, -0.459822029, -0.019414857, 0.296346217 , 0.00104694767, -0.0009450947, 3.098881    , 4.04        , 3           , 50          , 0           , 0
0.000342438 , 0.00335327  , -9.802931   , 0.00313624623, -0.00149461965, 0.000828568242, -0.460630983, -0.0190103818, 0.296952933 , 0.00107830216, -0.0009600498, 3.09888959  , 4.05        , 3           , 11          , 0.00635571964, 0.00635574572
-0.01300258 , -0.0138546675, -9.787907   , 0.0006877366, -0.000278200867, -0.000236366759, -0.460630983, -0.0190103818, 0.296952933 , 0.00108518184, -0.000962829, 3.09888721  , 4.06        , 3           , 12          , 0.06299645  , 0
-0.0216075722, -0.00171857886, -9.774791   , 0.00235534878, 0.000975239731, 0.000116115749, -0.460968047, -0.0189429689, 0.2962114   , 0.00110873429, -0.000953077863, 3.09888864  , 4.07        , 3           , 50          , 0           , 0
-0.007361797, 0.00606414862, -9.797124   , 0.00228385767, 0.0005066723, 0.000576406 , -0.4596872  , -0.0192800332, 0.2962114   , 0.00113156729, -0.000948017638, 3.09889436  , 4.08        , 3           , 11          , 0.00635571964, 0.00635574572
-0.004813738, -0.025055768, -9.804182   , 0.00135420531, 5.07226068E-05, -0.000163356526, -0.460833222, -0.01921262 , 0.297020346 , 0.001145111 , -0.000947508554, 3.09889245  , 4.09        , 3           , 12          , 0.06299645  , 0
-0.03773696 , -0.0275002718, -9.808222   , 0.001741233 , 0.000990666 , -1.99026836E-05, -0.460833222, -0.01921262 , 0.297020346 , 0.00111793831, -0.000905750843, 3.09889245  , 4.1         , 3           , 50          , 0           , 0
0.000708144158, -0.01332734 , -9.806707   , 0.002936134 , 0.000321783155, -0.000285153626, -0.461102873, -0.0191452075, 0.296143979 , 0.00114730222, -0.000902529748, 3.09888959  , 4.11        , 3           , 11          , 0.00628310442, 0.006283136
0.00191355683, -0.0273861587, -9.801412   , -0.0005295268, -0.000398162229, 0.000353710726, -0.459754616, -0.01921262 , 0.296346217 , 0.00114200381, -0.0009065154, 3.0988934   , 4.12        , 3           , 12          , 0.06407174  , 0
-0.0153389089, -0.02692357 , -9.789421   , 0.000809085439, 0.0002672566, -0.000562849, -0.460833222, -0.01921262 , 0.29688552  , 0.00115009991, -0.0009038364, 3.09888768  , 4.13        , 3           , 50          , 0           , 0
-0.022871729, -0.00744961947, -9.789318   , -0.00011519144, 0.0009410303, -0.00115951383, -0.460833222, -0.01921262 , 0.29688552  , 0.00114895811, -0.0008944127, 3.09887576  , 4.14        , 3           , 11          , 0.00628310442, 0.006283136
-0.004150564, 0.0123727284, -9.797927   , 0.00306205451, 0.000443761121, 0.00117781851, -0.460900635, -0.0190103818, 0.296076566 , 0.00117956824, -0.000889988849, 3.09888768  , 4.15        , 3           , 12          , 0.06407174  , 0
-0.0127806012, -0.0324722752, -9.777248   , 0.000336468744, 0.000259998982, 0.0007628725, -0.4596872  , -0.0192800332, 0.2962788   , 0.00118292624, -0.000887397851, 3.09889531  , 4.16        , 3           , 50          , 0           , 0
-0.0216304958, -0.0250602234, -9.790835   , 0.000200250463, -0.000139850061, 0.000957764452, -0.460900635, -0.01921262 , 0.296952933 , 0.00118492031, -0.0008888077, 3.09890485  , 4.17        , 3           , 11          , 0.00628310442, 0.006283136
0.0141879171, -0.0121333227, -9.799301   , -0.0001813109, 0.00153614965, -0.0006231416, -0.460900635, -0.01921262 , 0.296952933 , 0.00118311262, -0.0008734389, 3.09889865  , 4.18        , 3           , 12          , 0.06407174  , 0
0.0169687532, 0.00630700774, -9.792759   , -0.001042634, 0.00213883864, -0.000622351654, -0.4612377  , -0.0190103818, 0.296143979 , 0.0011726917, -0.0008520432, 3.09889245  , 4.19        , 3           , 50          , 0           , 0
0.00419488735, -0.0134751862, -9.793114   , -0.0016477647, 0.000958818069, -0.000636471435, -0.459754616, -0.019414857, 0.2962788   , 0.00115577423, -0.0008022581, 3.09888577  , 4.2         , 3           , 11          , 0.00621188432, 0.00621191645
0.0142240636, -0.00357695878, -9.796505   , 0.00120798091, 0.0009400532, 0.000109432942, -0.460900635, -0.0192800332, 0.2967507   , 0.00116785325, -0.000792858831, 3.09888721  , 4.21        , 3           , 12          , 0.0651517957, 0
-0.0051405  , 0.00287462957, -9.795774   , -0.000389877474, 0.0008792181, 0.0003658891, -0.460900635, -0.0192800332, 0.2967507   , 0.00116395147, -0.000784071, 3.09889054  , 4.22        , 3           , 50          , 0           , 0
-0.00844468 , -0.0102531556, -9.790073   , -0.0006594603, 0.000413489761, 0.000559461245, -0.461102873, -0.0188755561, 0.296009183 , 0.00115735247, -0.0007799425, 3.09889627  , 4.23        , 3           , 11          , 0.00621188432, 0.00621191645
-0.0108127873, -0.005416192, -9.773792   , -0.000659476558, 8.330602E-05, 0.000224382791, -0.459889442, -0.0192800332, 0.2962788   , 0.001150756 , -0.000779112044, 3.09889865  , 4.24        , 3           , 12          , 0.0651517957, 0
-0.0197123419, -0.0182333682, -9.797971   , -0.0003340752, -0.000389992842, 0.00108528673, -0.460900635, -0.0190777946, 0.296952933 , 0.00114740676, -0.0007830245, 3.09890962  , 4.25        , 3           , 50          , 0           , 0
0.00647689775, -0.0080838725, -9.791676   , -0.00180615007, -0.00310239382, -9.943983E-06, -0.460900635, -0.0190777946, 0.296952933 , 0.0011293455, -0.0008140483, 3.09890962  , 4.26        , 3           , 11          , 0.00621188432, 0.00621191645
0.0005073473, -0.007249323, -9.779544   , -0.0013277547, -0.0009743881, -0.000253743667, -0.46103546 , -0.0190103818, 0.29594177  , 0.00111607  , -0.000823789334, 3.09890676  , 4.27        , 3           , 12          , 0.0651517957, 0
-0.008208791, 0.002986664 , -9.805749   , -0.00198674039, -0.000566969, -0.0009842179, -0.460024267, -0.0192800332, 0.2962114   , 0.00109621056, -0.0008294481, 3.09889722  , 4.28        , 3           , 50          , 0           , 0
-0.0176930521, -0.00457915664, -9.810909   , -0.000313122116, 0.0002322594, -0.002229837, -0.46103546 , -0.0190777946, 0.297155172 , 0.00109309785, -0.000827101059, 3.09887433  , 4.29        , 3           , 11          , 0.00621188432, 0.00621191645
-0.0142179765, 0.00109107606, -9.791387   , 0.004924524 , 0.0013306333, -0.000331770629, -0.46103546 , -0.0190777946, 0.297155172 , 0.001107028 , -0.000796920562, 3.09887147  , 4.3         , 3           , 12          , 0.06623624  , 0
-0.00653442 , -0.009712314, -9.801338   , 0.0004663169, 0.00141448423, 0.000176159054, -0.4611703  , -0.01921262 , 0.296076566 , 0.00111168972, -0.0007827779, 3.09887338  , 4.31        , 3           , 50          , 0           , 0
0.008819781 , -0.00442565046, -9.798387   , -0.00112870417, 0.001357435 , -9.867486E-05, -0.459889442, -0.019414857, 0.2962788   , 0.00110040326, -0.000769202365, 3.09887242  , 4.32        , 3           , 11          , 0.00614287  , 0.00614290172
-0.00344846956, -0.0124973785, -9.795456   , 0.000198507318, 0.0009511219, 3.767484E-05, -0.460900635, -0.0190777946, 0.297155172 , 0.00110238814, -0.0007596915, 3.09887242  , 4.33        , 3           , 12          , 0.06623624  , 0
-0.00439467654, -0.019261267, -9.795986   , -0.0008054632, 0.000220929229, 0.000490539765, -0.460900635, -0.0190777946, 0.297155172 , 0.00109432975, -0.000757487665, 3.09887767  , 4.34        , 3           , 50          , 0           , 0
-0.0068695154, -0.00421215966, -9.80987    , 0.0009208177, 0.000803275558, 0.00163427088, -0.460900635, -0.0190777946, 0.2962114   , 0.00110352575, -0.000749472762, 3.098894    , 4.35        , 3           , 11          , 0.00614287  , 0.00614290172
-0.0181290526, 0.002165746 , -9.807234   , 0.00186003535, 0.00107389258, 0.000379882142, -0.4601591  , -0.0195496827, 0.29641363  , 0.00112212321, -0.0007387381, 3.0988977   , 4.36        , 3           , 12          , 0.06623624  , 0
0.0006151423, -0.005796572, -9.790371   , 0.00172558054, 0.0004782996, 4.167066E-05, -0.461102873, -0.0191452075, 0.297087759 , 0.00113937876, -0.0007339556, 3.09889817  , 4.37        , 3           , 50          , 0           , 0
0.000862078741, -0.00420515426, -9.816552   , 0.002066225 , -0.000106723121, -0.00208714139, -0.461102873, -0.0191452075, 0.297087759 , 0.00116005633, -0.0007349988, 3.09887719  , 4.38        , 3           , 11          , 0.00614287  , 0.00614290172
0.0103302542, -0.00293351337, -9.814616   , 0.00119422656, -0.000244635536, -0.000831185956, -0.460968047, -0.0190103818, 0.296009183 , 0.00117200473, -0.0007374355, 3.098869    , 4.39        , 3           , 12          , 0.06623624  , 0
-0.0142621417, -0.0177873615, -9.801514   , -0.0003490818, 0.00215973868, 0.0008426388, -0.460293919, -0.0193474442, 0.296346217 , 0.00111619628, -0.0006728422, 3.09887719  , 4.4         , 3           , 50          , 0           , 0
-0.001151273, -0.000364352018, -9.790338   , -0.0018139563, 0.00163601583, 0.000630700553, -0.4612377  , -0.0192800332, 0.297087759 , 0.00109805248, -0.000656489166, 3.09888387  , 4.41        , 3           , 11          , 0.0060756607, 0.006075704
-0.0153324595, 0.01479207  , -9.807074   , -0.00181545946, -8.283271E-05, -0.0008460624, -0.4612377  , -0.0192800332, 0.297087759 , 0.00107990345, -0.000657308265, 3.09887528  , 4.42        , 3           , 12          , 0.06732465  , 0
-0.008366708, -0.002103543, -9.79225    , 0.000309766881, -0.00102122361, -0.00124154589, -0.461102873, -0.0191452075, 0.29594177  , 0.00108300929, -0.0006675071, 3.098863    , 4.43        , 3           , 50          , 0           , 0
-0.00675954064, -0.0283226613, -9.791138   , 0.00255879248, -0.00170840253, 0.000358441583, -0.460024267, -0.0193474442, 0.296481043 , 0.00110859482, -0.0006845951, 3.0988667   , 4.44        , 3           , 11          , 0.0060756607, 0.006075704
-0.0165302474, -0.0137476111, -9.796984   , 0.0016277316, -0.001968135, 8.53712E-05 , -0.46103546 , -0.0190777946, 0.29729     , 0.00112487166, -0.000704277365, 3.09886765  , 4.45        , 3           , 12          , 0.06732465  , 0
-0.0123849064, -0.0110012963, -9.804132   , -9.852654E-05, -0.00208822382, -0.0005892501, -0.46103546 , -0.0190777946, 0.29729     , 0.00112389051, -0.0007251529, 3.09886146  , 4.46        , 3           , 50          , 0           , 0
-0.009183034, 0.00202452764, -9.798543   , 0.00109645922, -0.00104015123, 0.000887906761, -0.460968047, -0.0191452075, 0.296009183 , 0.00113484857, -0.0007355645, 3.09887052  , 4.47        , 3           , 11          , 0.0060756607, 0.006075704
-0.02304454 , -0.0255593956, -9.7845335  , 0.00337116886, 0.00134443387, 0.0007890048, -0.459889442, -0.0193474442, 0.296481043 , 0.00116855453, -0.0007221292, 3.09887815  , 4.48        , 3           , 12          , 0.06732465  , 0
-0.04365466 , -0.009573383, -9.78823948 , 0.00337688229, 0.0021444466, 0.0005306129, -0.4613051  , -0.0192800332, 0.297155172 , 0.00120231963, -0.000700691133, 3.09888387  , 4.49        , 3           , 50          , 0           , 0
-0.01131941 , -0.0207151622, -9.779824   , 0.000827475858, -0.0004010807, 0.00102539989, -0.4613051  , -0.0192800332, 0.297155172 , 0.00119296764, -0.00078422 , 3.098894    , 4.5         , 3           , 11          , 0.00601019  , 0.00601022551
0.008540962 , -0.0248832665, -9.783689   , 0.00107917329, -0.0030627416, 0.00100265373, -0.461102873, -0.01921262 , 0.296076566 , 0.00120375142, -0.0008148594, 3.098904    , 4.51        , 3           , 12          , 0.06841669  , 0
0.00194252853, -0.0152494255, -9.794966   , 0.000565711467, -0.000526214, 9.300266E-05, -0.4602265  , -0.01948227 , 0.29641363  , 0.0012094077, -0.0008201226, 3.09890485  , 4.52        , 3           , 50          , 0           , 0
-0.0108831339, -0.0337379351, -9.788531   , -0.0007457718, 0.00241031824, -0.0004188466, -0.461574763, -0.0189429689, 0.297020346 , 0.00120195351, -0.0007960143, 3.09890056  , 4.53        , 3           , 11          , 0.00601019  , 0.00601022551
-0.037402533, -0.0244807657, -9.792829   , 0.00017883355, 0.00120872387, -0.000424718659, -0.461574763, -0.0189429689, 0.297020346 , 0.00120374514, -0.000783922, 3.09889627  , 4.54        , 3           , 12          , 0.06841669  , 0
-0.0182802975, -0.00829906948, -9.798758   , 0.0008345882, 4.604692E-06, 9.926876E-05, -0.460833222, -0.0192800332, 0.296009183 , 0.00121209025, -0.000783877156, 3.09889722  , 4.55        , 3           , 50          , 0           , 0
-0.0198478736, 0.002264144 , -9.81674    , 0.00109209039, -8.014525E-06, 0.00169456983, -0.46009168 , -0.0191452075, 0.296481043 , 0.00122299767, -0.000783978, 3.09891438  , 4.56        , 3           , 11          , 0.00601019  , 0.00601022551
-0.004358243, -0.01698276 , -9.798223   , -0.00103676063, -0.0006592381, 0.00114578952, -0.461642176, -0.01921262 , 0.296952933 , 0.00121262122, -0.000790584367, 3.09892583  , 4.57        , 3           , 12          , 0.06841669  , 0
0.0166778322, -0.02447676 , -9.78494    , -0.00208731252, -0.000107915461, -0.0008474361, -0.461642176, -0.01921262 , 0.296952933 , 0.00119175483, -0.0007916535, 3.09891725  , 4.58        , 3           , 50          , 0           , 0
0.0126926992, -0.0212337114, -9.790829   , 0.00124785292, 0.00121030386, -0.00134875334, -0.460833222, -0.0192800332, 0.295874357 , 0.00120424374, -0.000779534457, 3.098904    , 4.59        , 3           , 11          , 0.00601019  , 0.00601022551
-0.01825216 , -0.0100647788, -9.803291   , 0.00151367614, 0.0004043994, 0.000372087874, -0.459956855, -0.0192800332, 0.296548456 , 0.00126053521, -0.000757637143, 3.09890771  , 4.6         , 3           , 12          , 0.06951201  , 0
-0.00255276263, -0.007129142, -9.790422   , 0.0001793391, 0.000140880045, 0.000893806457, -0.46150735 , -0.0196170956, 0.29688552  , 0.00126232172, -0.0007562395, 3.09891629  , 4.61        , 3           , 50          , 0           , 0
-0.003366623, -0.0124158077, -9.804489   , 0.0004424698, -0.0007886818, 0.000488307734, -0.46150735 , -0.0196170956, 0.29688552  , 0.00126674259, -0.0007641325, 3.098921    , 4.62        , 3           , 11          , 0.00594715355, 0.005947172
-0.01287097 , 0.0104921833, -9.783144   , -0.0003598919, -0.00211131154, -5.9363083E-05, -0.4607658  , -0.0193474442, 0.295806944 , 0.00126314431, -0.0007852449, 3.098921    , 4.63        , 3           , 12          , 0.06951201  , 0
-0.002975477, 0.00321651786, -9.785356   , -0.000480769, -0.000641782244, -0.0008437163, -0.4602265  , -0.0193474442, 0.296481043 , 0.00125834311, -0.00079165207, 3.09891248  , 4.64        , 3           , 50          , 0           , 0
-0.0140974447, -0.0140357055, -9.8168335  , -0.0004714505, 0.00135162449, -0.0005599386, -0.4613051  , -0.0190103818, 0.296952933 , 0.00125363306, -0.0007781288, 3.09890676  , 4.65        , 3           , 11          , 0.00594715355, 0.005947172
-0.00506458245, -0.0145388171, -9.818084   , -0.00100416748, 0.00174942112, -2.78834432E-05, -0.4613051  , -0.0190103818, 0.296952933 , 0.00124359143, -0.000760634255, 3.09890676  , 4.66        , 3           , 12          , 0.06951201  , 0
0.005812362 , -0.0284730587, -9.784209   , -0.00046142278, 0.003345978 , -0.00040898344, -0.4607658  , -0.01921262 , 0.295672119 , 0.00123898045, -0.0007271694, 3.09890246  , 4.67        , 3           , 50          , 0           , 0
-0.007907268, -0.01644855 , -9.804585   , 0.0004746421, 0.00440477673, -0.00026148255, -0.46009168 , -0.01921262 , 0.296548456 , 0.00124372868, -0.000683118531, 3.0989      , 4.68        , 3           , 11          , 0.00594715355, 0.005947172
-0.0236814953, -0.012732204, -9.803837   , 0.00164956553, 0.00133206893, 0.000779732654, -0.461372524, -0.0191452075, 0.29688552  , 0.00126021926, -0.000669807545, 3.09890771  , 4.69        , 3           , 12          , 0.06951201  , 0
-0.004290646, -0.005704431, -9.796754   , 0.0008410214, -0.00145988842, 0.000351596449, -0.461372524, -0.0191452075, 0.29688552  , 0.00127621368, -0.0007007191, 3.098911    , 4.7         , 3           , 50          , 0           , 0
-0.00803211 , -0.009397959, -9.785091   , 0.00111703691, 4.90972525E-06, -3.21431E-05, -0.4607658  , -0.0192800332, 0.295806944 , 0.00128738442, -0.000700669654, 3.09891057  , 4.71        , 3           , 11          , 0.005885257 , 0.00588527462
-0.00452585146, -0.0274638981, -9.787939   , 0.0005864282, 9.325322E-06, -0.00030064967, -0.4601591  , -0.01921262 , 0.296683282 , 0.00129325071, -0.000700572447, 3.09890771  , 4.72        , 3           , 12          , 0.07061029  , 0
-0.008699436, -0.0100541972, -9.811758   , -0.00181127363, -0.0006444228, -0.000319570536, -0.461439937, -0.01921262 , 0.297020346 , 0.00127514009, -0.000707012543, 3.09890485  , 4.73        , 3           , 50          , 0           , 0
-0.00529027171, -0.02059346 , -9.797817   , -0.00274085044, 0.000418472715, 0.000482027739, -0.461439937, -0.01921262 , 0.297020346 , 0.001247728 , -0.0007028339, 3.09890962  , 4.74        , 3           , 11          , 0.005885257 , 0.00588527462
-0.0140140988, -0.0309977271, -9.789447   , -0.000483306823, -0.000125274848, 0.0006221762, -0.460496157, -0.0192800332, 0.29594177  , 0.00124289084, -0.00070409436, 3.09891534  , 4.75        , 3           , 12          , 0.07061029  , 0
0.00192307669, -0.0116813034, -9.789961   , 0.001106339 , -0.00119794894, 0.000753912434, -0.459889442, -0.01921262 , 0.296548456 , 0.00125394878, -0.0007160832, 3.098923    , 4.76        , 3           , 50          , 0           , 0
-0.00161395583, -0.00485700555, -9.792646   , -0.00181696087, -0.0009161418, 0.000474946923, -0.46150735 , -0.01921262 , 0.29688552  , 0.00123577588, -0.0007252506, 3.09892774  , 4.77        , 3           , 11          , 0.005885257 , 0.00588527462
-0.009484002, -0.0135223381, -9.777471   , -0.00141508388, -0.000518027344, 0.000347897 , -0.46150735 , -0.01921262 , 0.29688552  , 0.00122162246, -0.000730435131, 3.09893155  , 4.78        , 3           , 12          , 0.07061029  , 0
-0.0134084774, -0.0200844761, -9.797913   , 0.00123651477, -0.0010702922, 0.00141994935, -0.46056357 , -0.019414857, 0.295672119 , 0.00123397727, -0.000741155352, 3.09894586  , 4.79        , 3           , 50          , 0           , 0
-0.0128252227, -0.0123325866, -9.80641    , 0.00271260762, -0.000278879917, 0.00130224414, -0.460024267, -0.0192800332, 0.296548456 , 0.001286985 , -0.0007462771, 3.09895825  , 4.8         , 3           , 11          , 0.0058250213, 0.00582505669
-0.005145492, 0.00331809535, -9.794867   , 0.00125453051, 0.0003950502, 0.00103477412, -0.461439937, -0.0191452075, 0.296952933 , 0.0012995227, -0.00074234 , 3.09896874  , 4.81        , 3           , 12          , 0.07171124  , 0
-0.009092225, -0.002369346, -9.812138   , -0.000340868166, -0.000124729442, 0.000357241574, -0.461439937, -0.0191452075, 0.296952933 , 0.00129611138, -0.000743592, 3.09897256  , 4.82        , 3           , 50          , 0           , 0
-0.0205404442, -0.01232328 , -9.801536   , -0.001010171, -0.0003914021, 0.0008825372, -0.460496157, -0.019414857, 0.295739532 , 0.001286003 , -0.0007475174, 3.09898114  , 4.83        , 3           , 11          , 0.0058250213, 0.00582505669
-0.00349965133, -0.00537337177, -9.784092   , -0.000609725539, -0.000259327557, 0.0007530697, -0.4601591  , -0.019414857, 0.2967507   , 0.0012799   , -0.000750120264, 3.09898877  , 4.84        , 3           , 12          , 0.07171124  , 0
-0.00386877148, 0.0027834978, -9.786725   , 0.0005901533, -0.000657437951, -0.0001738763, -0.461439937, -0.01921262 , 0.2968181   , 0.00128580292, -0.0007566925, 3.09898686  , 4.85        , 3           , 50          , 0           , 0
-0.017893903, -0.0168871712, -9.798388   , 0.00151409511, -0.0009354645, 0.0008912938, -0.461439937, -0.01921262 , 0.2968181   , 0.00130093715, -0.0007660586, 3.098996    , 4.86        , 3           , 11          , 0.0058250213, 0.00582505669
-0.0075427033, -0.03044409 , -9.755933   , 0.00165209314, -0.0004011757, 0.000498377 , -0.460630983, -0.0193474442, 0.295806944 , 0.001317454 , -0.000770077, 3.09900117  , 4.87        , 3           , 12          , 0.07171124  , 0
-0.009392794, -0.0201580133, -9.792894   , 0.0009948872, 0.000140682983, -0.0004301222, -0.459956855, -0.0191452075, 0.2968181   , 0.00132740638, -0.0007686644, 3.0989964   , 4.88        , 3           , 50          , 0           , 0
-0.0324073955, -0.0159635283, -9.789521   , 0.000859017135, -0.0003907663, -0.000435673, -0.4612377  , -0.0191452075, 0.297020346 , 0.00133599981, -0.0007725663, 3.09899259  , 4.89        , 3           , 11          , 0.0058250213, 0.00582505669
-0.012754485, 0.0137473531, -9.793501   , 0.0001973308, -0.000267774565, -0.0004380073, -0.460293919, -0.0191452075, 0.295874357 , 0.0013466652, -0.0008187662, 3.09898782  , 4.9         , 3           , 12          , 0.0728145838, 0
-0.02734834 , -0.03114984 , -9.812198   , 0.00166542968, 0.0009205751, -0.000153613553, -0.460293919, -0.0191452075, 0.295874357 , 0.00136332086, -0.0008095583, 3.09898686  , 4.91        , 3           , 50          , 0           , 0
-0.0138473334, -0.0016830191, -9.784633   , 0.0023226093, -0.000149577361, 0.000238760171, -0.46009168 , -0.0192800332, 0.296481043 , 0.001386545 , -0.0008110574, 3.09898877  , 4.92        , 3           , 11          , 0.00576639641, 0.00576642761
-0.00184304453, -0.0194353741, -9.778791   , 0.00231476151, -0.00108450325, 0.0007615884, -0.461372524, -0.0189429689, 0.296952933 , 0.0014096864, -0.000821913069, 3.0989964   , 4.93        , 3           , 12          , 0.0728145838, 0
0.0112456288, -0.0154876318, -9.775881   , 0.00231837318, 0.000240964058, 0.00143778953, -0.460361332, -0.0192800332, 0.295672119 , 0.00143285829, -0.0008195239, 3.09901071  , 4.94        , 3           , 50          , 0           , 0
0.00230257958, -0.02296691 , -9.790973   , -0.0007336387, 0.001321522 , 0.00116536161, -0.460361332, -0.0192800332, 0.295672119 , 0.00142551237, -0.0008063257, 3.09902263  , 4.95        , 3           , 11          , 0.00576639641, 0.00576642761
0.00453694  , -0.0306278  , -9.794636   , -0.000198793816, 0.000926564739, 0.000234838808, -0.4601591  , -0.0196170956, 0.296683282 , 0.0014235226, -0.0007970632, 3.099025    , 4.96        , 3           , 12          , 0.0728145838, 0
-0.0125637837, -0.0179061443, -9.789749   , 0.00139870658, 0.000920889957, -2.22217477E-05, -0.46150735 , -0.0190103818, 0.29688552  , 0.00143750978, -0.0007878539, 3.099025    , 4.97        , 3           , 50          , 0           , 0
-0.009996215, -0.0117818024, -9.819471   , 0.000336103141, 0.00158819568, 0.0003765671, -0.4601591  , -0.0191452075, 0.295806944 , 0.0014408679, -0.0007719774, 3.09902883  , 4.98        , 3           , 11          , 0.00576639641, 0.00576642761
-0.0160643738, -0.008803332, -9.794671   , 0.00140227913, 0.00145391643, -0.000150208929, -0.4601591  , -0.0191452075, 0.295806944 , 0.00145489175, -0.000757436152, 3.099027    , 4.99        , 3           , 12          , 0.0728145838, 0
-0.0128324041, -0.031178588, -9.77046    , 0.00246708561, 0.0005198987, -0.000817053, -0.4601591  , -0.0193474442, 0.296952933 , 0.0014870445, -0.0007608788, 3.09901881  , 5           , 3           , 50          , 0           , 0
-0.026567718, -0.00526369 , -9.828192   , 0.00139947166, 0.000256064464, -0.000426726067, -0.461372524, -0.0190103818, 0.2968181   , 0.00150104228, -0.000758311769, 3.09901452  , 5.01        , 3           , 11          , 0.00570923835, 0.00570925139
