Acc X       , Acc Y       , Acc Z       , Gyro X      , Gyro Y      , Gyro Z      , Magn X      , Magn Y      , Magn Z      , Euler X     , Euler Y     , Euler Z     , Time        , Status      , LowRate X   , LowRate Y   , LowRate Z    
-0.00754883653, -0.0111584943, -9.840215   , 0.00187290506, 0.00116030243, -0.00108252978, -0.4602265  , -0.0192800332, 0.295874357 , 0.00103828113, -0.00108722667, 3.09908986  , 0           , 3           , 11          , 0.0346410163, 0.0346410163
-0.00802033953, -0.0111799818, -9.78782    , 0.00346190715, 0.00140741677, 0.0005223427, -0.4602265  , -0.0196170956, 0.296009183 , 0.00107289432, -0.00107315811, 3.09909463  , 0.01        , 3           , 12          , 0.0346410163, 0
-0.015388296, -0.020694647, -9.77897    , -0.004255417, -0.000408820342, -0.000864298, -0.46009168 , -0.0191452075, 0.297222584 , 0.00103034941, -0.00107723684, 3.099086    , 0.02        , 3           , 50          , 0           , 0
-0.0178514086, -0.025813587, -9.810222   , 0.00134517264, 0.001960945 , -0.00107813824, -0.461574763, -0.01921262 , 0.297222584 , 0.0010438126, -0.00105761632, 3.09907556  , 0.03        , 3           , 11          , 0.0346410163, 0.0346410163
-0.008652367, -0.00687263673, -9.764294   , 9.390918E-06, 0.00116723857, -0.000826900068, -0.46009168 , -0.019414857, 0.296076566 , 0.00104391528, -0.00104593544, 3.099067    , 0.04        , 3           , 12          , 0.0346410163, 0
-0.0205565412, 0.0141185522, -9.778685   , 0.0007960051, -0.000436571165, -0.000305823778, -0.46009168 , -0.019414857, 0.296076566 , 0.00105187856, -0.001050298, 3.099064    , 0.05        , 3           , 50          , 0           , 0
-0.00746027939, -0.0204918683, -9.80733    , 0.0005328938, 0.0008892112, 0.000501769129, -0.459956855, -0.0193474442, 0.297155172 , 0.00105720223, -0.00104141107, 3.09906888  , 0.06        , 3           , 11          , 0.0346410163, 0.0346410163
-0.00515517965, -0.00207283348, -9.798083   , 0.00160546  , 0.0008955238, -0.00108637824, -0.4613051  , -0.0192800332, 0.297087759 , 0.00107326824, -0.0010324443, 3.09905839  , 0.07        , 3           , 12          , 0.0346410163, 0
0.00499849  , -0.001023721, -9.772199   , 0.000547183852, 0.00302131684, -1.01795013E-05, -0.460293919, -0.01921262 , 0.296346217 , 0.00107874  , -0.001002231, 3.09905839  , 0.08        , 3           , 50          , 0           , 0
-0.0049559027, -0.0359599777, -9.797064   , -0.00106464571, 0.000102445018, -4.53585526E-05, -0.460293919, -0.01921262 , 0.296346217 , 0.00106809393, -0.00100120623, 3.09905744  , 0.09        , 3           , 11          , 0.0346410163, 0.0346410163
-0.0197824128, -0.0200969577, -9.791666   , -0.0005254342, 0.00195841631, 0.0005057169, -0.4602265  , -0.0193474442, 0.297492236 , 0.00106283487, -0.0009816273, 3.09906268  , 0.1         , 3           , 12          , 0.0346410163, 0
-0.015116198, -0.0132484436, -9.803286   , 0.0002496877, -0.00256615458, 0.000203263291, -0.461439937, -0.0192800332, 0.297155172 , 0.00106532988, -0.00100729091, 3.099065    , 0.11        , 3           , 50          , 0           , 0
-0.009144409, 0.00116614625, -9.80352    , -0.00188125856, -0.00255985023, 0.0007231074, -0.459956855, -0.0193474442, 0.2962114   , 0.00104651  , -0.001032897, 3.09907174  , 0.12        , 3           , 11          , 0.0346410163, 0.0346410163
0.00180726673, -0.0234561432, -9.786467   , 0.00106778438, 0.00141876843, 0.000509466 , -0.460361332, -0.01921262 , 0.297424823 , 0.00105718244, -0.00101871474, 3.099077    , 0.13        , 3           , 12          , 0.0346410163, 0
0.0125132035, -0.03396888 , -9.78102    , 0.00343902758, -0.002320929, 0.00101978518, -0.460361332, -0.01921262 , 0.297424823 , 0.0010915621, -0.00104193483, 3.099087    , 0.14        , 3           , 50          , 0           , 0
0.00732585648, -0.0162153859, -9.7922     , 0.000271201076, 0.0022168865, 0.00104371691, -0.461439937, -0.0192800332, 0.297020346 , 0.0010942634, -0.00101977738, 3.09909749  , 0.15        , 3           , 11          , 0.0346410163, 0.0346410163
0.0015624892, -0.0241441056, -9.809966   , -0.000801417, 0.00115398574, 0.00155961316, -0.460024267, -0.019414857, 0.2962788   , 0.00108623342, -0.00100825448, 3.09911323  , 0.16        , 3           , 12          , 0.0346410163, 0
-0.0143602379, -0.0138491923, -9.787472   , -0.00133492809, -0.0001661196, 0.000482083182, -0.4602265  , -0.01948227 , 0.297492236 , 0.00107287907, -0.001009921, 3.09911847  , 0.17        , 3           , 50          , 0           , 0
-0.004444737, -0.00451269373, -9.778674   , -0.005581204, 0.00013145915, -0.00113226136, -0.4602265  , -0.01948227 , 0.297492236 , 0.00101707852, -0.00100859441, 3.099107    , 0.18        , 3           , 11          , 0.0346410163, 0.0346410163
0.00396763161, -0.010562608, -9.765531   , 0.0005499949, 0.00249680877, -0.001077595, -0.4617096  , -0.0192800332, 0.29688552  , 0.00102258928, -0.0009836154, 3.099096    , 0.19        , 3           , 12          , 0.0346410163, 0
0.00186410546, -0.006807264, -9.779523   , 0.0008174293, 0.002497444 , -0.00134180952, -0.459956855, -0.019414857, 0.2962788   , 0.00103084336, -0.000958524935, 3.09908271  , 0.2         , 3           , 50          , 0           , 0
-0.0254515037, -0.005509801, -9.801979   , -0.00266361469, -0.0009503579, -0.0005949039, -0.460496157, -0.0191452075, 0.2973574   , 0.00100421289, -0.0009680224, 3.09907651  , 0.21        , 3           , 11          , 0.0346699134, 0.0346699134
-0.00628536753, -0.0193341728, -9.786524   , -0.000269466, -0.000433415582, -4.590169E-05, -0.460496157, -0.0191452075, 0.2973574   , 0.0010015188, -0.0009723562, 3.09907651  , 0.22        , 3           , 12          , 0.0346698835, 0
-0.008728761, -0.00156309269, -9.801735   , 0.000520024449, -0.00124099827, 0.0007480726, -0.4613051  , -0.0191452075, 0.297020346 , 0.00100671174, -0.0009847737, 3.09908366  , 0.23        , 3           , 50          , 0           , 0
-0.0130753368, 0.008050742 , -9.812534   , 0.00213328563, 0.0019439134, 0.0007856693, -0.459822029, -0.0191452075, 0.296346217 , 0.00102803682, -0.0009653425, 3.09909177  , 0.24        , 3           , 11          , 0.0346699134, 0.0346699134
-0.011992868, 0.00418349  , -9.785456   , 0.00134228542, 0.0009005744, -0.00161909929, -0.46056357 , -0.01948227 , 0.297492236 , 0.00104147522, -0.0009563201, 3.09907556  , 0.25        , 3           , 12          , 0.0346698835, 0
0.007567335 , -0.02001508 , -9.771906   , 1.79567E-05 , 0.00223518768, -0.00134851935, -0.46056357 , -0.01948227 , 0.297492236 , 0.00104166742, -0.0009339542, 3.0990622   , 0.26        , 3           , 50          , 0           , 0
-0.0116055794, -0.00485216267, -9.785542   , -0.00345164747, 0.000651559 , -0.0008503351, -0.46150735 , -0.01921262 , 0.29688552  , 0.00100715889, -0.0009274299, 3.09905362  , 0.27        , 3           , 11          , 0.0346699134, 0.0346699134
-0.02310883 , -0.009923685, -9.815096   , 0.002932719 , 0.00141372858, -1.1808952E-05, -0.459956855, -0.019414857, 0.2962114   , 0.00103648612, -0.000913292461, 3.09905362  , 0.28        , 3           , 12          , 0.0346698835, 0
-0.0232663  , 0.001130335 , -9.788787   , 0.0002697064, 0.0006301148, -0.0002990145, -0.460496157, -0.0196170956, 0.297627062 , 0.00103918591, -0.0009069882, 3.09905028  , 0.29        , 3           , 50          , 0           , 0
-0.008568447, -0.01396402 , -9.779271   , 0.00212328625, 0.000353378244, -0.00135397515, -0.460496157, -0.0196170956, 0.297627062 , 0.000797664048, -0.00109786459, 3.09903741  , 0.3         , 3           , 11          , 0.03475349  , 0.03475349
-0.005618196, -0.01867366 , -9.809999   , 2.32226739E-06, 0.0014295216, -0.00162139558, -0.461102873, -0.0192800332, 0.29688552  , 0.0007977049, -0.00108355633, 3.0990212   , 0.31        , 3           , 12          , 0.0347560346, 0
-0.0243225414, 9.090826E-05, -9.82269    , 0.0010492627, -0.0004472684, -0.000304370944, -0.459754616, -0.01948227 , 0.296346217 , 0.0008082009, -0.00108802656, 3.09901786  , 0.32        , 3           , 50          , 0           , 0
-0.0215715822, -0.0155843059, -9.789836   , -0.00186543446, 0.001694926 , -0.0003007676, -0.460428745, -0.0192800332, 0.297627062 , 0.0007895497, -0.001071075, 3.099015    , 0.33        , 3           , 11          , 0.03475349  , 0.03475349
-0.004115425, -0.00508577563, -9.765575   , -0.000280779466, 8.73321551E-05, 0.000224600764, -0.460428745, -0.0192800332, 0.297627062 , 0.0007867395, -0.00107020338, 3.09901738  , 0.34        , 3           , 12          , 0.0347560346, 0
0.0204116646, -0.000611105934, -9.779686   , 0.0023765068, -0.000193213884, 0.0005021356, -0.461102873, -0.0191452075, 0.29688552  , 0.000810499245, -0.00107213936, 3.09902215  , 0.35        , 3           , 50          , 0           , 0
-0.004196476, 0.0127754174, -9.792501   , 0.004776317 , 6.71533053E-05, -0.000279505184, -0.459889442, -0.0193474442, 0.296481043 , 0.0008582654, -0.00107146578, 3.09901929  , 0.36        , 3           , 11          , 0.03475349  , 0.03475349
-0.0119890533, 0.0104654245, -9.780875   , -0.000296448969, -0.0012542255, 0.00180638279, -0.460293919, -0.0192800332, 0.297694474 , 0.000855281542, -0.00108402339, 3.09903741  , 0.37        , 3           , 12          , 0.0347560346, 0
0.01812512  , -0.0221507177, -9.793482   , 0.00130528107, -0.00178251567, 0.000216261411, -0.460293919, -0.0192800332, 0.297694474 , 0.000868332 , -0.00110185042, 3.09903932  , 0.38        , 3           , 50          , 0           , 0
-0.00391360372, -0.0403112844, -9.816069   , 0.0002483716, -0.0007114174, -4.54358378E-05, -0.461102873, -0.0191452075, 0.2968181   , 0.0008708162, -0.00110896409, 3.09903932  , 0.39        , 3           , 11          , 0.03475349  , 0.03475349
-0.01167099 , -0.01926739 , -9.789752   , -0.00239747483, -0.000922025531, -0.00112478482, -0.459889442, -0.0193474442, 0.296615869 , 0.000939268153, -0.0007939456, 3.09902787  , 0.4         , 3           , 12          , 0.0348986052, 0
-0.00448768027, -0.011730507, -9.779651   , -0.00052824727, -0.000128948741, -0.00163880689, -0.460496157, -0.01948227 , 0.2977619   , 0.00093399873, -0.000795219734, 3.09901166  , 0.41        , 3           , 50          , 0           , 0
-0.0151543207, -0.01059581 , -9.796936   , 0.000528727367, 0.000120688179, -3.67958E-05, -0.460496157, -0.01948227 , 0.2977619   , 0.000939286256, -0.0007940125, 3.09901071  , 0.42        , 3           , 11          , 0.0177052915, 0.0177052859
0.00336275226, -0.021919135, -9.807663   , -0.000539648, -0.0012006805, -0.00058589736, -0.461102873, -0.01921262 , 0.2967507   , 0.0009338945, -0.0008060139, 3.099005    , 0.43        , 3           , 12          , 0.0348986052, 0
0.009311501 , -0.002146257, -9.801069   , 0.00214482588, 0.003309386 , -0.0005304892, -0.459956855, -0.01948227 , 0.296481043 , 0.000955347 , -0.000772915, 3.09900022  , 0.44        , 3           , 50          , 0           , 0
-0.0160017684, 0.00291847251, -9.792294   , 0.0002713034, 0.00171818945, -2.37203931E-05, -0.4607658  , -0.01948227 , 0.2977619   , 0.0009580602, -0.000755732937, 3.09899974  , 0.45        , 3           , 11          , 0.0177052915, 0.0177052859
-0.0158089381, -0.01752195 , -9.779846   , 0.00238799863, 0.000372220064, 0.0007725722, -0.4607658  , -0.01948227 , 0.2977619   , 0.0009819343, -0.000752018241, 3.09900737  , 0.46        , 3           , 12          , 0.0348986052, 0
-0.01122394 , -0.03766068 , -9.803934   , -0.00213422 , 0.0006578093, 0.00101631251, -0.4612377  , -0.0190103818, 0.2967507   , 0.0009605845, -0.00074545 , 3.09901738  , 0.47        , 3           , 50          , 0           , 0
0.0119998548, -0.00711690076, -9.802893   , -2.04532553E-05, -0.002540975, 0.000467455946, -0.459889442, -0.0193474442, 0.296683282 , 0.000960376463, -0.0007708642, 3.09902215  , 0.48        , 3           , 11          , 0.0177052915, 0.0177052859
0.00462751649, -0.0103578027, -9.788559   , -0.00132766762, 0.000665383239, -0.0005732657, -0.4607658  , -0.019414857, 0.2978293   , 0.0009471042, -0.000764204946, 3.09901643  , 0.49        , 3           , 12          , 0.0348986052, 0
-0.0106524117, -0.009740736, -9.795064   , -0.001298184, 0.00096593285, -0.00110219 , -0.4607658  , -0.019414857, 0.2978293   , 0.00105540594, -0.0006067553, 3.09900546  , 0.5         , 3           , 50          , 0           , 0
0.004120048 , -0.00682319654, -9.779495   , 0.00026943488, -0.0009285234, 0.00234285626, -0.4612377  , -0.0192800332, 0.29688552  , 0.00105808594, -0.000616065343, 3.09902883  , 0.51        , 3           , 11          , 0.0134386495, 0.0134386439
-0.00589523651, -0.00729036331, -9.770136   , -0.0010449898, -0.000108953252, 0.000217795154, -0.459956855, -0.0192800332, 0.2967507   , 0.00104763452, -0.0006171573, 3.09903073  , 0.52        , 3           , 12          , 0.0350965   , 0
-0.01846191 , -0.0322473273, -9.797645   , 0.001359102 , 0.0006853869, -0.000824655348, -0.4607658  , -0.0192800332, 0.297694474 , 0.00106123078, -0.000610294752, 3.099023    , 0.53        , 3           , 50          , 0           , 0
-0.0133311786, -0.00341521017, -9.793228   , -0.00183588569, 0.0009608835, -4.24713362E-05, -0.4607658  , -0.0192800332, 0.297694474 , 0.00104287209, -0.0006006854, 3.09902215  , 0.54        , 3           , 11          , 0.0134386495, 0.0134386439
-0.0194085315, -0.004033411, -9.770268   , 1.91037434E-05, 0.000678442535, 0.00102770643, -0.4612377  , -0.0191452075, 0.296683282 , 0.001043057 , -0.0005939117, 3.09903264  , 0.55        , 3           , 12          , 0.0350965   , 0
-0.01883423 , -0.0245420784, -9.80028248 , -0.00130674767, -0.000102012978, -0.0005805708, -0.459889442, -0.0195496827, 0.2967507   , 0.00102999294, -0.0005949258, 3.099027    , 0.56        , 3           , 50          , 0           , 0
-0.003146326, -0.0261022747, -9.789717   , -0.000778937, 0.00068222644, 0.0010234142, -0.4607658  , -0.0192800332, 0.297694474 , 0.00102219742, -0.000588114, 3.09903741  , 0.57        , 3           , 11          , 0.0134386495, 0.0134386439
-0.0141546391, -0.03248311 , -9.775007   , 0.00055676623, -0.000108949171, -0.000836200663, -0.4607658  , -0.0192800332, 0.297694474 , 0.00102777022, -0.0005891949, 3.09902883  , 0.58        , 3           , 12          , 0.0350965   , 0
0.00197577663, -0.01342255 , -9.797205   , -0.002636777, 0.0006967345, 0.000216463784, -0.4611703  , -0.019414857, 0.2968181   , 0.00100140111, -0.000582229753, 3.09903073  , 0.59        , 3           , 50          , 0           , 0
-0.00561359525, -0.0168753155, -9.809078   , -0.0001721572, 0.00173086743, -2.666257E-05, -0.459956855, -0.0191452075, 0.296615869 , 0.00118895445, -0.0006263713, 3.09903073  , 0.6         , 3           , 11          , 0.0113522774, 0.0113522736
-0.0118958838, -0.007379263, -9.805446   , -0.000192251973, -0.00305028027, -0.00113276113, -0.460833222, -0.0190777946, 0.2978293   , 0.00118703907, -0.0006568606, 3.09901929  , 0.61        , 3           , 12          , 0.03534837  , 0
-0.0192894  , -0.0205069054, -9.796634   , 0.00169700512, 0.00120320916, -0.00188099837, -0.460833222, -0.0190777946, 0.2978293   , 0.00120402139, -0.000644806, 3.09900022  , 0.62        , 3           , 50          , 0           , 0
1.748465E-05, -0.024773784, -9.789212   , 0.00409829943, 0.00278620445, -0.0015879703, -0.4612377  , -0.01921262 , 0.296615869 , 0.00124501425, -0.0006169246, 3.09898448  , 0.63        , 3           , 11          , 0.0113522774, 0.0113522736
0.00255073234, -0.03214122 , -9.775703   , -0.000438222836, 0.0006755407, -0.00110034423, -0.459956855, -0.0193474442, 0.296683282 , 0.0012406389, -0.000610155461, 3.09897351  , 0.64        , 3           , 12          , 0.03534837  , 0
-0.008526688, -2.08001584E-05, -9.772806   , -0.00230026641, 0.00174095784, -3.81084974E-05, -0.460900635, -0.019414857, 0.2978293   , 0.00121763651, -0.0005927455, 3.098973    , 0.65        , 3           , 50          , 0           , 0
-0.00441631861, -0.0125562632, -9.78824    , -0.0049604415, 0.0009611299, -0.000856604252, -0.460900635, -0.019414857, 0.2978293   , 0.00116803707, -0.000583124, 3.098965    , 0.66        , 3           , 11          , 0.0113522774, 0.0113522736
-0.0302082915, -0.0326283351, -9.796436   , -0.00176390493, 0.00332899578, 0.000776194269, -0.4612377  , -0.01921262 , 0.296481043 , 0.00115039363, -0.000549842953, 3.09897256  , 0.67        , 3           , 12          , 0.03534837  , 0
-0.0191251617, -0.000163489953, -9.798686   , 0.0006330157, 0.00252898945, -0.0005464074, -0.4601591  , -0.0192800332, 0.296615869 , 0.00115672674, -0.000524546835, 3.09896684  , 0.68        , 3           , 50          , 0           , 0
0.002911834 , 0.00454219058, -9.786624   , -0.0001693331, 0.00147050642, -0.0008260155, -0.460968047, -0.0190777946, 0.2978293   , 0.00115503755, -0.0005098322, 3.09895873  , 0.69        , 3           , 11          , 0.0113522774, 0.0113522736
-0.00225331448, -0.0193914  , -9.783313   , 0.00328801339, -0.0001948278, 0.000240696187, -0.460968047, -0.0190777946, 0.2978293   , 0.0012163443, -0.000607267, 3.098961    , 0.7         , 3           , 12          , 0.03565266  , 0
-0.031278044, -0.0126046157, -9.812059   , 0.002775898 , 0.0008907845, -0.00240894547, -0.46103546 , -0.019414857, 0.2967507   , 0.00124411762, -0.000598329469, 3.09893727  , 0.71        , 3           , 50          , 0           , 0
0.008688103 , -0.0144225359, -9.791713   , -0.000952470233, 0.002487646 , -2.36638152E-05, -0.460024267, -0.0195496827, 0.2967507   , 0.00123459322, -0.0005734527, 3.0989368   , 0.72        , 3           , 11          , 0.0101338886, 0.01013389
0.0255560223, 0.011193933 , -9.790346   , 0.00141308538, -0.00152377039, 0.00128117285, -0.460968047, -0.0191452075, 0.297694474 , 0.00124871661, -0.0005887063, 3.09894967  , 0.73        , 3           , 12          , 0.03565266  , 0
-0.0164188184, 0.004300993 , -9.794994   , 0.00302343117, 7.24734855E-05, 0.000241683127, -0.460968047, -0.0191452075, 0.297694474 , 0.00127894955, -0.00058798457, 3.098952    , 0.74        , 3           , 50          , 0           , 0
-0.0102898553, -0.008486943, -9.784206   , 0.0019578666, -0.001773403, -0.0013748341, -0.461102873, -0.0191452075, 0.296615869 , 0.00129853655, -0.000605701, 3.09893823  , 0.75        , 3           , 11          , 0.0101338886, 0.01013389
-0.0196347  , -0.02219194 , -9.809754   , -0.0004433228, -0.00124322227, 0.000476640125, -0.46009168 , -0.0192800332, 0.2967507   , 0.00129410042, -0.0006181393, 3.098943    , 0.76        , 3           , 12          , 0.03565266  , 0
-0.008641969, -0.0203110166, -9.826316   , -0.00149598974, -0.0004305923, -0.000850055134, -0.461372524, -0.01921262 , 0.2978967   , 0.00127914583, -0.000622434251, 3.09893441  , 0.77        , 3           , 50          , 0           , 0
-0.00523965247, -0.01516174 , -9.799119   , 0.00169333676, -0.000449514046, -0.000301596, -0.461372524, -0.01921262 , 0.2978967   , 0.001296081 , -0.000626925437, 3.09893155  , 0.78        , 3           , 11          , 0.0101338886, 0.01013389
-0.00124532916, -0.0148081351, -9.791387   , 0.00196646946, 8.698364E-05, -0.001092265, -0.4613051  , -0.0193474442, 0.296481043 , 0.00131575239, -0.000626041437, 3.09892058  , 0.79        , 3           , 12          , 0.03565266  , 0
-0.0142778931, -0.0119733661, -9.795132   , 0.00249636779, 0.00192767556, 0.000521401642, -0.46009168 , -0.01921262 , 0.29688552  , 0.00133468781, -0.0006195349, 3.09892583  , 0.8         , 3           , 50          , 0           , 0
-0.0273142736, -0.0154205356, -9.803456   , 0.002499218 , 0.00219560834, 0.0002581742, -0.4613051  , -0.0193474442, 0.2978967   , 0.00135967846, -0.0005975823, 3.09892869  , 0.81        , 3           , 11          , 0.009379475 , 0.00937948748
-0.0154165421, -0.00053864345, -9.809938   , -0.00443570875, -0.0004376763, 0.0009937333, -0.4613051  , -0.0193474442, 0.2978967   , 0.00131531514, -0.000601972337, 3.09893823  , 0.82        , 3           , 12          , 0.03600763  , 0
0.008783566 , 0.00136795454, -9.789746   , -0.00307857012, 0.001969307 , -0.00163380452, -0.46103546 , -0.0191452075, 0.2962788   , 0.00128453935, -0.000582258042, 3.098922    , 0.83        , 3           , 50          , 0           , 0
-0.0196080264, -0.0109543893, -9.803769   , -0.0022847848, 0.001959844 , -0.000832577, -0.459956855, -0.0193474442, 0.297020346 , 0.0012616961, -0.000562649046, 3.09891343  , 0.84        , 3           , 11          , 0.009379475 , 0.00937948748
-0.0219305549, -0.01862829 , -9.802519   , -0.000159526142, 0.00168182072, -0.0005579037, -0.461372524, -0.01921262 , 0.2978293   , 0.001260104 , -0.0005458237, 3.09890819  , 0.85        , 3           , 12          , 0.03600763  , 0
-0.017079087, -0.026398018, -9.796213   , -0.000422741548, 0.000894426834, -0.00189481291, -0.461372524, -0.01921262 , 0.2978293   , 0.00125588675, -0.000536855659, 3.09888959  , 0.86        , 3           , 50          , 0           , 0
-0.0166558139, -0.01656339 , -9.785269   , -0.00121799752, -0.000154591165, -0.003502646, -0.4612377  , -0.0192800332, 0.296548456 , 0.00124372554, -0.0005383578, 3.0988543   , 0.87        , 3           , 11          , 0.009379475 , 0.00937948748
-0.01876573 , -0.01371129 , -9.799269   , -0.003629143, -0.00016595528, -0.000327782123, -0.460024267, -0.0191452075, 0.29688552  , 0.00120743574, -0.0005400133, 3.098851    , 0.88        , 3           , 12          , 0.03600763  , 0
-0.0058598537, -0.0269864015, -9.789758   , -0.00149672618, 0.0008862212, -4.10203938E-05, -0.461372524, -0.0193474442, 0.2978967   , 0.0011924688, -0.000531150552, 3.09885049  , 0.89        , 3           , 50          , 0           , 0
-0.0142750926, -0.009279938, -9.793298   , 0.0009562091, 0.00157168834, -2.08075071E-05, -0.461372524, -0.0193474442, 0.2978967   , 0.00127834559, -0.000657203549, 3.09885049  , 0.9         , 3           , 11          , 0.008913686 , 0.008913676
-0.000450469553, -0.0225451123, -9.785582   , -0.00276515773, 0.00132898544, -0.0008401908, -0.461102873, -0.019414857, 0.29641363  , 0.0012506994, -0.00064390304, 3.098842    , 0.91        , 3           , 12          , 0.0364114121, 0
0.0136844218, -0.01263069 , -9.793893   , -0.00146215979, -0.00109061063, 0.00180165446, -0.459956855, -0.0193474442, 0.29688552  , 0.00123606622, -0.00065483147, 3.09886     , 0.92        , 3           , 50          , 0           , 0
0.00101722777, -0.005848704, -9.784945   , 0.000139622338, -0.0005623126, 0.001283784 , -0.4612377  , -0.0191452075, 0.2978293   , 0.00123745378, -0.0006604704, 3.09887242  , 0.93        , 3           , 11          , 0.008913686 , 0.008913676
-0.0253377538, -0.0192980282, -9.825605   , 0.003348848 , 0.000237708548, -0.0010825994, -0.4612377  , -0.0191452075, 0.2978293   , 0.00127094937, -0.0006580797, 3.098862    , 0.94        , 3           , 12          , 0.0364114121, 0
-0.000901544467, -0.0185058638, -9.782385   , 0.000949077134, 0.000769782346, 0.000503229559, -0.460968047, -0.01921262 , 0.296481043 , 0.00128043687, -0.0006503883, 3.0988667   , 0.95        , 3           , 50          , 0           , 0
-0.0145688783, -0.0284071639, -9.775875   , -0.000107806423, 0.0023691745, 0.0007776577, -0.4601591  , -0.0192800332, 0.296952933 , 0.001279354 , -0.0006267066, 3.09887481  , 0.96        , 3           , 11          , 0.008913686 , 0.008913676
-0.0246534441, -0.0127951642, -9.796169   , -0.0006298253, 0.00396982953, 0.000523657363, -0.4613051  , -0.01921262 , 0.2978967   , 0.00127305242, -0.000587015064, 3.09888     , 0.97        , 3           , 12          , 0.0364114121, 0
-0.00168122177, -0.00402717665, -9.784508   , 0.00148392841, 0.000506898738, -0.000293261837, -0.46103546 , -0.0192800332, 0.29641363  , 0.00128789351, -0.0005819422, 3.09887719  , 0.98        , 3           , 50          , 0           , 0
-0.007980095, -0.002619544, -9.785475   , 0.00174560817, -0.00108492351, -0.00110327243, -0.46103546 , -0.0192800332, 0.29641363  , 0.00130535616, -0.000592777156, 3.09886575  , 0.99        , 3           , 11          , 0.008913686 , 0.008913676
-0.004690539, -0.008789187, -9.80492    , 0.00281568919, -0.000605936, -0.00162394252, -0.46009168 , -0.019414857, 0.297155172 , 0.0013339367, -0.000663843355, 3.09884953  , 1           , 3           , 12          , 0.036862    , 0
-0.01642952 , -0.00467843935, -9.800957   , 0.00386561058, 0.000426677 , 0.00211048219, -0.46150735 , -0.0190103818, 0.2978293   , 0.00137257879, -0.000659605139, 3.098871    , 1.01        , 3           , 50          , 0           , 0
-0.0121269487, -0.0107486248, -9.782444   , -0.00171364867, -0.0008581057, -0.000588102441, -0.460900635, -0.01921262 , 0.2962788   , 0.00135544618, -0.0006681782, 3.09886479  , 1.02        , 3           , 11          , 0.008636133 , 0.008636145
0.006895682 , 0.003988486 , -9.77845    , 0.0006805393, 0.000451277534, 0.000765087956, -0.460900635, -0.01921262 , 0.2962788   , 0.00136224658, -0.000663675833, 3.09887242  , 1.03        , 3           , 12          , 0.036862    , 0
-0.0175534915, -0.0107226186, -9.781155   , -0.000909842143, 0.0009947112, 0.0002300488, -0.4601591  , -0.019414857, 0.297155172 , 0.00135314674, -0.00065373187, 3.09887528  , 1.04        , 3           , 50          , 0           , 0
-0.00777290436, -0.00779430335, -9.812628   , -0.0016936583, 0.00180986617, -0.00162650575, -0.461372524, -0.0190777946, 0.2978967   , 0.00133622054, -0.000635611359, 3.098859    , 1.05        , 3           , 11          , 0.008636133 , 0.008636145
-0.010950176, -0.00240962952, -9.806289   , 0.000147093378, 0.000451907137, 0.00102787162, -0.460900635, -0.0192800332, 0.296481043 , 0.00133768481, -0.0006311061, 3.098869    , 1.06        , 3           , 12          , 0.036862    , 0
0.0123649966, -0.0112418048, -9.796604   , -0.000116096184, 0.00019280742, 0.000227087992, -0.460900635, -0.0192800332, 0.296481043 , 0.0013365224, -0.0006291812, 3.09887147  , 1.07        , 3           , 50          , 0           , 0
-0.00518763624, -0.008383324, -9.799501   , -0.00195822725, 0.00234131445, -0.0013574562, -0.459889442, -0.01948227 , 0.297087759 , 0.00131694833, -0.000605749956, 3.098858    , 1.08        , 3           , 11          , 0.008636133 , 0.008636145
0.0120290015, -0.00529409759, -9.804681   , 0.0009593722, 0.00152364117, -0.0005520358, -0.461372524, -0.0191452075, 0.297559649 , 0.00132654549, -0.000590506243, 3.0988524   , 1.09        , 3           , 12          , 0.036862    , 0
0.0057313107, -0.0106118638, -9.811135   , 0.0003444603, 0.00182278035, 0.0010413843, -0.460833222, -0.01921262 , 0.2962788   , 0.00124088046, -0.0005230064, 3.098863    , 1.1         , 3           , 50          , 0           , 0
-0.038616918, -0.005946515, -9.793562   , 0.002481081 , 0.00182404765, -0.0005410402, -0.460833222, -0.01921262 , 0.2962788   , 0.00126569392, -0.0005047592, 3.09885716  , 1.11        , 3           , 11          , 0.008481639 , 0.008481651
-0.0332804  , -0.00606224127, -9.784915   , 0.000337302219, 0.000492580468, 0.00102929585, -0.459956855, -0.0193474442, 0.297087759 , 0.00126906182, -0.0004998465, 3.09886765  , 1.12        , 3           , 12          , 0.0373573378, 0
0.009221692 , 0.005836131 , -9.784727   , 0.00222652033, 0.00395362871, -0.0005231294, -0.4617096  , -0.0191452075, 0.297694474 , 0.00129132962, -0.000460303534, 3.09886241  , 1.13        , 3           , 50          , 0           , 0
-0.0137314666, -0.00425817445, -9.799564   , -0.0007025061, 0.0031712763, -0.000811765669, -0.460833222, -0.0193474442, 0.296346217 , 0.001284308 , -0.0004285803, 3.0988543   , 1.14        , 3           , 11          , 0.008481639 , 0.008481651
0.00121712685, -0.0114791729, -9.811651   , 0.00221796986, 0.00314983  , 0.00026655267, -0.460833222, -0.0193474442, 0.296346217 , 0.0013064869, -0.000397085474, 3.09885716  , 1.15        , 3           , 12          , 0.0373573378, 0
-0.0164526049, -0.017706167, -9.808767   , 0.00166873669, -0.0005684211, -0.000301446533, -0.46009168 , -0.019414857, 0.297087759 , 0.00132317527, -0.0004027657, 3.0988543   , 1.16        , 3           , 50          , 0           , 0
-0.0214216728, -0.0208161566, -9.810667   , -0.00204255641, 0.00210774387, -3.16549849E-05, -0.461642176, -0.0190777946, 0.2977619   , 0.00130275  , -0.00038168786, 3.09885383  , 1.17        , 3           , 11          , 0.008481639 , 0.008481651
-0.007634951, -0.0233566016, -9.79019451 , -0.002832099, 0.00185873872, -0.00189788046, -0.46103546 , -0.01921262 , 0.29641363  , 0.0012744359, -0.000363076048, 3.09883475  , 1.18        , 3           , 12          , 0.0373573378, 0
-0.00456184335, -0.0135981739, -9.772893   , 0.00193481578, 0.0007510526, 0.00104029791, -0.46103546 , -0.01921262 , 0.29641363  , 0.00129378028, -0.000355578843, 3.09884524  , 1.19        , 3           , 50          , 0           , 0
-0.0166421365, 0.00722192926, -9.81800652 , 0.00166337157, -0.0003957519, 0.000232376173, -0.460024267, -0.0192800332, 0.297222584 , 0.00130591413, -0.0004614502, 3.09884763  , 1.2         , 3           , 11          , 0.008402199 , 0.008402208
-0.0249550063, -0.01174598 , -9.811975   , 0.001397358 , -0.0003944906, 0.000230945428, -0.461439937, -0.0191452075, 0.2978293   , 0.00131988665, -0.00046539813, 3.09885     , 1.21        , 3           , 12          , 0.03789527  , 0
-0.0144090056, -0.03452596 , -9.798521   , -0.0007107346, 0.00281186542, -0.0002827783, -0.4607658  , -0.0190777946, 0.2962114   , 0.00131278066, -0.000437275739, 3.09884715  , 1.22        , 3           , 50          , 0           , 0
-0.00546153449, -0.0149344373, -9.774273   , -0.0009853508, 0.0009527399, -0.000566778, -0.4607658  , -0.0190777946, 0.2962114   , 0.00130292948, -0.000427740946, 3.09884143  , 1.23        , 3           , 11          , 0.008402199 , 0.008402208
-0.013890503, -0.0169729553, -9.792014   , -0.0025899834, 0.000156508962, 0.000214319662, -0.460024267, -0.019414857, 0.297222584 , 0.00127702858, -0.000426178623, 3.09884381  , 1.24        , 3           , 12          , 0.03789527  , 0
-0.00654724566, -0.0299048349, -9.815996   , 0.00113418163, -0.000389443361, -0.0003017754, -0.4617096  , -0.0190103818, 0.2977619   , 0.00128837186, -0.000430069165, 3.09884048  , 1.25        , 3           , 50          , 0           , 0
-0.00111841038, -0.0290316716, -9.816825   , 0.001132776 , -0.000127189283, 0.000231932368, -0.4606984  , -0.01948227 , 0.2962788   , 0.00129969849, -0.000431344059, 3.09884286  , 1.26        , 3           , 11          , 0.008402199 , 0.008402208
0.008584749 , -0.03649903 , -9.797808   , 0.0019522392, 0.00280303857, -0.000799761, -0.4606984  , -0.01948227 , 0.2962788   , 0.00131922413, -0.000403303246, 3.09883523  , 1.27        , 3           , 12          , 0.03789527  , 0
0.0148894489, -0.0244477019, -9.786768   , -0.00126137282, -0.000644131564, -0.00031706976, -0.459956855, -0.0192800332, 0.297155172 , 0.00130661193, -0.0004097404, 3.09883142  , 1.28        , 3           , 50          , 0           , 0
-0.0196500123, -0.000233713537, -9.790562   , -0.004716648, 0.00069678633, 0.000473354245, -0.4617096  , -0.0190103818, 0.297694474 , 0.00125944347, -0.00040277862, 3.09883618  , 1.29        , 3           , 11          , 0.008402199 , 0.008402208
-0.0242085382, -0.00966553949, -9.792972   , -0.00488763954, 0.000669692352, 0.000206271565, -0.460496157, -0.0190777946, 0.2962788   , 0.00131606124, -0.000430169835, 3.09883857  , 1.3         , 3           , 12          , 0.038473662 , 0
-0.0277119819, -0.0216421727, -9.814365   , -9.516456E-05, 0.000124373779, -0.00110103562, -0.460496157, -0.0190777946, 0.2962788   , 0.00131511432, -0.0004289116, 3.0988276   , 1.31        , 3           , 50          , 0           , 0
-0.0304323882, -0.02522381 , -9.815789   , 0.0001594614, -0.0006844724, 0.0002213672, -0.46009168 , -0.0193474442, 0.297155172 , 0.001316708 , -0.000435759226, 3.09882951  , 1.32        , 3           , 11          , 0.008364828 , 0.008364846
-0.0146387247, 0.000227730721, -9.795465   , -0.003285962, -0.0009151856, -0.002456101, -0.461642176, -0.0192800332, 0.297627062 , 0.00128385925, -0.000444879144, 3.09880519  , 1.33        , 3           , 12          , 0.038473662 , 0
-0.00847708248, 0.00182238035, -9.776854   , -0.00384220853, -0.00305801956, -8.74981852E-05, -0.460293919, -0.0192800332, 0.2962114   , 0.00124543742, -0.000475458219, 3.09880424  , 1.34        , 3           , 50          , 0           , 0
-0.0170596968, -0.0156161673, -9.789782   , 0.0006914626, -0.001215289, -0.0003118968, -0.460293919, -0.0192800332, 0.2962114   , 0.00125235366, -0.000487607147, 3.098801    , 1.35        , 3           , 11          , 0.008364828 , 0.008364846
-0.002125105, -0.0363042876, -9.811038   , -0.00011082102, -0.000953036943, 0.000748808845, -0.460024267, -0.0193474442, 0.297222584 , 0.00125124189, -0.000497146859, 3.09880853  , 1.36        , 3           , 12          , 0.038473662 , 0
-0.00486588851, -0.00313424133, -9.780924   , 0.00202863687, -0.000947983644, -0.00136490562, -0.461372524, -0.0191452075, 0.297559649 , 0.00127153529, -0.000506609445, 3.09879518  , 1.37        , 3           , 50          , 0           , 0
-0.0143143348, -0.0142518692, -9.792896   , 0.00257508457, 0.00382306916, 0.000806634664, -0.4602265  , -0.019414857, 0.296346217 , 0.00129728217, -0.000468389277, 3.0988028   , 1.38        , 3           , 11          , 0.008364828 , 0.008364846
0.0331412554, -0.00374340639, -9.792662   , 0.00124199665, 0.00012753217, -0.00242210762, -0.4602265  , -0.019414857, 0.296346217 , 0.00130971335, -0.000467082282, 3.098779    , 1.39        , 3           , 12          , 0.038473662 , 0
0.0007430054, -0.00208163075, -9.801625   , 0.00204094639, 0.00117635226, -0.000814275641, -0.460024267, -0.019414857, 0.297424823 , 0.00133431982, -0.000455532339, 3.09877038  , 1.4         , 3           , 50          , 0           , 0
-0.0130630666, -0.0143633913, -9.781589   , -0.00169748242, 0.000118492761, 0.000749893545, -0.461642176, -0.0190777946, 0.297424823 , 0.00131734158, -0.00045435736, 3.098778    , 1.41        , 3           , 11          , 0.00834806  , 0.00834807847
-0.007894047, 0.00150217116, -9.791757   , 0.0006966403, 0.000107141015, 0.000762770243, -0.460428745, -0.0193474442, 0.2962114   , 0.0013243045, -0.000453296117, 3.09878564  , 1.42        , 3           , 12          , 0.0390903465, 0
-0.009435395, -0.0152676571, -9.784264   , 0.0025744054, 0.00143986975, -0.000808996439, -0.460428745, -0.0193474442, 0.2962114   , 0.00135005231, -0.000438886549, 3.098778    , 1.43        , 3           , 50          , 0           , 0
-0.006239632, -0.009422943, -9.783713   , -0.00144582393, -0.00333560933, -7.7040786E-05, -0.460293919, -0.019414857, 0.297222584 , 0.0013355941, -0.0004722415, 3.098777    , 1.44        , 3           , 11          , 0.00834806  , 0.00834807847
-0.0135262031, -0.002264263, -9.770631   , 0.003898773 , 0.000897697057, -0.000275387953, -0.46150735 , -0.0188755561, 0.297424823 , 0.00137458334, -0.000463260832, 3.09877419  , 1.45        , 3           , 12          , 0.0390903465, 0
-0.0135298427, -0.0188601185, -9.783445   , -0.000620556355, 0.00224366016, 0.0005093131, -0.460293919, -0.0192800332, 0.2962788   , 0.0013683755, -0.000440831238, 3.09877944  , 1.46        , 3           , 50          , 0           , 0
-0.016569661, -0.008405624, -9.788348   , 0.00230701221, 0.002231679 , 0.0002594061, -0.460293919, -0.0192800332, 0.2962788   , 0.00139144436, -0.000418518175, 3.09878182  , 1.47        , 3           , 11          , 0.00834806  , 0.00834807847
-0.01967601 , -0.0199909154, -9.80341    , -0.002494131, -0.000404124352, -5.616916E-05, -0.4601591  , -0.01921262 , 0.297424823 , 0.0013665033, -0.000422558573, 3.09878135  , 1.48        , 3           , 12          , 0.0390903465, 0
-0.022506129, -0.0281662811, -9.796298   , -8.86205E-05, 0.000392108777, -0.00136426475, -0.461642176, -0.0190103818, 0.297424823 , 0.00136562274, -0.000418618845, 3.09876752  , 1.49        , 3           , 50          , 0           , 0
-0.0178898126, -0.0168830976, -9.798838   , -0.003796196, -0.000246905664, -0.00218590023, -0.460361332, -0.0192800332, 0.2962114   , 0.00134529418, -0.0005717443, 3.098746    , 1.5         , 3           , 11          , 0.00833218452, 0.008332198
-0.006300001, -0.005895598, -9.774194   , -0.00193544151, 0.00132725423, -0.000301863241, -0.460361332, -0.0192800332, 0.2962114   , 0.00132594141, -0.0005584677, 3.09874272  , 1.51        , 3           , 12          , 0.03974319  , 0
-0.0107498355, -0.0143222213, -9.787885   , -0.0016851495, -0.001072153, 0.000209098333, -0.4601591  , -0.01921262 , 0.2973574   , 0.0013090889, -0.000569192, 3.098745    , 1.52        , 3           , 50          , 0           , 0
0.00325931981, 0.003090335 , -9.776244   , 0.00149561348, -0.0021590204, 0.00127917679, -0.461777   , -0.0190777946, 0.29729     , 0.00132403767, -0.000590799, 3.098758    , 1.53        , 3           , 11          , 0.00833218452, 0.008332198
0.008568319 , -0.0221653748, -9.784564   , 0.0007247601, 0.002635376 , 0.001052758 , -0.460361332, -0.0193474442, 0.2962788   , 0.00133127917, -0.0005644593, 3.09876847  , 1.54        , 3           , 12          , 0.03974319  , 0
-0.0155210793, -0.0158897378, -9.810546   , 0.00125808863, 0.000257423526, -0.00162259047, -0.460361332, -0.0193474442, 0.2962788   , 0.00134386914, -0.0005618634, 3.09875226  , 1.55        , 3           , 50          , 0           , 0
0.0131525127, -0.005084509, -9.778916   , -0.00035364955, -0.0008124195, 0.000218669753, -0.460361332, -0.01921262 , 0.2973574   , 0.00134033139, -0.000569990661, 3.09875417  , 1.56        , 3           , 11          , 0.00833218452, 0.008332198
-3.59993428E-05, -0.0185489524, -9.778309   , 0.00256391079, -0.0024225337, 0.000219901776, -0.461372524, -0.0189429689, 0.2973574   , 0.00136596954, -0.0005942189, 3.09875655  , 1.57        , 3           , 12          , 0.03974319  , 0
0.00688621728, -0.0260663349, -9.801337   , -0.00166942773, 0.001325993 , -0.0003004325, -0.460361332, -0.0192800332, 0.2962114   , 0.00134927675, -0.000580954831, 3.09875321  , 1.58        , 3           , 50          , 0           , 0
-0.006017536, -0.00157812983, -9.802155   , -0.00167368352, 0.001320314 , 0.0004965027, -0.460361332, -0.0192800332, 0.2962114   , 0.00133253715, -0.0005677584, 3.09875846  , 1.59        , 3           , 11          , 0.00833218452, 0.008332198
-0.03813977 , -0.004578514, -9.795349   , 0.000186450328, 0.00134801061, 0.00050647  , -0.460024267, -0.0192800332, 0.297424823 , 0.00133206521, -0.0005108969, 3.0987637   , 1.6         , 3           , 12          , 0.0404301062, 0
-0.04128783 , -0.0117210057, -9.802235   , -0.000621624757, -0.0007746324, 0.000217191118, -0.46150735 , -0.0191452075, 0.297492236 , 0.0013258477, -0.0005186461, 3.09876561  , 1.61        , 3           , 50          , 0           , 0
-0.006259868, -0.0013712123, -9.77505    , 0.000186463367, 0.00161215744, 0.0007745326, -0.459889442, -0.0193474442, 0.296143979 , 0.00132770848, -0.0005025348, 3.09877324  , 1.62        , 3           , 11          , 0.008309991 , 0.008309999
0.0117223337, -0.007837512, -9.822779   , 0.00204842864, -0.00103814167, -0.00189607963, -0.459889442, -0.0193474442, 0.296143979 , 0.00134820235, -0.0005128909, 3.09875417  , 1.63        , 3           , 12          , 0.0404301062, 0
0.00563165  , -0.030442493, -9.815853   , -0.00142111047, -0.00130103552, -5.758152E-05, -0.460496157, -0.01921262 , 0.2973574   , 0.00133399153, -0.000525900454, 3.09875417  , 1.64        , 3           , 50          , 0           , 0
0.0161312334, -0.02187803 , -9.772271   , -0.00220920844, -0.00101985363, -0.00165332644, -0.461439937, -0.0191452075, 0.297155172 , 0.00131190824, -0.0005360771, 3.098737    , 1.65        , 3           , 11          , 0.008309991 , 0.008309999
-0.0104326364, 0.00751454  , -9.755589   , -0.00035127718, 0.0008146671, 0.00103006326, -0.460024267, -0.0191452075, 0.2962788   , 0.00130838994, -0.000527943834, 3.09874749  , 1.66        , 3           , 12          , 0.0404301062, 0
0.0004963558, -0.00995091 , -9.780476   , -0.00273403851, 0.00110530981, -0.000839911168, -0.460024267, -0.0191452075, 0.2962788   , 0.00128105388, -0.0005168799, 3.09873939  , 1.67        , 3           , 50          , 0           , 0
-0.024177704, -0.012773877, -9.798875   , 0.000453869521, 0.00108449522, -2.58071086E-05, -0.4602265  , -0.01948227 , 0.297559649 , 0.00128559279, -0.000506034645, 3.098739    , 1.68        , 3           , 11          , 0.008309991 , 0.008309999
-0.0214673746, -0.0123413764, -9.798838   , -0.00245519262, 0.00244182022, -0.00188897247, -0.4617096  , -0.0190103818, 0.297222584 , 0.00126105  , -0.000481592433, 3.09871984  , 1.69        , 3           , 12          , 0.0404301062, 0
0.00190749764, -0.0161812212, -9.791813   , 0.000445055339, 0.00235529221, 0.00025201033, -0.46009168 , -0.0193474442, 0.2962788   , 0.00124765956, -0.00052856945, 3.0987227   , 1.7         , 3           , 50          , 0           , 0
-0.0151993334, -0.01064067 , -9.791966   , 0.0001918088, 0.00237359037, -0.002140226, -0.46009168 , -0.0193474442, 0.2962788   , 0.00124958856, -0.000504806754, 3.09870172  , 1.71        , 3           , 11          , 0.008277847 , 0.008277858
-0.02240702 , -0.0285159331, -9.807593   , -0.000360117439, 0.00155717006, 0.0007717551, -0.460293919, -0.0190777946, 0.297492236 , 0.00124598353, -0.000489244761, 3.09870934  , 1.72        , 3           , 12          , 0.0411490463, 0
-0.0182198733, 0.00655962154, -9.793639   , -0.00196618144, 0.00049489917, 0.00155043509, -0.46150735 , -0.0191452075, 0.29729     , 0.00122631434, -0.00048431498, 3.0987246   , 1.73        , 3           , 50          , 0           , 0
-0.0309288371, -0.000601591542, -9.791156   , 0.0001532726, -0.002432166, 0.000207061166, -0.46009168 , -0.0192800332, 0.296481043 , 0.001227846 , -0.000508639147, 3.09872651  , 1.74        , 3           , 11          , 0.008277847 , 0.008277858
0.01496551  , -0.01943907 , -9.791235   , 0.00180074922, 0.004232088 , -0.00264600781, -0.46009168 , -0.0192800332, 0.296481043 , 0.0012458663, -0.000466285652, 3.09870028  , 1.75        , 3           , 12          , 0.0411490463, 0
0.0131188259, -0.0230556186, -9.789486   , 0.000427849882, -0.00136548141, -0.0003131274, -0.4602265  , -0.0193474442, 0.297559649 , 0.00125014642, -0.000479936542, 3.098697    , 1.76        , 3           , 50          , 0           , 0
0.00145675056, -3.38125974E-05, -9.779009   , 0.000449311075, 0.00236097118, -0.0005449249, -0.4611703  , -0.0189429689, 0.29729     , 0.001254642 , -0.00045632 , 3.0986917   , 1.77        , 3           , 11          , 0.008277847 , 0.008277858
-0.0173489954, 0.0181812458, -9.780864   , -0.000345944776, 0.00131195318, -0.00215275842, -0.460024267, -0.0191452075, 0.29641363  , 0.0012511923, -0.000443173456, 3.09867024  , 1.78        , 3           , 12          , 0.0411490463, 0
-0.0165839568, -0.0155948829, -9.792485   , 0.000712552748, 0.0036766585, 0.00132810988, -0.460024267, -0.0191452075, 0.29641363  , 0.00125831238, -0.000406423555, 3.0986836   , 1.79        , 3           , 50          , 0           , 0
-0.0007675104, -0.021959791, -9.80003452 , 0.00382915325, 0.000144917169, 0.00104830822, -0.460293919, -0.0192800332, 0.297492236 , 0.00122246041, -0.0004811884, 3.098694    , 1.8         , 3           , 11          , 0.008235092 , 0.008235112
-0.023769401, -0.00160885591, -9.785206   , -0.003092967, -0.00167888973, 0.000197249872, -0.4613051  , -0.0188081432, 0.297155172 , 0.00119152979, -0.0004979797, 3.098696    , 1.81        , 3           , 12          , 0.0418980345, 0
-0.01883771 , -0.0187158436, -9.795254   , -0.00228204159, 0.000711686 , 0.000223301322, -0.459956855, -0.01921262 , 0.29641363  , 0.00116870808, -0.0004908655, 3.098698    , 1.82        , 3           , 50          , 0           , 0
-0.00518017635, -0.0182415321, -9.808183   , -0.0009492146, -0.000875716447, -0.00190921163, -0.460361332, -0.0192800332, 0.297559649 , 0.00115922559, -0.0004996004, 3.09867883  , 1.83        , 3           , 11          , 0.008235092 , 0.008235112
-0.01621807 , 0.0125729628, -9.81072    , 0.004364018 , 0.000146180508, 0.0005198796, -0.460361332, -0.0192800332, 0.297559649 , 0.001202863 , -0.000498144655, 3.09868455  , 1.84        , 3           , 12          , 0.0418980345, 0
-0.0242975559, -0.00616675057, -9.78029    , 0.000376649929, 0.000168886065, -3.28716851E-05, -0.46150735 , -0.0191452075, 0.297087759 , 0.00120662979, -0.000496455352, 3.098684    , 1.85        , 3           , 50          , 0           , 0
-0.017154092, -0.009432107, -9.774362   , -0.00362064713, 0.0001783407, 0.00127389259, -0.460024267, -0.0192800332, 0.296481043 , 0.00117041706, -0.000494687061, 3.098697    , 1.86        , 3           , 11          , 0.008235092 , 0.008235112
0.00584980659, -0.0226060413, -9.783698   , -0.000670316454, 0.001517382 , -0.0018860217, -0.460428745, -0.019414857, 0.297559649 , 0.001163723 , -0.000479491253, 3.09867787  , 1.87        , 3           , 12          , 0.0418980345, 0
0.00167496491, -0.00654733041, -9.758291   , -0.0009505419, 0.0009714194, 0.000232872742, -0.460428745, -0.019414857, 0.297559649 , 0.00115421659, -0.0004697799, 3.09868026  , 1.88        , 3           , 50          , 0           , 0
0.00268100388, -0.0234910585, -9.783295   , -0.00226488849, 0.00337587157, -0.000283811853, -0.461372524, -0.0190777946, 0.297087759 , 0.00113156857, -0.000436017843, 3.0986774   , 1.89        , 3           , 11          , 0.008235092 , 0.008235112
-0.008775789, -0.008784991, -9.80226    , -0.000407275656, 0.0006747729, -0.0005635777, -0.460024267, -0.0190777946, 0.296481043 , 0.00113859971, -0.0004737835, 3.09867167  , 1.9         , 3           , 12          , 0.04267517  , 0
-0.0100723  , 0.0159455687, -9.788928   , -0.0001541337, -0.00145670108, -0.000315843383, -0.460496157, -0.0195496827, 0.297492236 , 0.00113705988, -0.0004883469, 3.09866834  , 1.91        , 3           , 50          , 0           , 0
-0.0066792164, -0.00088785775, -9.7782135  , 0.000119025 , -0.0003919095, -0.000570387, -0.460496157, -0.0195496827, 0.297492236 , 0.0011382529, -0.0004922595, 3.09866261  , 1.92        , 3           , 11          , 0.00818041  , 0.008180438
-0.0229537971, -0.0156032955, -9.786691   , -0.00120955927, 0.000937024946, 0.000497128 , -0.461372524, -0.0191452075, 0.297155172 , 0.001126155 , -0.000482894917, 3.09866786  , 1.93        , 3           , 12          , 0.04267517  , 0
-0.01566363 , -0.0245521516, -9.8015995  , 0.000407840183, 0.00175029272, -0.0026747752, -0.459754616, -0.019414857, 0.296548456 , 0.00113024632, -0.0004653618, 3.09864116  , 1.94        , 3           , 50          , 0           , 0
-0.0117846169, -0.0341791064, -9.788999   , 0.001975394 , -0.0014648987, -0.0005700425, -0.46056357 , -0.019414857, 0.2978293   , 0.00115000294, -0.000480004353, 3.09863544  , 1.95        , 3           , 11          , 0.00818041  , 0.008180438
-0.01746475 , -0.00794355 , -9.788805   , 0.000651013164, -0.00118687318, -0.0013717137, -0.46056357 , -0.019414857, 0.2978293   , 0.00115651975, -0.000491857238, 3.09862161  , 1.96        , 3           , 12          , 0.04267517  , 0
-0.009843806, -0.0304687489, -9.801135   , -0.00015410762, -0.0009284072, 0.0002202821, -0.461372524, -0.01921262 , 0.297087759 , 0.00115497748, -0.0005011438, 3.098624    , 1.97        , 3           , 50          , 0           , 0
-0.00615498424, -0.006647943, -9.790913   , -0.000427266059, -0.00199319865, 0.000474825676, -0.46009168 , -0.0192800332, 0.296615869 , 0.00115070248, -0.000521081267, 3.09862828  , 1.98        , 3           , 11          , 0.00818041  , 0.008180438
-0.00257025287, -0.0147700273, -9.794564   , -0.00014845941, -0.00144912919, -0.00137842365, -0.460361332, -0.01948227 , 0.2977619   , 0.001149225 , -0.0005355568, 3.098615    , 1.99        , 3           , 12          , 0.04267517  , 0
-0.0140251489, -0.0193493441, -9.778939   , -0.0006610106, -0.00257528364, 0.0007342517, -0.460361332, -0.01948227 , 0.2977619   , 0.0011927106, -0.0006289719, 3.098622    , 2           , 3           , 50          , 0           , 0
-0.016552845, -0.0249810927, -9.80342    , 0.0001470384, -0.0009809346, 0.000487405079, -0.4613051  , -0.0190777946, 0.296952933 , 0.001194178 , -0.0006387871, 3.09862733  , 2.01        , 3           , 11          , 0.008115243 , 0.008115274
0.0140436823, -0.015864579, -9.786242   , -0.001976776, -0.0001727242, 0.000483212236, -0.459956855, -0.0191452075, 0.296615869 , 0.00117440708, -0.000640520069, 3.098632    , 2.02        , 3           , 12          , 0.0434786342, 0
0.00217231177, -0.009190721, -9.815682   , 0.00121534872, -0.0009803008, -0.000303807115, -0.460496157, -0.019414857, 0.2978967   , 0.0011865627, -0.000650319562, 3.09862876  , 2.03        , 3           , 50          , 0           , 0
-0.03281627 , -0.014572843, -9.793126   , 0.0022751214, -0.001519319, -3.72744835E-05, -0.460496157, -0.019414857, 0.2978967   , 0.00120931421, -0.0006655123, 3.09862828  , 2.04        , 3           , 11          , 0.008115243 , 0.008115274
-0.0362929255, -0.0112758819, -9.805332   , -0.0006638608, -0.00284321653, 0.0009974792, -0.46150735 , -0.0190777946, 0.297020346 , 0.00120266876, -0.000693956448, 3.0986383   , 2.05        , 3           , 12          , 0.0434786342, 0
-0.01652386 , -0.0128443614, -9.796975   , -0.000908413262, 0.0008844974, 0.000764251 , -0.459754616, -0.019414857, 0.296615869 , 0.00119357929, -0.000685120642, 3.098646    , 2.06        , 3           , 50          , 0           , 0
-0.0212957934, -0.028318584, -9.780474   , -0.00116737327, 0.000102782738, -0.00136959332, -0.46056357 , -0.019414857, 0.2978293   , 0.00118191494, -0.0006840765, 3.098632    , 2.07        , 3           , 11          , 0.008115243 , 0.008115274
-0.009792747, -0.008892806, -9.789625   , 0.000219583875, -0.0007090577, -0.000373166, -0.46056357 , -0.019414857, 0.2978293   , 0.00118411356, -0.000691162655, 3.09862828  , 2.08        , 3           , 12          , 0.0434786342, 0
-2.740696E-05, 0.00164377131, -9.813342   , 8.873093E-05, -0.000177293608, -0.000236223423, -0.461372524, -0.0191452075, 0.2968181   , 0.00118500227, -0.00069293275, 3.09862638  , 2.09        , 3           , 50          , 0           , 0
-0.01066749 , -0.0124464044, -9.795544   , 0.00249844277, 0.001406719 , 0.0007215918, -0.459889442, -0.019414857, 0.296683282 , 0.00122653123, -0.000765451347, 3.098633    , 2.1         , 3           , 11          , 0.008039174 , 0.00803919
-0.0199567974, -0.0292395428, -9.779563   , 0.003761588 , 7.951965E-05, -0.0005455146, -0.4607658  , -0.01921262 , 0.2978967   , 0.00126415119, -0.000764649245, 3.09862828  , 2.11        , 3           , 12          , 0.0443066768, 0
-0.0230826065, -0.0372567326, -9.789619   , -0.0014936002, 0.000102537415, -0.0003081267, -0.4607658  , -0.01921262 , 0.2978967   , 0.00124921743, -0.000763619959, 3.098625    , 2.12        , 3           , 50          , 0           , 0
-0.007564774, -0.0174569488, -9.793298   , -0.000492118648, 0.000697343959, -0.000430144166, -0.4613051  , -0.0190777946, 0.29688552  , 0.00124429946, -0.0007566412, 3.09862065  , 2.13        , 3           , 11          , 0.008039174 , 0.00803919
0.0128562115, -0.0107566547, -9.80066    , -0.002365683, -0.00175233034, -0.000794579333, -0.459956855, -0.0195496827, 0.296683282 , 0.00122064888, -0.0007741546, 3.09861255  , 2.14        , 3           , 12          , 0.0443066768, 0
0.00975249  , -0.009334618, -9.805653   , -0.00209854054, -0.000431436958, 0.0003479313, -0.4607658  , -0.0192800332, 0.2977619   , 0.00119966059, -0.000778473041, 3.098616    , 2.15        , 3           , 50          , 0           , 0
-0.00295513123, -0.0007991567, -9.790816   , 0.000503304764, 0.0006897746, -2.6311307E-05, -0.4607658  , -0.0192800332, 0.2977619   , 0.00120469392, -0.000771574967, 3.098616    , 2.16        , 3           , 11          , 0.008039174 , 0.00803919
0.0010854397, 0.0112599526, -9.7789     , -0.000771000341, -0.00136557082, -0.000118255673, -0.461439937, -0.0190777946, 0.29688552  , 0.00119698478, -0.000785229262, 3.098615    , 2.17        , 3           , 12          , 0.0443066768, 0
-0.000343183056, 0.009849381 , -9.771705   , -0.002625606, -0.000488325662, -0.000651703565, -0.460024267, -0.019414857, 0.2968181   , 0.00117073371, -0.000790104852, 3.09860826  , 2.18        , 3           , 50          , 0           , 0
-0.0139242439, -0.02059409 , -9.791147   , -0.00182789378, 3.57110948E-05, -4.48745559E-05, -0.460900635, -0.0192800332, 0.297964126 , 0.001152455 , -0.000789747166, 3.09860778  , 2.19        , 3           , 11          , 0.008039174 , 0.00803919
-0.0265177265, -0.02808866 , -9.801766   , -5.7750276E-05, 0.000444097415, 0.000433277659, -0.460900635, -0.0192800332, 0.297964126 , 0.00111465889, -0.000753973669, 3.098612    , 2.2         , 3           , 12          , 0.0451576672, 0
-0.0111297742, -0.0191808548, -9.799682   , 0.00020644773, -0.000418007869, -0.000104439154, -0.4611703  , -0.0193474442, 0.2968181   , 0.00111672434, -0.00075815263, 3.098611    , 2.21        , 3           , 50          , 0           , 0
-0.00155279029, -0.0128679341, -9.805826   , -0.0016478129, 0.0002616002, -0.000905345252, -0.459889442, -0.01948227 , 0.296683282 , 0.001100253 , -0.0007555266, 3.09860158  , 2.22        , 3           , 11          , 0.007955528 , 0.007955532
-0.010951858, 0.00252152234, -9.802174   , -0.00144652289, 0.000395093957, -0.0011022971, -0.460968047, -0.0192800332, 0.297964126 , 0.001085796 , -0.0007515636, 3.098591    , 2.23        , 3           , 12          , 0.0451576672, 0
-0.005775882, -0.01569175 , -9.790095   , 7.60449E-06 , -0.00127459294, -0.0011095386, -0.460968047, -0.0192800332, 0.297964126 , 0.00108588045, -0.000764297438, 3.09857965  , 2.24        , 3           , 50          , 0           , 0
-0.0109063368, -0.0180657171, -9.773468   , -0.000594824, -0.001210924, -0.000315218262, -0.4611703  , -0.0190103818, 0.2967507   , 0.00107993465, -0.000776403234, 3.09857678  , 2.25        , 3           , 11          , 0.007955528 , 0.007955532
-0.0148085114, 0.015309846 , -9.814741   , 0.000279019237, 0.000382163038, -0.000428884785, -0.460024267, -0.0192800332, 0.2967507   , 0.00108272815, -0.0007725771, 3.098572    , 2.26        , 3           , 12          , 0.0451576672, 0
-0.0132044926, 0.00702513568, -9.798993   , 0.00147288211, 0.000240154419, 4.122357E-05, -0.460900635, -0.0193474442, 0.2978967   , 0.00109745655, -0.000770176, 3.098573    , 2.27        , 3           , 50          , 0           , 0
-0.00936661847, -0.0107147209, -9.788282   , -0.0016570827, -0.00074125547, -0.000183887736, -0.460900635, -0.0193474442, 0.2978967   , 0.00108088728, -0.000777586538, 3.098571    , 2.28        , 3           , 11          , 0.007955528 , 0.007955532
0.00152637623, -0.0143144485, -9.798123   , -0.00160417624, -0.00320291379, -0.000139482436, -0.4611703  , -0.0190777946, 0.2967507   , 0.00106484664, -0.0008096142, 3.09856915  , 2.29        , 3           , 12          , 0.0451576672, 0
-0.0114124138, 0.009241959 , -9.795788   , -0.001227015, -0.00174863765, 0.0005400949, -0.4596872  , -0.0195496827, 0.2968181   , 0.00101223588, -0.000830685138, 3.09857488  , 2.3         , 3           , 50          , 0           , 0
-0.0193893351, -0.0116333179, -9.82862    , 0.000177758848, -0.0008198605, -4.163313E-05, -0.460968047, -0.0190103818, 0.297964126 , 0.00101401389, -0.000838883338, 3.0985744   , 2.31        , 3           , 11          , 0.00786711648, 0.007867126
-0.0169665124, -0.03346084 , -9.814352   , -0.000346059416, 0.000250134821, -0.0004997027, -0.460968047, -0.0190103818, 0.297964126 , 0.00101055752, -0.000836376857, 3.09856915  , 2.32        , 3           , 12          , 0.04603003  , 0
0.0149152316, -0.0127626108, -9.780327   , 0.0003276002, 0.00256962515, 0.000255552877, -0.460968047, -0.0191452075, 0.296548456 , 0.00101383147, -0.0008106832, 3.098572    , 2.33        , 3           , 50          , 0           , 0
0.0127612408, 0.007983116 , -9.775176   , -0.000727988547, 0.00166151428, -0.00228226022, -0.459889442, -0.0192800332, 0.2968181   , 0.0010065696, -0.0007940449, 3.09854913  , 2.34        , 3           , 11          , 0.00786711648, 0.007867126
-0.005928796, -0.02122542 , -9.777504   , -0.00100898184, -7.405612E-05, -0.00123682572, -0.461102873, -0.0195496827, 0.2978967   , 0.0009964894, -0.000794773165, 3.09853673  , 2.35        , 3           , 12          , 0.04603003  , 0
-0.00761987036, -0.0206509382, -9.789716   , -0.000746456033, 0.0011086117, 0.000635000237, -0.461102873, -0.0195496827, 0.2978967   , 0.00098902  , -0.0007836933, 3.09854341  , 2.36        , 3           , 50          , 0           , 0
-0.006634148, -0.015192965, -9.794619   , -0.001676798, 0.00104793569, 0.000430154352, -0.4611703  , -0.0192800332, 0.2967507   , 0.0009722487, -0.000773218169, 3.09854722  , 2.37        , 3           , 11          , 0.00786711648, 0.007867126
-0.0121068172, -0.0228363965, -9.79431    , -0.00282880082, -0.00234297244, 0.0009909496, -0.459754616, -0.01921262 , 0.29688552  , 0.000943953 , -0.000796657347, 3.09855771  , 2.38        , 3           , 12          , 0.04603003  , 0
-0.0129887993, -0.008459661, -9.785142   , -0.000499775866, -0.002616263, 0.0004697607, -0.46103546 , -0.01921262 , 0.297964126 , 0.0009389513, -0.0008228244, 3.09856248  , 2.39        , 3           , 50          , 0           , 0
-0.008621469, -0.00190460868, -9.813934   , -0.00078756 , -0.00193403522, -0.00078783033, -0.46103546 , -0.01921262 , 0.297964126 , 0.0009861637, -0.0008316497, 3.098554    , 2.4         , 3           , 11          , 0.00777568854, 0.007775699
-0.0170240942, -0.0272400882, -9.802998   , -0.003575959, 0.000792867329, 0.00108144374, -0.461102873, -0.0193474442, 0.2967507   , 0.000950395246, -0.0008237315, 3.09856534  , 2.41        , 3           , 12          , 0.0469222926, 0
0.000377463177, -0.0181412939, -9.773782   , -0.005170304, 7.639719E-05, 3.63029358E-06, -0.459956855, -0.0192800332, 0.29688552  , 0.0008986921, -0.0008229676, 3.09856534  , 2.42        , 3           , 50          , 0           , 0
0.00177767314, -0.008687161, -9.771412   , -0.00183937757, 0.00171912147, 0.0006343265, -0.46103546 , -0.0193474442, 0.2977619   , 0.000880293257, -0.0008057819, 3.098571    , 2.43        , 3           , 11          , 0.00777568854, 0.007775699
0.000599332154, -0.0183686018, -9.798627   , -0.001452545, -0.0009403308, 0.000213828069, -0.46103546 , -0.0193474442, 0.2977619   , 0.0008657661, -0.0008151874, 3.09857345  , 2.44        , 3           , 12          , 0.0469222926, 0
0.00260533951, -0.008315129, -9.812958   , 0.000880071661, -0.000284374255, -3.32537857E-05, -0.461102873, -0.0192800332, 0.29641363  , 0.0008745671, -0.0008180308, 3.098573    , 2.45        , 3           , 50          , 0           , 0
0.0064163506, 0.00575737469, -9.773921   , -0.000648433, -7.759174E-05, -3.96672876E-05, -0.459822029, -0.019414857, 0.2968181   , 0.0008680831, -0.0008188064, 3.098573    , 2.46        , 3           , 11          , 0.00777568854, 0.007775699
0.00130574778, -0.03516252 , -9.790203   , -0.00244260347, -1.14817453E-06, -0.0002479542, -0.4611703  , -0.0190777946, 0.298098952 , 0.00084365916, -0.0008188157, 3.09857     , 2.47        , 3           , 12          , 0.0469222926, 0
-0.0210561  , -0.008796835, -9.791569   , 0.00182179466, 0.000451812753, -0.00128341164, -0.4611703  , -0.0190777946, 0.298098952 , 0.000861887471, -0.000814286643, 3.09855771  , 2.48        , 3           , 50          , 0           , 0
-0.002283752, -0.0185248572, -9.77924    , 0.000747412967, -0.000415343879, -0.000234411826, -0.46103546 , -0.01921262 , 0.296346217 , 0.0008693635, -0.0008184381, 3.09855485  , 2.49        , 3           , 11          , 0.00777568854, 0.007775699
-0.0169602558, -0.003857657, -9.79147    , -7.952886E-05, -0.00151687243, 0.000613939832, -0.46009168 , -0.0192800332, 0.296952933 , 0.0009488285, -0.000781753566, 3.09856153  , 2.5         , 3           , 12          , 0.04783306  , 0
0.0027762875, 0.002613349 , -9.773093   , -0.00166707311, -0.0009696525, -0.000452389417, -0.4612377  , -0.0196845084, 0.297694474 , 0.0009321614, -0.00079144584, 3.09855676  , 2.51        , 3           , 50          , 0           , 0
0.0126748607, -0.008246765, -9.77850151 , -0.0009931108, 0.000293723453, -0.0008357961, -0.4612377  , -0.0196845084, 0.297694474 , 0.000922236941, -0.0007885008, 3.09854817  , 2.52        , 3           , 11          , 0.0076810685, 0.007681088
0.0147908395, -0.0223037861, -9.774099   , -0.00118764956, 0.0004333684, -0.00163259543, -0.460968047, -0.0192800332, 0.296346217 , 0.00091037323, -0.0007841521, 3.098532    , 2.53        , 3           , 12          , 0.04783306  , 0
7.57165253E-05, -0.00677820062, -9.781351   , -0.00299178553, -0.000229843135, -0.000718539464, -0.4602265  , -0.0191452075, 0.296952933 , 0.000880461 , -0.000786444056, 3.09852481  , 2.54        , 3           , 50          , 0           , 0
0.00461771153, -0.0197847765, -9.794977   , -0.00354198762, -0.00203444832, 0.000856150058, -0.4611703  , -0.0193474442, 0.297627062 , 0.0008450343, -0.000806795957, 3.09853339  , 2.55        , 3           , 11          , 0.0076810685, 0.007681088
-0.0121014379, -0.02552167 , -9.797047   , -0.00394067029, -0.00236226665, 0.000452514185, -0.4611703  , -0.0193474442, 0.297627062 , 0.0008056239, -0.0008304224, 3.09853768  , 2.56        , 3           , 12          , 0.04783306  , 0
-0.02287565 , -0.0177676  , -9.797102   , 0.0015229563, -0.00111970119, -0.000170784231, -0.460968047, -0.0191452075, 0.29641363  , 0.0008208549, -0.0008416179, 3.09853625  , 2.57        , 3           , 50          , 0           , 0
0.00500354  , -0.0158171635, -9.784544   , 0.000398456643, -0.0005119648, -0.0007027152, -0.46009168 , -0.0192800332, 0.2968181   , 0.0008248454, -0.000846731768, 3.098529    , 2.58        , 3           , 11          , 0.0076810685, 0.007681088
0.0151481973, -0.006252279, -9.801039   , 0.000580819964, -0.00304502319, -6.04975867E-05, -0.461372524, -0.01921262 , 0.297694474 , 0.0008306542, -0.000877181534, 3.09852815  , 2.59        , 3           , 12          , 0.04783306  , 0
-0.00963269547, -0.02532552 , -9.820506   , 0.00102465809, -0.003441082, -0.0005939661, -0.461372524, -0.01921262 , 0.297694474 , 0.0009176113, -0.0007949557, 3.09852242  , 2.6         , 3           , 50          , 0           , 0
-0.0166410729, -0.025965903, -9.794396   , 0.001238192 , 0.000472596468, 0.0007709931, -0.460968047, -0.0191452075, 0.296076566 , 0.000929986942, -0.000790237, 3.09853     , 2.61        , 3           , 11          , 0.00758439349, 0.00758442469
-0.005624924, 0.0010509342, -9.79354    , 0.00230403268, 0.0007340645, 0.000712722656, -0.459956855, -0.0193474442, 0.297020346 , 0.000953021867, -0.000782903, 3.09853768  , 2.62        , 3           , 12          , 0.04876104  , 0
-0.01284614 , 0.004238801 , -9.790886   , -0.000352573552, 0.000421226257, -0.0003007759, -0.461439937, -0.0190103818, 0.297559649 , 0.0009494985, -0.0007786878, 3.09853435  , 2.63        , 3           , 50          , 0           , 0
-0.020343136, -0.00226540864, -9.765295   , 0.0008395129, 0.000210814673, 0.00043437304, -0.461439937, -0.0190103818, 0.297559649 , 0.0009578902, -0.000776583853, 3.09853864  , 2.64        , 3           , 11          , 0.00758439349, 0.00758442469
0.0016167406, -0.00211654976, -9.798452   , -0.000226721546, -0.000843567657, -0.0002451333, -0.460968047, -0.01921262 , 0.2962114   , 0.000955624855, -0.0007850172, 3.09853625  , 2.65        , 3           , 12          , 0.04876104  , 0
-0.0008768253, -0.0287953168, -9.793328   , -0.00262297923, -0.000967128843, 6.42622263E-06, -0.459956855, -0.0192800332, 0.296952933 , 0.00092939497, -0.000794688647, 3.09853625  , 2.66        , 3           , 50          , 0           , 0
-0.0198678412, -0.0183883514, -9.780808   , -0.00302485283, -0.00129920652, 0.000200491791, -0.461439937, -0.0192800332, 0.2977619   , 0.0008991449, -0.0008076826, 3.09853864  , 2.67        , 3           , 11          , 0.00758439349, 0.00758442469
-0.01771797 , -0.006402159, -9.759429   , -0.00275527965, -0.00103158841, -0.000194127322, -0.4607658  , -0.0193474442, 0.2962114   , 0.0008715937, -0.0008179968, 3.09853625  , 2.68        , 3           , 12          , 0.04876104  , 0
-0.0008078832, -0.0018202978, -9.779506   , 0.000120804412, 0.0014860183, -0.000687068969, -0.4607658  , -0.0193474442, 0.2962114   , 0.0008728072, -0.0008031306, 3.09852958  , 2.69        , 3           , 50          , 0           , 0
-0.00210516527, -0.00534214638, -9.788592   , 0.000673142669, 0.0038691   , 0.000400118937, -0.46009168 , -0.0191452075, 0.29688552  , 0.000902964035, -0.0007665566, 3.09853339  , 2.7         , 3           , 11          , 0.00748800067, 0.007488029
-0.0269444175, -0.0137110269, -9.793045   , -0.00166031078, 0.0006367638, -0.00183358823, -0.461574763, -0.0191452075, 0.297627062 , 0.000886374852, -0.0007601725, 3.09851527  , 2.71        , 3           , 12          , 0.049704995 , 0
-0.0194910318, -0.00590496324, -9.812752   , -0.00220201467, -0.00142063037, -0.00212083221, -0.4607658  , -0.0192800332, 0.296076566 , 0.000864370959, -0.000774360262, 3.09849381  , 2.72        , 3           , 50          , 0           , 0
-0.00703645637, 0.009523055 , -9.780372   , 0.0004406923, -0.00251302053, 7.53762142E-05, -0.4607658  , -0.0192800332, 0.296076566 , 0.0008687772, -0.00079949107, 3.09849477  , 2.73        , 3           , 11          , 0.00748800067, 0.007488029
-0.0206693783, -0.00527676 , -9.78159    , -0.0018854728, -0.00177368673, 0.0005343848, -0.459956855, -0.0192800332, 0.296952933 , 0.0008499182, -0.000817232532, 3.0985      , 2.74        , 3           , 12          , 0.049704995 , 0
-0.00534554943, -0.0134735312, -9.786003   , -0.000944823434, -0.00123702991, -0.000717586256, -0.461439937, -0.0191452075, 0.297694474 , 0.0008404759, -0.0008295969, 3.09849286  , 2.75        , 3           , 50          , 0           , 0
-0.00623407541, -0.0224221218, -9.794686   , -0.00187334651, -0.000370824884, -0.000316268735, -0.4607658  , -0.0193474442, 0.2962114   , 0.00082174514, -0.000833302445, 3.09848952  , 2.76        , 3           , 11          , 0.00748800067, 0.007488029
-0.0166055318, -0.0232398454, -9.796176   , -3.75116542E-06, 0.000686872168, -0.0006286392, -0.4607658  , -0.0193474442, 0.2962114   , 0.000821712834, -0.000826428644, 3.09848332  , 2.77        , 3           , 12          , 0.049704995 , 0
-0.0148613732, -0.0277973711, -9.793038   , 0.00178253558, -0.00105090148, -0.0006346966, -0.459956855, -0.01948227 , 0.296952933 , 0.0008395434, -0.000836932333, 3.09847713  , 2.78        , 3           , 50          , 0           , 0
-0.0183305815, -0.00162261538, -9.78785    , 0.00173246954, 0.00148057961, -0.00114337634, -0.461439937, -0.0190103818, 0.297492236 , 0.0008568776, -0.000822116854, 3.09846568  , 2.79        , 3           , 11          , 0.00748800067, 0.007488029
-0.0070047793, -0.01241887 , -9.801372   , 2.87664316E-05, 0.00131792866, -0.000755433051, -0.460630983, -0.0192800332, 0.296076566 , 0.0009094869, -0.0008737496, 3.09845757  , 2.8         , 3           , 12          , 0.0506637841, 0
-0.01039445 , -0.009488061, -9.77337551 , 0.00128478592, -0.000679103134, -0.00136447116, -0.460630983, -0.0192800332, 0.296076566 , 0.0009223468, -0.0008805281, 3.09844422  , 2.81        , 3           , 50          , 0           , 0
-0.019419346, -0.0170489028, -9.779434   , 0.00247403863, -0.000827263866, -3.10163632E-05, -0.459956855, -0.019414857, 0.296952933 , 0.0009470875, -0.00088880054, 3.09844422  , 2.82        , 3           , 11          , 0.00739128  , 0.00739130331
-0.02273124 , -0.0243502576, -9.81839752 , -0.0009240514, -0.0014800682, 0.000475987617, -0.461642176, -0.0192800332, 0.297627062 , 0.000937842648, -0.0009036057, 3.098449    , 2.83        , 3           , 12          , 0.0506637841, 0
-0.009259606, -0.00477836654, -9.795449   , 0.0004732261, -0.00155178027, 0.000283660775, -0.46056357 , -0.0193474442, 0.29594177  , 0.000942572369, -0.000919126149, 3.09845185  , 2.84        , 3           , 50          , 0           , 0
-0.0119583812, -0.0150650041, -9.80462    , 0.00174821133, -8.981916E-05, -0.0003603586, -0.46056357 , -0.0193474442, 0.29594177  , 0.000960057834, -0.000920020859, 3.098448    , 2.85        , 3           , 11          , 0.00739128  , 0.00739130331
0.00922074  , -0.0345287062, -9.76661    , 8.598393E-05, -1.54260251E-05, -0.000368696259, -0.459956855, -0.01948227 , 0.297155172 , 0.0009609211, -0.0009201718, 3.09844422  , 2.86        , 3           , 12          , 0.0506637841, 0
-0.00441632234, -0.0125562586, -9.78824    , -0.0015175913, -0.000942310842, 7.91362E-05 , -0.461642176, -0.0192800332, 0.297627062 , 0.0009457444, -0.0009295955, 3.09844518  , 2.87        , 3           , 50          , 0           , 0
-0.0188943781, 0.009483738 , -9.816656   , -5.87848954E-05, -0.001219074, 0.0006158776, -0.460833222, -0.0190777946, 0.296076566 , 0.0009451508, -0.000941792, 3.098451    , 2.88        , 3           , 11          , 0.00739128  , 0.00739130331
-0.0112848263, 0.019234756 , -9.80201    , -0.00204815436, -1.33807362E-05, 0.000748849241, -0.460833222, -0.0190777946, 0.296076566 , 0.000924662163, -0.000941932842, 3.09845853  , 2.89        , 3           , 12          , 0.0506637841, 0
-0.00490304455, -0.0152791217, -9.786467   , -0.00252464972, -1.79085655E-05, 0.000347900437, -0.459889442, -0.0192800332, 0.296952933 , 0.000874291465, -0.000960483856, 3.09846234  , 2.9         , 3           , 50          , 0           , 0
-0.0121763218, -0.03725571 , -9.798069   , -0.00139417616, -0.00174022466, -0.00138842687, -0.46150735 , -0.0191452075, 0.297424823 , 0.0008603632, -0.0009778742, 3.098448    , 2.91        , 3           , 11          , 0.00729538267, 0.007295408
-0.0160177257, -0.0320756435, -9.818393   , -0.00305992085, -0.00107623334, -0.000129510634, -0.460428745, -0.0195496827, 0.296143979 , 0.0008297654, -0.0009886351, 3.098447    , 2.92        , 3           , 12          , 0.0516363233, 0
-0.00913716853, -0.0167641826, -9.818607   , -0.0041122227, -6.501959E-05, -0.00132157025, -0.460428745, -0.0195496827, 0.296143979 , 0.000788656063, -0.0009892748, 3.09843373  , 2.93        , 3           , 50          , 0           , 0
0.01407843  , -0.008654924, -9.784361   , -0.002450653, 0.0009162288, -0.0001081588, -0.460293919, -0.0193474442, 0.297155172 , 0.000764150638, -0.0009801115, 3.09843278  , 2.94        , 3           , 11          , 0.00729538267, 0.007295408
-0.0137265874, -0.008737696, -9.803675   , -0.000474499946, -0.00222204044, 0.0002726315, -0.46150735 , -0.0191452075, 0.297627062 , 0.000759403047, -0.001002334, 3.09843564  , 2.95        , 3           , 12          , 0.0516363233, 0
-0.0123191457, -0.0172138941, -9.816391   , -0.00020025768, -0.0007596084, 0.0002209483, -0.460293919, -0.0193474442, 0.296076566 , 0.0007573983, -0.001009932, 3.09843755  , 2.96        , 3           , 50          , 0           , 0
-0.0167185422, -0.03232125 , -9.790848   , 0.002141639 , 0.001097314 , -0.0005465441, -0.460293919, -0.0193474442, 0.296076566 , 0.0007788201, -0.0009989544, 3.09843183  , 2.97        , 3           , 11          , 0.00729538267, 0.007295408
-0.025089331, -0.00201420486, -9.789291   , -0.00186038925, -0.0013427434, -0.000856013969, -0.459754616, -0.0193474442, 0.297087759 , 0.0007602249, -0.00101237523, 3.09842324  , 2.98        , 3           , 12          , 0.0516363233, 0
0.010081416 , -0.00766590051, -9.790725   , -0.004445114, -0.00046013674, -0.00165904139, -0.461642176, -0.0193474442, 0.297424823 , 0.0007157906, -0.00101696432, 3.098407    , 2.99        , 3           , 50          , 0           , 0
0.009006891 , -0.03428897 , -9.792811   , -0.00215045549, -0.0004743089, -0.000119485609, -0.460428745, -0.0192800332, 0.296076566 , 0.0007770094, -0.00100694061, 3.0984056   , 3           , 3           , 11          , 0.00720036775, 0.00720038265
-0.0243007969, -0.0250044055, -9.794933   , 0.000318779639, 0.00150648446, 0.000310349 , -0.460428745, -0.0192800332, 0.296076566 , 0.000780194066, -0.0009918782, 3.098409    , 3.01        , 3           , 12          , 0.0526216142, 0
0.0105385557, -0.0229100771, -9.80352    , 0.0008528826, 0.0004502132, -0.00115750812, -0.460024267, -0.0193474442, 0.297020346 , 0.000788734236, -0.0009873671, 3.098397    , 3.02        , 3           , 50          , 0           , 0
0.00372531847, -0.0206653345, -9.796805   , 0.000238639957, -0.00174698443, -0.000450149266, -0.461574763, -0.0190777946, 0.2973574   , 0.0007911252, -0.00100483338, 3.09839272  , 3.03        , 3           , 11          , 0.00720036775, 0.00720038265
-0.00350137963, -0.0188282561, -9.794617   , -0.00435185526, -0.00146344618, 0.000125289458, -0.460428745, -0.0192800332, 0.296143979 , 0.000747605343, -0.00101946888, 3.09839368  , 3.04        , 3           , 12          , 0.0526216142, 0
-0.000246927142, -0.01157973 , -9.799473   , -0.00360959722, 0.000198201364, -0.000187721729, -0.460428745, -0.0192800332, 0.296143979 , 0.000711511238, -0.00101748551, 3.09839177  , 3.05        , 3           , 50          , 0           , 0
0.00215268135, -0.0177350454, -9.77014351 , -0.00208217278, -0.000340184546, -0.000317152851, -0.46009168 , -0.0192800332, 0.297155172 , 0.0006906928, -0.00102088519, 3.098389    , 3.06        , 3           , 11          , 0.00720036775, 0.00720038265
-0.003528472, 0.004912    , -9.772696   , -0.0004095759, 0.001316102 , -0.000492333958, -0.461439937, -0.0190777946, 0.2973574   , 0.0006866021, -0.00100772071, 3.09838414  , 3.07        , 3           , 12          , 0.0526216142, 0
0.00426137075, -0.009821426, -9.797593   , -0.00214654184, -0.000204956188, -0.0005819468, -0.460361332, -0.0192800332, 0.296143979 , 0.0006651425, -0.00100976613, 3.098378    , 3.08        , 3           , 50          , 0           , 0
-0.0107419807, -0.02642224 , -9.798395   , -0.00127631 , 6.266345E-05, -0.0013718144, -0.460361332, -0.0192800332, 0.296143979 , 0.0006523932, -0.00100913062, 3.098364    , 3.09        , 3           , 11          , 0.00720036775, 0.00720038265
-0.0134391524, 0.00544595532, -9.774167   , 0.002490513 , -0.000393074879, 0.000370588532, -0.4601591  , -0.0192800332, 0.297020346 , 0.0007887246, -0.00093144516, 3.098368    , 3.1         , 3           , 12          , 0.0536187068, 0
-0.00368613913, -0.002415739, -9.811169   , 0.00115651079, -0.00105234154, 0.0004238018, -0.461574763, -0.0192800332, 0.297222584 , 0.0008002856, -0.000941971841, 3.09837222  , 3.11        , 3           , 50          , 0           , 0
0.007349683 , -0.0260572862, -9.802687   , -2.41749731E-05, 0.000229801808, -0.00136425684, -0.460293919, -0.019414857, 0.295874357 , 0.000800056732, -0.000939663, 3.09835839  , 3.12        , 3           , 11          , 0.00710821664, 0.00710825
0.0221605282, 0.000665759668, -9.772424   , 0.00102919468, -0.0007139552, -0.0003044154, -0.460293919, -0.019414857, 0.295874357 , 0.00081035163, -0.00094680005, 3.09835553  , 3.13        , 3           , 12          , 0.0536187068, 0
-0.0102818348, 0.00183512829, -9.776875   , -0.00136384822, -0.000370999973, -0.00018144738, -0.4601591  , -0.01921262 , 0.297222584 , 0.000796714856, -0.0009505086, 3.09835362  , 3.14        , 3           , 50          , 0           , 0
-0.0390867665, -0.00685880333, -9.792221   , -0.00010131461, 0.000281956542, 0.0006947392, -0.4613051  , -0.0190103818, 0.29729     , 0.000795695058, -0.0009476945, 3.0983603   , 3.15        , 3           , 11          , 0.00710821664, 0.00710825
0.00101750717, -0.0121265613, -9.789977   , 0.0012180428, -0.00119135564, 0.00121988589, -0.460361332, -0.0192800332, 0.296076566 , 0.0008078639, -0.000959617959, 3.0983727   , 3.16        , 3           , 12          , 0.0536187068, 0
0.01733827  , -0.004091665, -9.791956   , -0.000169994571, -0.0007111186, 8.761392E-05, -0.460361332, -0.0192800332, 0.296076566 , 0.0008061631, -0.0009667297, 3.09837365  , 3.17        , 3           , 50          , 0           , 0
-0.000222658753, -0.00527740456, -9.797151   , -0.00250225724, -0.00136660191, 0.000268284522, -0.459754616, -0.0193474442, 0.297222584 , 0.000781137845, -0.0009803979, 3.09837651  , 3.18        , 3           , 11          , 0.00710821664, 0.00710825
-0.0221208036, -0.00356655777, -9.819536   , -0.00230030017, -0.00209063943, -0.000932693831, -0.4613051  , -0.0190103818, 0.29729     , 0.000758144248, -0.00100129715, 3.098367    , 3.19        , 3           , 12          , 0.0536187068, 0
-0.00193962082, -0.0204240661, -9.819007   , -0.00104687084, -0.00280734058, -2.77650543E-06, -0.459956855, -0.0193474442, 0.29594177  , 0.00074505026, -0.000971091329, 3.098367    , 3.2         , 3           , 50          , 0           , 0
0.01338139  , 0.00142173469, -9.799175   , -0.0004969549, 0.000383563 , -0.000103725237, -0.459956855, -0.0193474442, 0.29594177  , 0.000740081654, -0.000967255, 3.098366    , 3.21        , 3           , 11          , 0.00701619266, 0.007016245
-0.0170068871, -0.0133213485, -9.793823   , 0.0003693593, 0.000315793266, -0.000498147332, -0.4602265  , -0.0192800332, 0.297155172 , 0.000743780052, -0.00096409343, 3.09836125  , 3.22        , 3           , 12          , 0.0546267256, 0
-0.0106231477, -0.003881868, -9.793651   , -0.00117807847, -0.00227604969, 0.000200577284, -0.461372524, -0.0191452075, 0.29729     , 0.0007319973, -0.0009868554, 3.09836316  , 3.23        , 3           , 50          , 0           , 0
-0.0205682516, 0.00155059632, -9.787394   , -0.0007876051, -0.003015704, 0.00105942122, -0.4602265  , -0.0192800332, 0.296009183 , 0.0007241107, -0.00101702 , 3.09837365  , 3.24        , 3           , 11          , 0.00701619266, 0.007016245
0.0019222406, -0.0255837459, -9.800941   , 0.000158415729, -0.00141536 , -0.00011646784, -0.4602265  , -0.0192800332, 0.296009183 , 0.000725696038, -0.00103117269, 3.0983727   , 3.25        , 3           , 12          , 0.0546267256, 0
-0.0142111378, -0.0145974513, -9.804644   , 0.00116346008, -0.0004856373, -0.000567519455, -0.4602265  , -0.019414857, 0.297222584 , 0.0007373365, -0.001036025, 3.098367    , 3.26        , 3           , 50          , 0           , 0
-0.0320411325, -0.0124638537, -9.777285   , 0.00201806147, -0.000767134537, 0.001028583 , -0.4617096  , -0.0191452075, 0.29729     , 0.000757506466, -0.00104370411, 3.098377    , 3.27        , 3           , 11          , 0.00701619266, 0.007016245
-0.0115976147, -0.012916117, -9.792849   , 0.00162076869, -0.00168739061, -0.000243838964, -0.46009168 , -0.01921262 , 0.296143979 , 0.0007737167, -0.00106057606, 3.09837461  , 3.28        , 3           , 12          , 0.0546267256, 0
-0.02199956 , -0.03125334 , -9.804905   , 0.0024195055, -0.001954375, -0.000640432, -0.46009168 , -0.01921262 , 0.296143979 , 0.0007979187, -0.00108011474, 3.098368    , 3.29        , 3           , 50          , 0           , 0
-0.0132142995, -0.00240184553, -9.805413   , 0.000389473251, -0.00235523377, -0.000788045349, -0.4601591  , -0.01921262 , 0.2973574   , 0.00087394967, -0.00113099767, 3.0983603   , 3.3         , 3           , 11          , 0.006926593 , 0.00692663
4.19709831E-05, -0.0103993434, -9.780484   , -9.781325E-06, 8.95449E-05 , 0.00175580033, -0.4613051  , -0.0191452075, 0.297087759 , 0.0008738319, -0.00113011757, 3.09837747  , 3.31        , 3           , 12          , 0.0556448475, 0
-0.014323472, 0.0005374905, -9.7801     , -0.00106531137, 0.000370095018, 0.000424269878, -0.459822029, -0.019414857, 0.2962114   , 0.000863174035, -0.00112642033, 3.09838176  , 3.32        , 3           , 50          , 0           , 0
-0.026916625, 0.00515109859, -9.781111   , -0.00186695764, -0.000819515029, -0.000122192112, -0.459822029, -0.019414857, 0.2962114   , 0.000844505848, -0.00113461446, 3.09838033  , 3.33        , 3           , 11          , 0.006926593 , 0.00692663
-0.0326932743, -0.00637838 , -9.800269   , -0.00118690764, 0.00164056767, -0.000428307976, -0.46009168 , -0.019414857, 0.29729     , 0.0008326416, -0.00111820514, 3.09837651  , 3.34        , 3           , 12          , 0.0556448475, 0
-0.0133503992, -0.02451098 , -9.807895   , -0.0007199585, 0.00177232688, -0.000557417865, -0.461372524, -0.0189429689, 0.297087759 , 0.000825448136, -0.0011004773, 3.09837079  , 3.35        , 3           , 50          , 0           , 0
0.0119670536, 0.00720043853, -9.787843   , -0.0010646052, 0.00030500468, 0.000224431642, -0.459889442, -0.0193474442, 0.296143979 , 0.000814799743, -0.001097429, 3.0983727   , 3.36        , 3           , 11          , 0.006926593 , 0.00692663
-0.00447529554, -0.0076822117, -9.777803   , -0.000204710523, -0.0004976877, 0.0002882397, -0.459889442, -0.0193474442, 0.296143979 , 0.0008127494, -0.00110240828, 3.09837556  , 3.37        , 3           , 12          , 0.0556448475, 0
-0.0160209835, -0.0181772858, -9.80696    , -0.00246087741, -0.000810525, -0.0009887577, -0.4602265  , -0.01921262 , 0.29729     , 0.000788151461, -0.00111050566, 3.098366    , 3.38        , 3           , 50          , 0           , 0
-0.0122805825, -0.003722297, -9.809932   , -0.000339519756, -0.001093754, 1.643948E-05, -0.46150735 , -0.0190777946, 0.296952933 , 0.0007847562, -0.00112144346, 3.098366    , 3.39        , 3           , 11          , 0.006926593 , 0.00692663
-0.0148497727, -0.0192654748, -9.787532   , -0.00054221903, -0.00216073822, 7.209982E-05, -0.459822029, -0.0193474442, 0.2962788   , 0.0007858496, -0.00115047686, 3.098367    , 3.4         , 3           , 12          , 0.056672316 , 0
-0.005912943, -0.0230033584, -9.780684   , 0.00144545862, -0.001717879, 0.00194657687, -0.459822029, -0.0193474442, 0.2962788   , 0.0008002816, -0.00116767129, 3.098386    , 3.41        , 3           , 50          , 0           , 0
-0.0164650623, -0.00740448758, -9.799177   , 0.000663399347, -0.00123054162, -0.0005771126, -0.460293919, -0.0190777946, 0.297492236 , 0.0008069224, -0.00117997173, 3.09838033  , 3.42        , 3           , 11          , 0.00683894334, 0.006838952
-0.009577259, -0.0100233573, -9.814479   , 0.00254124939, 0.00181914237, -0.00040647143, -0.4613051  , -0.0190777946, 0.297020346 , 0.000832339749, -0.00116177707, 3.09837651  , 3.43        , 3           , 12          , 0.056672316 , 0
-0.0179585926, -0.0214360263, -9.794819   , 0.00213046675, 0.00061675586, 0.000576671853, -0.460024267, -0.019414857, 0.296481043 , 0.0008536377, -0.00115561439, 3.09838223  , 3.44        , 3           , 50          , 0           , 0
-0.010436656, -0.0395755023, -9.79265    , 0.00153654  , 0.000493672444, -0.00042392523, -0.460024267, -0.019414857, 0.296481043 , 0.000869007956, -0.00115067407, 3.098378    , 3.45        , 3           , 11          , 0.00683894334, 0.006838952
-0.0159355085, -0.00149987638, -9.803178   , 0.00227451  , 0.00148927351, -0.000610158138, -0.460361332, -0.0193474442, 0.297155172 , 0.00089176005, -0.00113577594, 3.09837174  , 3.46        , 3           , 12          , 0.056672316 , 0
-0.02941237 , 0.00403558463, -9.805546   , 0.000733163 , 0.000160174008, 0.000232873164, -0.4611703  , -0.0190777946, 0.297020346 , 0.0008990891, -0.00113417627, 3.09837413  , 3.47        , 3           , 50          , 0           , 0
0.000266646966, -0.007933229, -9.803496   , 0.0007246157, -0.0005775882, 0.001089571 , -0.459889442, -0.01921262 , 0.2962788   , 0.000906322966, -0.001139962, 3.098385    , 3.48        , 3           , 11          , 0.00683894334, 0.006838952
-0.005165275, -0.005221963, -9.799469   , 0.001937298 , -0.000232257531, -0.00149100821, -0.459889442, -0.01921262 , 0.2962788   , 0.00092571287, -0.001142271, 3.09836984  , 3.49        , 3           , 12          , 0.056672316 , 0
0.008854426 , -0.00125205331, -9.799709   , 6.97957148E-05, 9.04231347E-05, 0.000759968243, -0.4601591  , -0.0192800332, 0.297559649 , 0.0009376867, -0.00114742515, 3.09837747  , 3.5         , 3           , 50          , 0           , 0
0.00379986665, -0.0210394748, -9.80539    , 0.00193724327, 0.000749060069, 0.000443971454, -0.461372524, -0.0191452075, 0.297020346 , 0.0009570542, -0.00113993848, 3.09838223  , 3.51        , 3           , 11          , 0.006752749 , 0.00675277365
-0.0121522192, -0.0206394568, -9.787513   , 0.0006021514, -0.0004399203, 0.000160292984, -0.459956855, -0.019414857, 0.296346217 , 0.000963073864, -0.0011443391, 3.09838367  , 3.52        , 3           , 12          , 0.057708405 , 0
-0.0138789043, -0.008441055, -9.786509   , 0.000879243831, 0.0012904444, -0.000154617563, -0.460293919, -0.0192800332, 0.297424823 , 0.0009718681, -0.00113143341, 3.09838223  , 3.53        , 3           , 50          , 0           , 0
-0.0159443058, -0.007338347, -9.80685    , 0.00141479482, 0.000830397068, -0.00128497859, -0.460293919, -0.0192800332, 0.297424823 , 0.0009860304, -0.0011231167, 3.09836936  , 3.54        , 3           , 11          , 0.006752749 , 0.00675277365
-0.00206804834, -0.011583304, -9.797688   , 0.00088456017, 0.00123150647, -0.00121780217, -0.4611703  , -0.0190103818, 0.2968181   , 0.0009948896, -0.00111078948, 3.09835744  , 3.55        , 3           , 12          , 0.057708405 , 0
-0.0121859666, -0.0242606  , -9.786646   , -0.00112583756, 0.000296102255, 0.0006889321, -0.459889442, -0.0191452075, 0.296346217 , 0.0009836237, -0.00110783533, 3.098364    , 3.56        , 3           , 50          , 0           , 0
-0.0197713636, -0.0317453556, -9.802173   , -0.0003053367, 0.00269945571, -0.0010781209, -0.460496157, -0.0191452075, 0.297694474 , 0.0009805821, -0.00108083035, 3.09835362  , 3.57        , 3           , 11          , 0.006752749 , 0.00675277365
0.001889838 , -0.0135081969, -9.787721   , -0.00164540659, 0.00123970292, -0.000700104167, -0.460496157, -0.0191452075, 0.297694474 , 0.0009641355, -0.00106842641, 3.098346    , 3.58        , 3           , 12          , 0.057708405 , 0
-0.008961055, -0.01659308 , -9.787885   , -0.0004494092, 0.00123260729, -0.000494432054, -0.4611703  , -0.0191452075, 0.29688552  , 0.000959646655, -0.0010560957, 3.09834123  , 3.59        , 3           , 50          , 0           , 0
-0.0162296854, -0.0183853  , -9.783926   , 0.00157490361, 0.0005046716, -0.001353774, -0.459956855, -0.0193474442, 0.2962114   , 0.00104359619, -0.00103433791, 3.09832788  , 3.6         , 3           , 11          , 0.00666909246, 0.006669097
-0.0122917453, 0.00389003  , -9.80262852 , 3.43152242E-05, 0.000167069767, 0.000361670216, -0.460361332, -0.01921262 , 0.297694474 , 0.00104393531, -0.00103267108, 3.09833121  , 3.61        , 3           , 12          , 0.0587524548, 0
-0.0233311057, -0.0074545797, -9.788421   , -0.0010386738, -0.0012264878, 0.00060889934, -0.460361332, -0.01921262 , 0.297694474 , 0.00103354256, -0.00104494218, 3.09833741  , 3.62        , 3           , 50          , 0           , 0
0.0044831764, -0.0181251112, -9.778702   , -0.00215071556, 0.000322326639, -0.00130920636, -0.4612377  , -0.0190777946, 0.2968181   , 0.00101204892, -0.0010417056, 3.098324    , 3.63        , 3           , 11          , 0.00666909246, 0.006669097
-0.00249738432, -0.0102130119, -9.799035   , -0.0002999557, 0.000562500558, 0.001094032 , -0.459889442, -0.0193474442, 0.296548456 , 0.001009038 , -0.00103609171, 3.0983355   , 3.64        , 3           , 12          , 0.0587524548, 0
-0.0114585888, -0.0168135036, -9.811408   , 0.001434879 , 0.00201468263, 0.00151509687, -0.46056357 , -0.0192800332, 0.297424823 , 0.00102337112, -0.00101596012, 3.09835029  , 3.65        , 3           , 50          , 0           , 0
-0.0260461383, -0.0137214772, -9.792582   , 0.00117704843, 0.00255512237, 0.000522332557, -0.46056357 , -0.0192800332, 0.297424823 , 0.0010351364, -0.0009904141, 3.09835553  , 3.66        , 3           , 11          , 0.00666909246, 0.006669097
-0.0199062955, -0.02784389 , -9.784066   , -1.85454955E-05, 0.00355324266, 0.00125548453, -0.4611703  , -0.0190103818, 0.2968181   , 0.00103493873, -0.0009548948, 3.098368    , 3.67        , 3           , 12          , 0.0587524548, 0
-0.019585764, -0.0118290838, -9.80694    , -0.0007491494, 0.0009166609, -0.00162831147, -0.459956855, -0.0193474442, 0.296548456 , 0.00102746254, -0.000945711334, 3.09835172  , 3.68        , 3           , 50          , 0           , 0
-0.0237966962, -0.0186767075, -9.795767   , -0.00269556837, -0.0008808491, -0.00012754467, -0.460630983, -0.0193474442, 0.297694474 , 0.0010005082, -0.0009545185, 3.09835076  , 3.69        , 3           , 11          , 0.00666909246, 0.006669097
-0.0226623584, -0.03818763 , -9.786913   , 0.0001160553, -0.00139068207, 0.0005472688, -0.460630983, -0.0193474442, 0.297694474 , 0.00106198632, -0.00103304512, 3.09835553  , 3.7         , 3           , 12          , 0.0598038323, 0
-0.0134034911, -0.0205279365, -9.7988205  , -0.00134385086, -0.001841743, -0.0005274115, -0.4612377  , -0.0191452075, 0.2968181   , 0.00104855315, -0.0010514569, 3.09835029  , 3.71        , 3           , 50          , 0           , 0
-0.00570832938, -0.0227994472, -9.803266   , -0.00180932228, -0.0007829477, 0.0005423357, -0.459956855, -0.0191452075, 0.296615869 , 0.0010304543, -0.00105929212, 3.09835553  , 3.72        , 3           , 11          , 0.006587353 , 0.00658737449
-0.0167595223, -0.01801205 , -9.774895   , -0.00266356254, -0.000368903915, -0.000986147, -0.4606984  , -0.0191452075, 0.2978293   , 0.00100382918, -0.00106297107, 3.098346    , 3.73        , 3           , 12          , 0.0598038323, 0
-0.02269196 , -0.0009922963, -9.804159   , 0.00337362918, -0.00200188369, 0.000160887939, -0.4606984  , -0.0191452075, 0.2978293   , 0.00103756366, -0.00108299172, 3.09834743  , 3.74        , 3           , 50          , 0           , 0
-0.0186707787, 0.0002849456, -9.798676   , 0.00291060074, -0.00173221657, -3.843187E-05, -0.461102873, -0.0190103818, 0.29688552  , 0.00106667017, -0.00110031338, 3.098347    , 3.75        , 3           , 11          , 0.006587353 , 0.00658737449
-0.005956944, 0.00296663865, -9.805269   , 0.0008647493, 0.00133607187, 0.000111105808, -0.459889442, -0.01921262 , 0.296548456 , 0.00107531645, -0.00108695379, 3.098348    , 3.76        , 3           , 12          , 0.0598038323, 0
-0.03232584 , -0.009604108, -9.793521   , -0.000145669968, -0.000723374367, 0.000419059739, -0.4607658  , -0.019414857, 0.297694474 , 0.001073855 , -0.001094192, 3.09835267  , 3.77        , 3           , 50          , 0           , 0
-0.02349989 , -0.0112103131, -9.77265    , -0.00153836014, -0.00110776734, -0.000721069635, -0.4607658  , -0.019414857, 0.297694474 , 0.00105847931, -0.001105262, 3.098345    , 3.78        , 3           , 11          , 0.006587353 , 0.00658737449
-0.003964808, -0.000451279833, -9.778627   , 0.000251961173, -0.000132828674, 0.00128999224, -0.4611703  , -0.0190777946, 0.2967507   , 0.0010609848, -0.00110660389, 3.09835839  , 3.79        , 3           , 12          , 0.0598038323, 0
-0.0304674916, -0.0118056349, -9.801201   , 0.00277116359, -0.001492392, 0.0006937965, -0.46009168 , -0.0192800332, 0.296683282 , 0.00107868551, -0.001176236, 3.098365    , 3.8         , 3           , 50          , 0           , 0
0.0115094725, 0.006300384 , -9.787857   , 0.00177753612, -0.00102019927, 0.000427017221, -0.460900635, -0.0192800332, 0.2978293   , 0.00109645585, -0.00118644256, 3.098369    , 3.81        , 3           , 11          , 0.00650815666, 0.0065081995
0.0129096312, -0.00263152085, -9.800127   , 0.00104315823, -0.00108655333, 0.0008873573, -0.460900635, -0.0192800332, 0.2978293   , 0.00110687676, -0.00119731762, 3.098378    , 3.82        , 3           , 12          , 0.06086196  , 0
-0.0168823935, 0.000255892053, -9.796847   , 0.00038203827, -0.0008140474, 0.0004213191, -0.4611703  , -0.0190777946, 0.2967507   , 0.001110692 , -0.001205463, 3.09838223  , 3.83        , 3           , 50          , 0           , 0
-0.0111914407, -0.0129641658, -9.787876   , 0.00318876235, 0.00130386814, 5.72158024E-05, -0.459889442, -0.01921262 , 0.2967507   , 0.001142579 , -0.0011924248, 3.09838271  , 3.84        , 3           , 11          , 0.00650815666, 0.0065081995
0.00253666  , -0.008832015, -9.805736   , -0.00020008102, 0.00119166216, -0.000626347668, -0.4606984  , -0.0191452075, 0.297694474 , 0.00114058563, -0.00118050119, 3.09837651  , 3.85        , 3           , 12          , 0.06086196  , 0
-0.0009173005, -0.0126918741, -9.776003   , -7.6041375E-05, -0.0008679388, -0.00104283681, -0.4606984  , -0.0191452075, 0.297694474 , 0.00113983743, -0.00118916866, 3.098366    , 3.86        , 3           , 50          , 0           , 0
-0.00164349366, -0.00443801656, -9.789028   , 0.000242920971, -0.00247238064, -0.000125796942, -0.4613051  , -0.0190103818, 0.296683282 , 0.0011422683, -0.00121389108, 3.098365    , 3.87        , 3           , 11          , 0.00650815666, 0.0065081995
-0.00127835572, -0.008562898, -9.782742   , 0.000399158947, 0.00118977076, -0.000755950867, -0.459889442, -0.0193474442, 0.2968181   , 0.00114626891, -0.00120198447, 3.09835744  , 3.88        , 3           , 12          , 0.06086196  , 0
-0.0192072876, 0.00603279844, -9.784622   , 0.00247287774, 0.00231871079, -0.00186357927, -0.46103546 , -0.0191452075, 0.2978293   , 0.00117101974, -0.0011787758, 3.09833837  , 3.89        , 3           , 50          , 0           , 0
-0.0142893884, -0.0164691936, -9.797436   , 0.0004923226, -0.000932202965, 0.000221682727, -0.46103546 , -0.0191452075, 0.2978293   , 0.0011160156, -0.0011515558, 3.09834123  , 3.9         , 3           , 11          , 0.0064307726, 0.00643080333
-0.0217300337, -0.0184284318, -9.82465    , 0.00282497215, 0.000384121 , 0.0006447578, -0.4611703  , -0.0191452075, 0.2968181   , 0.00114425772, -0.00114772189, 3.098348    , 3.91        , 3           , 12          , 0.06192631  , 0
0.00313242525, 0.00700423261, -9.809184   , 0.0006954053, -0.000400122663, 9.47687E-05 , -0.460024267, -0.01921262 , 0.296615869 , 0.00115121074, -0.00115172414, 3.09834886  , 3.92        , 3           , 50          , 0           , 0
0.00327007845, -0.00228020176, -9.781719   , 0.00182918762, 0.0002591434, 0.000173304827, -0.460900635, -0.0192800332, 0.2977619   , 0.00116950064, -0.001149135, 3.09835076  , 3.93        , 3           , 11          , 0.0064307726, 0.00643080333
-0.008359633, -0.009719966, -9.799102   , 0.000189781436, 0.00287322048, -0.0015387577, -0.460900635, -0.0192800332, 0.2977619   , 0.00117141579, -0.00112038443, 3.098335    , 3.94        , 3           , 12          , 0.06192631  , 0
-0.0187095162, -0.00289273076, -9.796902   , 0.00177700387, 0.00298589515, 0.000264139759, -0.4612377  , -0.0192800332, 0.296615869 , 0.001189183 , -0.00109052868, 3.098338    , 3.95        , 3           , 50          , 0           , 0
-0.028703155, -0.0100649018, -9.795289   , 0.0007708236, 0.0006019443, -0.000559919863, -0.459889442, -0.0192800332, 0.2967507   , 0.00119689712, -0.00108450244, 3.09833217  , 3.96        , 3           , 11          , 0.0064307726, 0.00643080333
-0.00882170349, -0.0083823  , -9.796836   , 0.00136290549, -0.000730147, -0.000701611745, -0.4611703  , -0.0193474442, 0.2978967   , 0.001210534 , -0.00109179562, 3.098325    , 3.97        , 3           , 12          , 0.06192631  , 0
-3.46992165E-05, 0.00118806586, -9.812896   , 0.0013578817, -0.001925434, -0.0009781363, -0.4611703  , -0.0193474442, 0.2978967   , 0.00122412364, -0.001111038, 3.09831548  , 3.98        , 3           , 50          , 0           , 0
-0.0113798268, -0.0131475041, -9.817244   , -0.0005567556, 0.000743637036, -0.000897921156, -0.46103546 , -0.01921262 , 0.296615869 , 0.00121856609, -0.00110359071, 3.09830642  , 3.99        , 3           , 11          , 0.0064307726, 0.00643080333
-0.02768172 , -0.0121948048, -9.81020451 , 0.000224226009, 0.00133965537, -0.000622469, -0.4601591  , -0.0195496827, 0.296952933 , 0.00117051019, -0.00108191581, 3.09830022  , 4           , 3           , 12          , 0.06299635  , 0
-0.02330189 , -0.01998175 , -9.801646   , -0.0009116679, 0.00100773352, 3.254086E-05, -0.461102873, -0.0193474442, 0.2978967   , 0.00116139324, -0.001071839, 3.09830117  , 4.01        , 3           , 50          , 0           , 0
-0.008444002, -0.0187728126, -9.796934   , 0.0007644884, 0.0029328994, -0.000538690132, -0.461102873, -0.0193474442, 0.2978967   , 0.00116904371, -0.00104250375, 3.09829545  , 4.02        , 3           , 11          , 0.006356297 , 0.00635630963
-0.00043051134, -0.02431897 , -9.789212   , -0.000514420564, 0.00100347539, 0.000366743276, -0.460968047, -0.01921262 , 0.296548456 , 0.00116389571, -0.00103247317, 3.09829926  , 4.03        , 3           , 12          , 0.06299635  , 0
0.003726935 , -0.0112465043, -9.789483   , -0.000200475537, -0.00166418019, 0.00114129  , -0.459956855, -0.01921262 , 0.2968181   , 0.001161879 , -0.00104912824, 3.09831071  , 4.04        , 3           , 50          , 0           , 0
0.0154846366, 0.00394425727, -9.780153   , 0.00112888345, -0.00167143322, 0.00128126622, -0.460900635, -0.01921262 , 0.2978293   , 0.00117315433, -0.00106585748, 3.098323    , 4.05        , 3           , 11          , 0.006356297 , 0.00635630963
0.0128978593, -0.000849502161, -9.797399   , 0.00120996963, -0.0007938676, -0.000570034143, -0.460900635, -0.01921262 , 0.2978293   , 0.00118526036, -0.00107378932, 3.09831738  , 4.06        , 3           , 12          , 0.06299635  , 0
-0.02380589 , -0.0222733784, -9.79761    , 0.00254858169, -0.000128448781, -0.00148659386, -0.4611703  , -0.0192800332, 0.296481043 , 0.001210762 , -0.00107505592, 3.098303    , 4.07        , 3           , 50          , 0           , 0
-0.0183162782, -0.027169358, -9.809788   , 0.00321008917, 0.000259885943, -0.0004168101, -0.459956855, -0.01948227 , 0.297020346 , 0.00124286744, -0.00107245194, 3.09829831  , 4.08        , 3           , 11          , 0.006356297 , 0.00635630963
-0.000233247876, -0.0102207847, -9.799911   , 0.00160831993, -4.26516635E-06, 0.0003691229, -0.4613051  , -0.0193474442, 0.297964126 , 0.00125894661, -0.00107249932, 3.09830213  , 4.09        , 3           , 12          , 0.06299635  , 0
0.011582572 , 0.0189295113, -9.785922   , 0.000285985385, 0.00107998447, 0.000371631671, -0.4613051  , -0.0193474442, 0.297964126 , 0.00126728893, -0.00102398021, 3.098306    , 4.1         , 3           , 50          , 0           , 0
-0.0296215117, -0.0123166442, -9.795322   , 0.00069142197, 0.00174697838, -0.000151468135, -0.4611703  , -0.01921262 , 0.296615869 , 0.00127420458, -0.00100650848, 3.09830451  , 4.11        , 3           , 11          , 0.00628298055, 0.006282989
-0.0271888133, -0.0166407973, -9.818376   , 0.001483756 , 0.0010752551, 0.000245247444, -0.460024267, -0.019414857, 0.297087759 , 0.00128903985, -0.000995759, 3.098307    , 4.12        , 3           , 12          , 0.06407163  , 0
-0.0217971485, 0.00482348539, -9.798669   , -0.000375489268, 0.0013520174, -2.79951109E-05, -0.4613051  , -0.0192800332, 0.2978293   , 0.00128528522, -0.0009822383, 3.098307    , 4.13        , 3           , 50          , 0           , 0
-0.007915797, 0.004171122 , -9.787212   , -0.00158186909, -0.0006357137, -0.0003182112, -0.4613051  , -0.0192800332, 0.2978293   , 0.00126946974, -0.0009885916, 3.09830356  , 4.14        , 3           , 11          , 0.00628298055, 0.006282989
0.0137111638, -0.0157431122, -9.799344   , -0.000132361864, -0.00250966335, 0.0003368467, -0.460968047, -0.0193474442, 0.296346217 , 0.00126814272, -0.00101369247, 3.098307    , 4.15        , 3           , 12          , 0.06407163  , 0
-0.006535534, -0.0173368864, -9.807287   , -0.000398356, -0.00211218139, 0.00073751  , -0.459956855, -0.0190777946, 0.297087759 , 0.00126415153, -0.0010348236, 3.09831452  , 4.16        , 3           , 50          , 0           , 0
-0.02150044 , -0.0244821776, -9.8048315  , 1.35294613E-05, -0.000115934017, 0.000359321246, -0.4613051  , -0.0193474442, 0.2978967   , 0.0012642832, -0.0010359874, 3.09831786  , 4.17        , 3           , 11          , 0.00628298055, 0.006282989
-0.01704204 , -0.0182891972, -9.793873   , 0.0006892356, 0.0005554776, -0.000959283032, -0.4613051  , -0.0193474442, 0.2978967   , 0.00127118547, -0.00103042054, 3.09830832  , 4.18        , 3           , 12          , 0.06407163  , 0
-0.0110987164, -0.0142170778, -9.799181   , 0.000283057 , -0.0007728304, -0.0009735177, -0.46103546 , -0.0192800332, 0.296548456 , 0.00127402612, -0.00103813643, 3.09829831  , 4.19        , 3           , 50          , 0           , 0
-0.00365480245, -0.0037298277, -9.815699   , 0.000140128308, -0.00158143428, 0.000213915657, -0.460024267, -0.0193474442, 0.296952933 , 0.00127755024, -0.00106124126, 3.0983007   , 4.2         , 3           , 11          , 0.006211753 , 0.00621175859
-0.00135172531, -0.0149141727, -9.779644   , 8.58567546E-06, -0.000654396252, 0.000885774847, -0.4612377  , -0.0193474442, 0.2978293   , 0.00127762661, -0.00106779649, 3.09830976  , 4.21        , 3           , 12          , 0.065151684 , 0
-0.0190183837, -0.0247256085, -9.779958   , 0.0002810285, 0.000277375249, 0.0006300225, -0.4612377  , -0.0193474442, 0.2978293   , 0.00128043024, -0.00106503081, 3.09831548  , 4.22        , 3           , 50          , 0           , 0
-0.00694351038, -0.0388201177, -9.779048   , 1.3557139E-05, -0.000515697349, 9.004848E-05, -0.460968047, -0.0192800332, 0.29641363  , 0.00128056481, -0.00107018882, 3.09831643  , 4.23        , 3           , 11          , 0.006211753 , 0.00621175859
-0.00770788267, -0.04629963 , -9.800364   , 0.000411139423, -0.00091570284, -4.42544551E-05, -0.459956855, -0.0192800332, 0.297155172 , 0.0012846766, -0.00107934535, 3.09831643  , 4.24        , 3           , 12          , 0.065151684 , 0
-0.0138804577, -0.03220986 , -9.805267   , 0.000544842449, -0.001179534, -0.0004444243, -0.461642176, -0.0191452075, 0.2977619   , 0.00129013  , -0.001091135, 3.09831166  , 4.25        , 3           , 50          , 0           , 0
-0.0107208546, -0.002185503, -9.781439   , 0.00147086  , -0.00251130923, -0.00084997277, -0.461642176, -0.0191452075, 0.2977619   , 0.00130484789, -0.00111623725, 3.098303    , 4.26        , 3           , 11          , 0.006211753 , 0.00621175859
-0.0265981257, -0.008437483, -9.777178   , 0.0006621472, -0.00318209 , 0.000467916 , -0.461102873, -0.0192800332, 0.2962114   , 0.001311464 , -0.00114806416, 3.09830785  , 4.27        , 3           , 12          , 0.065151684 , 0
-0.0203561466, -0.0121440087, -9.771717   , -0.000798754161, -0.00224779849, 0.0009997989, -0.459956855, -0.01921262 , 0.297087759 , 0.00130346487, -0.001170555, 3.09831786  , 4.28        , 3           , 50          , 0           , 0
0.00294793025, -0.02771383 , -9.766167   , -0.000384760468, -0.0006449323, -0.000178951523, -0.461574763, -0.0192800332, 0.2978967   , 0.00129961933, -0.00117700186, 3.098316    , 4.29        , 3           , 11          , 0.006211753 , 0.00621175859
-0.009074286, -0.0337465927, -9.788961   , 0.0004449112, 0.000819964 , -0.0008255667, -0.461574763, -0.0192800332, 0.2978967   , 0.001362233 , -0.001166687, 3.09830737  , 4.3         , 3           , 12          , 0.06623611  , 0
-0.0106001087, -0.009240175, -9.80048    , -0.000352420466, 0.000824694347, -0.0009626814, -0.4607658  , -0.0193474442, 0.29641363  , 0.00135871989, -0.0011584271, 3.09829783  , 4.31        , 3           , 50          , 0           , 0
-0.008754438, -0.009212138, -9.804975   , -0.000488973747, 0.0008205925, -0.000299284147, -0.46009168 , -0.0192800332, 0.297087759 , 0.00135383336, -0.001150217, 3.0982945   , 4.32        , 3           , 11          , 0.00614243466, 0.00614244631
-0.008419337, -0.0147122853, -9.796443   , 0.00110641192, 0.00107622519, 0.00011018556, -0.4613051  , -0.0190777946, 0.297694474 , 0.00136489654, -0.00113945641, 3.098296    , 4.33        , 3           , 12          , 0.06623611  , 0
-0.005144082, 0.004664803 , -9.793949   , 0.00229917839, 0.000272429374, 0.000109370842, -0.4613051  , -0.0190777946, 0.297694474 , 0.00138788694, -0.00113673345, 3.09829736  , 4.34        , 3           , 50          , 0           , 0
-0.021621583, -0.0151857026, -9.78396    , 0.004688323 , -9.694827E-06, 0.0007839424, -0.460900635, -0.019414857, 0.296346217 , 0.00143476133, -0.00113684149, 3.098305    , 4.35        , 3           , 11          , 0.00614243466, 0.00614244631
-0.00648447825, 0.00423905626, -9.795777   , 0.004295016 , 0.0007922101, 0.0005234043, -0.46009168 , -0.019414857, 0.297155172 , 0.00147770566, -0.00112892711, 3.09830976  , 4.36        , 3           , 12          , 0.06623611  , 0
-0.0131714772, 0.0007799082, -9.807639   , 0.0007102613, 0.00174227066, 0.000246906246, -0.461439937, -0.0190777946, 0.2978293   , 0.00148480537, -0.001111508, 3.09831262  , 4.37        , 3           , 50          , 0           , 0
-0.035422   , -0.014004224, -9.803993   , -0.000488238264, 0.001349833 , 0.000104018822, -0.460833222, -0.0193474442, 0.2962788   , 0.00147992186, -0.0010980115, 3.09831357  , 4.38        , 3           , 11          , 0.00614243466, 0.00614244631
-0.0300033521, -0.02031624 , -9.809411   , 0.00136595708, -0.00065051 , -0.000435388822, -0.460833222, -0.0193474442, 0.2962788   , 0.001493586 , -0.00110451016, 3.09830928  , 4.39        , 3           , 12          , 0.06623611  , 0
-0.00145794265, -0.00290776044, -9.808435   , 0.00135208364, -0.001600891, -0.000443784171, -0.460293919, -0.01921262 , 0.297087759 , 0.0014809937, -0.00117723923, 3.098305    , 4.4         , 3           , 50          , 0           , 0
-0.00723483972, -0.0121997185, -9.775622   , -0.00156975829, -0.000524749747, -0.000184206481, -0.461574763, -0.0191452075, 0.2978293   , 0.00146529824, -0.001182484, 3.098303    , 4.41        , 3           , 11          , 0.006075176 , 0.00607516943
-0.0122740958, -0.0212093629, -9.774419   , -0.00130231946, -0.0003920446, -0.000314389385, -0.46056357 , -0.01921262 , 0.296076566 , 0.00145227881, -0.0011864  , 3.09830022  , 4.42        , 3           , 12          , 0.06732453  , 0
-0.0125928214, -0.0156928953, -9.784759   , 0.000563341833, 7.921699E-08, -0.00056639273, -0.46056357 , -0.01921262 , 0.296076566 , 0.0014579189, -0.00118639076, 3.0982945   , 4.43        , 3           , 50          , 0           , 0
0.00241681375, -0.002224885, -9.78715    , 0.00188701344, -0.000278892723, 0.00036810094, -0.459889442, -0.0193474442, 0.29688552  , 0.00147678459, -0.00118918519, 3.09829831  , 4.44        , 3           , 11          , 0.006075176 , 0.00607516943
-0.0126345782, -0.0296361055, -9.791222   , 0.00228317734, -0.0006807912, 0.000499443035, -0.46150735 , -0.01921262 , 0.2978293   , 0.00149961025, -0.00119600049, 3.098303    , 4.45        , 3           , 12          , 0.06732453  , 0
-0.009605808, -0.0284422059, -9.775815   , 0.00201858883, -0.0005455634, 0.000366398628, -0.4607658  , -0.0193474442, 0.2962114   , 0.00151979167, -0.00120146165, 3.098307    , 4.46        , 3           , 50          , 0           , 0
0.0009279866, -0.0104220267, -9.778668   , 0.00361610879, -0.000155017711, 0.0005114322, -0.4607658  , -0.0193474442, 0.2962114   , 0.00155594654, -0.00120301975, 3.09831166  , 4.47        , 3           , 11          , 0.006075176 , 0.00607516943
0.003242962 , -0.0296619851, -9.800514   , 0.00429825066, 0.0015815004, -0.0009303239, -0.46009168 , -0.0193474442, 0.29729     , 0.00159894023, -0.00118719 , 3.0983026   , 4.48        , 3           , 12          , 0.06732453  , 0
-0.0121160075, -0.0264330711, -9.796153   , 0.0026964487, 0.0006569817, -0.000814547762, -0.461439937, -0.0190777946, 0.2978293   , 0.00162591436, -0.00118060713, 3.0982945   , 4.49        , 3           , 50          , 0           , 0
-0.0255383346, -0.00514791161, -9.792039   , 2.02602223E-05, -0.00278680748, 0.0003350529, -0.4607658  , -0.0193474442, 0.296143979 , 0.00165310351, -0.00117636973, 3.09829736  , 4.5         , 3           , 11          , 0.006009703 , 0.006009697
-0.018242741, 0.00160400558, -9.795044   , 0.000420679658, -0.003183027, -0.000330540119, -0.4607658  , -0.0193474442, 0.296143979 , 0.00165731437, -0.00120819453, 3.098294    , 4.51        , 3           , 12          , 0.0684165657, 0
0.00100652315, -0.0148281418, -9.790907   , 0.0004442686, 0.000546265044, -0.0009608052, -0.4602265  , -0.0192800332, 0.29729     , 0.00166176877, -0.001202716, 3.09828448  , 4.52        , 3           , 50          , 0           , 0
-0.007846387, -0.0181816332, -9.812733   , -0.0006097645, 0.00241359021, -0.0009496043, -0.461439937, -0.0191452075, 0.2977619   , 0.00165568257, -0.0011785645, 3.098275    , 4.53        , 3           , 11          , 0.006009703 , 0.006009697
-0.0172593463, -0.0122232232, -9.815048   , 4.385577E-05, 0.001074558 , -0.0001611807, -0.460833222, -0.0191452075, 0.2962788   , 0.00165612285, -0.00116781611, 3.09827352  , 4.54        , 3           , 12          , 0.0684165657, 0
-0.005685918, -0.00125204958, -9.788595   , 0.0004264517, -0.00119435275, 0.0006173503, -0.460833222, -0.0191452075, 0.2962788   , 0.00166038  , -0.00117976975, 3.09827924  , 4.55        , 3           , 50          , 0           , 0
-0.0166654624, -0.00356827839, -9.773845   , 0.0005587558, -0.00106385641, 0.000884919544, -0.4601591  , -0.0193474442, 0.297087759 , 0.001665957 , -0.001190423, 3.0982883   , 4.56        , 3           , 11          , 0.006009703 , 0.006009697
-0.0120880362, -0.017884858, -9.792453   , 0.00162993569, -0.0003990691, 0.000232574079, -0.461372524, -0.01921262 , 0.297694474 , 0.00168225379, -0.00119441748, 3.09829068  , 4.57        , 3           , 12          , 0.0684165657, 0
-0.00593934953, -0.00778277172, -9.765625   , 0.00136673322, -0.00092231587, -0.0008362722, -0.460630983, -0.0193474442, 0.2962114   , 0.00169593119, -0.00120362651, 3.098282    , 4.58        , 3           , 50          , 0           , 0
-0.0114852786, 0.00468494743, -9.791317   , 0.00256595528, -0.0002647848, -0.000558144646, -0.460630983, -0.0193474442, 0.2962114   , 0.00172159739, -0.001206265, 3.09827685  , 4.59        , 3           , 11          , 0.006009703 , 0.006009697
-0.009687249, -0.008339226, -9.800911   , 0.002013327 , 0.00079974765, 0.0002457128, -0.4601591  , -0.01921262 , 0.297087759 , 0.001673532 , -0.00118738145, 3.09827971  , 4.6         , 3           , 12          , 0.06951187  , 0
-0.0172157381, -0.0135250753, -9.820932   , 0.000687534048, 0.00120795355, -0.000156281967, -0.4617096  , -0.01921262 , 0.297627062 , 0.00168040907, -0.00117529929, 3.09827828  , 4.61        , 3           , 50          , 0           , 0
-0.0147716291, -0.0214297865, -9.797943   , 0.000427871244, 0.0005573659, -0.00202327245, -0.460361332, -0.0193474442, 0.2962114   , 0.00168471143, -0.00116969156, 3.09825826  , 4.62        , 3           , 11          , 0.005946362 , 0.00594633771
-0.0303017534, -0.008505799, -9.766833   , -0.00263345242, -0.0002234096, -0.00244544679, -0.460361332, -0.0193474442, 0.2962114   , 0.00165840553, -0.00117188459, 3.09823346  , 4.63        , 3           , 12          , 0.06951187  , 0
-0.000109326094, -0.006514186, -9.760572   , -0.0002507042, -0.0007781992, -0.0008435349, -0.4602265  , -0.0191452075, 0.297222584 , 0.00165590853, -0.00117965264, 3.09822488  , 4.64        , 3           , 50          , 0           , 0
-0.0124581754, -0.035742864, -9.76553249 , 0.00134323654, -0.00105275353, -0.000704545469, -0.461642176, -0.0191452075, 0.297492236 , 0.00166934938, -0.00119016855, 3.0982182   , 4.65        , 3           , 11          , 0.005946362 , 0.00594633771
-0.0248538982, -0.02734498 , -9.785477   , -0.0003729871, 0.000953584269, -0.00109418028, -0.460361332, -0.0193474442, 0.296009183 , 0.00166563247, -0.00118061446, 3.09820724  , 4.66        , 3           , 12          , 0.06951187  , 0
-0.0152818542, -0.00220258534, -9.776073   , 0.000167629842, 0.00254730158, -0.00107681262, -0.460361332, -0.0193474442, 0.296009183 , 0.00166732131, -0.00115512346, 3.09819627  , 4.67        , 3           , 50          , 0           , 0
-0.00315938541, 0.000795446336, -9.817002   , 0.000692518544, 0.00161079958, -0.0006839455, -0.459956855, -0.01948227 , 0.297155172 , 0.00167425431, -0.00113900425, 3.09818959  , 4.68        , 3           , 11          , 0.005946362 , 0.00594633771
-0.00183070078, -0.0113467481, -9.823885   , 0.0009449318, -0.0009178415, -0.0007054828, -0.461642176, -0.0191452075, 0.297492236 , 0.00168371177, -0.00114817079, 3.09818244  , 4.69        , 3           , 12          , 0.06951187  , 0
-0.0128832944, -0.007906074, -9.796429   , 0.000800000853, -0.0007837181, -0.0007049158, -0.4602265  , -0.0191452075, 0.2962114   , 0.001651769 , -0.00115451228, 3.09817576  , 4.7         , 3           , 50          , 0           , 0
-0.0122137778, -0.0103867222, -9.772504   , 0.00147577864, 0.001340502 , -0.0005491749, -0.4602265  , -0.0191452075, 0.2962114   , 0.00166653306, -0.00114109821, 3.09817052  , 4.71        , 3           , 11          , 0.00588465575, 0.00588462455
-0.0131476074, -0.0131023247, -9.771187   , 0.00106675  , -0.000255738822, -0.000300182175, -0.4602265  , -0.019414857, 0.29729     , 0.00167720381, -0.00114365062, 3.09816766  , 4.72        , 3           , 12          , 0.07061016  , 0
-0.0204290543, -0.0126607008, -9.814187   , 0.001320634 , -0.001725899, 0.000484886434, -0.461439937, -0.0191452075, 0.2973574   , 0.00169040484, -0.00116091769, 3.09817243  , 4.73        , 3           , 50          , 0           , 0
-0.0111327507, -0.0115603618, -9.793282   , 0.000659894838, -0.0009246258, 0.0004885626, -0.460361332, -0.0193474442, 0.296143979 , 0.00169699814, -0.00117017212, 3.09817719  , 4.74        , 3           , 11          , 0.00588465575, 0.00588462455
-0.00392987952, -0.00355554931, -9.784983   , 0.000935161661, -0.000253215228, -0.000566542556, -0.460361332, -0.0193474442, 0.296143979 , 0.0017063563, -0.00117269461, 3.09817147  , 4.75        , 3           , 12          , 0.07061016  , 0
-0.0009805877, -0.0158940069, -9.771518   , 0.002400384 , 0.000138907577, -0.00055504695, -0.4602265  , -0.0196845084, 0.2973574   , 0.00173036673, -0.00117129611, 3.09816575  , 4.76        , 3           , 50          , 0           , 0
-0.00673134672, -0.0117023438, -9.781033   , 0.000403889426, 0.000674768351, 0.000235993037, -0.46150735 , -0.0190777946, 0.2973574   , 0.00173440285, -0.00116455252, 3.09816813  , 4.77        , 3           , 11          , 0.00588465575, 0.00588462455
-0.0146458354, -0.01054189 , -9.803253   , -0.00107134786, -0.00144756085, 0.000341605 , -0.460293919, -0.0193474442, 0.2962114   , 0.00172368542, -0.00117903389, 3.09817147  , 4.78        , 3           , 12          , 0.07061016  , 0
0.00294682384, -0.0129120415, -9.804417   , 0.000787168567, -0.00212148973, 0.000345575943, -0.460293919, -0.0193474442, 0.2962114   , 0.001731553 , -0.00120025466, 3.09817529  , 4.79        , 3           , 50          , 0           , 0
-0.00719800731, -0.0121630114, -9.779688   , 0.0018508574, -0.000118158983, -0.000161811942, -0.46009168 , -0.0192800332, 0.297155172 , 0.00170500425, -0.001171422, 3.09817338  , 4.8         , 3           , 11          , 0.00582433073, 0.00582431862
-0.004439473, -0.011234019, -9.784614   , -0.000412438676, -0.00116686546, -0.0008477566, -0.461439937, -0.0189429689, 0.297424823 , 0.0017008899, -0.00118307606, 3.09816527  , 4.81        , 3           , 12          , 0.0717111   , 0
0.00312013738, -0.0154343657, -9.775528   , -0.00214009569, -0.000892626937, -0.000854638754, -0.460428745, -0.01921262 , 0.2962788   , 0.00167949894, -0.001191988, 3.09815669  , 4.82        , 3           , 50          , 0           , 0
-0.009846842, -0.008498281, -9.783297   , -0.00280582625, -0.000626273046, -0.000457330374, -0.460428745, -0.01921262 , 0.2962788   , 0.00165144622, -0.00119824323, 3.098152    , 4.83        , 3           , 11          , 0.00582433073, 0.00582431862
-0.008038109, -0.0125430049, -9.78693    , -0.00134346681, -0.0007662302, -0.0004506701, -0.46009168 , -0.0193474442, 0.2973574   , 0.00163801678, -0.00120589824, 3.09814763  , 4.84        , 3           , 12          , 0.0717111   , 0
-0.0250432473, -0.0127308  , -9.80295    , 0.000648811343, -0.000515329069, 0.00035941336, -0.461574763, -0.0191452075, 0.2973574   , 0.00164450053, -0.00121105753, 3.09815145  , 4.85        , 3           , 50          , 0           , 0
-0.006640581, 0.0206801277, -9.815492   , 0.00130386325, -0.00158832117, 0.00115025474, -0.460024267, -0.0190777946, 0.2962788   , 0.00165752531, -0.00122695975, 3.098163    , 4.86        , 3           , 11          , 0.00582433073, 0.00582431862
0.00341672474, 0.00638628  , -9.791117   , 0.00144542707, -0.0006530794, 0.000495319255, -0.460024267, -0.0190777946, 0.2962788   , 0.0016719735, -0.00123349892, 3.09816766  , 4.87        , 3           , 12          , 0.0717111   , 0
-0.00612853142, -0.00348250777, -9.791332   , 0.0007896399, -0.000109327833, -0.0006988251, -0.46009168 , -0.019414857, 0.29729     , 0.00167987822, -0.00123458041, 3.09816051  , 4.88        , 3           , 50          , 0           , 0
0.000210260972, -0.008437872, -9.79763    , -0.000273698824, 2.87373732E-05, -0.0007033392, -0.461439937, -0.0190777946, 0.297492236 , 0.00167714991, -0.00123428111, 3.09815335  , 4.89        , 3           , 11          , 0.00582433073, 0.00582431862
0.015883375 , 0.00344477012, -9.824874   , 0.0002245877, 0.000296986982, 0.000763093354, -0.46009168 , -0.0193474442, 0.2962788   , 0.00158896891, -0.00118132972, 3.098162    , 4.9         , 3           , 12          , 0.07281444  , 0
-0.01411937 , -0.00105284154, -9.804055   , 0.0012850631, -0.000373158167, 0.0007627721, -0.46009168 , -0.0193474442, 0.2962788   , 0.00160181057, -0.00118507328, 3.09816957  , 4.91        , 3           , 50          , 0           , 0
-0.01454202 , -0.005057156, -9.810425   , -4.35734364E-05, -0.000100811681, 0.00075803604, -0.4602265  , -0.0193474442, 0.297492236 , 0.00160136574, -0.0011860939, 3.09817719  , 4.92        , 3           , 11          , 0.005765782 , 0.005765759
0.0136401365, -0.00280919112, -9.781146   , 0.000625723 , 3.37875172E-05, 9.870903E-05, -0.461574763, -0.0190103818, 0.297424823 , 0.0016076219, -0.00118575746, 3.09817815  , 4.93        , 3           , 12          , 0.07281444  , 0
-0.0116191953, -0.0205610786, -9.796539   , 0.00235406985, -0.000635725, -0.000429325446, -0.4602265  , -0.0193474442, 0.296143979 , 0.00163116783, -0.0011921078, 3.09817338  , 4.94        , 3           , 50          , 0           , 0
-0.0178653747, -0.02089468 , -9.804751   , -0.00124424638, -0.00142060313, 7.539667E-05, -0.4602265  , -0.0193474442, 0.296143979 , 0.00161872443, -0.00120631512, 3.09817433  , 4.95        , 3           , 11          , 0.005765782 , 0.005765759
-0.0208850168, -0.004141936, -9.806878   , -0.002576475, -0.0020775036, -0.000203446325, -0.460428745, -0.019414857, 0.297424823 , 0.00159296207, -0.00122708688, 3.09817243  , 4.96        , 3           , 12          , 0.07281444  , 0
-0.0109572373, 0.00520679355, -9.799436   , 0.000616436941, -0.00129925169, 0.0004850883, -0.461574763, -0.0191452075, 0.297424823 , 0.00159912044, -0.001240087, 3.09817719  , 4.97        , 3           , 50          , 0           , 0
-0.005627228, 0.000151762739, -9.794001   , 0.00168267149, -0.0002448696, 0.00116459467, -0.4601591  , -0.01948227 , 0.2962788   , 0.00161593291, -0.0012425544, 3.09818864  , 4.98        , 3           , 11          , 0.005765782 , 0.005765759
-0.0289753489, 0.0008791927, -9.806477   , 0.00222039921, 0.000288473675, 0.000641001447, -0.4601591  , -0.01948227 , 0.2962788   , 0.00163812889, -0.0012396801, 3.09819531  , 4.99        , 3           , 12          , 0.07281444  , 0
-0.00425247476, 0.010028962 , -9.788464   , 0.00299175177, 0.00041967156, 0.0005138711, -0.460361332, -0.0192800332, 0.297627062 , 0.00157317368, -0.00123208645, 3.098201    , 5           , 3           , 50          , 0           , 0
