Acc X       , Acc Y       , Acc Z       , Gyro X      , Gyro Y      , Gyro Z      , Magn X      , Magn Y      , Magn Z      , Euler X     , Euler Y     , Euler Z     , Time        , Status      , LowRate X   , LowRate Y   , LowRate Z    
-0.005342854, -0.014816164, -9.787372   , 0.0007988411, 0.00227865577, 5.81808563E-05, -0.462181479, -0.0192800332, 0.29877308  , 0.00100690953, -0.0009929694, 3.09928536  , 0           , 3           , 11          , 0.0346410163, 0.0346410163
-0.004535718, -0.0225409  , -9.782921   , 0.002376299 , -0.00145157869, -0.0002327274, -0.4612377  , -0.0190777946, 0.2973574   , 0.0010306749, -0.00100748264, 3.099283    , 0.01        , 3           , 12          , 0.0346410163, 0
-0.0163461287, -0.00325443945, -9.75893    , -0.00398520054, 0.00125045027, -0.00183675881, -0.4612377  , -0.0190777946, 0.2973574   , 0.0009908413, -0.0009949597, 3.09926438  , 0.02        , 3           , 50          , 0           , 0
-0.0232692175, -0.00559914857, -9.793823   , 0.000508477 , -0.00250690966, -0.00025241336, -0.4606984  , -0.0191452075, 0.2983686   , 0.0009959287, -0.00102002651, 3.099262    , 0.03        , 3           , 11          , 0.0346410163, 0.0346410163
-0.01563011 , 0.0261592474, -9.815095   , -0.0002823798, -0.000644631742, 0.000291508331, -0.462114066, -0.01921262 , 0.2989079   , 0.0009931019, -0.00102647557, 3.09926486  , 0.04        , 3           , 12          , 0.0346410163, 0
-0.0128354775, -0.00516779348, -9.799563   , -0.000288080162, -0.0011804977, 0.0008179631, -0.460833222, -0.0193474442, 0.2973574   , 0.0009902127, -0.00103828846, 3.099273    , 0.05        , 3           , 50          , 0           , 0
-0.0183883179, -0.0178239346, -9.794337   , 0.00184856658, -0.0006509362, -0.000228335819, -0.460833222, -0.0193474442, 0.2973574   , 0.00100870081, -0.00104479562, 3.099271    , 0.06        , 3           , 11          , 0.0346410163, 0.0346410163
-0.0135699753, -0.0233845152, -9.782588   , 0.00159403193, 0.002006939 , 0.000325700443, -0.4606984  , -0.0193474442, 0.298436016 , 0.00102463784, -0.00102472957, 3.099274    , 0.07        , 3           , 12          , 0.0346410163, 0
0.00282506645, -0.00944588147, -9.78812    , 0.000521465845, 0.00200062618, 0.0019138481, -0.462114066, -0.0192800332, 0.298705667 , 0.001029833 , -0.00100474292, 3.099293    , 0.08        , 3           , 50          , 0           , 0
-0.0247649439, -0.0164937973, -9.786722   , -0.000278150139, -0.00116724684, -0.00104155228, -0.460968047, -0.0196170956, 0.297424823 , 0.00102706219, -0.00101640471, 3.0992825   , 0.09        , 3           , 11          , 0.0346410163, 0.0346410163
-0.0268130284, 0.002563715 , -9.794687   , -0.000278097985, -0.000110658759, 3.069864E-05, -0.460968047, -0.0196170956, 0.297424823 , 0.00102428114, -0.00101751182, 3.09928346  , 0.1         , 3           , 12          , 0.0346410163, 0
-0.00656413473, 0.00102059171, -9.789487   , -0.00109046791, -0.00303142169, -0.000265833223, -0.4606984  , -0.0192800332, 0.2983686   , 0.00101337919, -0.00104782369, 3.0992806   , 0.11        , 3           , 50          , 0           , 0
-0.00706985733, -0.0147259263, -9.795974   , 0.00130947249, -0.000129584485, 0.00163315353, -0.462181479, -0.0190777946, 0.298638254 , 0.00102645683, -0.001049136, 3.09929681  , 0.12        , 3           , 11          , 0.0346410163, 0.0346410163
-0.01329407 , -0.009656366, -9.802324   , 0.00104341982, -0.0009207643, 0.000827534357, -0.461102873, -0.0195496827, 0.2973574   , 0.0010368824, -0.0010583523, 3.099305    , 0.13        , 3           , 12          , 0.0346410163, 0
-0.0226506386, -0.00319331535, -9.810505   , 0.00158110831, -0.00117986184, -0.000500247057, -0.461102873, -0.0195496827, 0.2973574   , 0.0010526987, -0.00107014552, 3.09929967  , 0.14        , 3           , 50          , 0           , 0
0.006910927 , -0.00361977518, -9.786205   , -0.0013393152, -0.000101827573, -0.000506314449, -0.4607658  , -0.0192800332, 0.298638254 , 0.00103931094, -0.00107115856, 3.099295    , 0.15        , 3           , 11          , 0.0346410163, 0.0346410163
-0.00340643525, -0.0272583775, -9.76172352 , -0.00425396 , 0.0030969542, 0.0005695399, -0.462114066, -0.0190777946, 0.29877308  , 0.0009967654, -0.00104019488, 3.09930062  , 0.16        , 3           , 12          , 0.0346410163, 0
-0.0117954928, -0.0328446329, -9.786727   , -0.00532240048, 0.0004548509, -0.00131987548, -0.460968047, -0.0195496827, 0.2973574   , 0.000943555031, -0.0010356335, 3.09928727  , 0.17        , 3           , 50          , 0           , 0
-0.02463405 , -0.00201331079, -9.789738   , -0.004537192, -0.0008867049, -0.000265091337, -0.460968047, -0.0195496827, 0.2973574   , 0.0008981859, -0.00104449817, 3.099285    , 0.18        , 3           , 11          , 0.0346410163, 0.0346410163
-0.0140360156, 0.004411502 , -9.808969   , 0.00105195737, -0.000381112332, -0.000230210368, -0.4607658  , -0.0193474442, 0.298570842 , 0.000908707851, -0.00104830717, 3.0992825   , 0.19        , 3           , 12          , 0.0346410163, 0
-0.00457562134, 0.00343317934, -9.807959   , -0.00107474613, -0.000633277057, -0.0007753643, -0.461911827, -0.0190103818, 0.2988405   , 0.0008979744, -0.00105467078, 3.09927487  , 0.2         , 3           , 50          , 0           , 0
0.00577005  , -0.00743419444, -9.81291    , -0.005052118, 0.000723414356, -0.00184731733, -0.460968047, -0.019414857, 0.297424823 , 0.0008474727, -0.00104742043, 3.09925628  , 0.21        , 3           , 11          , 0.0346699134, 0.0346699134
0.00285062753, -0.00583289564, -9.788085   , 0.002137421 , 0.00228370586, -0.001528536, -0.460968047, -0.019414857, 0.297424823 , 0.000868862669, -0.0010245702, 3.099241    , 0.22        , 3           , 12          , 0.0346698835, 0
-0.0147154685, 0.003738748 , -9.784138   , -0.000271031051, -0.0006294891, -0.00183365226, -0.460630983, -0.0195496827, 0.298503429 , 0.000866171147, -0.00103084929, 3.09922242  , 0.23        , 3           , 50          , 0           , 0
-0.0187359061, -0.0204081442, -9.807919   , 0.00345466984, 0.00120377459, -0.000202827578, -0.462114066, -0.0192800332, 0.298638254 , 0.0009007199, -0.00101880985, 3.09922051  , 0.24        , 3           , 11          , 0.0346699134, 0.0346699134
-0.0142452708, -0.0159768  , -9.801948   , -0.000788728939, 0.00229758024, -0.00154427416, -0.4607658  , -0.01948227 , 0.297424823 , 0.0008928482, -0.0009958202, 3.09920526  , 0.25        , 3           , 12          , 0.0346698835, 0
-0.012497412, -0.0182884354, -9.797431   , 0.000262545334, 0.00201135129, 0.000584191759, -0.4607658  , -0.01948227 , 0.297424823 , 0.000895467936, -0.0009757119, 3.099211    , 0.26        , 3           , 50          , 0           , 0
-0.0196620021, -0.00652380846, -9.79424    , -0.00426262757, -8.416847E-05, -0.0010533426, -0.460496157, -0.01948227 , 0.29877308  , 0.000852851954, -0.0009765443, 3.09920049  , 0.27        , 3           , 11          , 0.0346699134, 0.0346699134
-0.0279525854, -0.007980378, -9.776737   , 0.002659453 , 0.000947197434, -0.00100647262, -0.462046653, -0.0192800332, 0.2988405   , 0.000879456231, -0.0009670639, 3.09919047  , 0.28        , 3           , 12          , 0.0346698835, 0
-0.00249155238, 0.00324595533, -9.788963   , 0.00211317488, -0.000389944733, 0.000306802627, -0.4606984  , -0.0195496827, 0.297627062 , 0.00090058503, -0.0009709658, 3.09919381  , 0.29        , 3           , 50          , 0           , 0
0.00153651834, 0.00722070551, -9.782098   , 0.00158216862, 0.0006646997, 0.000313628 , -0.4606984  , -0.0195496827, 0.297627062 , 0.0008195042, -0.00121227 , 3.09919667  , 0.3         , 3           , 11          , 0.0347534567, 0.0347534567
-0.01940757 , -0.018830929, -9.782163   , 0.000513727951, -0.00197740388, -0.00157578744, -0.46056357 , -0.0193474442, 0.298638254 , 0.0008246607, -0.00123203092, 3.09918141  , 0.31        , 3           , 12          , 0.03475603  , 0
-0.024847392, -0.022405684, -9.782265   , 0.0015706768, -0.002256061, -0.0005099018, -0.462046653, -0.01921262 , 0.298503429 , 0.000840373861, -0.00125458743, 3.09917569  , 0.32        , 3           , 50          , 0           , 0
-0.00253464468, -0.02639394 , -9.80778    , 0.00130468921, -0.0017265057, 2.4793E-05  , -0.4606984  , -0.01948227 , 0.297492236 , 0.0008534203, -0.00127185264, 3.09917617  , 0.33        , 3           , 11          , 0.0347534567, 0.0347534567
-0.00427747332, -0.006139737, -9.798565   , 0.00211268617, -0.00118874491, -0.00129430473, -0.4606984  , -0.01948227 , 0.297492236 , 0.0008745638, -0.00128372887, 3.09916329  , 0.34        , 3           , 12          , 0.03475603  , 0
0.002986107 , 0.0104459245, -9.790179   , 0.00184252113, 0.0009200134, 0.00164570182, -0.4607658  , -0.019414857, 0.298705667 , 0.0008929679, -0.00127454323, 3.09917951  , 0.35        , 3           , 50          , 0           , 0
0.0128503237, -0.009865645, -9.799296   , 0.00345712248, 0.00252193632, -0.000190723047, -0.461911827, -0.0192800332, 0.298570842 , 0.0009275414, -0.001249322, 3.0991776   , 0.36        , 3           , 11          , 0.0347534567, 0.0347534567
-0.00160469487, -0.0156103056, -9.80224    , -0.00134685752, -0.000117652882, 2.499173E-05, -0.460428745, -0.019414857, 0.2978293   , 0.0009140726, -0.00125049881, 3.099178    , 0.37        , 3           , 12          , 0.03475603  , 0
0.0153054222, -0.0150687676, -9.775375   , 0.00104297046, -0.0009271245, 3.06153379E-05, -0.460428745, -0.019414857, 0.2978293   , 0.000924502 , -0.00125977024, 3.09917855  , 0.38        , 3           , 50          , 0           , 0
-0.0006034933, -0.009688487, -9.808493   , -0.00107368571, 0.00121128559, 3.85109161E-05, -0.460900635, -0.01921262 , 0.29877308  , 0.0009137647, -0.0012476577, 3.09917855  , 0.39        , 3           , 11          , 0.0347534567, 0.0347534567
-0.005558554, 0.000668643042, -9.801223   , -0.00294405059, -0.0011241684, 0.000272326462, -0.4618444  , -0.01921262 , 0.298503429 , 0.000939820369, -0.000780754839, 3.09918141  , 0.4         , 3           , 12          , 0.0348986   , 0
-0.016969163, -0.0137321847, -9.798344   , 0.001038983 , -0.00273743481, 1.36364324E-05, -0.46056357 , -0.01948227 , 0.297627062 , 0.0009502101, -0.0008081293, 3.09918141  , 0.41        , 3           , 50          , 0           , 0
-0.00750781177, -0.0295080245, -9.809228   , 0.00104618  , -0.000614793855, 0.00082991313, -0.46056357 , -0.01948227 , 0.297627062 , 0.0009606652, -0.0008142852, 3.09919     , 0.42        , 3           , 11          , 0.01770826  , 0.0177082587
-0.00622129627, -0.02061563 , -9.794667   , -5.094429E-06, -0.000328564871, -0.00129855273, -0.4607658  , -0.01948227 , 0.298705667 , 0.0009606247, -0.0008175584, 3.09917665  , 0.43        , 3           , 12          , 0.0348986   , 0
-0.02168061 , -0.0286976844, -9.788161   , 0.001591157 , 0.00309777842, 0.00219484745, -0.462046653, -0.01921262 , 0.298436016 , 0.00097651867, -0.0007866018, 3.09919858  , 0.44        , 3           , 50          , 0           , 0
0.003551256 , -0.01769974 , -9.775095   , -0.000532774546, 0.00152866577, -0.00022191 , -0.46056357 , -0.0196170956, 0.297559649 , 0.0009711927, -0.000771313, 3.09919667  , 0.45        , 3           , 11          , 0.01770826  , 0.0177082587
-0.0136911171, -0.0140880309, -9.761718   , 0.00211164  , -0.0008820932, 0.000301928259, -0.46056357 , -0.0196170956, 0.297559649 , 0.0009923067, -0.000780136848, 3.09919953  , 0.46        , 3           , 12          , 0.0348986   , 0
-0.01369896 , -0.03472402 , -9.777283   , -0.000552817131, -0.002195894, -0.000255757681, -0.460833222, -0.0192800332, 0.2988405   , 0.0009867805, -0.0008020935, 3.09919715  , 0.47        , 3           , 50          , 0           , 0
-0.016557321, -0.0227433518, -9.80114    , -0.000793126936, 0.001273352 , -0.001553984, -0.461911827, -0.0190777946, 0.298503429 , 0.0009788618, -0.00078934466, 3.09918141  , 0.48        , 3           , 11          , 0.01770826  , 0.0177082587
-0.00599684753, 0.00651437975, -9.798008   , -0.0002638848, 0.00232363143, 5.24188363E-05, -0.460428745, -0.019414857, 0.2977619   , 0.0009762225, -0.00076610886, 3.09918237  , 0.49        , 3           , 12          , 0.0348986   , 0
-0.0154424459, -0.0386861563, -9.787282   , -0.000232350663, 0.00177626417, 0.0008444906, -0.460428745, -0.019414857, 0.2977619   , 0.00115985388, -0.000794578751, 3.09919047  , 0.5         , 3           , 50          , 0           , 0
-0.0119064189, -0.0490989834, -9.787342   , -0.002103075, -0.0006035876, 1.57811155E-05, -0.460900635, -0.0192800332, 0.299042732 , 0.00113882311, -0.0008006149, 3.09919047  , 0.51        , 3           , 11          , 0.01344087  , 0.0134408651
-0.006795749, -0.0225290544, -9.782497   , 0.0008201989, -0.00141368865, -0.000241378832, -0.461911827, -0.0193474442, 0.2983686   , 0.00114702689, -0.0008147492, 3.099188    , 0.52        , 3           , 12          , 0.0350964963, 0
-0.0183080472, -0.008775167, -9.796052   , 3.06954171E-05, -0.000870253134, -0.001303416, -0.460630983, -0.019414857, 0.297492236 , 0.00114734459, -0.000823436771, 3.09917474  , 0.53        , 3           , 50          , 0           , 0
-0.0129971541, 0.00184610114, -9.776005   , -0.00103758858, -0.00034259283, 2.3921777E-05, -0.460630983, -0.019414857, 0.297492236 , 0.00113696849, -0.000826862932, 3.09917521  , 0.54        , 3           , 11          , 0.01344087  , 0.0134408651
-0.0106834136, 0.00368152722, -9.780927   , 0.0002753392, -0.00274893851, 0.0008062513, -0.460833222, -0.01921262 , 0.2989079   , 0.0011397152, -0.0008543615, 3.09918332  , 0.55        , 3           , 12          , 0.0350964963, 0
0.003998151 , -0.00335275964, -9.813343   , 0.0024348658, 0.00150896912, -0.00073749 , -0.4618444  , -0.0193474442, 0.2983686   , 0.00116407  , -0.0008392633, 3.09917569  , 0.56        , 3           , 50          , 0           , 0
-0.02222451 , -0.005015228, -9.809162   , 0.0008288016, 0.000446697959, 4.119004E-05, -0.460361332, -0.0196845084, 0.2977619   , 0.00117235759, -0.000834796869, 3.09917665  , 0.57        , 3           , 11          , 0.01344087  , 0.0134408651
-0.02010304 , -0.01772146 , -9.804295   , -0.00102332456, 0.00126121892, -0.00102415227, -0.460361332, -0.0196845084, 0.2977619   , 0.00116213283, -0.000822172733, 3.09916615  , 0.58        , 3           , 12          , 0.0350964963, 0
0.0006044917, 0.00361001655, -9.781693   , -0.00182991626, 0.000461204036, -0.000238762412, -0.460968047, -0.019414857, 0.2989079   , 0.0011438356, -0.000817558, 3.09916377  , 0.59        , 3           , 50          , 0           , 0
-0.00241649151, 0.0046660807, -9.796174   , 0.0008115792, -0.00142971158, -0.0007726384, -0.461911827, -0.0191452075, 0.2983686   , 0.00111771934, -0.0008910478, 3.09915614  , 0.6         , 3           , 11          , 0.0113549121, 0.0113549093
-0.00699177943, -0.00254026242, -9.794949   , 0.00106615317, -0.0032951457, -0.0005224864, -0.460496157, -0.0192800332, 0.297694474 , 0.00112838554, -0.0009239934, 3.099151    , 0.61        , 3           , 12          , 0.0353483632, 0
-0.0128650125, -0.0374847949, -9.822022   , 0.00186566473, -0.00224044872, 0.000288411771, -0.460496157, -0.0192800332, 0.297694474 , 0.00114703958, -0.000946401036, 3.09915376  , 0.62        , 3           , 50          , 0           , 0
-0.0158750173, -0.0009911507, -9.809497   , 0.00244342536, 0.00468542567, -0.00123973726, -0.461372524, -0.01948227 , 0.299042732 , 0.00117148517, -0.000899532461, 3.09914136  , 0.63        , 3           , 11          , 0.0113549121, 0.0113549093
-0.0166474115, -0.008483114, -9.779767   , -0.003158622, 0.00152132672, -0.0015644402, -0.462046653, -0.0191452075, 0.2983686   , 0.0011399131, -0.0008843011, 3.09912562  , 0.64        , 3           , 12          , 0.0353483632, 0
-0.0130280331, -0.013431591, -9.78474    , -0.00131073815, 0.0009652735, 0.000565900235, -0.460361332, -0.01948227 , 0.2978293   , 0.00112680066, -0.000874654739, 3.09913135  , 0.65        , 3           , 50          , 0           , 0
0.0149459438, -0.019907   , -9.789433   , -0.0018428046, 0.000175355177, -0.000241149479, -0.460361332, -0.01948227 , 0.2978293   , 0.00110837468, -0.0008728985, 3.099129    , 0.66        , 3           , 11          , 0.0113549121, 0.0113549093
0.000812971964, -0.004254097, -9.811132   , 0.00164967915, 0.00548733  , -0.00123677636, -0.460968047, -0.01948227 , 0.298975319 , 0.00112488191, -0.000818011467, 3.09911656  , 0.67        , 3           , 12          , 0.0353483632, 0
-0.0272650514, -0.0113355294, -9.805674   , -0.000765904668, 0.00177222863, -0.00101785548, -0.462181479, -0.0191452075, 0.298233777 , 0.00111723121, -0.000800277747, 3.09910655  , 0.68        , 3           , 50          , 0           , 0
-0.018472407, -0.000418646232, -9.771126   , -0.00317716785, -0.000616458245, -0.000255556253, -0.460293919, -0.0193474442, 0.2977619   , 0.00108546135, -0.0008064396, 3.09910417  , 0.69        , 3           , 11          , 0.0113549121, 0.0113549093
-0.0144484807, -0.0148340063, -9.778448   , 0.00160695624, 0.0006660883, -0.001014604, -0.460293919, -0.0193474442, 0.2977619   , 0.00106866239, -0.0008645945, 3.09909368  , 0.7         , 3           , 12          , 0.0356526524, 0
0.003332643 , -0.008944428, -9.793982   , -0.0005311482, -0.0006578071, -0.00050684833, -0.4613051  , -0.019414857, 0.298975319 , 0.00106335536, -0.0008711671, 3.099089    , 0.71        , 3           , 50          , 0           , 0
-0.0006660577, -0.00302425586, -9.796231   , -0.000528245931, 0.0006667138, 0.000302175264, -0.461911827, -0.01921262 , 0.298166364 , 0.00105807034, -0.000864503265, 3.09909177  , 0.72        , 3           , 11          , 0.0101344315, 0.01013443
-0.000390330359, -0.00140856579, -9.775431   , 0.00105785381, -0.000410692883, 0.00109802419, -0.460428745, -0.01921262 , 0.297964126 , 0.00106863934, -0.0008686219, 3.09910274  , 0.73        , 3           , 12          , 0.0356526524, 0
-0.007207472, -0.0422178358, -9.802575   , 0.00134095538, 0.000931496557, -0.0007479721, -0.4613051  , -0.019414857, 0.299110144 , 0.00108205515, -0.000859299, 3.09909558  , 0.74        , 3           , 50          , 0           , 0
-0.0170266274, -0.00347537175, -9.783787   , 0.00106641743, 0.000657253 , 0.000576404855, -0.4613051  , -0.019414857, 0.299110144 , 0.00109271437, -0.0008527327, 3.09910131  , 0.75        , 3           , 11          , 0.0101344315, 0.01013443
-0.04185842 , -0.02170246 , -9.796921   , -1.913765E-05, -0.00385659514, -1.70902047E-06, -0.46197924 , -0.0192800332, 0.298098952 , 0.001092523 , -0.0008912985, 3.09910131  , 0.76        , 3           , 12          , 0.0356526524, 0
-0.02533681 , -0.0237859078, -9.779122   , -0.0016024  , -0.002775403, -0.00132884807, -0.460428745, -0.0195496827, 0.297964126 , 0.001076511 , -0.0009190381, 3.099088    , 0.77        , 3           , 50          , 0           , 0
-0.0110297166, -0.00159202144, -9.796795   , 0.00184727891, -0.00253901072, 0.00055168476, -0.4613051  , -0.0192800332, 0.298975319 , 0.00109497877, -0.000944434141, 3.0990932   , 0.78        , 3           , 11          , 0.0101344315, 0.01013443
-0.00201625377, -0.0128769847, -9.804478   , 0.00213044556, 0.000123913836, 4.600228E-05, -0.4613051  , -0.0192800332, 0.298975319 , 0.00111628266, -0.00094319554, 3.09909368  , 0.79        , 3           , 12          , 0.0356526524, 0
-0.0002799984, -0.0237205271, -9.805467   , -0.00130051654, 0.000634749245, -0.0004990266, -0.461642176, -0.01921262 , 0.2983012   , 0.00113892066, -0.00100545771, 3.099089    , 0.8         , 3           , 50          , 0           , 0
-0.00403727964, -0.00725008873, -9.775986   , 0.00137249124, 0.002752349 , -0.000731022737, -0.460428745, -0.01948227 , 0.298031539 , 0.00115265267, -0.000977926, 3.09908128  , 0.81        , 3           , 11          , 0.009381013 , 0.009381017
0.0139223142, -0.0146402139, -9.771774   , -0.004229503, 0.000644837564, 1.65253441E-05, -0.4613051  , -0.01948227 , 0.29924497  , 0.00111035747, -0.00097147777, 3.09908128  , 0.82        , 3           , 12          , 0.0360076241, 0
0.007938258 , -0.00664068758, -9.802486   , -0.003159736, 0.00143980549, -0.000236143649, -0.4613051  , -0.01948227 , 0.29924497  , 0.00107876235, -0.000957077136, 3.09907937  , 0.83        , 3           , 50          , 0           , 0
-0.0182957035, -0.023112895, -9.808845   , -0.000769959937, -0.0004262543, -0.00130277115, -0.4617096  , -0.0193474442, 0.298031539 , 0.00107107533, -0.0009613257, 3.099066    , 0.84        , 3           , 11          , 0.009381013 , 0.009381017
-0.0187199954, -0.00380005129, -9.796459   , -0.000759912655, 0.0019643195, -0.0007497218, -0.460361332, -0.019414857, 0.298098952 , 0.0010634833, -0.0009416745, 3.09905839  , 0.85        , 3           , 12          , 0.0360076241, 0
-0.008378364, 0.00371451862, -9.786319   , -0.00290373061, -0.000159588817, 1.64259764E-05, -0.46150735 , -0.0192800332, 0.298975319 , 0.00103444583, -0.0009432705, 3.09905887  , 0.86        , 3           , 50          , 0           , 0
-0.0138646532, -0.0196378138, -9.79701    , -0.00156649121, 0.00142845151, 0.000303730863, -0.46150735 , -0.0192800332, 0.298975319 , 0.00101877819, -0.000928989146, 3.0990622   , 0.87        , 3           , 11          , 0.009381013 , 0.009381017
-0.0105183274, 0.00519136339, -9.798076   , -0.0005138633, -0.0001766195, 0.0008262378, -0.4617096  , -0.0193474442, 0.298031539 , 0.00101363182, -0.000930763665, 3.09906983  , 0.88        , 3           , 12          , 0.0360076241, 0
0.0007657688, -0.00116206519, -9.803422   , -0.000239260189, 0.00141835911, 0.000842174632, -0.460630983, -0.019414857, 0.298098952 , 0.00101123145, -0.000916588644, 3.09907842  , 0.89        , 3           , 50          , 0           , 0
-0.008517483, -0.0291601438, -9.79704    , 0.00106546073, 0.00249122316, 0.0011246528, -0.461574763, -0.0193474442, 0.299110144 , 0.0009803624, -0.0008680267, 3.09908986  , 0.9         , 3           , 11          , 0.00891479  , 0.008914779
-0.0221460387, -0.0174977276, -9.777665   , -0.00210974528, 0.00120833947, -0.00342057063, -0.461574763, -0.0193474442, 0.299110144 , 0.0009592943, -0.0008559101, 3.09905553  , 0.91        , 3           , 12          , 0.0364114   , 0
0.007255783 , -0.0180789772, -9.785894   , 0.000247311953, -0.00255028787, -0.000253800856, -0.461777   , -0.0191452075, 0.2978293   , 0.000961769663, -0.0008814105, 3.09905314  , 0.92        , 3           , 50          , 0           , 0
-0.00611569 , -0.016025994, -9.802752   , 0.00238261838, -0.000437737268, 0.0005739218, -0.4602265  , -0.0193474442, 0.298166364 , 0.0009855907, -0.0008857935, 3.09905887  , 0.93        , 3           , 11          , 0.00891479  , 0.008914779
-0.00552362949, -0.0024356246, -9.807578   , -0.0005364518, -0.000678545039, -0.0010381043, -0.461642176, -0.019414857, 0.299042732 , 0.0009802354, -0.000892568671, 3.09904838  , 0.94        , 3           , 12          , 0.0364114   , 0
-0.0182562415, -0.0100688618, -9.802841   , 0.001066775 , 0.0003799401, -0.00128549431, -0.461642176, -0.019414857, 0.299042732 , 0.0009909146, -0.0008887567, 3.0990355   , 0.95        , 3           , 50          , 0           , 0
0.00232896954, -0.005451508, -9.779956   , -0.00107987982, -0.00174775417, 1.19435572E-05, -0.4617096  , -0.0193474442, 0.297964126 , 0.0009801157, -0.0009062343, 3.0990355   , 0.96        , 3           , 11          , 0.00891479  , 0.008914779
-0.005435858, -0.007285394, -9.771035   , 0.00079940795, 0.00170004333, 0.000319033774, -0.460630983, -0.01948227 , 0.298166364 , 0.0009881069, -0.0008892371, 3.09903884  , 0.97        , 3           , 12          , 0.0364114   , 0
0.00147049315, -0.0130248358, -9.790883   , 0.00134133908, 0.00118247769, -0.00207374571, -0.461777   , -0.019414857, 0.298975319 , 0.00100153871, -0.000877391663, 3.09901834  , 0.98        , 3           , 50          , 0           , 0
0.0004065726, -0.01227816 , -9.822511   , 0.00264576869, -0.0009710785, 0.00057051715, -0.461777   , -0.019414857, 0.298975319 , 0.00102799118, -0.0008871082, 3.099024    , 0.99        , 3           , 11          , 0.00891479  , 0.008914779
-0.0194772426, -0.0005099643, -9.809987   , 0.00267269835, 0.000959437457, -0.000740854943, -0.461777   , -0.0193474442, 0.297627062 , 0.00106703443, -0.0008037613, 3.09901643  , 1           , 3           , 12          , 0.0368619934, 0
-0.0185757577, -6.87874854E-05, -9.809521   , 0.0016028909, -0.0006279712, -0.00129237422, -0.460293919, -0.019414857, 0.298166364 , 0.00108307356, -0.000810027, 3.09900355  , 1.01        , 3           , 50          , 0           , 0
-0.000137507915, -0.000708159059, -9.802977   , -0.00107287581, -0.001164475, 0.00107928866, -0.461439937, -0.019414857, 0.298975319 , 0.0010723361, -0.0008216834, 3.09901452  , 1.02        , 3           , 11          , 0.008636884 , 0.008636898
-0.008404369, -0.016042687, -9.799166   , -0.000802489056, 0.00121726561, 0.00269634882, -0.461439937, -0.019414857, 0.298975319 , 0.00106428936, -0.0008095396, 3.09904122  , 1.03        , 3           , 12          , 0.0368619934, 0
-0.001009671, -0.0320667922, -9.781166   , -0.00344991055, 0.000190327584, -0.000781015, -0.461642176, -0.019414857, 0.297694474 , 0.00102979632, -0.0008076281, 3.09903359  , 1.04        , 3           , 50          , 0           , 0
-0.0130445771, -0.00313399732, -9.7747     , -0.002924989, -8.580691E-05, 0.000282009 , -0.460496157, -0.01948227 , 0.298166364 , 0.00100054429, -0.000808489043, 3.09903646  , 1.05        , 3           , 11          , 0.008636884 , 0.008636898
0.00474478863, -0.0115862321, -9.802574   , 0.00187174173, -0.0006254465, -0.00182223367, -0.461574763, -0.019414857, 0.299042732 , 0.00101927645, -0.0008147251, 3.09901834  , 1.06        , 3           , 12          , 0.0368619934, 0
0.0118511338, -0.008610446, -9.78755    , 0.00106951036, 0.0006933934, 0.0003107232, -0.461574763, -0.019414857, 0.299042732 , 0.00102996884, -0.0008077944, 3.0990212   , 1.07        , 3           , 50          , 0           , 0
-0.009408545, -0.01434402 , -9.786512   , 0.00213359063, 0.00121664209, 0.0008525716, -0.461439937, -0.01948227 , 0.297559649 , 0.00105129788, -0.0007956368, 3.09902978  , 1.08        , 3           , 11          , 0.008636884 , 0.008636898
0.0009578038, -0.0171188843, -9.787316   , 0.000265755923, -0.000102835533, 0.000564823 , -0.460293919, -0.0193474442, 0.297964126 , 0.0010539511, -0.000796671142, 3.0990355   , 1.09        , 3           , 12          , 0.0368619934, 0
0.00776124  , -0.0287906043, -9.800451   , -0.000781502866, -0.00109491567, 0.000814980944, -0.461642176, -0.019414857, 0.299042732 , 0.00107426953, -0.000726599537, 3.09904313  , 1.1         , 3           , 50          , 0           , 0
0.0122412238, -0.0149526605, -9.785803   , 0.0003067586, 0.0007812488, -0.001818823, -0.461642176, -0.019414857, 0.299042732 , 0.00107735011, -0.0007187675, 3.099025    , 1.11        , 3           , 11          , 0.0084824   , 0.008482401
-0.0108257942, -0.0152948042, -9.780215   , -0.00103327865, -1.81364885E-05, -0.000770649465, -0.461574763, -0.0192800332, 0.297559649 , 0.00106702291, -0.0007189406, 3.09901738  , 1.12        , 3           , 12          , 0.03735732  , 0
-0.01611595 , 0.0005624704, -9.781476   , 0.00163980748, 0.003684345 , 0.000605731038, -0.460293919, -0.019414857, 0.298031539 , 0.00108341652, -0.000682103739, 3.099024    , 1.13        , 3           , 50          , 0           , 0
-0.01122709 , -0.0197262727, -9.789299   , -0.000481287017, 0.00211901846, -0.00234231679, -0.4617096  , -0.01948227 , 0.2989079   , 0.00107861939, -0.000660888269, 3.09900022  , 1.14        , 3           , 11          , 0.0084824   , 0.008482401
0.00141459331, -0.0117352288, -9.783644   , 2.65330964E-05, 0.000235286308, 0.000300071551, -0.4617096  , -0.01948227 , 0.2989079   , 0.00107888272, -0.0006585386, 3.099003    , 1.15        , 3           , 12          , 0.03735732  , 0
-0.0156045593, 0.007345861 , -9.782758   , -0.0002452201, -0.0010917593, 2.09073041E-05, -0.461574763, -0.0191452075, 0.297424823 , 0.00107643055, -0.0006694564, 3.09900355  , 1.16        , 3           , 50          , 0           , 0
-0.0266697034, -0.0156838428, -9.774993   , -0.004474381, 0.00107756408, -0.00290473877, -0.460428745, -0.0193474442, 0.298098952 , 0.001031706 , -0.0006586501, 3.09897447  , 1.17        , 3           , 11          , 0.0084824   , 0.008482401
-0.0082714  , -0.00873515 , -9.808126   , -0.00395513372, 0.000793857733, -0.000779134454, -0.4618444  , -0.0190103818, 0.2989079   , 0.0009921599, -0.0006507036, 3.09896684  , 1.18        , 3           , 12          , 0.03735732  , 0
-0.00499817 , 0.00346491113, -9.811126   , 0.00108198519, -0.00163014582, 2.32256352E-05, -0.4618444  , -0.0190103818, 0.2989079   , 0.00100297958, -0.0006670053, 3.09896684  , 1.19        , 3           , 50          , 0           , 0
-0.00212573633, -0.009398596, -9.78953552 , 0.00212646415, -0.0006001406, 0.0005699546, -0.461642176, -0.0195496827, 0.2973574   , 0.0009986854, -0.000701825, 3.09897256  , 1.2         , 3           , 11          , 0.008402439 , 0.008402439
-0.0148701705, -0.0336358324, -9.79671    , 0.000550385856, 0.00233954587, -0.000208970436, -0.460428745, -0.01921262 , 0.298098952 , 0.00100419077, -0.000678427343, 3.09897065  , 1.21        , 3           , 12          , 0.0378952548, 0
-0.0151074454, -0.0257959943, -9.814253   , -0.00103571359, 0.00341695244, -0.00100481929, -0.461642176, -0.0190777946, 0.298705667 , 0.0009938403, -0.000644247863, 3.09896064  , 1.22        , 3           , 50          , 0           , 0
-0.0189348012, -0.0111891516, -9.778466   , 0.000280077453, 0.00154268753, -0.000217654277, -0.461642176, -0.0190777946, 0.298705667 , 0.0009966424, -0.000628818932, 3.09895825  , 1.23        , 3           , 11          , 0.008402439 , 0.008402439
-0.01485437 , -0.0210638139, -9.788453   , -0.0005208266, 0.00101439108, -0.000226781878, -0.4613051  , -0.019414857, 0.297424823 , 0.0009914357, -0.0006186728, 3.09895635  , 1.24        , 3           , 12          , 0.0378952548, 0
-0.017840663, 0.00155187771, -9.789619   , 2.97984752E-05, 0.004206241 , -0.000460553158, -0.4606984  , -0.01921262 , 0.298098952 , 0.0009917364, -0.000576605846, 3.09895158  , 1.25        , 3           , 50          , 0           , 0
-0.03282815 , -0.0168268811, -9.7936     , 0.000799324538, 0.00125898083, 0.00190795027, -0.46197924 , -0.019414857, 0.298705667 , 0.0009997188, -0.000564035, 3.09897065  , 1.26        , 3           , 11          , 0.008402439 , 0.008402439
-0.0119166709, -0.0195078161, -9.812796   , 0.002409618 , 0.00179863675, -0.000203790638, -0.46197924 , -0.019414857, 0.298705667 , 0.00102381606, -0.0005460466, 3.09896874  , 1.27        , 3           , 12          , 0.0378952548, 0
-0.0187356882, -0.0123360213, -9.801515   , 0.0002686245, -0.0005856326, -0.000236995766, -0.4611703  , -0.0192800332, 0.29729     , 0.00102650363, -0.0005519004, 3.09896636  , 1.28        , 3           , 50          , 0           , 0
-0.005283052, -0.005787775, -9.786829   , -0.001593497, -0.00110509747, -0.000783136638, -0.46056357 , -0.0195496827, 0.297964126 , 0.00101057289, -0.0005629434, 3.09895825  , 1.29        , 3           , 11          , 0.008402439 , 0.008402439
-0.0024853833, -0.003922913, -9.795358   , -0.00100750092, 0.00194965478, 4.577543E-05, -0.46197924 , -0.01921262 , 0.298705667 , 0.00104677177, -0.0006894319, 3.09895921  , 1.3         , 3           , 12          , 0.03847364  , 0
-0.0092365  , -0.024486633, -9.813717   , 0.00403244235, -0.0007347099, 4.87826073E-05, -0.46197924 , -0.01921262 , 0.298705667 , 0.0010870957, -0.000696779462, 3.09895921  , 1.31        , 3           , 50          , 0           , 0
-0.021965811, -0.0276321881, -9.805772   , 0.0005643346, -0.0007315638, 0.00188969844, -0.4612377  , -0.01921262 , 0.297222584 , 0.00109272578, -0.000704115664, 3.09897828  , 1.32        , 3           , 11          , 0.008364812 , 0.008364822
-0.01134952 , -0.00774045475, -9.766142   , -0.00234904839, -0.000700652541, -0.0005168453, -0.460428745, -0.0193474442, 0.298166364 , 0.001069239 , -0.0007111166, 3.098973    , 1.33        , 3           , 12          , 0.03847364  , 0
-0.0010624323, -0.01597558 , -9.7624855  , -0.00315139745, -0.0017591354, -0.0007964533, -0.461911827, -0.0191452075, 0.298503429 , 0.00103773072, -0.000728699553, 3.098965    , 1.34        , 3           , 50          , 0           , 0
-0.00161933154, -0.002171738, -9.789909   , -0.0007600983, -0.00151012617, 1.577619E-05, -0.461911827, -0.0191452075, 0.298503429 , 0.00103012973, -0.000743800949, 3.098965    , 1.35        , 3           , 11          , 0.008364812 , 0.008364822
-0.005015429, 0.00389615237, -9.808864   , -0.00314417388, 0.0008917992, 0.0005559489, -0.4612377  , -0.01948227 , 0.297020346 , 0.0009986839, -0.0007348886, 3.09897065  , 1.36        , 3           , 12          , 0.03847364  , 0
-0.008370848, -0.02049366 , -9.806437   , -0.0004883582, -0.000447227736, 2.6877693E-05, -0.460630983, -0.01948227 , 0.298098952 , 0.0009938001, -0.0007393611, 3.09897113  , 1.37        , 3           , 50          , 0           , 0
-0.0143281724, 0.01712946  , -9.81652451 , -0.00182130281, -0.00123714807, -0.000253174134, -0.461911827, -0.01921262 , 0.298638254 , 0.0009755891, -0.000751730055, 3.09896874  , 1.38        , 3           , 11          , 0.008364812 , 0.008364822
-0.008240851, -0.005565632, -9.808997   , 0.0008445341, -0.00071389525, -0.000765321543, -0.461911827, -0.01921262 , 0.298638254 , 0.0009840401, -0.0007588614, 3.098961    , 1.39        , 3           , 12          , 0.03847364  , 0
-0.000327304, -0.02466456 , -9.800961   , 0.00240510819, 0.00057638716, -0.000478941831, -0.46103546 , -0.01948227 , 0.297020346 , 0.000961272744, -0.0007876716, 3.09895635  , 1.4         , 3           , 50          , 0           , 0
-0.02219777 , -0.008127643, -9.814614   , -0.00159937353, -0.00127265218, 0.0002796084, -0.460428745, -0.0193474442, 0.298166364 , 0.0009452768, -0.0008004008, 3.09895921  , 1.41        , 3           , 11          , 0.008345692 , 0.008345706
-0.0252444912, -0.022797009, -9.788598   , 0.0005287226, -0.00154688931, 2.29915822E-05, -0.462114066, -0.0190777946, 0.298503429 , 0.0009505639, -0.000815869949, 3.09895921  , 1.42        , 3           , 12          , 0.0390903242, 0
-0.01657846 , -0.0142440964, -9.792021   , 0.0008090393, 0.0008481018, -0.000219463487, -0.462114066, -0.0190777946, 0.298503429 , 0.000958655961, -0.0008073869, 3.09895682  , 1.43        , 3           , 50          , 0           , 0
-0.0199250691, -0.03279543 , -9.785923   , -0.00160368124, -0.002334919, 4.292575E-06, -0.460968047, -0.0193474442, 0.297155172 , 0.0009426191, -0.000830736069, 3.09895682  , 1.44        , 3           , 11          , 0.008345692 , 0.008345706
-0.009009039, -0.009017451, -9.776516   , 0.001880226 , 0.00164496258, -0.0007377777, -0.46056357 , -0.019414857, 0.297964126 , 0.0009614274, -0.000814279367, 3.09894967  , 1.45        , 3           , 12          , 0.0390903242, 0
-0.00012024492, -0.00113937818, -9.80524    , 0.0016071063, 0.00137261208, 0.0003209542, -0.4617096  , -0.0195496827, 0.298098952 , 0.0009774958, -0.0008005563, 3.09895253  , 1.46        , 3           , 50          , 0           , 0
-0.00157970015, 0.0005583912, -9.792141   , 0.0008018943, -0.000217950932, 3.65107771E-05, -0.4617096  , -0.0195496827, 0.298098952 , 0.0009855144, -0.000802736147, 3.09895349  , 1.47        , 3           , 11          , 0.008345692 , 0.008345706
0.00195407867, 0.007632436 , -9.778023   , -0.003974963, 0.0006123374, -0.00131021487, -0.460968047, -0.0193474442, 0.2967507   , 0.0009457753, -0.0007966001, 3.09894013  , 1.48        , 3           , 12          , 0.0390903242, 0
0.01270704  , 0.004341582 , -9.772051   , -0.0007942005, -0.0004745301, -0.000240136389, -0.460428745, -0.019414857, 0.298166364 , 0.0009378351, -0.000801343063, 3.09893775  , 1.49        , 3           , 50          , 0           , 0
-0.0201216135, 0.01813512  , -9.77367    , -0.00375089422, 0.002785402 , -0.00128944893, -0.4618444  , -0.0193474442, 0.2983012   , 0.0008385701, -0.0007202708, 3.09892488  , 1.5         , 3           , 11          , 0.008329453 , 0.008329462
-0.0234624967, -0.0237293188, -9.786779   , -0.00323323556, -0.000934108451, -0.00238301558, -0.4611703  , -0.0196170956, 0.29688552  , 0.000806255033, -0.0007295924, 3.098901    , 1.51        , 3           , 12          , 0.0397431664, 0
-0.009453887, -0.0264970567, -9.791153   , -0.000848977244, 0.000362023828, 0.0008296905, -0.4611703  , -0.0196170956, 0.29688552  , 0.000797759159, -0.000725978753, 3.09890962  , 1.52        , 3           , 50          , 0           , 0
-0.0106150117, -0.0222597532, -9.809194   , -0.00139815768, -0.00229963916, 0.0013339424, -0.46056357 , -0.019414857, 0.297964126 , 0.0007837678, -0.000748985738, 3.098923    , 1.53        , 3           , 11          , 0.008329453 , 0.008329462
-0.0193184875, 0.0184826814, -9.812507   , -0.00298005412, -0.00227314141, -0.00133109279, -0.461911827, -0.01921262 , 0.2983012   , 0.000753977336, -0.0007717069, 3.09890962  , 1.54        , 3           , 12          , 0.0397431664, 0
-0.0003220532, 0.001350116 , -9.780824   , 0.00101169967, 0.0003513017, 0.00110535091, -0.460630983, -0.01948227 , 0.29688552  , 0.000764085737, -0.0007682023, 3.09892     , 1.55        , 3           , 50          , 0           , 0
0.012240326 , -0.0145051228, -9.785346   , -0.00137966417, -0.00121844257, -0.00104719237, -0.460630983, -0.01948227 , 0.29688552  , 0.000750297331, -0.000780378759, 3.09890962  , 1.56        , 3           , 11          , 0.008329453 , 0.008329462
-0.0347006619, 0.00464780256, -9.819158   , -0.00164986833, 9.78747848E-05, 0.00108862575, -0.460428745, -0.01948227 , 0.297964126 , 0.0007337901, -0.0007794081, 3.098921    , 1.57        , 3           , 12          , 0.0397431664, 0
-0.0229642726, -0.0165106151, -9.786248   , -0.00081763824, 0.00304513937, -0.00233387365, -0.4617096  , -0.0193474442, 0.298098952 , 0.0007256315, -0.0007489397, 3.09889722  , 1.58        , 3           , 50          , 0           , 0
-0.0126837445, -0.0153350774, -9.774366   , 0.000741352036, -0.0012379979, 0.000292478682, -0.460900635, -0.0193474442, 0.2968181   , 0.000733042834, -0.000761321746, 3.0989      , 1.59        , 3           , 11          , 0.008329453 , 0.008329462
0.005366951 , -0.0333969444, -9.788781   , 0.000240332709, 0.00109566574, -0.0010167897, -0.460900635, -0.0193474442, 0.2968181   , 0.000748565129, -0.0008366874, 3.09889     , 1.6         , 3           , 12          , 0.04043008  , 0
0.0133168744, -0.0134410355, -9.803843   , -0.00214376859, 0.00296929735, -0.00101274252, -0.460496157, -0.01921262 , 0.298031539 , 0.000727135746, -0.000806986936, 3.09888     , 1.61        , 3           , 50          , 0           , 0
-0.007876163, 0.0069012437, -9.789443   , -3.850027E-05, 2.33022056E-05, 0.000300334039, -0.461574763, -0.01921262 , 0.2978967   , 0.0007267482, -0.0008067562, 3.098883    , 1.62        , 3           , 11          , 0.008307647 , 0.008307652
-0.0230754819, -0.004060747, -9.814132   , 0.0015618375, 2.14133215E-05, -0.000488016667, -0.460496157, -0.0195496827, 0.296683282 , 0.000742370554, -0.0008065384, 3.09887815  , 1.63        , 3           , 12          , 0.04043008  , 0
-0.0164106768, -0.0140768755, -9.810538   , 0.000206039156, -0.00396855874, 0.0002654994, -0.460496157, -0.0195496827, 0.296683282 , 0.0007444288, -0.000846225943, 3.098881    , 1.64        , 3           , 50          , 0           , 0
-0.0109539442, -0.0127318911, -9.763928   , 0.00101555907, -0.00131572888, 0.0008252586, -0.460293919, -0.01948227 , 0.298098952 , 0.0007545774, -0.0008593896, 3.098889    , 1.65        , 3           , 11          , 0.008307647 , 0.008307652
-0.00361187384, -0.0189383738, -9.782422   , 0.0002359857, -0.0007590422, -0.002096294, -0.461911827, -0.019414857, 0.298031539 , 0.0007569554, -0.000866964052, 3.09886813  , 1.66        , 3           , 12          , 0.04043008  , 0
-0.004489742, -0.03729357 , -9.799782   , -0.00136432576, -0.0002288593, -0.0007718177, -0.46056357 , -0.0193474442, 0.296615869 , 0.0007433188, -0.0008692469, 3.09886     , 1.67        , 3           , 50          , 0           , 0
0.001702059 , -0.030287575, -9.780212   , -0.00137428183, -0.0007704041, 0.0005515723, -0.46056357 , -0.0193474442, 0.296615869 , 0.000729571155, -0.000876954931, 3.09886575  , 1.68        , 3           , 11          , 0.008307647 , 0.008307652
0.00173815154, -0.007381232, -9.765979   , 0.00209964323, 0.00213963841, 0.000596766535, -0.460496157, -0.0193474442, 0.298098952 , 0.000750562467, -0.0008555629, 3.098872    , 1.69        , 3           , 12          , 0.04043008  , 0
-0.00393676758, -0.00625303946, -9.786365   , 0.00407840731, 0.0008465639, -0.0004680088, -0.4618444  , -0.01921262 , 0.2978293   , 0.0009362181, -0.0008000136, 3.09886718  , 1.7         , 3           , 50          , 0           , 0
-0.0200190078, -0.0207767878, -9.81607    , 8.246333E-05, -0.0004628234, -0.000767203339, -0.46056357 , -0.0195496827, 0.2967507   , 0.0009370488, -0.000804634532, 3.09885955  , 1.71        , 3           , 11          , 0.008275629 , 0.008275643
-0.0173707437, -0.0118858032, -9.802397   , -0.00019774909, -0.000744638965, 0.00161975366, -0.46056357 , -0.0195496827, 0.2967507   , 0.0009350583, -0.0008120961, 3.09887528  , 1.72        , 3           , 12          , 0.04114902  , 0
-0.0213083923, -0.0180126224, -9.821027   , -0.000172110449, 0.0014026108, -0.00101735524, -0.460428745, -0.0193474442, 0.297964126 , 0.0009333453, -0.0007980605, 3.09886575  , 1.73        , 3           , 50          , 0           , 0
-0.00617072359, -0.03356995 , -9.810607   , 0.0005959579, -0.00233898382, 0.0008126045, -0.4618444  , -0.0190103818, 0.2978967   , 0.000939298363, -0.000821458, 3.09887338  , 1.74        , 3           , 11          , 0.008275629 , 0.008275643
-0.01846259 , -0.023727661, -9.790783   , 0.00249088928, 0.00192207762, -0.0009982125, -0.4607658  , -0.019414857, 0.2967507   , 0.000964215433, -0.0008022277, 3.09886384  , 1.75        , 3           , 12          , 0.04114902  , 0
-0.02607467 , -0.00971397 , -9.786219   , 0.00141109992, -0.000735169859, -0.0007624674, -0.4607658  , -0.019414857, 0.2967507   , 0.0009783326, -0.000809572, 3.09885621  , 1.76        , 3           , 50          , 0           , 0
-0.0258510131, -0.0332627259, -9.779675   , -0.002566207, 0.00194225635, -0.000494106556, -0.460428745, -0.0193474442, 0.298031539 , 0.0009526745, -0.0007901446, 3.098851    , 1.77        , 3           , 11          , 0.008275629 , 0.008275643
-0.0109146368, -0.0221099239, -9.775767   , -0.001772461, 0.00114035257, -0.0004970674, -0.461642176, -0.0189429689, 0.297694474 , 0.000934953743, -0.0007787364, 3.0988462   , 1.78        , 3           , 12          , 0.04114902  , 0
-0.01900398 , -0.0135002919, -9.772618   , -0.00043382906, 0.00220199185, -0.001011533, -0.460293919, -0.01948227 , 0.296683282 , 0.0009306232, -0.0007567072, 3.09883618  , 1.79        , 3           , 50          , 0           , 0
-0.0136255361, -0.009986717, -9.765741   , 0.00101224438, 0.000219968642, 4.12692971E-05, -0.460293919, -0.01948227 , 0.296683282 , 0.00110803894, -0.0008889475, 3.09883618  , 1.8         , 3           , 11          , 0.00823274348, 0.008232749
-0.0334985144, 0.00448733941, -9.80243    , -0.00113871833, -0.00296999281, 0.00106339133, -0.46056357 , -0.01948227 , 0.298098952 , 0.00109664223, -0.0009186591, 3.09884667  , 1.81        , 3           , 12          , 0.0418980047, 0
-0.0119048022, 0.01548221  , -9.786244   , 0.00048308025, 0.0007545711, 4.324319E-05, -0.461911827, -0.0191452075, 0.2977619   , 0.00110147253, -0.000911113864, 3.09884763  , 1.82        , 3           , 50          , 0           , 0
-0.025040511, 0.00431259535, -9.789679   , -0.00191538967, -0.00108878512, -0.00104913744, -0.4602265  , -0.0196170956, 0.2967507   , 0.00108232826, -0.000921990257, 3.09883714  , 1.83        , 3           , 11          , 0.00823274348, 0.008232749
-0.016488269, 0.008267719 , -9.784115   , 0.00392411742, -0.00166186446, 0.00083701883, -0.4602265  , -0.0196170956, 0.2967507   , 0.00112156186, -0.000938618148, 3.09884524  , 1.84        , 3           , 12          , 0.0418980047, 0
-0.006189352, -0.0160993952, -9.794622   , 0.00233944925, -0.00031841782, 4.358762E-05, -0.460496157, -0.0193474442, 0.297964126 , 0.001144956 , -0.000941802748, 3.09884572  , 1.85        , 3           , 50          , 0           , 0
0.00277775154, -0.0103899129, -9.783614   , -0.0019195932, -3.787592E-05, 0.000820048561, -0.461642176, -0.0192800332, 0.2978293   , 0.00112575223, -0.0009421909, 3.09885383  , 1.86        , 3           , 11          , 0.00823274348, 0.008232749
-0.0136106135, -0.007276794, -9.815405   , -0.00190964993, 0.000239521978, -0.000771404069, -0.4601591  , -0.0195496827, 0.2968181   , 0.00110666291, -0.0009397871, 3.0988462   , 1.87        , 3           , 12          , 0.0418980047, 0
-0.00468858145, 0.0127378125, -9.787991   , -0.000325020927, -0.00189636566, -0.0007821611, -0.4601591  , -0.0195496827, 0.2968181   , 0.00110341993, -0.000958742, 3.098838    , 1.88        , 3           , 50          , 0           , 0
-0.005597513, -0.0105811525, -9.805853   , -0.00110298011, 0.00262441882, 5.15825741E-05, -0.460361332, -0.019414857, 0.298098952 , 0.00109238969, -0.0009324983, 3.098839    , 1.89        , 3           , 11          , 0.00823274348, 0.008232749
0.0002113227, -0.01919933 , -9.80632    , 0.0006813845, 0.00152378716, 0.0008489351, -0.461574763, -0.0190777946, 0.297492236 , 0.00100987754, -0.000946236658, 3.09884763  , 1.9         , 3           , 12          , 0.04267514  , 0
-0.004019441, -0.0202370286, -9.788313   , -0.0006587309, -0.000860480068, 0.000288732146, -0.4601591  , -0.0193474442, 0.2968181   , 0.00100328738, -0.0009548444, 3.09885049  , 1.91        , 3           , 50          , 0           , 0
-0.0188587829, -0.02456655 , -9.797573   , -0.00251795026, -5.54239959E-05, 0.000551615143, -0.4601591  , -0.0193474442, 0.2968181   , 0.0009781026, -0.0009554042, 3.09885573  , 1.92        , 3           , 11          , 0.008177434 , 0.008177438
0.00288565829, -0.00490110554, -9.791237   , -0.0006530697, -0.00111705519, -0.00104191073, -0.46056357 , -0.01948227 , 0.298031539 , 0.0009715819, -0.0009665646, 3.09884524  , 1.93        , 3           , 12          , 0.04267514  , 0
-0.00499396026, 0.007505056 , -9.808374   , -0.00276406459, 0.000764780038, -0.00236465852, -0.4618444  , -0.0193474442, 0.297559649 , 0.000943964 , -0.0009588941, 3.09882188  , 1.94        , 3           , 50          , 0           , 0
-0.007940067, -0.00213120878, -9.789534   , -0.00119640643, -0.0003372354, 0.00188457652, -0.46009168 , -0.0196170956, 0.29688552  , 0.000931981835, -0.0009622842, 3.09884048  , 1.95        , 3           , 11          , 0.008177434 , 0.008177438
-0.0165585019, -0.0160179567, -9.795651   , -0.0009319417, -0.00298185972, -0.0005289753, -0.46009168 , -0.0196170956, 0.29688552  , 0.0009226677, -0.0009920978, 3.09883523  , 1.96        , 3           , 12          , 0.04267514  , 0
-0.0122201238, 0.00709606335, -9.757873   , -0.00278106146, 0.00127035833, 0.001359208 , -0.4607658  , -0.0193474442, 0.298166364 , 0.0008948436, -0.0009794066, 3.09884858  , 1.97        , 3           , 50          , 0           , 0
0.00720701134, -0.0060197413, -9.770866   , -0.00198312476, -0.0008466016, -0.0007810019, -0.461777   , -0.019414857, 0.297492236 , 0.0008750201, -0.0009878658, 3.098841    , 1.98        , 3           , 11          , 0.008177434 , 0.008177438
-0.0156023167, -0.010141   , -9.796936   , -0.0006530697, -0.00111705519, -0.00104191073, -0.4601591  , -0.019414857, 0.296683282 , 0.0008684996, -0.0009990273, 3.09883046  , 1.99        , 3           , 12          , 0.04267514  , 0
-0.0181756858, -0.007297937, -9.809588   , -0.002810155, -0.0008346005, 0.000542934635, -0.4601591  , -0.019414857, 0.296683282 , 0.0008103888, -0.0009831536, 3.09883618  , 2           , 3           , 50          , 0           , 0
-0.0129811065, 0.0121806   , -9.819719   , -0.002541291, -0.00056792883, 0.000281137967, -0.460630983, -0.0192800332, 0.298166364 , 0.000784973032, -0.0009888351, 3.098839    , 2.01        , 3           , 11          , 0.008111482 , 0.008111482
-0.0144331045, 0.004020162 , -9.815301   , -0.001474321, 0.00101569388, 0.00136394741, -0.4618444  , -0.0193474442, 0.297492236 , 0.000770216342, -0.0009786888, 3.0988524   , 2.02        , 3           , 12          , 0.0434786   , 0
-0.01835396 , -0.008372486, -9.79062748 , 0.0009254238, -4.4673885E-05, -0.0007580073, -0.460361332, -0.01948227 , 0.2968181   , 0.000779478054, -0.0009791298, 3.09884477  , 2.03        , 3           , 50          , 0           , 0
-0.016939288, -0.002043007, -9.792355   , -0.000135728551, 0.00128489244, 4.52934328E-05, -0.460361332, -0.01948227 , 0.2968181   , 0.000778120244, -0.0009662813, 3.09884572  , 2.04        , 3           , 11          , 0.008111482 , 0.008111482
0.0005928911, -0.00492187776, -9.7872     , 0.00277762837, 0.000725687 , 0.00191571179, -0.460900635, -0.0193474442, 0.297964126 , 0.000805878255, -0.000959039549, 3.09886479  , 2.05        , 3           , 12          , 0.0434786   , 0
0.0009905975, 0.00129977055, -9.776291   , -0.0006606758, 0.00103273289, -0.0015538563, -0.461574763, -0.01921262 , 0.297222584 , 0.000799286237, -0.0009486996, 3.098849    , 2.06        , 3           , 50          , 0           , 0
-0.0178958736, -0.00567816943, -9.789241   , -0.00225105742, 0.00157616648, -0.00208889553, -0.46009168 , -0.0193474442, 0.2968181   , 0.000776795263, -0.000932921539, 3.098828    , 2.07        , 3           , 11          , 0.008111482 , 0.008111482
-0.004150726, -0.0324757248, -9.783467   , 0.00113106053, 0.0019435276, 0.000124544822, -0.46009168 , -0.0193474442, 0.2968181   , 0.000788104837, -0.000913487456, 3.09882951  , 2.08        , 3           , 12          , 0.0434786   , 0
-0.00248409621, -0.0066122557, -9.797644   , 0.00105167925, -0.0003184433, 0.0002364594, -0.4606984  , -0.0193474442, 0.298031539 , 0.0007986195, -0.0009166737, 3.09883142  , 2.09        , 3           , 50          , 0           , 0
-0.0215174351, 0.00240720622, -9.781525   , -0.000346971268, -0.000304099056, 0.000228943813, -0.46150735 , -0.0192800332, 0.297222584 , 0.00079218467, -0.0009087149, 3.09883428  , 2.1         , 3           , 11          , 0.008036055 , 0.008036066
4.136935E-06, -0.0140245641, -9.779166   , 0.00210193545, -0.00066156697, 0.00209867163, -0.4601591  , -0.01948227 , 0.297020346 , 0.0008131849, -0.0009153474, 3.09885526  , 2.11        , 3           , 12          , 0.04430665  , 0
0.002885377 , 0.00137675926, -9.786204   , -0.00214362377, -0.000230968188, 0.000485535857, -0.4601591  , -0.01948227 , 0.297020346 , 0.000791744154, -0.0009176611, 3.09886     , 2.12        , 3           , 50          , 0           , 0
0.0003051702, -0.0128276646, -9.811676   , -0.00266427314, 0.000381029 , -0.00103934493, -0.460900635, -0.0192800332, 0.298031539 , 0.0007651109, -0.000913842756, 3.09884953  , 2.13        , 3           , 11          , 0.008036055 , 0.008036066
0.0048116073, 0.004175706 , -9.797447   , -0.00167845818, -0.000299685518, 0.0004874352, -0.4613051  , -0.0192800332, 0.297222584 , 0.000748321938, -0.000916843244, 3.0988543   , 2.14        , 3           , 12          , 0.04430665  , 0
-0.00836491 , -0.002998639, -9.793162   , -0.00246404065, 0.000645176566, -0.0009030317, -0.46009168 , -0.019414857, 0.296952933 , 0.0007236898, -0.0009103851, 3.09884524  , 2.15        , 3           , 50          , 0           , 0
-0.021460874, -0.00740207 , -9.795625   , -0.0029967383, 0.00143919373, 3.111761E-05, -0.46009168 , -0.019414857, 0.296952933 , 0.0006937221, -0.0008959932, 3.09884572  , 2.16        , 3           , 11          , 0.008036055 , 0.008036066
-0.022922745, -0.0106395185, -9.786189   , -0.00128483248, -0.0018275216, -5.561052E-05, -0.46103546 , -0.0197519213, 0.298031539 , 0.0006808743, -0.000914268, 3.09884477  , 2.17        , 3           , 12          , 0.04430665  , 0
0.00384331471, -0.0120274033, -9.803041   , -0.00148074387, -0.000765254954, 0.000351454772, -0.461642176, -0.0191452075, 0.297155172 , 0.00066606357, -0.000921922969, 3.09884858  , 2.18        , 3           , 50          , 0           , 0
0.00259244815, -0.0141576808, -9.816178   , 0.00164134731, -0.00124706479, 0.000563268841, -0.460024267, -0.019414857, 0.297020346 , 0.0006824718, -0.0009343974, 3.0988543   , 2.19        , 3           , 11          , 0.008036055 , 0.008036066
-0.028600011, 0.003939487 , -9.795599   , 0.003988578 , -0.0008246316, 0.000180909934, -0.460024267, -0.019414857, 0.297020346 , 0.000745072437, -0.0008958739, 3.09885621  , 2.2         , 3           , 12          , 0.0451576337, 0
-0.0208647717, -0.0121936556, -9.815542   , 0.00179183122, -0.000949138659, 0.000433542533, -0.460900635, -0.0193474442, 0.298233777 , 0.0007629869, -0.000905368535, 3.09886     , 2.21        , 3           , 50          , 0           , 0
-0.005199237, -0.0169152226, -9.805008   , -0.00206358032, -0.0006643366, 0.000348803151, -0.461777   , -0.0193474442, 0.297155172 , 0.000742347853, -0.000912014453, 3.09886384  , 2.22        , 3           , 11          , 0.007953209 , 0.0079532275
-0.00636564149, -0.0283829439, -9.784809   , -0.000665938365, -0.000537465268, 0.000291112141, -0.46009168 , -0.0192800332, 0.297155172 , 0.000735685753, -0.000917391269, 3.0988667   , 2.23        , 3           , 12          , 0.0451576337, 0
0.00636960426, -0.00774237374, -9.779478   , -0.00165915559, 0.00105782563, 0.00109718821, -0.46009168 , -0.0192800332, 0.297155172 , 0.00071908423, -0.000906821, 3.09887767  , 2.24        , 3           , 50          , 0           , 0
-0.009291779, -0.0173667166, -9.801901   , -0.00126411766, -0.0006001908, 0.000154466092, -0.461102873, -0.019414857, 0.298098952 , 0.0007064417, -0.000912824, 3.098879    , 2.25        , 3           , 11          , 0.007953209 , 0.0079532275
-0.007251149, -0.0265660025, -9.785253   , -0.0019181153, 0.000276110746, -0.00103665621, -0.461574763, -0.0193474442, 0.297155172 , 0.00068727  , -0.000910055649, 3.09886861  , 2.26        , 3           , 12          , 0.0451576337, 0
-0.009540275, 0.0124354279, -9.800701   , -0.0002522438, 0.0021875524, 0.000318039529, -0.460024267, -0.019414857, 0.297222584 , 0.0006847447, -0.0008881823, 3.09887242  , 2.27        , 3           , 50          , 0           , 0
-0.0253872052, 0.0012808498, -9.803718   , -0.00138747727, 0.000866026 , -0.000165008358, -0.4611703  , -0.0192800332, 0.298098952 , 0.000670871348, -0.000879520958, 3.09887052  , 2.28        , 3           , 11          , 0.007953209 , 0.0079532275
-0.0161470566, -0.0227873288, -9.79661751 , -0.0027887472, -0.00091649656, -0.00111859688, -0.4611703  , -0.0192800332, 0.298098952 , 0.0006429938, -0.0008886786, 3.098859    , 2.29        , 3           , 12          , 0.0451576337, 0
0.01027195  , -0.0290054828, -9.77874    , -0.00101672718, 0.000238809327, -0.000102270678, -0.4613051  , -0.0191452075, 0.297020346 , 0.000697217649, -0.0009272159, 3.098858    , 2.3         , 3           , 50          , 0           , 0
-0.0241026431, -0.0113537516, -9.806087   , -0.0005579937, -0.0008289776, 8.979615E-05, -0.460024267, -0.0193474442, 0.297087759 , 0.0006916368, -0.0009355063, 3.098859    , 2.31        , 3           , 11          , 0.007865212 , 0.007865235
-0.04343515 , 0.00365010649, -9.802108   , 0.0005754438, 2.79256037E-05, 0.000435790629, -0.4612377  , -0.0192800332, 0.297964126 , 0.0006973872, -0.0009352301, 3.09886336  , 2.32        , 3           , 12          , 0.04603     , 0
-0.009425532, -0.020190645, -9.789282   , 0.002574519 , 0.00147648  , 0.00119034247, -0.4612377  , -0.0192800332, 0.297964126 , 0.0007231214, -0.0009204737, 3.09887528  , 2.33        , 3           , 50          , 0           , 0
-0.009694142, -0.0110367239, -9.802294   , 0.00132119644, 0.000637717545, -0.00161358423, -0.461642176, -0.0193474442, 0.2968181   , 0.0007363481, -0.0009140847, 3.098859    , 2.34        , 3           , 11          , 0.007865212 , 0.007865235
-0.009456314, 0.00130372681, -9.76874    , -0.001078305, -0.0005466909, -0.00183657429, -0.460024267, -0.0195496827, 0.297155172 , 0.000725581835, -0.000919538143, 3.098841    , 2.35        , 3           , 12          , 0.04603     , 0
-0.000362066552, 0.000861786248, -9.776763   , -0.000694930961, -0.00142788328, 0.0002164634, -0.4612377  , -0.0193474442, 0.298031539 , 0.000718630443, -0.000933818461, 3.09884286  , 2.36        , 3           , 50          , 0           , 0
-0.00748152472, -0.01602867 , -9.801414   , -0.00355243 , -0.00101526442, 0.000204709533, -0.4612377  , -0.0193474442, 0.298031539 , 0.0006831042, -0.000943972729, 3.09884477  , 2.37        , 3           , 11          , 0.007865212 , 0.007865235
-0.003140615, -0.0166793633, -9.7828455  , -0.0006316192, -0.00143245771, 0.0008145227, -0.46150735 , -0.0193474442, 0.297020346 , 0.000676780241, -0.000958302757, 3.09885335  , 2.38        , 3           , 12          , 0.04603     , 0
-0.0184569862, -0.0183408149, -9.787115   , -6.89753651E-05, 0.0009830416, -0.00248141983, -0.4602265  , -0.01948227 , 0.296952933 , 0.00067611417, -0.000948455534, 3.09882855  , 2.39        , 3           , 50          , 0           , 0
-0.0176231116, 0.0259843841, -9.79434    , -0.00189714273, 0.0004327525, -0.000703204132, -0.461372524, -0.01948227 , 0.298233777 , 0.0007313498, -0.0009669376, 3.098821    , 2.4         , 3           , 11          , 0.00777383847, 0.007773863
-0.004829848, 0.00138605386, -9.781329   , -0.00102865172, 0.00135837344, -0.0004908586, -0.461372524, -0.01948227 , 0.298233777 , 0.000721067947, -0.0009533503, 3.09881616  , 2.41        , 3           , 12          , 0.04692226  , 0
0.00258143246, -0.00654962426, -9.758731   , -0.0023729906, -0.000371205271, 0.0004160304, -0.461439937, -0.0192800332, 0.296952933 , 0.0006973342, -0.000957065262, 3.09882045  , 2.42        , 3           , 50          , 0           , 0
0.013040618 , -0.00654133549, -9.767639   , 0.000836652 , 0.00168398756, -0.0007434663, -0.459889442, -0.01948227 , 0.297222584 , 0.0007057077, -0.0009402201, 3.0988133   , 2.43        , 3           , 11          , 0.00777383847, 0.007773863
-0.00398750231, -0.0157208089, -9.788267   , 0.00169193326, 0.000809106 , 0.000116672563, -0.4613051  , -0.0193474442, 0.298031539 , 0.000722626 , -0.0009321299, 3.09881425  , 2.44        , 3           , 12          , 0.04692226  , 0
-0.0164687634, -0.009650372, -9.800556   , 0.00154567731, -0.00178320683, -4.04378225E-05, -0.4613051  , -0.0193474442, 0.298031539 , 0.0007380832, -0.000949961657, 3.09881377  , 2.45        , 3           , 50          , 0           , 0
0.00147530437, -0.0031543877, -9.783557   , 0.0005445765, -0.001849246, 0.0005512938, -0.4612377  , -0.0196170956, 0.296952933 , 0.0007435236, -0.000968458247, 3.098819    , 2.46        , 3           , 11          , 0.00777383847, 0.007773863
0.00563342869, 0.00139841624, -9.79068851 , -0.000177710885, -0.0012391425, -0.0005761924, -0.46009168 , -0.0192800332, 0.297222584 , 0.000741752156, -0.0009808453, 3.0988133   , 2.47        , 3           , 12          , 0.04692226  , 0
0.00346756  , 0.01989011  , -9.786013   , 0.00269160536, 0.000675142044, -0.0004104611, -0.4613051  , -0.0196170956, 0.297964126 , 0.0007686722, -0.0009740909, 3.09880948  , 2.48        , 3           , 50          , 0           , 0
-0.017982237, 0.000518323854, -9.824867   , 0.00348324329, 0.0002666192, 0.000387139764, -0.4613051  , -0.0196170956, 0.297964126 , 0.000803500938, -0.000971427653, 3.0988133   , 2.49        , 3           , 11          , 0.00777383847, 0.007773863
-0.00454288349, 0.00346581265, -9.811572   , -0.000825647847, 0.0007928561, -2.99488547E-05, -0.4613051  , -0.019414857, 0.2967507   , 0.00070000923, -0.0009009467, 3.0988133   , 2.5         , 3           , 12          , 0.0478330329, 0
-0.0194255672, -0.0282660723, -9.787678   , -0.002621995, -0.00012409105, -0.000845003349, -0.4602265  , -0.0196845084, 0.2973574   , 0.0006737969, -0.000902181841, 3.09880471  , 2.51        , 3           , 50          , 0           , 0
-0.021014059, -0.00113146938, -9.790136   , 0.0018209077, -0.00135091622, 0.000363484578, -0.461439937, -0.0193474442, 0.298031539 , 0.00069200265, -0.0009156935, 3.09880853  , 2.52        , 3           , 11          , 0.00767961657, 0.007679637
-0.00332519785, -0.0105807651, -9.807632   , -0.00143202965, -0.000205268545, 0.000422644458, -0.461439937, -0.0193474442, 0.298031539 , 0.0006776784, -0.000917749, 3.09881234  , 2.53        , 3           , 12          , 0.0478330329, 0
-0.0119506512, 0.0015349295, -9.792257   , -0.003220122, 0.0008697713, 9.060141E-05, -0.4612377  , -0.0196170956, 0.296615869 , 0.0006454764, -0.0009090519, 3.0988133   , 2.54        , 3           , 50          , 0           , 0
-0.0034576098, 0.00229197741, -9.78266    , -0.003505108, -0.002720034, -9.879425E-06, -0.460361332, -0.019414857, 0.297155172 , 0.00061042537, -0.0009362521, 3.0988133   , 2.55        , 3           , 11          , 0.00767961657, 0.007679637
-0.00613435 , -0.0169414748, -9.801406   , -0.00318682869, -0.003797128, 0.00157610851, -0.461439937, -0.0193474442, 0.297694474 , 0.000578542 , -0.000974232738, 3.098829    , 2.56        , 3           , 12          , 0.0478330329, 0
-0.005229853, -0.00573475845, -9.7927     , 0.00135753129, -0.0009496491, 0.000364607375, -0.461439937, -0.0193474442, 0.297694474 , 0.000592113764, -0.0009837312, 3.09883285  , 2.57        , 3           , 50          , 0           , 0
-0.00714934431, -0.0282582976, -9.797917   , 0.00103537389, 0.0005844969, -2.17469515E-05, -0.4611703  , -0.019414857, 0.296548456 , 0.0006024677, -0.000977886, 3.09883237  , 2.58        , 3           , 11          , 0.00767961657, 0.007679637
-0.0278672613, -0.013725047, -9.790798   , 0.00102214469, -0.00161222566, 0.000223952142, -0.460024267, -0.0192800332, 0.29729     , 0.00061268697, -0.0009940097, 3.09883475  , 2.59        , 3           , 12          , 0.0478330329, 0
-0.0319514424, -0.0244822949, -9.796828   , -0.0003514731, -0.002413992, 0.0006740374, -0.461574763, -0.0193474442, 0.2978967   , 0.0006604355, -0.00103014545, 3.09884143  , 2.6         , 3           , 50          , 0           , 0
-0.011756815, -0.0153169734, -9.777065   , -0.00107409561, -0.00140814122, 1.50565374E-05, -0.461574763, -0.0193474442, 0.2978967   , 0.0006496943, -0.00104422693, 3.098842    , 2.61        , 3           , 11          , 0.00758426776, 0.00758427847
-0.0170141775, -0.0137770493, -9.793376   , -0.00132834073, -7.052783E-05, -0.0008376321, -0.4611703  , -0.0193474442, 0.29641363  , 0.0006364197, -0.00104492682, 3.09883332  , 2.62        , 3           , 12          , 0.0487610027, 0
-0.006466044, -0.02534394 , -9.771228   , -0.0009886952, 0.0006637646, -0.00142689655, -0.460361332, -0.019414857, 0.297222584 , 0.0006265476, -0.00103828008, 3.098819    , 2.63        , 3           , 50          , 0           , 0
-0.0338234678, -0.02363971 , -9.788712   , 0.001337148 , 0.000584325229, -0.00114933681, -0.461574763, -0.019414857, 0.2977619   , 0.000639931 , -0.00103242951, 3.09880757  , 2.64        , 3           , 11          , 0.00758426776, 0.00758427847
-0.018077435, 0.0111859646, -9.805788   , 0.0014626747, -8.661099E-05, -0.000424141763, -0.461574763, -0.019414857, 0.2977619   , 0.000654562144, -0.001033293, 3.09880328  , 2.65        , 3           , 12          , 0.0487610027, 0
0.00146992877, -0.0004691202, -9.780819   , -0.00133256707, 0.000518123969, 0.000562444155, -0.46103546 , -0.01948227 , 0.296481043 , 0.000641230668, -0.00102811528, 3.09880853  , 2.66        , 3           , 50          , 0           , 0
0.009652987 , -0.00674315542, -9.792527   , -0.002008335, -0.00140798592, 0.0006077503, -0.46009168 , -0.0193474442, 0.29729     , 0.000621141167, -0.001042199, 3.0988152   , 2.67        , 3           , 11          , 0.00758426776, 0.00758427847
-0.00072206 , -0.005770704, -9.792192   , -0.0007473082, -0.00253991433, -5.98414845E-05, -0.46150735 , -0.0192800332, 0.2978293   , 0.0006136687, -0.00106759765, 3.09881425  , 2.68        , 3           , 12          , 0.0487610027, 0
-0.0203792937, -0.0108217746, -9.768091   , -0.0007351199, 0.000117645737, 0.000362803024, -0.46150735 , -0.0192800332, 0.2978293   , 0.0006063136, -0.00106642337, 3.098818    , 2.69        , 3           , 50          , 0           , 0
-0.00464799069, 0.0006704293, -9.802116   , -2.1233951E-05, 0.00245817844, -0.00180406577, -0.4611703  , -0.019414857, 0.29641363  , 0.000650146045, -0.00104143552, 3.0988      , 2.7         , 3           , 11          , 0.007487319 , 0.00748732872
-0.0128220292, -0.01188096 , -9.806406   , -0.00215010764, 0.00134469755, -0.0028219556, -0.460428745, -0.019414857, 0.2973574   , 0.00062867417, -0.00102797057, 3.09877133  , 2.71        , 3           , 12          , 0.04970496  , 0
-0.0139243538, -0.0246301424, -9.794351   , -0.0007721309, -0.00179026031, -0.0025107963, -0.46197924 , -0.01948227 , 0.297694474 , 0.0006209788, -0.00104585756, 3.09874654  , 2.72        , 3           , 50          , 0           , 0
-0.000351525843, -0.0125808641, -9.788643   , 0.0005590665, -0.000474412169, -0.00136256218, -0.46197924 , -0.01948227 , 0.297694474 , 0.000626583758, -0.00105059333, 3.09873319  , 2.73        , 3           , 11          , 0.007487319 , 0.00748732872
0.008683391 , 0.0124790864, -9.76976    , -0.00284541654, -0.00133384508, 0.000138797579, -0.46103546 , -0.0193474442, 0.29641363  , 0.00059812807, -0.00106393266, 3.09873414  , 2.74        , 3           , 12          , 0.04970496  , 0
-0.0216507353, -0.01700851 , -9.782171   , 0.000141181634, -0.001884374, 0.0007477593, -0.4602265  , -0.019414857, 0.297424823 , 0.0005995319, -0.00108278089, 3.09874177  , 2.75        , 3           , 50          , 0           , 0
-0.025070319, -0.0217265487, -9.807106   , -5.224108E-05, -0.000686721352, 0.0008239771, -0.4617096  , -0.019414857, 0.2977619   , 0.000599000545, -0.001089653, 3.09874988  , 2.76        , 3           , 11          , 0.007487319 , 0.00748732872
-0.005910352, -0.0059557  , -9.817555   , -0.0001692108, 0.000920087448, -0.000556868559, -0.4617096  , -0.019414857, 0.2977619   , 0.00059731456, -0.00108044874, 3.09874463  , 2.77        , 3           , 12          , 0.04970496  , 0
-0.0261035413, -0.0178146381, -9.789461   , -0.00204382627, -0.0012668597, -0.000454007124, -0.4606984  , -0.019414857, 0.2962114   , 0.000576881168, -0.00109311473, 3.09873986  , 2.78        , 3           , 50          , 0           , 0
-0.025725225, -0.0223748386, -9.784986   , -9.623905E-05, 0.002645246 , -9.505794E-06, -0.460293919, -0.01948227 , 0.29729     , 0.0005759188, -0.00106666214, 3.09873986  , 2.79        , 3           , 11          , 0.007487319 , 0.00748732872
-0.0216956344, 0.00940904  , -9.806301   , 0.00121842825, 0.00280408026, 0.0004639198, -0.4617096  , -0.0192800332, 0.297694474 , 0.0006853846, -0.00109676481, 3.09874415  , 2.8         , 3           , 12          , 0.0506637469, 0
-0.0322733149, -0.00103143044, -9.792531   , 0.000341015577, 0.0007440036, 0.000772589 , -0.4617096  , -0.0192800332, 0.297694474 , 0.0006887863, -0.00108933006, 3.09875226  , 2.81        , 3           , 50          , 0           , 0
-0.0239261314, -0.01342445 , -9.777194   , 0.00219879  , -0.0005912393, 0.000239225716, -0.460630983, -0.0192800332, 0.296346217 , 0.000710771652, -0.00109524431, 3.09875417  , 2.82        , 3           , 11          , 0.007390447 , 0.007390454
-0.0210793652, -0.0115106478, -9.791144   , 0.001918519 , -0.00206171651, 0.00141990057, -0.460428745, -0.0196845084, 0.297424823 , 0.0007299412, -0.00111587159, 3.09876847  , 2.83        , 3           , 12          , 0.0506637469, 0
-0.00437242 , -0.0201359689, -9.799158   , 0.002593877 , -0.00125870458, 0.000301738939, -0.461574763, -0.01921262 , 0.297559649 , 0.000755876652, -0.00112846075, 3.09877133  , 2.84        , 3           , 50          , 0           , 0
-0.00224121474, -0.009065248, -9.776434   , 0.0007464099, 0.00055252  , -0.0006217147, -0.461574763, -0.01921262 , 0.297559649 , 0.000763347663, -0.0011229309, 3.09876561  , 2.85        , 3           , 11          , 0.007390447 , 0.007390454
-0.00671509653, -0.0157220811, -9.786042   , -0.00157691143, 0.0014277132, -0.000559964858, -0.46056357 , -0.019414857, 0.2962788   , 0.0007475849, -0.00110864942, 3.09876     , 2.86        , 3           , 12          , 0.0506637469, 0
-0.0186901223, 0.007889127 , -9.790469   , -0.00251512369, -3.01457931E-05, -0.00071109226, -0.460293919, -0.01948227 , 0.29729     , 0.000722441531, -0.0011089457, 3.09875226  , 2.87        , 3           , 50          , 0           , 0
-0.0129159689, -0.0222886819, -9.804253   , -0.000659763231, 1.80701481E-05, 0.000627752743, -0.461777   , -0.01948227 , 0.297627062 , 0.0007158369, -0.00110876956, 3.098759    , 2.88        , 3           , 11          , 0.007390447 , 0.007390454
0.008321172 , -0.009402551, -9.797088   , 0.000610943243, 0.00101209513, 0.000311558746, -0.461777   , -0.01948227 , 0.297627062 , 0.000721942866, -0.00109865086, 3.0987618   , 2.89        , 3           , 12          , 0.0506637469, 0
-0.00127795525, -0.0108047035, -9.784571   , 0.000228699428, -0.000511452847, -0.000169398991, -0.460630983, -0.0195496827, 0.296143979 , 0.00076743064, -0.00110188557, 3.09876     , 2.9         , 3           , 50          , 0           , 0
-0.00695411675, 0.0113988779, -9.788032   , 0.000826540461, -0.00011901684, 0.0003687368, -0.460361332, -0.019414857, 0.297222584 , 0.000775692 , -0.00110307848, 3.0987637   , 2.91        , 3           , 11          , 0.00729469536, 0.007294711
-0.0151014049, -0.0042649284, -9.797774   , -9.848152E-05, -0.000172593907, -0.000832278049, -0.4618444  , -0.01921262 , 0.297424823 , 0.0007747163, -0.00110479794, 3.0987556   , 2.92        , 3           , 12          , 0.0516362824, 0
-0.0151067246, -0.0159296282, -9.806476   , -0.00109531032, 9.722949E-05, -0.000702403, -0.4618444  , -0.01921262 , 0.297424823 , 0.00076377095, -0.00110382016, 3.09874845  , 2.93        , 3           , 50          , 0           , 0
0.00366695621, -0.009960979, -9.781792   , -0.00189367984, 0.0006288341, -0.000104158484, -0.46056357 , -0.019414857, 0.296076566 , 0.000744835357, -0.00109753117, 3.09874749  , 2.94        , 3           , 11          , 0.00729469536, 0.007294711
-0.0123997629, -0.005634837, -9.798207   , 0.00071066746, 0.00214957888, -0.0005411859, -0.460496157, -0.01948227 , 0.2973574   , 0.000751947868, -0.00107603124, 3.09874177  , 2.95        , 3           , 12          , 0.0516362824, 0
-0.0100565441, 0.010131564 , -9.795311   , 0.000245481962, 0.00182207557, -0.0009451793, -0.461574763, -0.0192800332, 0.297492236 , 0.0007544128, -0.0010578034, 3.09873271  , 2.96        , 3           , 50          , 0           , 0
0.00289395079, -0.000856885745, -9.788938   , 0.0009748785, 0.00155162078, -0.00081084 , -0.461574763, -0.0192800332, 0.297492236 , 0.000764169963, -0.00104228116, 3.0987246   , 2.97        , 3           , 11          , 0.00729469536, 0.007294711
-0.008615475, -0.02118591 , -9.779795   , -0.0006205038, 0.00136202492, -0.00115329411, -0.460496157, -0.0195496827, 0.296009183 , 0.000757977 , -0.00102865219, 3.09871316  , 2.98        , 3           , 12          , 0.0516362824, 0
-0.007607769, -0.0103247836, -9.782837   , -0.00208321773, 0.00150150876, -0.001093543, -0.460293919, -0.0195496827, 0.297559649 , 0.0007371559, -0.00101362879, 3.09870219  , 2.99        , 3           , 50          , 0           , 0
-0.0128840227, -0.0177724455, -9.804207   , -0.00295616663, -1.23548261E-05, -0.0006472199, -0.4618444  , -0.0191452075, 0.297492236 , 0.0007121779, -0.000983834, 3.098696    , 3           , 3           , 11          , 0.00719959242, 0.007199603
-0.006410204, 0.0101427846, -9.799332   , 0.0008363339, 0.0006324052, -0.000288731273, -0.4618444  , -0.0191452075, 0.297492236 , 0.000720544 , -0.0009775079, 3.09869313  , 3.01        , 3           , 12          , 0.0526215658, 0
-0.009626472, -0.0141083589, -9.812263   , 0.0013540677, -0.00156825979, 0.0001590631, -0.460496157, -0.0196170956, 0.296143979 , 0.0007340832, -0.0009931917, 3.098694    , 3.02        , 3           , 50          , 0           , 0
-0.0172233731, -0.0485153124, -9.797792   , 0.00170690368, 0.0005703145, -0.00148008869, -0.46056357 , -0.0192800332, 0.2973574   , 0.000751167 , -0.0009874776, 3.09867978  , 3.03        , 3           , 11          , 0.00719959242, 0.007199603
0.00766056031, -0.0194737371, -9.781838   , -0.00228437432, 0.000389704015, -0.00150336314, -0.461574763, -0.01921262 , 0.2973574   , 0.000728337967, -0.0009835694, 3.09866452  , 3.04        , 3           , 12          , 0.0526215658, 0
-0.005184902, 0.008660078 , -9.786231   , -0.000886690163, 0.00137505319, -0.0006898501, -0.460496157, -0.01948227 , 0.296143979 , 0.00071947783, -0.0009698138, 3.09865785  , 3.05        , 3           , 50          , 0           , 0
-0.0224941373, -0.02187618 , -9.792621   , -0.0025681858, -0.0009534319, 0.000475455745, -0.460496157, -0.01948227 , 0.296143979 , 0.0006937913, -0.0009793513, 3.09866261  , 3.06        , 3           , 11          , 0.00719959242, 0.007199603
0.00445054471, -0.0141216842, -9.771886   , -0.00263291248, -0.000884713547, 0.000210057449, -0.46056357 , -0.0193474442, 0.297424823 , 0.000667460146, -0.0009882  , 3.09866452  , 3.07        , 3           , 12          , 0.0526215658, 0
-0.0154571906, -0.02928364 , -9.778153   , -0.0015745745, -0.00175580848, 0.000407156767, -0.461911827, -0.01921262 , 0.297222584 , 0.0006517103, -0.00100576063, 3.09866834  , 3.08        , 3           , 50          , 0           , 0
0.00341370143, -0.0043792557, -9.799356   , -0.00150344137, -0.001353751, -5.37378655E-05, -0.460361332, -0.0193474442, 0.2962788   , 0.0006366765, -0.0010192981, 3.09866834  , 3.09        , 3           , 11          , 0.00719959242, 0.007199603
-0.005377777, -0.0117118936, -9.781016   , 6.55596741E-05, -0.00207360717, 0.000147008948, -0.460361332, -0.0193474442, 0.2962788   , 0.0007283946, -0.0009981435, 3.09866929  , 3.1         , 3           , 12          , 0.0536186546, 0
-0.003225984, -0.02932073 , -9.783425   , 0.0002035445, -0.00180346542, -0.0005139707, -0.460293919, -0.0196170956, 0.297559649 , 0.0007304353, -0.00101617456, 3.09866452  , 3.11        , 3           , 50          , 0           , 0
-0.0167378876, -0.0247170664, -9.78264    , 0.000481713883, 0.000192466046, -0.0007600523, -0.461642176, -0.0192800332, 0.29729     , 0.0007352602, -0.00101424416, 3.098657    , 3.12        , 3           , 11          , 0.007106551 , 0.00710657844
-0.00177521433, -0.0328209177, -9.796993   , -0.0009781301, 0.0009961034, -0.0005614345, -0.460293919, -0.0193474442, 0.296346217 , 0.000725484453, -0.001004279, 3.09865117  , 3.13        , 3           , 12          , 0.0536186546, 0
-0.008165855, -0.0122218877, -9.772472   , -0.00211833883, -0.0005301589, -0.000315771758, -0.460293919, -0.0193474442, 0.296346217 , 0.000704304257, -0.00100957823, 3.09864783  , 3.14        , 3           , 50          , 0           , 0
-0.0151691791, -0.005229352, -9.791008   , 7.092829E-05, -0.00107595732, 0.0001560753, -0.460496157, -0.019414857, 0.297424823 , 0.000705011946, -0.00102033908, 3.09864926  , 3.15        , 3           , 11          , 0.007106551 , 0.00710657844
-0.00239658169, -0.0154938148, -9.814446   , -0.000924071937, 0.000318856968, 0.00109316059, -0.461439937, -0.01921262 , 0.29729     , 0.000695760071, -0.00101715827, 3.09866023  , 3.16        , 3           , 12          , 0.0536186546, 0
-0.0188562665, -0.01559527 , -9.790707   , 0.00126416015, 0.00036596955, 0.00236738264, -0.460496157, -0.01948227 , 0.296076566 , 0.0007083776, -0.001013515, 3.098684    , 3.17        , 3           , 50          , 0           , 0
-0.0179968234, -0.02281945 , -9.791672   , -0.0007892755, 0.0006507763, 0.00109689811, -0.460496157, -0.01948227 , 0.296076566 , 0.0007004738, -0.001007015, 3.098695    , 3.18        , 3           , 11          , 0.007106551 , 0.00710657844
-0.0304617789, -0.0023827292, -9.79433    , -0.00397047773, 2.02151223E-05, -0.00164917682, -0.460293919, -0.0196845084, 0.297492236 , 0.000660785532, -0.00100680185, 3.09867883  , 3.19        , 3           , 12          , 0.0536186546, 0
-0.0124933189, -0.01828436 , -9.797883   , -0.0002775473, -0.00108989968, -0.00057667034, -0.461574763, -0.0191452075, 0.297424823 , 0.000756769849, -0.00106222415, 3.09867215  , 3.2         , 3           , 50          , 0           , 0
-0.0117303636, -0.0121515393, -9.777484   , 0.00177733635, -0.000778482761, 0.00103131041, -0.460361332, -0.019414857, 0.2962114   , 0.0007745321, -0.001070017, 3.09868264  , 3.21        , 3           , 11          , 0.007014881 , 0.00701491535
-0.00565777533, -0.00301776268, -9.793129   , 0.00258965068, 0.00101965549, 0.000188575679, -0.460361332, -0.019414857, 0.2962114   , 0.000800426642, -0.00105982181, 3.09868455  , 3.22        , 3           , 12          , 0.0546266772, 0
0.00218222663, 0.00427231  , -9.80606    , 0.00118522486, -4.0722105E-05, 0.000569861033, -0.4602265  , -0.0192800332, 0.297627062 , 0.000812272832, -0.00106023357, 3.09869027  , 3.23        , 3           , 50          , 0           , 0
-0.01686625 , -0.00779991644, -9.80505848 , 0.00244446867, -0.0013731271, 3.3278513E-05, -0.46150735 , -0.019414857, 0.297222584 , 0.0008367172, -0.0010739651, 3.09869075  , 3.24        , 3           , 11          , 0.007014881 , 0.00701491535
-0.00541561656, -0.0153371105, -9.779697   , 0.002852056 , -0.000241036541, -0.000419179036, -0.459956855, -0.0193474442, 0.2962788   , 0.000865242269, -0.00107637187, 3.09868646  , 3.25        , 3           , 12          , 0.0546266772, 0
0.00143158436, -0.00588858873, -9.780875   , 0.0011869818, -0.00036853968, -9.727371E-05, -0.459956855, -0.0193474442, 0.2962788   , 0.00087711314, -0.0010800563, 3.0986855   , 3.26        , 3           , 50          , 0           , 0
-0.00379914418, -0.0114971418, -9.80584    , 0.00344953663, 1.88527447E-05, 5.133667E-05, -0.460293919, -0.0196170956, 0.297694474 , 0.000911608 , -0.00107986829, 3.098686    , 3.27        , 3           , 11          , 0.007014881 , 0.00701491535
-0.012460297, -0.0245295819, -9.806528   , 0.00219668914, 0.00162392354, -0.0003394208, -0.461574763, -0.01921262 , 0.297155172 , 0.000933578354, -0.00106362591, 3.09868264  , 3.28        , 3           , 12          , 0.0546266772, 0
-0.0177784245, -0.0172205139, -9.811489   , 0.00165076531, 0.0002872544, 0.000907443347, -0.46009168 , -0.01948227 , 0.296076566 , 0.0009500765, -0.00106076186, 3.0986917   , 3.29        , 3           , 50          , 0           , 0
-0.00223846361, -0.0247578528, -9.789239   , -0.00125411048, -9.101965E-05, 0.000356754754, -0.46009168 , -0.01948227 , 0.296076566 , 0.0009824989, -0.00105484133, 3.098695    , 3.3         , 3           , 11          , 0.00692610443, 0.006926141
0.006591374 , -0.0120057371, -9.807526   , 0.0003398664, 0.00036083028, 0.00123291661, -0.460293919, -0.0195496827, 0.297559649 , 0.0009858846, -0.00105124526, 3.09870744  , 3.31        , 3           , 12          , 0.0556448027, 0
-0.008258229, -0.009170452, -9.809937   , -0.0007771987, 0.0007143579, -0.000961713842, -0.461439937, -0.01921262 , 0.297087759 , 0.0009781227, -0.00104409212, 3.098698    , 3.32        , 3           , 50          , 0           , 0
-0.01520393 , -0.0124389995, -9.792889   , -0.000435438065, 0.001187343 , -0.00221750862, -0.460293919, -0.0195496827, 0.296143979 , 0.0009737914, -0.00103219715, 3.098676    , 3.33        , 3           , 11          , 0.00692610443, 0.006926141
0.02179674  , -0.0122486614, -9.792434   , 0.000693392241, 0.00210413057, -0.000941151753, -0.460293919, -0.0195496827, 0.296143979 , 0.0009807348, -0.00101114658, 3.09866643  , 3.34        , 3           , 12          , 0.0556448027, 0
0.003848687 , -0.0147126708, -9.8057785  , -0.00143689045, 0.00118686713, -0.0014923499, -0.460496157, -0.0195496827, 0.2973574   , 0.000966380932, -0.0009992635, 3.09865117  , 3.35        , 3           , 50          , 0           , 0
-0.006031651, -0.0190813076, -9.814527   , -0.0022395514, 0.0009863885, -0.0008343426, -0.461372524, -0.0193474442, 0.296952933 , 0.0009439936, -0.0009893916, 3.098643    , 3.36        , 3           , 11          , 0.00692610443, 0.006926141
-0.008767426, -0.0190907344, -9.811398   , 0.0003440766, -0.0005580053, -0.000502238167, -0.4601591  , -0.0192800332, 0.296346217 , 0.000947439461, -0.0009949668, 3.09863782  , 3.37        , 3           , 12          , 0.0556448027, 0
-0.005088739, -0.0168050956, -9.81720352 , -0.0009974251, -0.002283798, -0.0001266393, -0.4601591  , -0.0192800332, 0.296346217 , 0.000937466451, -0.00101780356, 3.09863687  , 3.38        , 3           , 50          , 0           , 0
-0.00450236537, -0.0166779645, -9.781959   , -0.0005348165, -0.00387467351, -0.00120122184, -0.460428745, -0.019414857, 0.297694474 , 0.0009321307, -0.00105653889, 3.09862447  , 3.39        , 3           , 11          , 0.00692610443, 0.006926141
-0.000330233946, 0.00134195574, -9.77992    , 0.00109332986, -0.002860241, -0.000187459969, -0.46150735 , -0.0191452075, 0.297155172 , 0.00101516454, -0.00101429 , 3.09862256  , 3.4         , 3           , 12          , 0.05667227  , 0
-0.0136129037, -0.008175949, -9.815865   , 0.002486772 , -0.00161642383, 0.00169105083, -0.459956855, -0.0195496827, 0.2962788   , 0.001040015 , -0.00103047176, 3.09863973  , 3.41        , 3           , 50          , 0           , 0
-0.009941518, -0.0287723728, -9.788922   , 0.00142158789, -0.0029335334, 0.000544248 , -0.459956855, -0.0195496827, 0.2962788   , 0.00105422526, -0.00105981273, 3.098645    , 3.42        , 3           , 11          , 0.006838107 , 0.00683811167
-0.0204146653, -0.0238617379, -9.774546   , 0.00117590954, -0.000461937365, -0.000763044343, -0.460630983, -0.019414857, 0.297627062 , 0.0010659924, -0.001064424, 3.09863734  , 3.43        , 3           , 12          , 0.05667227  , 0
-0.02552477 , -0.007825019, -9.795679   , 0.00143266341, -0.001267944, 0.000160890966, -0.461574763, -0.0192800332, 0.297020346 , 0.00108031731, -0.00107710517, 3.09863877  , 3.44        , 3           , 50          , 0           , 0
-0.0151893534, -0.0115276016, -9.793783   , 0.00110552472, -7.060726E-05, 0.000369215937, -0.459822029, -0.01948227 , 0.296481043 , 0.0010913685, -0.00107781542, 3.09864259  , 3.45        , 3           , 11          , 0.006838107 , 0.00683811167
0.00359924673, -0.02527537 , -9.786464   , 0.00159710366, 0.00332960626, -0.00105850247, -0.459822029, -0.01948227 , 0.296481043 , 0.00110735069, -0.0010445076, 3.098632    , 3.46        , 3           , 12          , 0.05667227  , 0
-0.0161877554, -0.0147560043, -9.785696   , 0.000185565441, 0.00186354341, 0.000248913973, -0.4607658  , -0.0193474442, 0.297627062 , 0.00110920379, -0.00102587487, 3.098635    , 3.47        , 3           , 50          , 0           , 0
0.00392185524, -0.0164335128, -9.815282   , -0.0007551359, 0.000270298566, 0.000428634085, -0.461439937, -0.0190777946, 0.297020346 , 0.001101648 , -0.00102317659, 3.09863877  , 3.48        , 3           , 11          , 0.006838107 , 0.00683811167
-0.0146895666, -0.0132761039, -9.80057049 , 0.00052272866, 0.00259452313, 0.000124528611, -0.459956855, -0.019414857, 0.2962114   , 0.001106874 , -0.0009972327, 3.0986402   , 3.49        , 3           , 12          , 0.05667227  , 0
-0.009320198, -0.009323146, -9.792334   , 0.0005873607, -0.00033986877, 0.00162571087, -0.459956855, -0.019414857, 0.2962114   , 0.00116386218, -0.0009931055, 3.09865642  , 3.5         , 3           , 50          , 0           , 0
-0.00437404774, -0.0295548011, -9.8064785  , 0.001255554 , -0.0009991303, 0.0003614296, -0.4607658  , -0.0192800332, 0.297694474 , 0.00117641443, -0.001003101, 3.09865975  , 3.51        , 3           , 11          , 0.006753082 , 0.0067531
-0.0114298426, -0.0351752564, -9.779066   , 0.000124908067, -0.00277676224, -0.00145407475, -0.461439937, -0.019414857, 0.2968181   , 0.00117767823, -0.0010308515, 3.09864545  , 3.52        , 3           , 12          , 0.0577083528, 0
-0.0108415931, -0.0278668273, -9.788472   , 0.0016509759, -0.0020623426, -4.456263E-05, -0.459822029, -0.0192800332, 0.2962114   , 0.00119418849, -0.00105147448, 3.098645    , 3.53        , 3           , 50          , 0           , 0
0.0124980714, 0.000101801008, -9.802362   , 0.0009337545, 0.0006015257, -2.43202576E-05, -0.459822029, -0.0192800332, 0.2962114   , 0.00120352639, -0.001045459, 3.0986445   , 3.54        , 3           , 11          , 0.006753082 , 0.0067531
-0.002374608, -0.0100906529, -9.812585   , 0.00127660192, 0.00153818773, -0.00101023889, -0.460833222, -0.0193474442, 0.2977619   , 0.00121630274, -0.00103006489, 3.098635    , 3.55        , 3           , 12          , 0.0577083528, 0
-0.00918713 , 0.00202044658, -9.798092   , 0.000142471457, 0.00101052178, -0.000888332434, -0.461439937, -0.019414857, 0.29688552  , 0.00121773675, -0.00101994886, 3.09862542  , 3.56        , 3           , 50          , 0           , 0
0.0139417686, -0.0182083361, -9.776779   , 0.00128194422, 0.00200754358, -0.0015372982, -0.460024267, -0.019414857, 0.29641363  , 0.00123057165, -0.0009998545, 3.09861016  , 3.57        , 3           , 11          , 0.006753082 , 0.0067531
-0.00493751653, -0.02876664 , -9.793378   , -0.00179505267, -0.000180826508, -0.0004447061, -0.460024267, -0.019414857, 0.29641363  , 0.00121262565, -0.00100165734, 3.09860587  , 3.58        , 3           , 12          , 0.0577083528, 0
0.00293717533, 8.306652E-05, -9.792993   , -0.000997724, -0.000251593621, -0.000374606956, -0.460833222, -0.0191452075, 0.297694474 , 0.00120265211, -0.001004169, 3.09860253  , 3.59        , 3           , 50          , 0           , 0
-0.008841826, 0.003705483 , -9.78497    , 0.0006746374, 0.000237095 , 0.000103405924, -0.461642176, -0.0192800332, 0.2968181   , 0.00123268552, -0.0009198068, 3.09860349  , 3.6         , 3           , 11          , 0.006669474 , 0.00666947756
-0.0276931543, 0.00169538707, -9.797869   , 0.000600995438, -0.000696569, 0.0004930539, -0.459822029, -0.0195496827, 0.2968181   , 0.00123869092, -0.000926778535, 3.09860826  , 3.61        , 3           , 12          , 0.0587524064, 0
0.00565579534, 0.00455977954, -9.790656   , -0.00211817422, -0.000211445251, -0.000447138038, -0.459822029, -0.0195496827, 0.2968181   , 0.00121751335, -0.000928887457, 3.09860349  , 3.62        , 3           , 50          , 0           , 0
0.0100482851, -0.00545673259, -9.785282   , -0.0037732888, 0.0002686333, -0.001381607, -0.46103546 , -0.019414857, 0.2977619   , 0.00117979338, -0.000926184643, 3.09859014  , 3.63        , 3           , 11          , 0.006669474 , 0.00666947756
-0.0110684521, -0.004769698, -9.795019   , -0.0008585429, -0.0008830096, -0.000379974925, -0.4613051  , -0.0191452075, 0.2967507   , 0.00117121148, -0.000935010263, 3.09858632  , 3.64        , 3           , 12          , 0.0587524064, 0
-0.0046781525, -0.00474090129, -9.803072   , -0.000379080273, 0.00131245237, -0.00075599266, -0.459956855, -0.01948227 , 0.29641363  , 0.00116742775, -0.000921877, 3.09857869  , 3.65        , 3           , 50          , 0           , 0
-0.01658861 , -0.0030432418, -9.78197    , -0.0007784521, 0.00137990771, -0.000624711858, -0.459956855, -0.01948227 , 0.29641363  , 0.00115964876, -0.0009080706, 3.098572    , 3.66        , 3           , 11          , 0.006669474 , 0.00666947756
-0.008522095, 0.00177752413, -9.771885   , 0.000349955139, 0.0009094504, -0.000689273467, -0.460900635, -0.01948227 , 0.297424823 , 0.00116315449, -0.000898968137, 3.09856534  , 3.67        , 3           , 12          , 0.0587524064, 0
-0.00518516824, -0.0177980624, -9.807275   , -0.002849689, 0.000254280516, 1.80373154E-05, -0.4613051  , -0.01948227 , 0.296481043 , 0.00113465742, -0.0008964255, 3.09856534  , 3.68        , 3           , 50          , 0           , 0
-0.006581061, -0.0191760026, -9.803692   , -0.00365771819, -0.000943848, 0.000666978071, -0.460024267, -0.019414857, 0.296481043 , 0.00109807437, -0.000905871333, 3.098572    , 3.69        , 3           , 11          , 0.006669474 , 0.00666947756
-0.0205797441, -0.002945235, -9.789698   , -0.000335653342, -0.0008747426, -0.000377106626, -0.460024267, -0.019414857, 0.296481043 , 0.0010722531, -0.000888095761, 3.0985682   , 3.7         , 3           , 12          , 0.0598037839, 0
-0.0170845278, -0.009362783, -9.78204    , 0.00251404033, -0.00136380969, 0.00102867943, -0.461102873, -0.01948227 , 0.297627062 , 0.00109738426, -0.000901744934, 3.09857869  , 3.71        , 3           , 50          , 0           , 0
-0.0148608182, -0.00761708245, -9.777025   , 0.000320462656, -0.00194631494, 0.000214500833, -0.461439937, -0.0192800332, 0.296615869 , 0.00110058684, -0.0009212104, 3.0985806   , 3.72        , 3           , 11          , 0.006587669 , 0.00658766925
-0.0189045854, -0.0201278049, -9.788946   , -0.00238619675, 0.000536475 , -0.00103961467, -0.4602265  , -0.0193474442, 0.296615869 , 0.00107673439, -0.0009158344, 3.09857059  , 3.73        , 3           , 12          , 0.0598037839, 0
0.003305184 , -0.0156983789, -9.79630852 , 0.00180209288, 0.0003826429, -0.000885466754, -0.4602265  , -0.0193474442, 0.296615869 , 0.00109476363, -0.0009119984, 3.09856153  , 3.74        , 3           , 50          , 0           , 0
-0.00307643437, -0.0139247654, -9.78778648 , 0.000606818066, 0.000654832 , -0.0009558986, -0.46103546 , -0.0195496827, 0.297559649 , 0.00110084051, -0.0009054396, 3.098552    , 3.75        , 3           , 11          , 0.006587669 , 0.00658766925
-0.0152911  , 0.008550724 , -9.76647949 , -0.00152088748, 0.00165594683, -2.85205551E-05, -0.461372524, -0.0193474442, 0.296615869 , 0.00108563178, -0.00088888 , 3.098552    , 3.76        , 3           , 12          , 0.0598037839, 0
-0.00125542283, -0.0179572571, -9.792773   , -0.003914347, 0.000743730634, -0.00111243944, -0.460024267, -0.0193474442, 0.296615869 , 0.00104649819, -0.000881430751, 3.09854054  , 3.77        , 3           , 50          , 0           , 0
0.005452996 , -0.02927523 , -9.795064   , -0.00139327522, 0.000129372333, -0.000572997, -0.460024267, -0.0193474442, 0.296615869 , 0.00103257038, -0.000880131032, 3.09853482  , 3.78        , 3           , 11          , 0.006587669 , 0.00658766925
-0.00935193 , -0.005767258, -9.7859745  , 0.001261499 , -0.0007488171, -0.000433724577, -0.4612377  , -0.0192800332, 0.297424823 , 0.00104518922, -0.0008876147, 3.098531    , 3.79        , 3           , 12          , 0.0598037839, 0
1.63633376E-05, -0.03239836 , -9.795161   , 0.000401656958, -0.000803937961, -0.000306174, -0.4611703  , -0.01921262 , 0.296346217 , 0.00106378563, -0.000874829653, 3.09852767  , 3.8         , 3           , 50          , 0           , 0
0.00185306743, -0.0278948676, -9.795094   , -0.000468242855, -0.00153334148, -5.18275E-05, -0.460024267, -0.0195496827, 0.2967507   , 0.00105910376, -0.0008901625, 3.09852719  , 3.81        , 3           , 11          , 0.006508852 , 0.00650888
0.0026065968, -0.000694843, -9.756866   , 0.00138674676, -0.00181578239, 0.00101835025, -0.46103546 , -0.019414857, 0.297492236 , 0.001072962 , -0.0009083312, 3.09853721  , 3.82        , 3           , 12          , 0.06086192  , 0
0.00361207314, -0.00508284755, -9.771806   , -0.00113251235, -0.000406616979, 0.0009510397, -0.46103546 , -0.019414857, 0.297492236 , 0.00106162811, -0.00091240753, 3.09854674  , 3.83        , 3           , 50          , 0           , 0
-0.0219745617, -0.0150846289, -9.794805   , 0.00180652575, 0.002039905 , 0.001055553 , -0.4611703  , -0.0193474442, 0.296481043 , 0.00107968377, -0.0008920197, 3.09855723  , 3.84        , 3           , 11          , 0.006508852 , 0.00650888
-0.007526874, -0.0281817019, -9.806053   , 0.002133687 , 0.00130482554, 0.00131633761, -0.4601591  , -0.0196170956, 0.296548456 , 0.0011010092, -0.000878985855, 3.09857     , 3.85        , 3           , 12          , 0.06086192  , 0
-0.0145682571, -0.000150486827, -9.8036     , 0.000208592159, 0.00046022475, -0.0002293518, -0.460900635, -0.01921262 , 0.297627062 , 0.001103097 , -0.0008743811, 3.0985682   , 3.86        , 3           , 50          , 0           , 0
-0.00562403165, 0.000603381544, -9.793996   , -0.00014211594, -0.00167551008, 0.00101133226, -0.460900635, -0.01921262 , 0.297627062 , 0.00110166683, -0.000891147356, 3.09857821  , 3.87        , 3           , 11          , 0.006508852 , 0.00650888
-0.0043558944, 0.00230243243, -9.783122   , 0.000955822 , 0.00226057088, -0.00133808947, -0.4612377  , -0.0190103818, 0.2962114   , 0.00111123663, -0.000868526753, 3.09856486  , 3.88        , 3           , 12          , 0.06086192  , 0
-0.0205494128, -0.007847834, -9.796974   , -0.000121396675, 0.00138962851, 0.000242200535, -0.46009168 , -0.019414857, 0.296683282 , 0.00111002068, -0.000854633166, 3.09856725  , 3.89        , 3           , 50          , 0           , 0
-0.0368565023, -0.0145237781, -9.795432   , 0.000388250017, -0.0004160175, 0.00109210389, -0.4612377  , -0.0196170956, 0.2973574   , 0.00109284127, -0.000861929148, 3.09857821  , 3.9         , 3           , 11          , 0.00643148134, 0.006431513
-0.0256063715, -0.0325704738, -9.806317   , 0.0005194868, -0.0003529776, 0.00149189134, -0.4612377  , -0.0196170956, 0.2973574   , 0.00109802315, -0.000865475333, 3.098593    , 3.91        , 3           , 12          , 0.0619262643, 0
0.0200822949, -0.0184240472, -9.807425   , -0.000531735364, 0.0009898396, 0.000435676629, -0.461102873, -0.01948227 , 0.296346217 , 0.001092702 , -0.00085558166, 3.09859776  , 3.92        , 3           , 50          , 0           , 0
0.0029395856, 0.00501828268, -9.78933    , 0.00232682773, 0.000578640262, 0.0002481967, -0.460024267, -0.019414857, 0.296615869 , 0.0011159681, -0.000849798, 3.09860015  , 3.93        , 3           , 11          , 0.00643148134, 0.006431513
-0.0147041343, -0.014187512, -9.799676   , 0.001407864 , 0.0011274392, -0.00147866842, -0.461439937, -0.0193474442, 0.297424823 , 0.00113005936, -0.000838507141, 3.09858537  , 3.94        , 3           , 12          , 0.0619262643, 0
-0.009298166, -0.01826996 , -9.801909   , 0.0017290652, 0.001771086 , 0.00131843751, -0.461439937, -0.0193474442, 0.297424823 , 0.00114733912, -0.000820811256, 3.09859872  , 3.95        , 3           , 50          , 0           , 0
-0.004380608, -0.0201441273, -9.798254   , 0.0008666257, 0.00131576764, 0.000446210121, -0.461372524, -0.0196170956, 0.2962788   , 0.0011560017, -0.0008076587, 3.098603    , 3.96        , 3           , 11          , 0.00643148134, 0.006431513
-0.00264071673, -0.0143918181, -9.78643    , -0.00112815131, 0.00073136983, -0.000234072912, -0.459956855, -0.01948227 , 0.296683282 , 0.001144722 , -0.000800342241, 3.09860063  , 3.97        , 3           , 12          , 0.0619262643, 0
-0.00446177274, -0.0287453514, -9.7960825  , -0.00207064231, -0.00119442516, -5.73749858E-05, -0.4613051  , -0.0195496827, 0.297627062 , 0.001124016 , -0.000812285871, 3.09860015  , 3.98        , 3           , 50          , 0           , 0
-0.008859647, -0.01604358 , -9.798719   , -0.00118822861, 0.00159868121, -0.000558629457, -0.4613051  , -0.0195496827, 0.297627062 , 0.00111213839, -0.000796292734, 3.09859443  , 3.99        , 3           , 11          , 0.00643148134, 0.006431513
-0.0170661975, -0.0205554683, -9.792993   , 0.000350705843, 0.0019108135, 0.00164415909, -0.461102873, -0.01921262 , 0.29641363  , 0.00116701936, -0.0007706576, 3.098611    , 4           , 3           , 12          , 0.0629963055, 0
-0.0194241628, -0.0269193649, -9.786762   , -0.0008446638, 0.0002679368, -0.000369727757, -0.46009168 , -0.0195496827, 0.29688552  , 0.00115857564, -0.00076797395, 3.0986073   , 4.01        , 3           , 50          , 0           , 0
-0.006075656, -0.0155376606, -9.806812   , 2.88606552E-05, 0.00258695474, 0.0003201896, -0.46150735 , -0.0190777946, 0.297559649 , 0.00115886191, -0.000742108154, 3.09861016  , 4.02        , 3           , 11          , 0.00635617  , 0.00635619648
-0.0121553633, -0.0354410633, -9.798954   , -0.00130661845, 0.000737133843, -0.000567234238, -0.46150735 , -0.0190777946, 0.297559649 , 0.00114579988, -0.0007347302, 3.09860444  , 4.03        , 3           , 12          , 0.0629963055, 0
-0.0103628263, -0.0170800071, -9.782938   , 7.99678E-05 , -0.0004053637, 0.0001605258, -0.4611703  , -0.019414857, 0.296076566 , 0.00114659837, -0.0007387857, 3.09860635  , 4.04        , 3           , 50          , 0           , 0
-0.008955564, -0.0152422935, -9.78742    , 0.00234390749, -0.000676445838, -0.0006266657, -0.459956855, -0.019414857, 0.2968181   , 0.00117004209, -0.00074554293, 3.09860015  , 4.05        , 3           , 11          , 0.00635617  , 0.00635619648
-0.0194742735, -0.0305568129, -9.784087   , 0.002619546 , 0.000325621746, -0.00141310389, -0.461439937, -0.0193474442, 0.297492236 , 0.00119624811, -0.0007422699, 3.09858584  , 4.06        , 3           , 12          , 0.0629963055, 0
-0.0123764407, -0.0172709953, -9.810069   , 0.00275402959, 0.00151554542, -0.000471751264, -0.461439937, -0.0193474442, 0.297492236 , 0.00122379209, -0.0007271088, 3.09858155  , 4.07        , 3           , 50          , 0           , 0
-0.01618266 , -0.0111634042, -9.78340149 , 0.00208043843, 0.0005828263, 0.000180322691, -0.46103546 , -0.0193474442, 0.2962114   , 0.001244595 , -0.0007212828, 3.098583    , 4.08        , 3           , 11          , 0.00635617  , 0.00635619648
-0.009096274, -0.00641375966, -9.764746   , 0.00115009362, 0.000456114 , -9.153881E-05, -0.4601591  , -0.019414857, 0.296952933 , 0.00125609664, -0.000716720533, 3.098582    , 4.09        , 3           , 12          , 0.0629963055, 0
-0.009822337, -0.0268598422, -9.800647   , 0.00210049469, 0.00136343925, 0.00032041  , -0.46150735 , -0.01921262 , 0.297424823 , 0.00132218131, -0.0007484059, 3.09858537  , 4.1         , 3           , 50          , 0           , 0
-0.009712135, -0.0204718634, -9.807808   , 0.00196891278, 0.00149803644, 0.000188080972, -0.46150735 , -0.01921262 , 0.297424823 , 0.00134186912, -0.000733428, 3.09858727  , 4.11        , 3           , 11          , 0.006283009 , 0.006283044
-0.0110548865, -0.00744681 , -9.79866    , 0.00183946546, 0.00176754629, -0.000208684287, -0.4611703  , -0.0192800332, 0.2962114   , 0.00136026531, -0.0007157498, 3.09858537  , 4.12        , 3           , 12          , 0.06407158  , 0
-0.0193785336, -0.0210441779, -9.787153   , 0.001174425 , 0.00163862633, -0.0003462925, -0.460024267, -0.0192800332, 0.29688552  , 0.001372012 , -0.000699358759, 3.09858155  , 4.13        , 3           , 50          , 0           , 0
0.004427463 , -0.0271494091, -9.77969551 , -0.0004252556, 0.000584873662, -0.0007630153, -0.46150735 , -0.0192800332, 0.297424823 , 0.00136776478, -0.0006934996, 3.098574    , 4.14        , 3           , 11          , 0.006283009 , 0.006283044
-0.0170299821, -0.026349077, -9.801633   , 0.00102924276, -0.0007541565, -0.0005015897, -0.46150735 , -0.0192800332, 0.297424823 , 0.00137806067, -0.0007010343, 3.09856915  , 4.15        , 3           , 12          , 0.06407158  , 0
-0.01921697 , -0.03209413 , -9.813915   , 0.000495829445, -9.315936E-05, 0.00043135084, -0.460968047, -0.01921262 , 0.296076566 , 0.00138301565, -0.0007019719, 3.09857345  , 4.16        , 3           , 50          , 0           , 0
-0.0127885593, -0.00198196247, -9.80224    , -3.19355422E-05, 4.71156927E-05, -0.000234414416, -0.460293919, -0.01921262 , 0.296952933 , 0.00138269784, -0.0007014975, 3.098571    , 4.17        , 3           , 11          , 0.006283009 , 0.006283044
-0.00334404036, -0.00118233636, -9.798052   , 0.0014439784, 0.00151002372, -0.00114300591, -0.461777   , -0.01921262 , 0.297424823 , 0.00139714568, -0.000686381361, 3.09855962  , 4.18        , 3           , 12          , 0.06407158  , 0
-0.008842055, -0.004366638, -9.791374   , 0.000118933873, 0.00271161716, -0.0008736349, -0.461777   , -0.01921262 , 0.297424823 , 0.0013983408, -0.000659253, 3.098551    , 4.19        , 3           , 50          , 0           , 0
-0.0151878456, -0.006144831, -9.789663   , -0.00161597715, 0.00150715432, -0.0006281367, -0.460900635, -0.01948227 , 0.29594177  , 0.00138791383, -0.000682314334, 3.09854484  , 4.2         , 3           , 11          , 0.00621182937, 0.006211862
-0.016934637, -0.0145946518, -9.80287    , -0.000820031564, 0.00216089841, 0.000444780017, -0.4601591  , -0.0195496827, 0.297020346 , 0.00137971051, -0.000660711434, 3.09854913  , 4.21        , 3           , 12          , 0.06515163  , 0
-0.0109784715, -0.0230659954, -9.819596   , 0.00169925031, 0.00121399015, 0.0009812003, -0.46150735 , -0.0192800332, 0.297424823 , 0.00139669678, -0.000648585148, 3.09855914  , 4.22        , 3           , 50          , 0           , 0
-0.0197068453, -0.0168825872, -9.797504   , 0.00169777288, 2.34357358E-05, 4.0562958E-05, -0.46150735 , -0.0192800332, 0.297424823 , 0.00141367421, -0.0006483513, 3.09855962  , 4.23        , 3           , 11          , 0.00621182937, 0.006211862
-0.009767914, -0.0151462015, -9.797367   , 0.00116432039, -0.000108008135, 0.000169315157, -0.460630983, -0.019414857, 0.295874357 , 0.00142531632, -0.0006494339, 3.09856153  , 4.24        , 3           , 12          , 0.06515163  , 0
0.0101587716, -0.005346615, -9.797476   , 0.001293794 , 0.0001507757, 0.001102206 , -0.4601591  , -0.01948227 , 0.297155172 , 0.00143824692, -0.0006479419, 3.098572    , 4.25        , 3           , 50          , 0           , 0
0.00716362847, -0.0293817874, -9.784654   , -0.000575439946, -0.000774374465, 0.00148219627, -0.46150735 , -0.0193474442, 0.297424823 , 0.00143248285, -0.0006557069, 3.09858727  , 4.26        , 3           , 11          , 0.00621182937, 0.006211862
0.004676804 , -0.0206227712, -9.802214   , -0.0008415058, -0.00182970113, 0.000408514665, -0.46150735 , -0.0193474442, 0.297424823 , 0.00142406509, -0.000674009847, 3.098591    , 4.27        , 3           , 12          , 0.06515163  , 0
-0.009181507, -0.0253287032, -9.8205     , -0.000694931368, 3.66804234E-05, -0.000237958768, -0.460900635, -0.0192800332, 0.296009183 , 0.00141711754, -0.000673639646, 3.09858871  , 4.28        , 3           , 50          , 0           , 0
-0.0151906926, -0.02722428 , -9.806137   , -0.001091082, 0.0007027259, -0.00010123814, -0.4602265  , -0.019414857, 0.297020346 , 0.00140620722, -0.000666611, 3.09858775  , 4.29        , 3           , 11          , 0.00621182937, 0.006211862
-0.0011363104, -0.00169475551, -9.793061   , -0.0009384262, 0.0008346526, -0.000232144113, -0.4617096  , -0.019414857, 0.2973574   , 0.00144926121, -0.0006623084, 3.09858537  , 4.3         , 3           , 12          , 0.0662360638, 0
-0.026992742, -0.01824357 , -9.791284   , -0.0006752367, 0.00109375222, 0.000568639545, -0.4617096  , -0.019414857, 0.2973574   , 0.00144250516, -0.0006513791, 3.098591    , 4.31        , 3           , 50          , 0           , 0
-0.0262150373, -0.021513259, -9.780014   , 0.000922218 , 0.000163563 , -0.0006266408, -0.4607658  , -0.0193474442, 0.295874357 , 0.00145173131, -0.000649734342, 3.098585    , 4.32        , 3           , 11          , 0.00614286447, 0.00614290033
-0.01676126 , -0.031466946, -9.78541851 , 0.002260121 , 0.00082803535, -0.001410378, -0.460024267, -0.0192800332, 0.297087759 , 0.00147434184, -0.000641433464, 3.098571    , 4.33        , 3           , 12          , 0.0662360638, 0
-0.0238473713, -0.00975845 , -9.78303051 , 0.00184757193, -0.0002446439, 3.88529443E-05, -0.4617096  , -0.0193474442, 0.297155172 , 0.00149281707, -0.0006438805, 3.098571    , 4.34        , 3           , 50          , 0           , 0
0.00296133384, 0.00234932825, -9.793874   , 0.00303890719, -0.00131447962, 3.562052E-05, -0.4617096  , -0.0193474442, 0.297155172 , 0.001523206 , -0.0006570258, 3.09857154  , 4.35        , 3           , 11          , 0.00614286447, 0.00614290033
-0.011202991, -0.00311003067, -9.778742   , 0.00330848643, -0.000914788048, -0.000224967254, -0.46056357 , -0.0193474442, 0.295874357 , 0.00155629241, -0.0006661702, 3.09856915  , 4.36        , 3           , 12          , 0.0662360638, 0
-0.0152255222, 0.0126520321, -9.770503   , 0.0002536115, -0.000366310123, -0.000502230541, -0.46009168 , -0.019414857, 0.297087759 , 0.001558832 , -0.0006698254, 3.09856439  , 4.37        , 3           , 50          , 0           , 0
-0.0017237626, -0.0134867765, -9.787313   , -0.00159846281, 0.00150479865, -0.0004953219, -0.461642176, -0.019414857, 0.297155172 , 0.00154285063, -0.000654769654, 3.09855962  , 4.38        , 3           , 11          , 0.00614286447, 0.00614290033
0.009129599 , -0.0198166352, -9.794923   , -0.00120300823, 0.00110195391, -0.000231157173, -0.461642176, -0.019414857, 0.297155172 , 0.0015308219, -0.000643746636, 3.09855676  , 4.39        , 3           , 12          , 0.0662360638, 0
-0.0229735766, -0.0241433475, -9.791294   , 0.000242044829, 0.000289635529, 0.00030076562, -0.460630983, -0.0192800332, 0.295874357 , 0.00150113949, -0.0006511048, 3.09856     , 4.4         , 3           , 50          , 0           , 0
-0.0126103088, -0.0233337786, -9.7889     , 0.000109044515, 0.0004223397, 0.000434081536, -0.4601591  , -0.0193474442, 0.297155172 , 0.00150222715, -0.000646887929, 3.09856439  , 4.41        , 3           , 11          , 0.006075449 , 0.00607549166
-0.01780836 , -0.0145597244, -9.806043   , 0.000116163508, 0.000960098638, -0.000358018238, -0.461574763, -0.0192800332, 0.2973574   , 0.00150339107, -0.00063728157, 3.09856057  , 4.42        , 3           , 12          , 0.0673244745, 0
-0.008708628, -0.01365087 , -9.81360149 , 0.0003864264, 0.0008324427, -0.00128755416, -0.461574763, -0.0192800332, 0.2973574   , 0.0015072634, -0.0006289377, 3.09854817  , 4.43        , 3           , 50          , 0           , 0
0.000883644447, -0.0189865474, -9.78056049 , 0.00157135166, -0.0007742054, -0.000631509232, -0.460361332, -0.0196170956, 0.295874357 , 0.001522981 , -0.000636670331, 3.0985415   , 4.44        , 3           , 11          , 0.006075449 , 0.00607549166
0.002127111 , -0.02134803 , -9.770179   , 0.00236442755, -0.0007846147, 0.00030254075, -0.4602265  , -0.019414857, 0.297087759 , 0.0015466233, -0.000644521031, 3.09854436  , 4.45        , 3           , 12          , 0.0673244745, 0
-0.0122522339, -0.0198422484, -9.775761   , 0.00236370554, -0.00104970823, 0.000167300532, -0.4617096  , -0.019414857, 0.297087759 , 0.00157025934, -0.0006550207, 3.09854627  , 4.46        , 3           , 50          , 0           , 0
-0.0319623128, -0.023147827, -9.794556   , 0.00303304731, 9.40544851E-06, 0.00044619324, -0.4617096  , -0.019414857, 0.297087759 , 0.00160058669, -0.0006549338, 3.098551    , 4.47        , 3           , 11          , 0.006075449 , 0.00607549166
-0.0215502214, -0.0160114542, -9.792551   , 0.00384610728, 0.00253489427, 0.000207808465, -0.460361332, -0.0193474442, 0.29594177  , 0.00163904647, -0.000629588263, 3.098553    , 4.48        , 3           , 12          , 0.0673244745, 0
-0.005214818, -0.021415133, -9.806861   , 0.004767869 , 0.0011974402, 0.000599195249, -0.460293919, -0.019414857, 0.297155172 , 0.00168672146, -0.000617623969, 3.09855866  , 4.49        , 3           , 50          , 0           , 0
-0.004290471, -0.016018346, -9.804988   , 0.002365606 , -0.00120298355, 0.000564639049, -0.461642176, -0.0193474442, 0.2973574   , 0.00172470266, -0.0006822339, 3.09856486  , 4.5         , 3           , 11          , 0.0060100425, 0.00601007836
-0.00573327765, -0.020582106, -9.798727   , 0.00263655861, -0.00172591337, -0.0008998135, -0.461642176, -0.0193474442, 0.2973574   , 0.00175107468, -0.0006994774, 3.0985558   , 4.51        , 3           , 12          , 0.0684165061, 0
-0.01749872 , -0.0196368  , -9.794345   , 0.003048431 , 6.18701961E-06, -0.001546065, -0.460293919, -0.0196845084, 0.29594177  , 0.00178156979, -0.000699388154, 3.09854054  , 4.52        , 3           , 50          , 0           , 0
-0.0228874255, -0.0159855783, -9.794373   , 0.0007916161, 0.0009471014, -0.001416942, -0.4602265  , -0.0192800332, 0.297155172 , 0.0017894957, -0.000689891865, 3.09852624  , 4.53        , 3           , 11          , 0.0060100425, 0.00601007836
-0.025455486, -0.00147782266, -9.798325   , 0.00157684414, 1.76623871E-06, 3.99362762E-05, -0.461642176, -0.01921262 , 0.297155172 , 0.00180526392, -0.000689875, 3.09852624  , 4.54        , 3           , 12          , 0.0684165061, 0
-0.0133796129, -0.01198381 , -9.794668   , 0.00236063427, -0.00134168239, 0.00136036531, -0.461642176, -0.01921262 , 0.297155172 , 0.00182886084, -0.0007033167, 3.09854     , 4.55        , 3           , 50          , 0           , 0
-0.01585417 , -0.0256389268, -9.781284   , 0.00156899  , -0.00106523314, 0.0004287331, -0.460361332, -0.01948227 , 0.295874357 , 0.00184454757, -0.0007139768, 3.09854436  , 4.56        , 3           , 11          , 0.0060100425, 0.00601007836
0.008942146 , -0.0244878475, -9.777806   , -0.0001536891, -0.000520222355, -0.000239843983, -0.460361332, -0.0193474442, 0.29729     , 0.00184301229, -0.0007191745, 3.098542    , 4.57        , 3           , 12          , 0.0684165061, 0
0.017084403 , -0.0267666169, -9.7817955  , -0.00201646774, 1.595431E-05, 0.0004190888, -0.46150735 , -0.0193474442, 0.297155172 , 0.00182284473, -0.0007190227, 3.09854627  , 4.58        , 3           , 50          , 0           , 0
-0.018539723, -0.0179748368, -9.777626   , -0.0008115131, 0.00186971889, 0.000840918568, -0.4601591  , -0.01948227 , 0.295874357 , 0.00181472371, -0.0007003409, 3.09855485  , 4.59        , 3           , 11          , 0.0060100425, 0.00601007836
-0.025466688, -0.0122515168, -9.805661   , 0.001453175 , 0.002118409 , 0.00112116942, -0.4601591  , -0.01948227 , 0.295874357 , 0.001840245 , -0.000693807146, 3.09856629  , 4.6         , 3           , 12          , 0.0695118159, 0
-0.00749409152, -0.00976304151, -9.795026   , 0.001059113 , 0.001994853 , 5.52342972E-05, -0.460293919, -0.01948227 , 0.297222584 , 0.00185083563, -0.0006738597, 3.09856629  , 4.61        , 3           , 50          , 0           , 0
0.0146060819, -0.00589127652, -9.790651   , -0.000536305248, 0.00107885269, -0.00102439232, -0.4617096  , -0.01921262 , 0.296952933 , 0.00184547936, -0.0006630522, 3.09855628  , 4.62        , 3           , 11          , 0.0059474   , 0.005947412
-0.00337032042, -0.0146616912, -9.805866   , -0.00121418468, -0.0005199128, -0.00024554017, -0.460428745, -0.0196845084, 0.295874357 , 0.001833339 , -0.000668246765, 3.098554    , 4.63        , 3           , 12          , 0.0695118159, 0
-0.0178371184, -0.0186243262, -9.806084   , 0.00104838237, 0.000131626628, 0.000171133 , -0.460428745, -0.0196845084, 0.295874357 , 0.00184382161, -0.000666933658, 3.0985558   , 4.64        , 3           , 50          , 0           , 0
-0.0291050673, -0.02032669 , -9.808949   , 0.000118043732, 0.000136987728, 3.33028947E-05, -0.460293919, -0.0193474442, 0.29729     , 0.00184500194, -0.0006655644, 3.0985558   , 4.65        , 3           , 11          , 0.0059474   , 0.005947412
-0.0263133477, -0.00322084315, -9.804678   , -0.00120987033, 0.0006744276, 0.000163807083, -0.4617096  , -0.01948227 , 0.297087759 , 0.00183290232, -0.0006588231, 3.09855771  , 4.66        , 3           , 12          , 0.0695118159, 0
-0.00330171362, 0.000205166638, -9.801651   , 0.0005285043, 0.00199926854, -0.000213272258, -0.460428745, -0.0192800332, 0.29594177  , 0.0018381885, -0.000638826634, 3.0985558   , 4.67        , 3           , 50          , 0           , 0
-0.0111604948, -0.0120364483, -9.790577   , -0.000129436885, 0.0020118868, -0.00154507451, -0.460428745, -0.0192800332, 0.29594177  , 0.00183690386, -0.0006186794, 3.09854     , 4.68        , 3           , 11          , 0.0059474   , 0.005947412
-0.0201105438, -0.0262492839, -9.810253   , 0.00145665638, 0.000802406459, -0.000883256958, -0.460630983, -0.0196170956, 0.297222584 , 0.001851476 , -0.0006106391, 3.098531    , 4.69        , 3           , 12          , 0.0695118159, 0
-0.0235780142, -0.019355638, -9.820616   , 0.0027614173, -0.0006955601, 0.000438945426, -0.461777   , -0.0190777946, 0.297020346 , 0.00184641441, -0.000677581644, 3.09853625  , 4.7         , 3           , 50          , 0           , 0
-0.012785418, -0.0199163612, -9.816876   , 0.00183609594, 0.000373014424, 0.0004436086, -0.460024267, -0.0195496827, 0.29594177  , 0.00186477229, -0.0006738598, 3.09854054  , 4.71        , 3           , 11          , 0.005885539 , 0.00588553352
-0.0218542013, -0.0198974963, -9.812017   , 0.000373730116, 0.0003808981, 0.000302917 , -0.460024267, -0.0195496827, 0.29594177  , 0.00186850748, -0.0006700564, 3.09854341  , 4.72        , 3           , 12          , 0.0706101   , 0
-0.00268337131, -0.0278874766, -9.79243851 , 0.000235673462, -0.00134205224, -0.0005104485, -0.460428745, -0.01948227 , 0.297222584 , 0.00187086768, -0.00068346737, 3.09853864  , 4.73        , 3           , 50          , 0           , 0
-0.00664827973, 3.98587435E-05, -9.780914   , -0.00123169622, -0.002133235, -0.000525570649, -0.461642176, -0.0191452075, 0.29688552  , 0.00185855443, -0.0007047898, 3.098533    , 4.74        , 3           , 11          , 0.005885539 , 0.00588553352
-0.0251225717, -0.00384108536, -9.787051   , -0.00215626927, -0.000271273166, 0.000150458189, -0.4602265  , -0.0195496827, 0.296076566 , 0.00183699082, -0.000707505445, 3.09853482  , 4.75        , 3           , 12          , 0.0706101   , 0
-0.026854679, -0.007343445, -9.797949   , 0.000251427758, 0.0017164608, -0.000349822541, -0.4602265  , -0.0195496827, 0.296076566 , 0.00183950737, -0.00069033436, 3.098531    , 4.76        , 3           , 50          , 0           , 0
-0.018358767, -0.01824294 , -9.797954   , -0.000681071251, 0.001058615 , -0.000759342, -0.460361332, -0.0193474442, 0.29729     , 0.00183270185, -0.0006797342, 3.09852338  , 4.77        , 3           , 11          , 0.005885539 , 0.00588553352
-0.00358397118, 0.00395981036, -9.767285   , -0.00202685455, -0.00120115071, -0.000122933445, -0.461574763, -0.0193474442, 0.2967507   , 0.00181243429, -0.0006917435, 3.09852242  , 4.78        , 3           , 12          , 0.0706101   , 0
-0.0179778878, 0.00455418043, -9.771973   , 0.000754868437, -0.00268234685, 0.000542904658, -0.460024267, -0.019414857, 0.296076566 , 0.00181997893, -0.0007185768, 3.09852815  , 4.79        , 3           , 50          , 0           , 0
-0.0266766362, -0.0143410061, -9.823315   , 0.00287041743, -0.00177331921, -0.0006324496, -0.460024267, -0.019414857, 0.296076566 , 0.001771285 , -0.0008026917, 3.098522    , 4.8         , 3           , 11          , 0.00582517  , 0.00582519
-0.0112057328, -0.0201534312, -9.792013   , 0.00301125925, -0.0011031708, -0.00142262515, -0.460361332, -0.01921262 , 0.297424823 , 0.00180140906, -0.000813698047, 3.09850812  , 4.81        , 3           , 12          , 0.07171103  , 0
-0.0146210678, -0.00244530849, -9.799558   , 0.00208666036, 0.000230497157, -0.00128272187, -0.46150735 , -0.0191452075, 0.2967507   , 0.00182228617, -0.0008113698, 3.09849477  , 4.82        , 3           , 50          , 0           , 0
-0.00306774676, -0.0121223554, -9.787315   , -0.000173024135, 0.0005072582, -0.00129246537, -0.459822029, -0.01948227 , 0.296009183 , 0.00182056637, -0.00080627366, 3.09848237  , 4.83        , 3           , 11          , 0.00582517  , 0.00582519
-0.00475343131, -0.0142331384, -9.802265   , 8.017673E-05, -0.000435554335, 0.000161551317, -0.459822029, -0.01948227 , 0.296009183 , 0.00182136672, -0.0008106321, 3.09848332  , 4.84        , 3           , 12          , 0.07171103  , 0
0.00161314383, -0.022752732, -9.764327   , 0.001147088 , -4.059312E-05, 3.807836E-05, -0.460361332, -0.019414857, 0.297627062 , 0.00183283712, -0.0008110387, 3.09848428  , 4.85        , 3           , 50          , 0           , 0
-0.02175606 , -0.027876   , -9.77911949 , 0.00101481017, 0.000357204466, 0.0003066345, -0.461574763, -0.01921262 , 0.29688552  , 0.00184298283, -0.000807472563, 3.09848714  , 4.86        , 3           , 11          , 0.00582517  , 0.00582519
-0.03406091 , -0.005485965, -9.798019   , -0.00017869845, 0.0004996863, -0.000229885249, -0.459956855, -0.019414857, 0.296076566 , 0.00184119749, -0.0008024713, 3.09848475  , 4.87        , 3           , 12          , 0.07171103  , 0
-0.0185036249, 0.0273578577, -9.795693   , 9.0100184E-05, -0.000554377, -0.00183199556, -0.459956855, -0.019414857, 0.296076566 , 0.00184211321, -0.0008079814, 3.09846616  , 4.88        , 3           , 50          , 0           , 0
-0.0138427364, 0.000115307048, -9.783712   , 7.869953E-05, -0.00162610866, -0.000779086, -0.4606984  , -0.019414857, 0.297559649 , 0.00184290647, -0.000824228162, 3.09845853  , 4.89        , 3           , 11          , 0.00582517  , 0.00582519
-0.0136949252, 0.00205638818, -9.798597   , 0.00058360066, -0.0009836963, -0.000504397845, -0.46150735 , -0.019414857, 0.29688552  , 0.00175202556, -0.000894429453, 3.09845424  , 4.9         , 3           , 12          , 0.07281436  , 0
-0.0221589841, 0.0134360613, -9.80175    , 0.00217899284, -0.0005959903, 3.91033172E-05, -0.459889442, -0.01948227 , 0.2962788   , 0.00177381514, -0.00090039015, 3.09845471  , 4.91        , 3           , 50          , 0           , 0
-0.0274142846, -0.0146233113, -9.791705   , 0.000713789836, -0.0005918926, 0.0004297018, -0.459889442, -0.01948227 , 0.2962788   , 0.00178094918, -0.000906316738, 3.09845853  , 4.92        , 3           , 11          , 0.00576667348, 0.00576669257
-0.00504228845, -0.0194538422, -9.774313   , -0.0006134478, -0.0007138735, -0.0002427735, -0.460630983, -0.01948227 , 0.2973574   , 0.00177481666, -0.000913451135, 3.09845662  , 4.93        , 3           , 12          , 0.07281436  , 0
0.00104004517, -0.0192791075, -9.798179   , 0.00044920767, -0.000324591325, 0.000430688669, -0.4613051  , -0.0195496827, 0.2968181   , 0.0017793047, -0.0009167046, 3.09846044  , 4.94        , 3           , 50          , 0           , 0
-0.0109830219, -0.00647830637, -9.805878   , -0.000483967975, -0.000323016226, 0.00082414865, -0.460024267, -0.0193474442, 0.296143979 , 0.0017744574, -0.0009199495, 3.098469    , 4.95        , 3           , 11          , 0.00576667348, 0.00576669257
-0.0181506276, -0.005479209, -9.810925   , -0.0008837433, -0.00124658516, 1.66054178E-05, -0.460024267, -0.0193474442, 0.296143979 , 0.00176562008, -0.000932415656, 3.098469    , 4.96        , 3           , 12          , 0.07281436  , 0
-0.009729898, -0.02183488 , -9.80692    , 0.00151184353, -0.0003315295, 0.0007020568, -0.4606984  , -0.019414857, 0.297559649 , 0.001780732 , -0.0009357435, 3.09847617  , 4.97        , 3           , 50          , 0           , 0
-0.010582054, -0.014155006, -9.806401   , 0.00097055  , -0.00126582582, 0.0014876686, -0.461574763, -0.01921262 , 0.2967507   , 0.00179042353, -0.000948428351, 3.098491    , 4.98        , 3           , 11          , 0.00576667348, 0.00576669257
-0.0129901934, -0.009806376, -9.786059   , 0.00123649859, -0.002587822, 0.000148785417, -0.460024267, -0.01948227 , 0.2962114   , 0.001802787 , -0.0009743091, 3.09849238  , 4.99        , 3           , 12          , 0.07281436  , 0
-0.00192288507, -0.01233992 , -9.764265   , 0.00229663844, -0.001658838, -0.00129801489, -0.460024267, -0.01948227 , 0.2962114   , 0.001769326 , -0.00101626676, 3.09847951  , 5           , 3           , 50          , 0           , 0
-0.00304386579, -0.003578227, -9.783165   , 0.0004409851, -0.000452829, -0.00129715051, -0.460968047, -0.0192800332, 0.297424823 , 0.00177374913, -0.001020772, 3.09846663  , 5.01        , 3           , 11          , 0.00570954429, 0.005709546
