Acc X       , Acc Y       , Acc Z       , Gyro X      , Gyro Y      , Gyro Z      , Magn X      , Magn Y      , Magn Z      , Euler X     , Euler Y     , Euler Z     , Time        , Status      , LowRate X   , LowRate Y   , LowRate Z    
0.00536986068, -0.0266674589, -9.783745   , 0.000398456556, 0.00283911265, 0.001010857 , -0.460428745, -0.01948227 , 0.29729     , 0.00107372145, -0.000981014, 3.098653    , 0           , 3           , 11          , 0.0346410163, 0.0346410163
-0.00444608741, -0.0202093814, -9.791028   , -0.000130824963, 0.0009963923, -0.00139973382, -0.4607658  , -0.0193474442, 0.297492236 , 0.00107242679, -0.000971035159, 3.09863925  , 0.01        , 3           , 12          , 0.0346410163, 0
-0.0439394638, -0.010749694, -9.807679   , -0.00305122253, 0.00260272063, -0.0008696758, -0.4612377  , -0.0189429689, 0.296683282 , 0.00104192283, -0.0009449986, 3.09863019  , 0.02        , 3           , 50          , 0           , 0
-0.008778034, 0.008701878 , -9.788081   , 0.000133822308, 0.002049826 , -6.04070265E-05, -0.459889442, -0.0193474442, 0.296143979 , 0.00104326173, -0.0009244998, 3.09863019  , 0.03        , 3           , 11          , 0.0346410163, 0.0346410163
-0.0205220617, -0.005129935, -9.797849   , -0.00225176313, 0.00260082958, -0.00113102852, -0.460496157, -0.0192800332, 0.297559649 , 0.00102075445, -0.0008984799, 3.09861875  , 0.04        , 3           , 12          , 0.0346410163, 0
9.887293E-05, -0.008100443, -9.784979   , -0.0001365775, -0.0005960616, -0.00194553018, -0.460496157, -0.0192800332, 0.297559649 , 0.00101940625, -0.0009044206, 3.0985992   , 0.05        , 3           , 50          , 0           , 0
0.006421191 , 0.005318191 , -9.824971   , 0.000145157843, 0.00180082279, -0.00245363056, -0.4611703  , -0.0190103818, 0.2967507   , 0.00102087983, -0.000886387366, 3.09857488  , 0.06        , 3           , 11          , 0.0346410163, 0.0346410163
-0.009125965, -0.00599049032, -9.811271   , 0.00119501387, 0.00151270081, -5.95194433E-05, -0.46009168 , -0.019414857, 0.2962114   , 0.00103283033, -0.0008712598, 3.098574    , 0.07        , 3           , 12          , 0.0346410163, 0
-0.0130014056, -0.0205800682, -9.793395   , 0.00118930032, 0.000712687965, 0.0001988725, -0.460630983, -0.01921262 , 0.2973574   , 0.00104472169, -0.0008641349, 3.09857583  , 0.08        , 3           , 50          , 0           , 0
9.0966E-05  , -0.01438646 , -9.789107   , 0.000642969855, -0.00168104237, 0.000439896947, -0.461372524, -0.0192800332, 0.29688552  , 0.00105114758, -0.000880949956, 3.0985806   , 0.09        , 3           , 11          , 0.0346410163, 0.0346410163
-0.0124103548, -0.010578217, -9.800967   , 0.00119220279, 0.002037209 , 0.00100789627, -0.461372524, -0.0192800332, 0.29688552  , 0.00106306083, -0.00086058845, 3.09859061  , 0.1         , 3           , 12          , 0.0346410163, 0
-0.000349175185, -0.0260316618, -9.799619   , -0.0017483026, -0.00140175747, 0.00016379288, -0.459889442, -0.0196845084, 0.296143979 , 0.00104557653, -0.0008746077, 3.098592    , 0.11        , 3           , 50          , 0           , 0
-0.00597235374, -0.0342735425, -9.783056   , 0.000119493125, -0.000874720747, -0.000352646632, -0.46056357 , -0.0193474442, 0.297559649 , 0.00104677444, -0.0008833512, 3.09858871  , 0.12        , 3           , 11          , 0.0346410163, 0.0346410163
0.00046043098, -0.0104351584, -9.776866   , -0.000421032339, -0.000619409, 0.001506425 , -0.4612377  , -0.0192800332, 0.296683282 , 0.00104255066, -0.000889561, 3.09860349  , 0.13        , 3           , 12          , 0.0346410163, 0
-0.025515072, -0.00243408419, -9.792463   , -0.00041395257, -0.0008740912, -8.986308E-05, -0.4612377  , -0.0192800332, 0.296683282 , 0.0010384121, -0.000898301, 3.09860253  , 0.14        , 3           , 50          , 0           , 0
-0.024866851, -0.0188375525, -9.77726    , -0.00172971759, 0.00152846822, -0.0003409026, -0.46009168 , -0.0192800332, 0.296076566 , 0.0010211179, -0.000883012835, 3.09859967  , 0.15        , 3           , 11          , 0.0346410163, 0.0346410163
-0.010458529, -0.008206615, -9.765232   , -0.00252632727, 0.001798292 , -0.000342777144, -0.460833222, -0.0192800332, 0.297627062 , 0.0009958575, -0.0008650265, 3.09859586  , 0.16        , 3           , 12          , 0.0346410163, 0
-0.00339051336, 0.0117760636, -9.782564   , -0.00148088345, -0.001665273, -0.000368484179, -0.4613051  , -0.019414857, 0.296683282 , 0.0009810518, -0.0008816756, 3.098592    , 0.17        , 3           , 50          , 0           , 0
0.00224327482, -0.03020104 , -9.790142   , -0.00653503742, 0.00047186797, 0.00174883381, -0.4613051  , -0.019414857, 0.296683282 , 0.0009156862, -0.000876973441, 3.09861016  , 0.18        , 3           , 11          , 0.0346410163, 0.0346410163
-0.0179118961, -0.0263223145, -9.803903   , -0.000129367254, 0.00179072632, -0.000861190667, -0.459956855, -0.0193474442, 0.296143979 , 0.000914399861, -0.000859058346, 3.09860158  , 0.19        , 3           , 12          , 0.0346410163, 0
0.009190418 , -0.007199742, -9.791635   , -0.000406765554, 0.0009844021, 0.000458350929, -0.46056357 , -0.0190103818, 0.2977619   , 0.0009104156, -0.0008492374, 3.09860587  , 0.2         , 3           , 50          , 0           , 0
0.00213132985, 0.005118463 , -9.799728   , -0.00359756243, -5.5157172E-05, -0.000896714162, -0.4612377  , -0.0191452075, 0.296615869 , 0.0008744476, -0.000849780859, 3.09859681  , 0.21        , 3           , 11          , 0.0346699134, 0.0346699171
-0.0175673887, -0.0201536864, -9.787123   , 0.000391210051, -0.000340116734, -0.0008776707, -0.4612377  , -0.0191452075, 0.296615869 , 0.000878367166, -0.00085317425, 3.09858823  , 0.22        , 3           , 12          , 0.03466988  , 0
-0.00647752173, -0.00741341524, -9.805832   , 0.000126601866, -0.000601109467, -0.00141280924, -0.459754616, -0.0193474442, 0.29641363  , 0.0008796453, -0.000859173, 3.098574    , 0.23        , 3           , 50          , 0           , 0
-0.009835402, -0.022388475, -9.795633   , 0.0009318922, 0.00257433532, 0.0004800108, -0.4607658  , -0.01921262 , 0.297627062 , 0.000888960145, -0.0008334338, 3.09857869  , 0.24        , 3           , 11          , 0.0346699134, 0.0346699171
-0.00143810362, -0.0311440527, -9.782969   , -0.000126501182, 0.00232280558, -0.00085635524, -0.4612377  , -0.0193474442, 0.296548456 , 0.0008877021, -0.000810198253, 3.09857     , 0.25        , 3           , 12          , 0.03466988  , 0
-0.0102848615, -0.008930404, -9.785114   , -0.00120481965, 0.0007240391, 0.0001859959, -0.4612377  , -0.0193474442, 0.296548456 , 0.0008756523, -0.0008029594, 3.098572    , 0.26        , 3           , 50          , 0           , 0
-0.0281923786, -0.009111829, -9.801146   , -0.004653041, 0.00128198089, -0.00115599355, -0.459956855, -0.0193474442, 0.29641363  , 0.000829131168, -0.000790129765, 3.09856057  , 0.27        , 3           , 11          , 0.0346699134, 0.0346699171
-0.0258840248, -0.00459113345, -9.803331   , 0.003058557 , 0.00203405786, 0.000220976232, -0.460900635, -0.0193474442, 0.297694474 , 0.000859715044, -0.0007697912, 3.09856248  , 0.28        , 3           , 12          , 0.03466988  , 0
-0.026792679, -0.00145195425, -9.800148   , 0.00171985966, -0.0003483162, -0.0006048719, -0.461439937, -0.0193474442, 0.296548456 , 0.0008769183, -0.0007732689, 3.09855676  , 0.29        , 3           , 50          , 0           , 0
-0.0124423709, -0.000744475052, -9.789576   , -0.00199512439, -0.000356583478, -0.0008905275, -0.461439937, -0.0193474442, 0.296548456 , 0.00101740018, -0.00134978245, 3.0985477   , 0.3         , 3           , 11          , 0.03475347  , 0.03475348
-0.005246043, -0.0160649884, -9.799128   , -0.00147017709, -0.000104423991, 0.0007086221, -0.460024267, -0.019414857, 0.296346217 , 0.00100268889, -0.00135083392, 3.09855485  , 0.31        , 3           , 12          , 0.03475603  , 0
-0.0238638557, -0.0138108227, -9.784426   , -0.00225824886, 0.0007050518, -0.0003509972, -0.4607658  , -0.0190777946, 0.297694474 , 0.0009801111, -0.00134378 , 3.098551    , 0.32        , 3           , 50          , 0           , 0
-0.03179948 , -0.00415111333, -9.797525   , 0.00121130317, 0.00123209262, -0.00192143279, -0.46103546 , -0.0192800332, 0.296548456 , 0.0009922498, -0.00133144 , 3.098532    , 0.33        , 3           , 11          , 0.03475347  , 0.03475348
-0.0136192963, -0.009079196, -9.815874   , 0.000141600292, 0.00175786007, -0.000328449765, -0.46103546 , -0.0192800332, 0.296548456 , 0.0009936702, -0.00131385808, 3.09852862  , 0.34        , 3           , 12          , 0.03475603  , 0
-0.00269272923, -0.0211702362, -9.786047   , 0.00146162114, -0.000639020349, -0.0008743455, -0.459754616, -0.019414857, 0.296548456 , 0.00100829778, -0.00132023951, 3.09852     , 0.35        , 3           , 50          , 0           , 0
-0.0143888891, -0.0138777373, -9.784309   , 0.004127602 , 0.00278984942, 0.00156219746, -0.460900635, -0.01921262 , 0.297694474 , 0.00104955351, -0.0012923571, 3.09853578  , 0.36        , 3           , 11          , 0.03475347  , 0.03475348
-4.91607934E-05, 0.00431272574, -9.808798   , 0.00306194578, -0.000905056368, -0.001930759, -0.4611703  , -0.0190777946, 0.296548456 , 0.001080198 , -0.00130138709, 3.09851623  , 0.37        , 3           , 12          , 0.03475603  , 0
-0.0138735194, -0.0111263208, -9.789246   , 0.00171200454, -0.00118939835, 0.00151305553, -0.4611703  , -0.0190777946, 0.296548456 , 0.00109729834, -0.00131329743, 3.09853148  , 0.38        , 3           , 50          , 0           , 0
-0.01714322 , -0.0107665919, -9.776634   , 0.00199086359, 0.000411258952, 0.0007320571, -0.459889442, -0.01921262 , 0.29641363  , 0.00111719733, -0.001309193, 3.09853864  , 0.39        , 3           , 11          , 0.03475347  , 0.03475348
-0.00708281435, -0.006218504, -9.787758   , 0.0009139825, -0.00170864677, -8.993376E-05, -0.460900635, -0.0190777946, 0.2977619   , 0.00107456883, -0.00134752528, 3.09853768  , 0.4         , 3           , 12          , 0.0348986052, 0
-0.0249364618, -0.014866557, -9.816523   , 0.0006351625, -0.00251686363, 0.00149525283, -0.460968047, -0.0192800332, 0.296481043 , 0.00108090008, -0.0013727101, 3.098553    , 0.41        , 3           , 50          , 0           , 0
-0.01048743 , -0.0122669414, -9.815417   , 0.00012592366, -0.000635024044, -0.0008814905, -0.460968047, -0.0192800332, 0.296481043 , 0.00108217157, -0.00137905055, 3.098544    , 0.42        , 3           , 11          , 0.0177016091, 0.0177016053
-0.0014651753, -0.04013981 , -9.787126   , -0.000679223, -0.000904852, 0.000174379908, -0.459822029, -0.0193474442, 0.296346217 , 0.001075377 , -0.001388101, 3.09854579  , 0.43        , 3           , 12          , 0.0348986052, 0
-0.00595117174, -0.0243867785, -9.777535   , 0.003052191 , 0.00172842469, 0.00154681236, -0.460968047, -0.0192800332, 0.2977619   , 0.00110587757, -0.0013708336, 3.09856153  , 0.44        , 3           , 50          , 0           , 0
-0.0197631288, -0.0133511759, -9.788436   , 0.000150300242, 0.004680096 , -3.620141E-05, -0.461372524, -0.0190777946, 0.296548456 , 0.00110738107, -0.0013240322, 3.09856057  , 0.45        , 3           , 11          , 0.0177016091, 0.0177016053
-0.026226189, -0.0139009235, -9.772711   , 0.002537265 , 0.00333854486, -3.541319E-05, -0.461372524, -0.0190777946, 0.296548456 , 0.00113275414, -0.0012906465, 3.09856057  , 0.46        , 3           , 12          , 0.0348986052, 0
-0.00186199869, -0.0140729928, -9.772414   , 0.00172348926, 0.0006800361, 0.000201762712, -0.459889442, -0.01948227 , 0.296346217 , 0.0011499864, -0.00128384831, 3.09856248  , 0.47        , 3           , 50          , 0           , 0
-0.0169657934, -0.0235944744, -9.806575   , 0.0006565324, -0.0006394397, -0.0006129839, -0.460968047, -0.0191452075, 0.297627062 , 0.00115655956, -0.00129023567, 3.09855676  , 0.48        , 3           , 11          , 0.0177016091, 0.0177016053
-0.0182072073, 0.00433006324, -9.7968235  , 0.004409317 , 0.00387126021, -0.00134878792, -0.4613051  , -0.0192800332, 0.29641363  , 0.00120066991, -0.00125150732, 3.098543    , 0.49        , 3           , 12          , 0.0348986052, 0
-0.00518848 , 0.0104502514, -9.784407   , -0.0003880035, 0.001214724 , -0.000336138, -0.4613051  , -0.0192800332, 0.29641363  , 0.00124929647, -0.00129355246, 3.09853959  , 0.5         , 3           , 50          , 0           , 0
-0.0180268213, -0.00580868125, -9.774788   , -0.000392272254, 0.000944898231, 0.00019273434, -0.459822029, -0.0195496827, 0.2962788   , 0.00124537142, -0.00128410594, 3.0985415   , 0.51        , 3           , 11          , 0.0134396749, 0.0134396721
-0.0339752659, -0.0215488188, -9.770171   , 0.00118666945, -0.00146270823, 0.0009764948, -0.461102873, -0.0190777946, 0.2977619   , 0.00125722541, -0.00129874528, 3.098551    , 0.52        , 3           , 12          , 0.0350965   , 0
-0.0250193756, -0.00418666936, -9.798799   , -0.000120597513, 0.0006870619, -0.0011364778, -0.4612377  , -0.0192800332, 0.296346217 , 0.00125603424, -0.00129186036, 3.09854     , 0.53        , 3           , 50          , 0           , 0
-0.0116493031, -0.00758636743, -9.782858   , -0.0043753963, 0.0007091358, -0.00142501481, -0.4612377  , -0.0192800332, 0.296346217 , 0.00121229875, -0.00128475158, 3.09852576  , 0.54        , 3           , 11          , 0.0134396749, 0.0134396721
-0.0161046851, -0.003013797, -9.785578   , 0.00013690471, 0.000674442737, 0.000458823226, -0.459889442, -0.01921262 , 0.296481043 , 0.00121366186, -0.00127801264, 3.09853     , 0.55        , 3           , 12          , 0.0350965   , 0
0.000109810382, -0.0237848982, -9.798687   , 0.000139741853, 0.0006782287, -7.246689E-05, -0.4612377  , -0.01948227 , 0.297694474 , 0.00121506013, -0.00127122924, 3.09852958  , 0.56        , 3           , 50          , 0           , 0
-0.0144575015, -0.0287445914, -9.788526   , 0.0006546289, -0.00172433292, 0.0007055705, -0.4613051  , -0.0192800332, 0.296683282 , 0.00122159743, -0.00128848129, 3.09853673  , 0.57        , 3           , 11          , 0.0134396749, 0.0134396721
-0.0188558772, -0.0178370662, -9.792536   , 0.0006946098, 0.0036116105, -0.00137123629, -0.4613051  , -0.0192800332, 0.296683282 , 0.001228561 , -0.00125234853, 3.098523    , 0.58        , 3           , 12          , 0.0350965   , 0
-0.008628534, -0.0167145375, -9.774782   , -0.00332275685, -0.0006317884, -0.0006344451, -0.459822029, -0.01921262 , 0.296548456 , 0.00119534147, -0.00125865871, 3.0985167   , 0.59        , 3           , 50          , 0           , 0
-0.023605112, -0.018041756, -9.766395   , 0.000431542547, 0.0006632017, -7.105143E-05, -0.4613051  , -0.01921262 , 0.297627062 , 0.00127676211, -0.0012931833, 3.09851575  , 0.6         , 3           , 11          , 0.0113639515, 0.011363945
-0.0210885033, 0.0032787153, -9.778348   , 0.000420115772, -0.00093682413, 0.000445732585, -0.4611703  , -0.019414857, 0.29641363  , 0.00128095748, -0.00130255718, 3.09852052  , 0.61        , 3           , 12          , 0.03534837  , 0
-0.00568406656, 0.01623889  , -9.774868   , 0.0009564248, -0.000405373838, 0.000187784346, -0.4611703  , -0.019414857, 0.29641363  , 0.00129051926, -0.00130661321, 3.09852242  , 0.62        , 3           , 50          , 0           , 0
-0.0116305221, -0.002634829, -9.781002   , 0.002044804 , 0.00384811335, -3.3454693E-05, -0.459822029, -0.0193474442, 0.296548456 , 0.00131096772, -0.00126813166, 3.098522    , 0.63        , 3           , 11          , 0.0113639515, 0.011363945
-0.00760132028, -0.0237715058, -9.794264   , -0.00301528629, 0.0006947425, -0.00221481174, -0.4612377  , -0.0192800332, 0.297559649 , 0.00128084281, -0.00126115559, 3.09849954  , 0.64        , 3           , 12          , 0.03534837  , 0
-0.0402731746, -0.0125123411, -9.81533051 , -0.00277351867, -0.00198016944, -0.000378042285, -0.4611703  , -0.01921262 , 0.29641363  , 0.00125311234, -0.00128095259, 3.09849572  , 0.65        , 3           , 50          , 0           , 0
-0.0169189386, -0.00605867244, -9.797814   , -0.00328408461, 0.00174880587, -0.0006127012, -0.4611703  , -0.01921262 , 0.29641363  , 0.00122027937, -0.00126345688, 3.09849     , 0.66        , 3           , 11          , 0.0113639515, 0.011363945
-0.004753828, -0.0119913351, -9.800435   , -0.00115308631, 0.0027990893, -6.029435E-05, -0.459956855, -0.0192800332, 0.296548456 , 0.00120874937, -0.00123546552, 3.098489    , 0.67        , 3           , 12          , 0.03534837  , 0
-0.0175974965, -0.007178968, -9.773441   , -0.0008956232, 0.00199402915, 0.0007308185, -0.461439937, -0.0191452075, 0.297492236 , 0.00119978411, -0.00121553417, 3.09849668  , 0.68        , 3           , 50          , 0           , 0
-0.0131804561, -0.0171710085, -9.770777   , -0.00302673923, -0.00143357716, -0.00223415322, -0.46103546 , -0.0193474442, 0.2962114   , 0.001169544 , -0.00122984324, 3.09847426  , 0.69        , 3           , 11          , 0.0113639515, 0.011363945
-0.0184305254, -0.015175391, -9.787534   , 0.00255312026, 9.337955E-05, -0.00086132763, -0.46103546 , -0.0193474442, 0.2962114   , 0.0011783049, -0.00129950081, 3.09846568  , 0.7         , 3           , 12          , 0.03565266  , 0
-0.019838132, -0.0291212611, -9.792662   , -0.000105545565, 0.00116447336, -6.9029E-05 , -0.459956855, -0.01948227 , 0.2967507   , 0.00117725029, -0.00128785544, 3.0984652   , 0.71        , 3           , 50          , 0           , 0
-0.00702513242, -0.00840321 , -9.795911   , -0.00011116769, 0.0022134895, 0.00206580223, -0.46150735 , -0.0193474442, 0.297627062 , 0.00117611233, -0.00126574491, 3.09848571  , 0.72        , 3           , 11          , 0.0101428069, 0.0101428088
-0.0106973108, -0.005749548, -9.786895   , 0.00121450156, -0.00070411287, -7.87991157E-05, -0.46103546 , -0.0191452075, 0.2962114   , 0.00118825829, -0.001272785, 3.09848475  , 0.73        , 3           , 12          , 0.03565266  , 0
-0.008881839, -0.0295188539, -9.806987   , 0.00123018411, 0.000901591964, -0.0013925184, -0.46103546 , -0.0191452075, 0.2962114   , 0.00120057783, -0.00126375246, 3.098471    , 0.74        , 3           , 50          , 0           , 0
-0.0058372654, -0.0157529227, -9.78332    , -0.0006347355, 0.00117078214, -0.0006031806, -0.460024267, -0.0192800332, 0.296481043 , 0.00119423808, -0.00125203759, 3.0984652   , 0.75        , 3           , 11          , 0.0101428069, 0.0101428088
-0.0246075913, 0.00115212984, -9.790157   , -0.0011867272, -0.000966372958, 0.0009684867, -0.461642176, -0.0191452075, 0.297559649 , 0.00118235871, -0.00126171275, 3.09847474  , 0.76        , 3           , 12          , 0.03565266  , 0
-0.0210270621, -0.0110100843, -9.796559   , -0.00145700958, -0.00123493746, 0.00149592839, -0.460968047, -0.0192800332, 0.2962788   , 0.00116776943, -0.00127407978, 3.09848952  , 0.77        , 3           , 50          , 0           , 0
-0.0184423  , -0.013393363, -9.784806   , 0.00495010661, 0.0006141077, -0.000843615446, -0.460968047, -0.0192800332, 0.2962788   , 0.00121728145, -0.00126792875, 3.09848142  , 0.78        , 3           , 11          , 0.0101428069, 0.0101428088
-0.0124546979, -0.0191427469, -9.80286    , 0.00122876558, 0.000899698935, -0.00112687307, -0.459822029, -0.0193474442, 0.296615869 , 0.00122958329, -0.00125891785, 3.09847     , 0.79        , 3           , 12          , 0.03565266  , 0
0.00336498977, -0.00666999631, -9.795766   , -0.002747577, 0.00140887254, -8.089866E-05, -0.461372524, -0.019414857, 0.297694474 , 0.00122975314, -0.00130161562, 3.098469    , 0.8         , 3           , 50          , 0           , 0
0.0015978571, -0.0111041442, -9.803512   , 0.00363535853, 0.00190500217, 0.00075520965, -0.46103546 , -0.01921262 , 0.2962788   , 0.00126609672, -0.00128257507, 3.09847665  , 0.81        , 3           , 11          , 0.009388398 , 0.009388411
-0.00776572 , -0.0113746561, -9.816278   , -0.00407482032, 0.001154818 , -0.0008874053, -0.46103546 , -0.01921262 , 0.2962788   , 0.00122536  , -0.00127101585, 3.09846759  , 0.82        , 3           , 12          , 0.03600763  , 0
-0.0104690492, -0.00507360324, -9.811729   , -0.00168353517, 0.00113968027, -0.0003432384, -0.459889442, -0.0192800332, 0.296683282 , 0.00120852888, -0.001259615, 3.09846425  , 0.83        , 3           , 50          , 0           , 0
-0.00308798044, -0.00407062843, -9.778653   , -0.00355847552, -0.0004534093, 0.000429175358, -0.461574763, -0.0192800332, 0.297492236 , 0.00117293862, -0.0012641541, 3.09846854  , 0.84        , 3           , 11          , 0.009388398 , 0.009388411
-0.01902899 , 0.0030670166, -9.756641   , -0.0008797805, 0.00193590939, -0.0005973382, -0.46103546 , -0.0192800332, 0.296076566 , 0.0011641481, -0.001244788, 3.09846234  , 0.85        , 3           , 12          , 0.03600763  , 0
-0.0144578386, -0.008116756, -9.772057   , 0.00178027758, 0.000338414364, -0.00219140761, -0.46103546 , -0.0192800332, 0.296076566 , 0.00118197827, -0.00124137837, 3.09844041  , 0.86        , 3           , 50          , 0           , 0
-0.0119898953, -0.00343700848, -9.791857   , 0.00124828937, 0.0011333779, -0.00139008067, -0.459956855, -0.0192800332, 0.296683282 , 0.00119447836, -0.00123002788, 3.098427    , 0.87        , 3           , 11          , 0.009388398 , 0.009388411
-0.009716792, -0.00792023 , -9.797294   , -0.0003649327, -0.00125909294, -0.000623489032, -0.4617096  , -0.0191452075, 0.297424823 , 0.00119083677, -0.00124261132, 3.09842038  , 0.88        , 3           , 12          , 0.03600763  , 0
0.00208799914, 0.000142453238, -9.798876   , 0.00177179207, 0.0008553504, -6.14114251E-05, -0.460833222, -0.0192800332, 0.2962114   , 0.0012085553, -0.00123405724, 3.09842     , 0.89        , 3           , 50          , 0           , 0
0.0122033861, -0.0185778867, -9.784484   , 0.00196331087, 0.00168803253, 0.0007442505, -0.459956855, -0.01948227 , 0.296683282 , 0.00112375  , -0.0011590441, 3.09842753  , 0.9         , 3           , 11          , 0.00892000552, 0.008920008
-0.00665248372, -0.004000284, -9.783665   , -0.00150060584, 0.0003761226, 0.00044791738, -0.459956855, -0.01948227 , 0.296683282 , 0.00110873871, -0.00115528784, 3.09843183  , 0.91        , 3           , 12          , 0.0364114121, 0
-0.0122674145, -0.004157612, -9.811743   , -0.000708265346, -0.000163527235, 0.0009786643, -0.46150735 , -0.0192800332, 0.297424823 , 0.00110164471, -0.001156934, 3.09844184  , 0.92        , 3           , 50          , 0           , 0
0.005222898 , -0.0250157472, -9.816255   , -0.000715423434, -0.001493727, 0.00096657587, -0.461102873, -0.01948227 , 0.2962788   , 0.00109447923, -0.0011718818, 3.09845138  , 0.93        , 3           , 11          , 0.00892000552, 0.008920008
-0.0188196562, -0.0236306731, -9.801176   , 0.000102594742, 0.000906313653, -0.000335597957, -0.459956855, -0.0196170956, 0.2968181   , 0.001095509 , -0.001162815, 3.098448    , 0.94        , 3           , 12          , 0.0364114121, 0
-0.001488097, -0.008319082, -9.809394   , -0.0001448601, 0.003309507 , -0.00137784984, -0.459956855, -0.0196170956, 0.2968181   , 0.00109407632, -0.001129705, 3.09843469  , 0.95        , 3           , 50          , 0           , 0
0.009726251 , -0.004427947, -9.798828   , 0.0006389039, 0.00143776392, -0.0005935462, -0.46150735 , -0.01921262 , 0.297424823 , 0.00110047194, -0.001115321, 3.09842849  , 0.96        , 3           , 11          , 0.00892000552, 0.008920008
-0.004792733, -0.0048551  , -9.790426   , -0.000439414522, -0.0001610026, 0.000448805 , -0.460900635, -0.0193474442, 0.296346217 , 0.00109607272, -0.001116936, 3.09843278  , 0.97        , 3           , 12          , 0.0364114121, 0
-0.004809998, -0.00442386232, -9.788164   , -0.00149212056, -0.0001408135, -0.0016820787, -0.46009168 , -0.0192800332, 0.296952933 , 0.00108117028, -0.00111832574, 3.098416    , 0.98        , 3           , 50          , 0           , 0
-0.0148118911, 0.00274577551, -9.774211   , 0.00115805981, -0.0006949714, -0.000344381144, -0.46009168 , -0.0192800332, 0.296952933 , 0.00109275489, -0.00112527166, 3.09841275  , 0.99        , 3           , 11          , 0.00892000552, 0.008920008
-0.0146319438, -0.00111083686, -9.797285   , 0.00324350712, 0.001497671 , -0.0003136149, -0.461439937, -0.0190777946, 0.297222584 , 0.00105723576, -0.00101685384, 3.09841     , 1           , 3           , 12          , 0.03686201  , 0
-0.007118359, -0.008944556, -9.785978   , 0.00322493515, -0.00116840762, 0.0004591434, -0.460833222, -0.01921262 , 0.296076566 , 0.00108948024, -0.00102854287, 3.09841418  , 1.01        , 3           , 50          , 0           , 0
-0.000303881243, 0.000471344218, -9.783543   , -0.00022041 , 0.000185761077, -0.000609948067, -0.459956855, -0.01948227 , 0.2967507   , 0.00108728232, -0.00102667848, 3.098408    , 1.02        , 3           , 11          , 0.008640897 , 0.00864091
-0.000591563061, 0.0109515842, -9.793379   , 0.0008422912, 0.00149955787, 0.0010017337, -0.459956855, -0.01948227 , 0.2967507   , 0.00109569507, -0.00101169385, 3.09841847  , 1.03        , 3           , 12          , 0.03686201  , 0
0.006561214 , -0.0174170472, -9.808484   , -0.003671468, 0.0007399169, -0.0014206476, -0.461439937, -0.01921262 , 0.29729     , 0.00105899479, -0.00100427913, 3.09840417  , 1.04        , 3           , 50          , 0           , 0
-0.00738908863, -0.0110037122, -9.807687   , 0.00191630214, 0.00203605741, -0.000315933226, -0.4606984  , -0.0191452075, 0.296076566 , 0.00107816071, -0.0009839153, 3.09840083  , 1.05        , 3           , 11          , 0.008640897 , 0.00864091
-0.00222859718, -0.02968084 , -9.794258   , 0.00376695767, 0.00016305552, -5.71968267E-05, -0.46009168 , -0.0192800332, 0.296952933 , 0.001115831 , -0.000982284, 3.09840035  , 1.06        , 3           , 12          , 0.03686201  , 0
0.00247505866, -0.0169653036, -9.80536652 , -0.00182079966, -0.0008689381, -0.0008938484, -0.46009168 , -0.0192800332, 0.296952933 , 0.00109763187, -0.0009909634, 3.09839129  , 1.07        , 3           , 50          , 0           , 0
-0.009795332, -0.00351412036, -9.785054   , -0.00049783726, -0.00114885648, 0.000173467881, -0.461777   , -0.01921262 , 0.29729     , 0.00109265174, -0.001002454, 3.09839272  , 1.08        , 3           , 11          , 0.008640897 , 0.00864091
-0.00199007988, -0.00343370065, -9.799865   , 0.000313009834, -0.0003431626, -0.00140885729, -0.460630983, -0.0191452075, 0.29594177  , 0.001095796 , -0.00100587041, 3.098379    , 1.09        , 3           , 12          , 0.03686201  , 0
-0.00563243777, -0.007476887, -9.799498   , -0.00264111324, 0.000821834139, -0.0006180614, -0.46009168 , -0.0193474442, 0.2968181   , 0.00103474956, -0.000888677954, 3.0983727   , 1.1         , 3           , 50          , 0           , 0
-0.01910969 , 0.0003003683, -9.800037   , 0.0011016496, 0.003470255 , -0.00137078925, -0.46009168 , -0.0193474442, 0.2968181   , 0.00104577816, -0.0008539612, 3.09835935  , 1.11        , 3           , 11          , 0.008484449 , 0.008484459
-0.0133672254, -0.007935517, -9.792821   , -0.0007947263, -0.00132099364, 0.000169547449, -0.4617096  , -0.0192800332, 0.297155172 , 0.00103782932, -0.0008671729, 3.09836078  , 1.12        , 3           , 12          , 0.03735734  , 0
0.000612679869, 0.0036181733, -9.782597   , -0.000502969662, 0.00293817045, -0.000321628817, -0.4607658  , -0.0190103818, 0.296009183 , 0.00103280228, -0.0008377879, 3.09835744  , 1.13        , 3           , 50          , 0           , 0
-0.0133507447, -0.0038831532, -9.791426   , -0.0007618905, 0.00294889673, -0.001651285, -0.459889442, -0.01948227 , 0.296952933 , 0.00102519675, -0.00080828194, 3.09834123  , 1.14        , 3           , 11          , 0.008484449 , 0.008484459
-0.0287111644, -0.0203869753, -9.80262    , 0.001350562 , 0.00186139578, 0.000210005674, -0.459889442, -0.01948227 , 0.296952933 , 0.00103870081, -0.000789670157, 3.09834313  , 1.15        , 3           , 12          , 0.03735734  , 0
-0.00884098 , -0.0151281  , -9.800066   , 0.002388913 , -0.00161163451, 0.001512524 , -0.46150735 , -0.01921262 , 0.297155172 , 0.00106257794, -0.0008058024, 3.09835839  , 1.16        , 3           , 50          , 0           , 0
-0.0235662963, -0.00678768335, -9.811907   , -0.0002412902, 0.00134634832, -0.00113163935, -0.46056357 , -0.01921262 , 0.296009183 , 0.001060174 , -0.0007923269, 3.098347    , 1.17        , 3           , 11          , 0.008484449 , 0.008484459
-0.0156217692, -0.00657288 , -9.791932   , -0.00291136955, 0.00108156353, 0.0004455058, -0.4601591  , -0.0192800332, 0.297020346 , 0.00103105663, -0.0007815159, 3.09835172  , 1.18        , 3           , 12          , 0.03735734  , 0
-0.00678779325, -0.03059301 , -9.789806   , 1.33227195E-05, 0.000273355225, -7.72992062E-05, -0.4601591  , -0.0192800332, 0.297020346 , 0.00103119039, -0.000778781541, 3.09835076  , 1.19        , 3           , 50          , 0           , 0
-0.0179537833, -0.011565581, -9.787493   , 0.000557268329, -0.001660736, 0.000439976022, -0.461777   , -0.0192800332, 0.297087759 , 0.0010649662, -0.0008699468, 3.098355    , 1.2         , 3           , 11          , 0.00840388052, 0.008403877
-0.0164015517, 0.003869772 , -9.797258   , 0.002691052 , -0.00166325434, -0.000611158262, -0.460630983, -0.01948227 , 0.296076566 , 0.00109188189, -0.000886572641, 3.09834886  , 1.21        , 3           , 12          , 0.0378952771, 0
-0.0125693362, -0.00490696169, -9.778777   , -0.001547948, 0.00234184717, 0.000199150381, -0.459956855, -0.0192800332, 0.296952933 , 0.00107640051, -0.00086315634, 3.09835076  , 1.22        , 3           , 50          , 0           , 0
-0.00205768459, -0.0147120394, -9.801333   , -0.00234891754, 0.0004928162, -0.00115029083, -0.459956855, -0.0192800332, 0.296952933 , 0.00105292141, -0.000858216, 3.09833932  , 1.23        , 3           , 11          , 0.00840388052, 0.008403877
-0.00116303191, -0.03131833 , -9.813686   , -0.002095697, -5.37759042E-05, 0.000705819752, -0.46150735 , -0.0190777946, 0.297155172 , 0.00103195815, -0.0008587611, 3.09834647  , 1.24        , 3           , 12          , 0.0378952771, 0
-0.01336228 , -0.02676502 , -9.808368   , -0.00180116843, 0.00288843922, -0.00165696046, -0.46056357 , -0.01921262 , 0.296009183 , 0.00101396057, -0.0008298598, 3.09832978  , 1.25        , 3           , 50          , 0           , 0
-0.00955384 , 0.0151125453, -9.797061   , 0.001652662 , 0.00101733441, -0.002717865, -0.460024267, -0.01921262 , 0.297020346 , 0.00103050959, -0.0008196587, 3.098303    , 1.26        , 3           , 11          , 0.00840388052, 0.008403877
-0.009969721, -0.0126566868, -9.77295    , 0.0027167818, 0.00233302428, -0.00137182814, -0.460024267, -0.01921262 , 0.297020346 , 0.0010576885, -0.000796314038, 3.09828925  , 1.27        , 3           , 12          , 0.0378952771, 0
-0.00714312261, -0.0170411374, -9.789674   , -0.000220703965, 0.00259590172, 0.001005657 , -0.461642176, -0.0190777946, 0.297155172 , 0.00105547358, -0.0007703657, 3.09829926  , 1.28        , 3           , 50          , 0           , 0
0.00198025815, -0.01566027 , -9.799485   , -0.002893777, -0.000842433, -0.000102660662, -0.460361332, -0.01948227 , 0.296076566 , 0.00102653645, -0.000778788934, 3.09829831  , 1.29        , 3           , 11          , 0.00840388052, 0.008403877
-0.0103100333, -0.0147851883, -9.78698    , -0.00232277834, -0.000315249257, -0.000360637932, -0.4602265  , -0.019414857, 0.297087759 , 0.00104242307, -0.000786744, 3.0982945   , 1.3         , 3           , 12          , 0.0384736657, 0
-0.004224835, 0.006468998 , -9.794372   , 0.0008665483, -0.00033417088, 0.000187821061, -0.4602265  , -0.019414857, 0.297087759 , 0.001051087 , -0.000790087564, 3.0982964   , 1.31        , 3           , 50          , 0           , 0
0.005010549 , -0.009083606, -9.77996    , -0.000181823852, 0.001276579 , -0.001131621, -0.461777   , -0.0191452075, 0.296952933 , 0.00104927761, -0.000777309935, 3.098285    , 1.32        , 3           , 11          , 0.0083651375, 0.008365144
0.008039599 , -0.01416756 , -9.769584   , -0.003118008, -0.000835973246, -0.00143234583, -0.460361332, -0.0191452075, 0.295806944 , 0.00101810868, -0.0007856549, 3.09827065  , 1.33        , 3           , 12          , 0.0384736657, 0
0.00438793935, -0.02584348 , -9.774262   , -0.003649996, -4.10097418E-05, -0.000631019066, -0.46009168 , -0.01921262 , 0.297222584 , 0.0009816138, -0.0007860587, 3.09826446  , 1.34        , 3           , 50          , 0           , 0
5.59911132E-06, -0.0270278323, -9.789686   , 6.41602455E-05, -0.00218509464, -0.0008959753, -0.46009168 , -0.01921262 , 0.297222584 , 0.0009822624, -0.0008079009, 3.0982554   , 1.35        , 3           , 11          , 0.0083651375, 0.008365144
0.00614852132, 0.0104276948, -9.790591   , -0.005002918, -0.00323475478, 0.000395395182, -0.46150735 , -0.0192800332, 0.297020346 , 0.000932230032, -0.0008402522, 3.09825921  , 1.36        , 3           , 12          , 0.0384736657, 0
0.0010060668, 0.00176362682, -9.777641   , 0.00247120671, 0.0009903542, -5.715109E-05, -0.460428745, -0.0193474442, 0.296009183 , 0.00095694256, -0.0008303482, 3.09825921  , 1.37        , 3           , 50          , 0           , 0
-0.0138854031, -0.0133803543, -9.78972    , -0.00311506679, 0.00128098857, 0.00018086606, -0.4601591  , -0.0193474442, 0.297222584 , 0.0009257903, -0.000817540043, 3.09826064  , 1.38        , 3           , 11          , 0.0083651375, 0.008365144
-0.01556054 , -0.028933784, -9.816548   , 0.00221513631, 0.00126901327, -0.00165003457, -0.4601591  , -0.0193474442, 0.297222584 , 0.0009479552, -0.0008048343, 3.098244    , 1.39        , 3           , 12          , 0.0384736657, 0
-0.0193198361, -0.0196403824, -9.792559   , 0.003592423 , 0.00262730429, 0.0004942692, -0.461642176, -0.01921262 , 0.296952933 , 0.00104224216, -0.0007223049, 3.0982492   , 1.4         , 3           , 50          , 0           , 0
-0.0238359924, -0.009298677, -9.783928   , -0.00227705645, -0.0005374267, 0.0004337806, -0.4602265  , -0.01921262 , 0.295806944 , 0.00101946853, -0.0007276836, 3.09825349  , 1.41        , 3           , 11          , 0.008346311 , 0.00834632
-0.008033408, -0.006708614, -9.782805   , 0.000651865557, -0.00186825008, -0.0014220851, -0.4602265  , -0.0193474442, 0.297222584 , 0.00102599768, -0.0007463515, 3.09823918  , 1.42        , 3           , 12          , 0.039090354 , 0
-0.0139965005, -0.0193207879, -9.782101   , 0.00279865088, 0.00290091429, -3.8895465E-05, -0.4602265  , -0.0193474442, 0.297222584 , 0.00105398463, -0.000717342, 3.09823918  , 1.43        , 3           , 50          , 0           , 0
0.0003681723, -0.003347663, -9.811129   , 0.0006519569, -1.9221101E-05, 0.0004543541, -0.4613051  , -0.01921262 , 0.29688552  , 0.00106050086, -0.000717539049, 3.09824347  , 1.44        , 3           , 11          , 0.008346311 , 0.00834632
-0.0197049845, -0.03212764 , -9.809855   , 0.00332208839, 0.00130215171, -5.05401258E-05, -0.4601591  , -0.0192800332, 0.296076566 , 0.00109372206, -0.000704517, 3.098243    , 1.45        , 3           , 12          , 0.039090354 , 0
-0.0140134729, -0.00274105556, -9.817171   , 0.00119828735, 0.002374509 , 0.000213329768, -0.4601591  , -0.01921262 , 0.297222584 , 0.00110570341, -0.0006807742, 3.098245    , 1.46        , 3           , 50          , 0           , 0
-0.0263353214, -0.008624004, -9.806539   , 0.000397396157, 0.00211036019, 0.000472264859, -0.4601591  , -0.01921262 , 0.297222584 , 0.00110967411, -0.0006596759, 3.09824967  , 1.47        , 3           , 11          , 0.008346311 , 0.00834632
-0.0133404806, -0.011047937, -9.798273   , -0.0059884144, 0.0008180035, -0.0006367416, -0.4613051  , -0.0193474442, 0.2967507   , 0.00104979414, -0.000651489, 3.09824347  , 1.48        , 3           , 12          , 0.039090354 , 0
0.0108780731, -0.0162979811, -9.785832   , -0.00252449815, 0.00212991331, -0.0003404084, -0.460024267, -0.0193474442, 0.29594177  , 0.00102455122, -0.000630186347, 3.09824014  , 1.49        , 3           , 50          , 0           , 0
0.0106206182, -0.0147563936, -9.806149   , -0.0024805665, 0.00182362262, -0.00140538916, -0.4601591  , -0.01948227 , 0.297222584 , 0.00104567537, -0.000667252869, 3.09822583  , 1.5         , 3           , 11          , 0.00833087  , 0.008330882
-0.000419521733, -0.0216174  , -9.788282   , -0.00169390009, 0.00127640076, 0.000187938145, -0.4601591  , -0.01948227 , 0.297222584 , 0.00102873507, -0.000654490839, 3.09822774  , 1.51        , 3           , 12          , 0.0397432   , 0
-0.0295932554, -0.0100462958, -9.796655   , -0.00170104508, 0.000210347964, 0.00044391246, -0.461439937, -0.0193474442, 0.2967507   , 0.00101172179, -0.0006523919, 3.09823251  , 1.52        , 3           , 50          , 0           , 0
-0.01291435 , -0.0128698535, -9.79693    , -0.0030425142, -0.0008550773, 0.00148966815, -0.460024267, -0.01921262 , 0.295874357 , 0.000981287 , -0.000660957536, 3.09824729  , 1.53        , 3           , 11          , 0.00833087  , 0.008330882
-0.00254541449, -0.0210234057, -9.802306   , -0.00143076258, 0.000478912552, -8.352923E-05, -0.4601591  , -0.01921262 , 0.297492236 , 0.000966979947, -0.0006561676, 3.09824634  , 1.54        , 3           , 12          , 0.0397432   , 0
-0.0354254656, -0.008177988, -9.798966   , 0.00257224822, 0.00126947067, -0.00164868543, -0.4601591  , -0.01921262 , 0.297492236 , 0.0009927131, -0.0006434568, 3.09822965  , 1.55        , 3           , 50          , 0           , 0
-0.02447026 , -0.020240467, -9.772301   , 0.0001581349, -0.0013871491, -0.000623158761, -0.461439937, -0.01921262 , 0.2968181   , 0.0009942985, -0.0006573221, 3.098224    , 1.56        , 3           , 11          , 0.00833087  , 0.008330882
-0.0110338125, -0.00159610249, -9.796343   , -0.001179039, -0.00165445462, 0.00042985013, -0.460293919, -0.01921262 , 0.296076566 , 0.0009825053, -0.0006738709, 3.09822774  , 1.57        , 3           , 12          , 0.0397432   , 0
-0.02230747 , -0.012721369, -9.806079   , -0.00328577845, 0.000233059633, -0.00168983266, -0.4602265  , -0.0192800332, 0.2973574   , 0.000949658861, -0.000671524, 3.098211    , 1.58        , 3           , 50          , 0           , 0
-0.0249821525, -0.00639176974, -9.804693   , 0.000449930667, 0.00366445584, -0.000310146774, -0.4602265  , -0.0192800332, 0.2973574   , 0.0009541601, -0.000634876371, 3.09820771  , 1.59        , 3           , 11          , 0.00833087  , 0.008330882
-0.0205682572, 0.00155059632, -9.787394   , -0.000323800952, 0.000600512431, -0.00166913145, -0.461642176, -0.01921262 , 0.296683282 , 0.0009901177, -0.0008079325, 3.0981915   , 1.6         , 3           , 12          , 0.0404301174, 0
-0.0200055111, -0.0315302834, -9.775972   , -7.484951E-05, -0.000215905675, 0.0007158518, -0.4602265  , -0.0191452075, 0.29594177  , 0.0009893633, -0.00081009866, 3.09819818  , 1.61        , 3           , 50          , 0           , 0
0.00459563173, -0.0292239971, -9.800043   , -0.0003280567, 0.0005948335, -0.0008721963, -0.46009168 , -0.0193474442, 0.297222584 , 0.0009860898, -0.000804141746, 3.09818959  , 1.62        , 3           , 11          , 0.008309772 , 0.008309786
-0.00385188288, -0.0281419344, -9.813235   , 0.00180019578, 0.00349036  , 0.00208794  , -0.46009168 , -0.0193474442, 0.297222584 , 0.0010040754, -0.0007692589, 3.09821057  , 1.63        , 3           , 12          , 0.0404301174, 0
-0.0127273966, -0.009992894, -9.81542    , -0.00218441267, 0.00193196943, -0.0006044778, -0.46150735 , -0.0192800332, 0.296615869 , 0.0009822358, -0.0007499332, 3.09820485  , 1.64        , 3           , 50          , 0           , 0
0.00125607476, -0.022655746, -9.77472    , -7.48234161E-05, 0.000312388322, 0.0012519774, -0.460024267, -0.0192800332, 0.296009183 , 0.0009814781, -0.000746821635, 3.09821725  , 1.65        , 3           , 11          , 0.008309772 , 0.008309786
-0.001965925, -0.0235937834, -9.768444   , 0.00152833818, 5.013842E-05, -0.000335726218, -0.460293919, -0.0192800332, 0.297424823 , 0.0009967639, -0.0007463169, 3.098214    , 1.66        , 3           , 12          , 0.0404301174, 0
-0.01073773 , -0.00399607047, -9.781005   , -0.0005997055, 0.00138096383, 0.0009931416, -0.460293919, -0.0192800332, 0.297424823 , 0.0009907597, -0.000732517161, 3.098224    , 1.67        , 3           , 50          , 0           , 0
-0.0110151488, -0.0006806273, -9.79768848 , 0.001276628 , 0.00244765263, -0.000581042841, -0.461372524, -0.01921262 , 0.2967507   , 0.00100353  , -0.000708034844, 3.0982182   , 1.68        , 3           , 11          , 0.008309772 , 0.008309786
0.00381769077, -0.00129041262, -9.791641   , -5.76701277E-05, 0.002976574 , 0.0007448641, -0.4601591  , -0.0192800332, 0.296076566 , 0.00100294815, -0.0006782766, 3.09822536  , 1.69        , 3           , 12          , 0.0404301174, 0
-0.00813121349, 0.0133780595, -9.806096   , 0.000764347846, 0.00163825962, -0.000325517147, -0.460630983, -0.019414857, 0.297627062 , 0.00104181771, -0.0006764839, 3.098222    , 1.7         , 3           , 50          , 0           , 0
-0.0165541284, -0.0222917385, -9.801135   , 0.0026321176, 0.00163700234, -0.0013780822, -0.461574763, -0.019414857, 0.296683282 , 0.00106814806, -0.0006600993, 3.09820867  , 1.71        , 3           , 11          , 0.008278613 , 0.008278634
-0.0107691158, -0.0210680123, -9.791113   , -0.000581468, -0.00128187356, -0.000359265425, -0.461574763, -0.019414857, 0.296683282 , 0.00106233591, -0.000672914146, 3.09820485  , 1.72        , 3           , 12          , 0.0411490574, 0
-0.0268872362, -0.0176899787, -9.80257    , -0.000575780636, -0.00101015484, -0.00115378282, -0.460024267, -0.01948227 , 0.296076566 , 0.00105658569, -0.0006830034, 3.09819341  , 1.73        , 3           , 50          , 0           , 0
0.00331846788, -0.0120976288, -9.794918   , 0.00100469682, -0.00103854539, 0.00177689735, -0.460428745, -0.019414857, 0.297492236 , 0.00106662046, -0.000693407666, 3.098211    , 1.74        , 3           , 11          , 0.008278613 , 0.008278634
-0.01240806 , -0.009679055, -9.800506   , 0.0007557582, 4.20196156E-05, -0.000340023282, -0.4613051  , -0.01921262 , 0.296615869 , 0.00107418024, -0.000692983856, 3.09820771  , 1.75        , 3           , 12          , 0.0411490574, 0
-0.0136544406, -0.0140470527, -9.815925   , 0.00155526982, 0.00109671662, 0.000470874831, -0.4613051  , -0.01921262 , 0.296615869 , 0.00108972972, -0.0006820218, 3.09821248  , 1.76        , 3           , 50          , 0           , 0
-0.0232379884, -0.0109492876, -9.801555   , -0.0005586013, 0.00218232488, -0.00112477061, -0.459956855, -0.01948227 , 0.296076566 , 0.00108415133, -0.0006601864, 3.098201    , 1.77        , 3           , 11          , 0.008278613 , 0.008278634
-0.0388745554, -0.01651737 , -9.773343   , -3.23005952E-05, 0.00111564226, -0.00113157986, -0.460496157, -0.019414857, 0.297424823 , 0.00108383573, -0.000649017747, 3.09818959  , 1.78        , 3           , 12          , 0.0411490574, 0
-0.0171578582, 0.00267197564, -9.764302   , -0.000308309245, -0.000217082183, -0.000613809039, -0.4613051  , -0.0192800332, 0.296481043 , 0.00108075666, -0.000651181967, 3.09818387  , 1.79        , 3           , 50          , 0           , 0
-0.0070760306, -0.007557055, -9.789578   , 0.00234142342, -0.00037590292, 0.0009945049, -0.4613051  , -0.0192800332, 0.296481043 , 0.00110178022, -0.000826243253, 3.09819341  , 1.8         , 3           , 11          , 0.008234964 , 0.00823499
-0.0234457329, -0.0259548016, -9.790414   , -0.0019105525, -0.000614190067, -9.338488E-05, -0.459822029, -0.0193474442, 0.296009183 , 0.00108267542, -0.000832384045, 3.09819245  , 1.81        , 3           , 12          , 0.04189805  , 0
-0.0148581211, -0.008959714, -9.778394   , -0.00296170916, 0.002049362 , 0.0001907141, -0.460496157, -0.01948227 , 0.2973574   , 0.0010530568, -0.000811892562, 3.09819436  , 1.82        , 3           , 50          , 0           , 0
0.005343629 , -0.02176078 , -9.77692    , -0.000313077762, -0.00114815892, -0.000886571, -0.4613051  , -0.0191452075, 0.296548456 , 0.00104993337, -0.000823364768, 3.09818578  , 1.83        , 3           , 11          , 0.008234964 , 0.00823499
-0.000816397369, -0.0139366239, -9.78821    , 0.0020839863, 0.0009574512, 0.0007395175, -0.4613051  , -0.0191452075, 0.296548456 , 0.00107076718, -0.000813798164, 3.09819341  , 1.84        , 3           , 12          , 0.04189805  , 0
-0.0164066944, -0.0181088522, -9.814191   , -0.00031018845, -8.778491E-05, -0.000345610082, -0.459889442, -0.01921262 , 0.296076566 , 0.00106766808, -0.0008146723, 3.09818959  , 1.85        , 3           , 50          , 0           , 0
-0.0184831638, -0.0277841128, -9.791727   , 0.0007538791, 0.000171316831, -7.182438E-05, -0.4606984  , -0.019414857, 0.297424823 , 0.00107520726, -0.0008129584, 3.09818864  , 1.86        , 3           , 11          , 0.008234964 , 0.00823499
-0.008307615, -0.002941534, -9.799485   , -0.00188624091, 0.00338019524, -0.000588409661, -0.461102873, -0.01948227 , 0.29641363  , 0.00105634972, -0.0007791502, 3.098183    , 1.87        , 3           , 12          , 0.04189805  , 0
-0.01792609 , 0.00326048583, -9.778761   , -0.0008521849, -0.0008909543, 0.0007068555, -0.461102873, -0.01948227 , 0.29641363  , 0.00104782218, -0.0007880674, 3.09819055  , 1.88        , 3           , 50          , 0           , 0
-0.00419587269, -0.00382063934, -9.755625   , -0.00136990915, 0.00150782126, 0.000460108276, -0.4596872  , -0.0190777946, 0.29594177  , 0.00103411928, -0.0007729939, 3.09819484  , 1.89        , 3           , 11          , 0.008234964 , 0.00823499
0.00430117734, -0.0174052045, -9.808059   , 0.002096111 , 0.000920569641, -0.00111994846, -0.4607658  , -0.01921262 , 0.297492236 , 0.00105798978, -0.000829876051, 3.09818387  , 1.9         , 3           , 12          , 0.0426751859, 0
-0.009688366, -0.0159637928, -9.80686    , -0.0008557952, -0.00359012862, -0.000911142444, -0.4613051  , -0.0192800332, 0.29641363  , 0.00104943942, -0.0008657677, 3.09817433  , 1.91        , 3           , 50          , 0           , 0
-0.00171636429, -0.008995023, -9.784558   , -0.00350440037, 0.000135686292, 0.0007022682, -0.4613051  , -0.0192800332, 0.29641363  , 0.00101438945, -0.000864418049, 3.09818149  , 1.92        , 3           , 11          , 0.00817846  , 0.008178475
-0.000242114067, -0.00170928414, -9.792147   , -0.00137631746, -0.000402698119, 0.000177588692, -0.459822029, -0.0195496827, 0.29594177  , 0.00100062462, -0.000868446834, 3.098183    , 1.93        , 3           , 12          , 0.0426751859, 0
0.009348726 , -0.004351342, -9.806964   , 0.0007632445, 0.00171553111, 0.00020837615, -0.460968047, -0.0190777946, 0.297492236 , 0.00100825541, -0.000851293851, 3.0981853   , 1.94        , 3           , 50          , 0           , 0
-0.005703913, -0.0106871892, -9.794109   , 0.00100492081, -0.00280840974, 0.000168706145, -0.4612377  , -0.0191452075, 0.296481043 , 0.001018303 , -0.0008793795, 3.09818673  , 1.95        , 3           , 11          , 0.00817846  , 0.008178475
-0.0193125512, -0.01918467 , -9.793007   , -0.00111176155, -0.00119829341, -0.000359523721, -0.4612377  , -0.0191452075, 0.296481043 , 0.00100718858, -0.000891358766, 3.09818339  , 1.96        , 3           , 12          , 0.0426751859, 0
-0.0124225654, -0.0249404144, -9.81105    , -0.0005739816, 0.000391637877, 0.000189133978, -0.459822029, -0.0193474442, 0.296076566 , 0.00100144721, -0.000887444534, 3.0981853   , 1.97        , 3           , 50          , 0           , 0
-0.0146811046, -0.0195458028, -9.806504   , -0.002182883, -0.0006744191, 0.00149910408, -0.4606984  , -0.0190777946, 0.2973574   , 0.0009796049, -0.0008942034, 3.0982      , 1.98        , 3           , 11          , 0.00817846  , 0.008178475
-0.008453643, -0.005777709, -9.785511   , -0.0008514222, -0.00120712677, 0.0007044872, -0.46103546 , -0.0196170956, 0.2962788   , 0.000971084461, -0.0009062815, 3.09820724  , 1.99        , 3           , 12          , 0.0426751859, 0
0.00484473072, -0.0204598214, -9.770589   , -0.00135217886, -0.00253342162, 0.000689512759, -0.46103546 , -0.0196170956, 0.2962788   , 0.00101021084, -0.0009297245, 3.09821439  , 2           , 3           , 50          , 0           , 0
-0.008164175, -0.017153034, -9.77658749 , -0.000551248551, -0.0014768315, 0.001234766 , -0.459754616, -0.019414857, 0.296143979 , 0.00100468681, -0.000944505155, 3.09822679  , 2.01        , 3           , 11          , 0.00811220147, 0.008112222
-0.0170691684, -0.0129349828, -9.78659248 , -0.000265296636, 0.000133290829, -0.0008744577, -0.460833222, -0.0192800332, 0.297492236 , 0.00100204221, -0.000943163468, 3.09821773  , 2.02        , 3           , 12          , 0.04347865  , 0
-0.0152236074, -0.0169429965, -9.794289   , 0.001332256 , 0.00118420389, -5.92672732E-05, -0.46103546 , -0.0190777946, 0.2962114   , 0.00101536536, -0.0009313208, 3.09821725  , 2.03        , 3           , 50          , 0           , 0
-0.0153410472, -0.00540064462, -9.77204    , 0.001875684 , 0.0022534132, -0.0011093152, -0.46103546 , -0.0190777946, 0.2962114   , 0.00103413232, -0.0009087753, 3.0982058   , 2.04        , 3           , 11          , 0.00811220147, 0.008112222
-0.00747928955, -0.0007795263, -9.7895155  , 0.001861459 , 0.00144204241, 0.000742947042, -0.459754616, -0.0193474442, 0.296143979 , 0.00105274015, -0.0008943627, 3.09821343  , 2.05        , 3           , 12          , 0.04347865  , 0
-0.008635756, -0.009093858, -9.818071   , 0.0008016471, 0.00118861953, -0.0003277738, -0.46103546 , -0.0190777946, 0.297492236 , 0.00106075965, -0.00088247325, 3.09821057  , 2.06        , 3           , 50          , 0           , 0
-0.001667872, -0.0147763966, -9.794554   , 0.001585437 , -0.000154829148, 0.0009926553, -0.4612377  , -0.0190777946, 0.296143979 , 0.00107660494, -0.0008840321, 3.09822     , 2.07        , 3           , 11          , 0.00811220147, 0.008112222
0.0055010356, -0.0184648279, -9.791792   , 0.00158111623, -0.001481243, 0.0004492767, -0.4612377  , -0.0190777946, 0.296143979 , 0.00109241216, -0.0008988494, 3.09822488  , 2.08        , 3           , 12          , 0.04347865  , 0
-0.000402539939, -0.01577077 , -9.785514   , -2.50131252E-05, -0.00386424921, -0.000112357106, -0.459754616, -0.0193474442, 0.296143979 , 0.00109216291, -0.000937490549, 3.09822345  , 2.09        , 3           , 50          , 0           , 0
-0.0148765147, -0.0161530618, -9.78208    , 0.00321643543, 0.0009470503, 0.00047956343, -0.46103546 , -0.01921262 , 0.29729     , 0.00116186333, -0.0008688976, 3.09822869  , 2.1         , 3           , 11          , 0.008036431 , 0.008036444
-0.0116228238, -0.0371569358, -9.809356   , 0.00107544137, -0.00143721886, 0.000446358259, -0.4613051  , -0.01921262 , 0.2962114   , 0.00117261382, -0.000883275, 3.09823251  , 2.11        , 3           , 12          , 0.0443067   , 0
-0.0169783551, -0.0173288565, -9.800187   , -0.00263011246, 0.002567253 , 0.0009938834, -0.4613051  , -0.01921262 , 0.2962114   , 0.001146304 , -0.000857614039, 3.098243    , 2.12        , 3           , 50          , 0           , 0
-0.009773467, -0.002147019, -9.786396   , -0.000224602016, 0.00336348568, -0.000314212142, -0.4596872  , -0.019414857, 0.296143979 , 0.0011440604, -0.000823975541, 3.09823966  , 2.13        , 3           , 11          , 0.008036431 , 0.008036444
0.006747018 , -0.0118550286, -9.774546   , -0.00209815055, 0.00124399539, -0.000343568856, -0.46103546 , -0.01921262 , 0.297424823 , 0.00112308178, -0.0008115317, 3.09823632  , 2.14        , 3           , 12          , 0.0443067   , 0
-0.02710188 , -0.03539301 , -9.792812   , -0.000234675492, 0.00044461817, -0.001403387, -0.4611703  , -0.0193474442, 0.296143979 , 0.00112074637, -0.000807069766, 3.098222    , 2.15        , 3           , 50          , 0           , 0
-0.0185063053, -0.004035514, -9.8204     , 0.00163456483, 0.00150184217, -0.00164934609, -0.4611703  , -0.0193474442, 0.296143979 , 0.00113710517, -0.0007920327, 3.0982058   , 2.16        , 3           , 11          , 0.008036431 , 0.008036444
-0.006692045, -0.0210803784, -9.792871   , 4.18945274E-06, -0.00355481473, -0.000375641364, -0.4596872  , -0.0195496827, 0.296009183 , 0.0011371501, -0.0008275766, 3.098202    , 2.17        , 3           , 12          , 0.0443067   , 0
-0.002158247, -0.00135911256, -9.779518   , 0.0005434271, -0.00117054943, 0.0007115595, -0.461102873, -0.0190103818, 0.297222584 , 0.00114257855, -0.000839290151, 3.09820914  , 2.18        , 3           , 50          , 0           , 0
-0.0115758628, -0.0155850677, -9.797393   , -0.000250292826, 0.000159648393, 0.001250646 , -0.4611703  , -0.0191452075, 0.296009183 , 0.00114006526, -0.0008377081, 3.09822154  , 2.19        , 3           , 11          , 0.008036431 , 0.008036444
-0.0004446432, -0.009086154, -9.775509   , -0.00100485072, 0.000428556232, -0.000610749, -0.4611703  , -0.0191452075, 0.296009183 , 0.001177608 , -0.0008543999, 3.09821534  , 2.2         , 3           , 12          , 0.04515769  , 0
-0.006423714, -0.0239564441, -9.774828   , -0.00126651733, 0.0022845252, 0.000467324367, -0.4596872  , -0.0195496827, 0.296009183 , 0.00116493891, -0.0008315602, 3.09822     , 2.21        , 3           , 50          , 0           , 0
0.0028408207, -0.0152598834, -9.794502   , -0.00155253464, -0.00064633193, 0.00123623433, -0.460968047, -0.0190777946, 0.297155172 , 0.00114940328, -0.000838037755, 3.09823251  , 2.22        , 3           , 11          , 0.007955038 , 0.007955036
-0.00445645675, -0.0170806441, -9.787383   , -0.000735986861, 0.0006952279, -0.0008725457, -0.460968047, -0.0190103818, 0.296143979 , 0.001142051 , -0.0008310755, 3.098224    , 2.23        , 3           , 12          , 0.04515769  , 0
-0.0191689283, -0.021283716, -9.810644   , 0.0008672008, 0.0009612719, -0.00192412373, -0.460968047, -0.0190103818, 0.296143979 , 0.0011507388, -0.00082144083, 3.09820485  , 2.24        , 3           , 50          , 0           , 0
-0.00305002742, -0.02914536 , -9.802845   , -0.000219642083, -0.000912999443, 0.000444034958, -0.4596198  , -0.01948227 , 0.296076566 , 0.00114853855, -0.0008305758, 3.09820867  , 2.25        , 3           , 11          , 0.007955038 , 0.007955036
-0.0115765389, -0.00706541 , -9.790532   , -0.00233347435, 0.000965049549, -0.000347422261, -0.460833222, -0.0192800332, 0.2973574   , 0.00112520659, -0.0008209213, 3.0982058   , 2.26        , 3           , 12          , 0.04515769  , 0
-0.0138799027, -0.01202957 , -9.789254   , 0.00138780125, -0.0006412765, -0.00140447845, -0.4613051  , -0.0190777946, 0.295874357 , 0.0011390961, -0.0008273182, 3.0981915   , 2.27        , 3           , 50          , 0           , 0
0.009868799 , -0.0181918982, -9.775474   , 0.000384959741, -4.931453E-05, 0.000189466547, -0.4613051  , -0.0190777946, 0.295874357 , 0.00114294409, -0.0008278137, 3.09819341  , 2.28        , 3           , 11          , 0.007955038 , 0.007955036
-0.009709951, -0.04603512 , -9.778251   , -0.000137098308, 0.000758899841, -0.0008687221, -0.459754616, -0.01921262 , 0.296076566 , 0.00114158017, -0.0008202146, 3.09818482  , 2.29        , 3           , 12          , 0.04515769  , 0
-0.00986067951, -0.03227932 , -9.800702   , -0.0001132607, 0.000372955721, -0.0006071339, -0.46103546 , -0.0191452075, 0.297087759 , 0.00128506939, -0.0007938371, 3.09817863  , 2.3         , 3           , 50          , 0           , 0
-0.007535908, -0.009356281, -9.790053   , -0.0009116367, 0.0007724869, -0.000142920748, -0.460968047, -0.0191452075, 0.295739532 , 0.00127595407, -0.000786110468, 3.09817719  , 2.31        , 3           , 11          , 0.007866517 , 0.007866519
-0.0034178067, -0.00529180653, -9.793124   , 0.000412698428, -0.000430052984, -0.000279469183, -0.460968047, -0.0191452075, 0.295739532 , 0.00128008332, -0.0007904076, 3.09817433  , 2.32        , 3           , 12          , 0.046030052 , 0
-0.005178055, -0.00702844933, -9.799488   , 0.00214930926, 0.00109053182, -0.0001234451, -0.459822029, -0.0193474442, 0.296009183 , 0.00130157743, -0.000779500639, 3.09817338  , 2.33        , 3           , 50          , 0           , 0
0.00326953083, -0.02246049 , -9.797731   , 0.0009629395, 0.00216699322, -0.00104997051, -0.460900635, -0.0192800332, 0.297222584 , 0.00131121476, -0.000757816946, 3.098163    , 2.34        , 3           , 11          , 0.007866517 , 0.007866519
-0.00519902073, -0.008843102, -9.798603   , 0.0008195373, -9.134983E-05, -0.00140329252, -0.4612377  , -0.01921262 , 0.295806944 , 0.00131942076, -0.000758711947, 3.09814858  , 2.35        , 3           , 12          , 0.046030052 , 0
-0.0105617177, 0.0145653291, -9.785786   , 0.00054933643, 0.00129100424, 0.000799541362, -0.4612377  , -0.01921262 , 0.295806944 , 0.00132490823, -0.0007458125, 3.09815669  , 2.36        , 3           , 50          , 0           , 0
0.004874345 , -0.0128024286, -9.817945   , -0.003173852, 5.53839636E-05, -0.0006930209, -0.4596872  , -0.019414857, 0.2962114   , 0.00129317481, -0.0007452496, 3.09814954  , 2.37        , 3           , 11          , 0.007866517 , 0.007866519
-0.01502875 , -0.007780023, -9.808651   , -0.003189558, -0.00201257784, 0.000151588465, -0.461102873, -0.0191452075, 0.297087759 , 0.00126127794, -0.0007653773, 3.09815145  , 2.38        , 3           , 12          , 0.046030052 , 0
-0.0123921447, 0.006929033 , -9.789046   , -0.001373686, -0.000673381845, -0.00228388235, -0.4612377  , -0.01921262 , 0.296076566 , 0.00124755863, -0.000772082538, 3.09812856  , 2.39        , 3           , 50          , 0           , 0
0.0219051521, -0.004965592, -9.798685   , -0.001752177, -0.00047862588, -0.0004907375, -0.4612377  , -0.01921262 , 0.296076566 , 0.00117007678, -0.0007665862, 3.09812379  , 2.4         , 3           , 11          , 0.007774285 , 0.007774299
-0.0197065119, -0.004774414, -9.787898   , -0.00122585986, -0.00121512462, -0.000162468335, -0.459822029, -0.0195496827, 0.2962114   , 0.00115781929, -0.0007787356, 3.098122    , 2.41        , 3           , 12          , 0.04692232  , 0
-0.03007556 , -0.0006569158, -9.785725   , -0.00116146472, -0.000822059, 0.0006384511, -0.461372524, -0.0193474442, 0.297087759 , 0.00114619965, -0.000786963559, 3.098128    , 2.42        , 3           , 50          , 0           , 0
-0.0218297169, -0.00552306324, -9.80329    , -0.000214035026, 0.0005820674, -0.00100413023, -0.460833222, -0.01921262 , 0.295806944 , 0.00114406715, -0.000781131443, 3.098118    , 2.43        , 3           , 11          , 0.007774285 , 0.007774299
-0.0215085838, -0.00610430166, -9.78928852 , 0.000709890563, -2.61427667E-05, -0.0002740384, -0.460833222, -0.01921262 , 0.295806944 , 0.00115116837, -0.0007813897, 3.09811521  , 2.44        , 3           , 12          , 0.04692232  , 0
-0.009161396, -0.00468048826, -9.806289   , 0.000712021661, 4.2733478E-05, -0.00060549035, -0.459822029, -0.0197519213, 0.2962788   , 0.00115829345, -0.0007809554, 3.09810948  , 2.45        , 3           , 50          , 0           , 0
-0.000976100564, -0.0181317348, -9.773798   , -0.000756366469, 0.00017464548, 0.000516840955, -0.461372524, -0.0191452075, 0.29688552  , 0.00115072564, -0.0007792149, 3.09811425  , 2.46        , 3           , 11          , 0.007774285 , 0.007774299
-0.0144125447, -0.014349753, -9.782057   , -0.0008243373, -0.0008174835, -0.000223106952, -0.4606984  , -0.0190777946, 0.295672119 , 0.001142484 , -0.000787387253, 3.09811234  , 2.47        , 3           , 12          , 0.04692232  , 0
0.00335254334, 0.0036316812, -9.786177   , 0.00171172037, 0.000437063456, -0.0005964985, -0.4606984  , -0.0190777946, 0.295672119 , 0.00115960569, -0.000783009746, 3.09810662  , 2.48        , 3           , 50          , 0           , 0
-0.0108375587, 0.008913582 , -9.809788   , 0.00111067458, -0.000223778741, -0.0008049957, -0.459754616, -0.0196170956, 0.2962114   , 0.00117071881, -0.000785238051, 3.098098    , 2.49        , 3           , 11          , 0.007774285 , 0.007774299
-0.0150486  , -0.00197010674, -9.801817   , 0.000383619335, -3.65655651E-05, -0.000275421655, -0.461372524, -0.0192800332, 0.297087759 , 0.001074431 , -0.00080503046, 3.09809566  , 2.5         , 3           , 12          , 0.0478330925, 0
-0.0146982  , 0.00330750272, -9.786401   , -0.00127144984, 0.00136802753, -0.00027167084, -0.4607658  , -0.019414857, 0.2956047   , 0.00106171879, -0.0007913473, 3.09809279  , 2.51        , 3           , 50          , 0           , 0
0.003376983 , -0.000379903242, -9.792089   , 0.001987562 , 0.00115493953, -0.0005216026, -0.459822029, -0.0191452075, 0.296143979 , 0.00108159846, -0.0007797924, 3.09808755  , 2.52        , 3           , 11          , 0.00767990761, 0.00767992763
-0.0215117112, -0.0209059026, -9.80073    , 0.000464790355, 0.00255795545, -0.000384314, -0.459822029, -0.0191452075, 0.296143979 , 0.00108624925, -0.0007542086, 3.09808373  , 2.53        , 3           , 12          , 0.0478330925, 0
-0.0199296549, -0.0121674053, -9.819144   , -0.000661199563, 0.00171099044, -0.0021249454, -0.461372524, -0.0192800332, 0.297020346 , 0.001079653 , -0.000737075752, 3.09806275  , 2.54        , 3           , 50          , 0           , 0
-0.0213605817, -0.0144771272, -9.812409   , -0.00334736472, -0.00115052378, -0.000172904751, -0.4606984  , -0.0193474442, 0.295806944 , 0.00104618061, -0.000748579, 3.09806085  , 2.55        , 3           , 11          , 0.00767990761, 0.00767992763
-0.0101587251, -0.018670341, -9.806893   , -0.00343028014, -0.00315308 , 0.0008711853, -0.459889442, -0.0196170956, 0.2962114   , 0.001011871 , -0.0007801187, 3.09806943  , 2.56        , 3           , 12          , 0.0478330925, 0
-0.019425327, 0.00223240815, -9.813575   , 0.000645410037, 0.000616861566, 0.00119310117, -0.459889442, -0.0196170956, 0.2962114   , 0.0010183159, -0.0007739621, 3.09808183  , 2.57        , 3           , 50          , 0           , 0
-0.008991096, -0.0179683473, -9.785641   , -7.367582E-05, 0.00142933475, -0.000331039453, -0.46150735 , -0.0190777946, 0.297020346 , 0.00101758156, -0.0007596654, 3.098078    , 2.58        , 3           , 11          , 0.00767990761, 0.00767992763
-0.0161355622, -0.0182914976, -9.794313   , 0.00244131754, -0.00018361985, 0.000332159078, -0.460968047, -0.0191452075, 0.295739532 , 0.00104199233, -0.000761505333, 3.09808183  , 2.59        , 3           , 12          , 0.0478330925, 0
-0.0246973857, -0.0236014854, -9.799893   , 0.0005116503, -0.00108849944, 0.0003139845, -0.459754616, -0.0193474442, 0.2962114   , 0.001053299 , -0.0008575637, 3.09808469  , 2.6         , 3           , 50          , 0           , 0
-0.0201861747, -0.015113689, -9.792976   , 0.000518056564, -0.0006177238, -0.000412308436, -0.459754616, -0.0193474442, 0.2962114   , 0.00105848315, -0.0008637365, 3.09808087  , 2.61        , 3           , 11          , 0.00758350547, 0.00758352131
-0.0137050115, -0.0010927394, -9.799984   , -0.0007454788, -1.7401846E-05, 0.000184036719, -0.461439937, -0.0191452075, 0.29688552  , 0.00105102651, -0.000863912457, 3.0980823   , 2.62        , 3           , 12          , 0.04876107  , 0
0.0006174408, -0.00489740446, -9.789909   , -7.36609363E-05, 0.000912950956, -0.000135980779, -0.460968047, -0.01921262 , 0.295672119 , 0.00105029112, -0.0008547815, 3.09808087  , 2.63        , 3           , 50          , 0           , 0
-0.0100783445, -0.00558551028, -9.805407   , 0.00091888936, 0.000175191439, 6.19696E-05 , -0.4601591  , -0.0195496827, 0.2962788   , 0.00105947966, -0.0008530303, 3.09808183  , 2.64        , 3           , 11          , 0.00758350547, 0.00758352131
-0.0203652252, -0.011704633, -9.770358   , 0.00151813263, 0.000239336761, -6.18069862E-07, -0.4601591  , -0.0195496827, 0.2962788   , 0.0010746608, -0.0008506369, 3.09808183  , 2.65        , 3           , 12          , 0.04876107  , 0
-0.009413255, -0.0201784056, -9.790636   , 0.000651466835, 0.000372670067, 0.000527230965, -0.461439937, -0.01921262 , 0.296952933 , 0.001081171 , -0.000846915937, 3.0980866   , 2.66        , 3           , 50          , 0           , 0
-0.006103128, -0.0222916063, -9.809138   , -0.00169113558, -0.001419162, 0.00149456179, -0.4607658  , -0.0192800332, 0.295672119 , 0.00106424687, -0.0008611236, 3.09810185  , 2.67        , 3           , 11          , 0.00758350547, 0.00758352131
-0.00682881661, -0.0122434916, -9.820791   , -0.00275450037, -0.00180939061, 0.000953922 , -0.459889442, -0.0196170956, 0.296346217 , 0.00103669346, -0.000879227533, 3.09811139  , 2.68        , 3           , 12          , 0.04876107  , 0
-0.00695702434, 0.00466938876, -9.793069   , -0.00247061439, 0.0010525902, 0.000516463944, -0.459889442, -0.0196170956, 0.296346217 , 0.00101198291, -0.0008687069, 3.09811664  , 2.69        , 3           , 50          , 0           , 0
-0.0136718284, -0.04007823 , -9.784563   , -0.00172179879, 0.00217625  , -0.00112959207, -0.461574763, -0.01948227 , 0.296952933 , 0.0009989392, -0.0008744176, 3.09810519  , 2.7         , 3           , 11          , 0.007486887 , 0.007486908
-0.00207416154, -0.0187644  , -9.80273    , -0.00172074151, 0.002045596 , -0.00146285724, -0.4606984  , -0.019414857, 0.295672119 , 0.0009817444, -0.000853947131, 3.09809041  , 2.71        , 3           , 12          , 0.0497050323, 0
-0.0335325226, -0.0255919527, -9.822607   , -0.0009952555, 0.00157182536, -0.00079904095, -0.460024267, -0.0193474442, 0.296346217 , 0.000971798669, -0.0008382211, 3.09808278  , 2.72        , 3           , 50          , 0           , 0
-0.0224762578, -0.0164771024, -9.790307   , -0.000142213161, -0.00155114511, -0.001818968, -0.460024267, -0.0193474442, 0.296346217 , 0.000970391848, -0.000853714941, 3.09806466  , 2.73        , 3           , 11          , 0.007486887 , 0.007486908
-0.007992482, -0.00666783052, -9.787322   , -0.00115903234, -0.0039492934, -0.0006506897, -0.461439937, -0.01921262 , 0.2967507   , 0.0009588071, -0.000893201563, 3.098058    , 2.74        , 3           , 12          , 0.0497050323, 0
-0.010280652, -0.00489026867, -9.782363   , 0.000643008563, -0.00262855366, -0.0004961211, -0.460630983, -0.019414857, 0.2956047   , 0.00096524175, -0.0009194823, 3.09805322  , 2.75        , 3           , 50          , 0           , 0
-0.005352836, -0.013929233, -9.785555   , -2.55035047E-05, -0.00124336116, 0.00157174421, -0.459822029, -0.0192800332, 0.29641363  , 0.000964972132, -0.000931931136, 3.09806848  , 2.76        , 3           , 11          , 0.007486887 , 0.007486908
0.007317496 , -0.00590962544, -9.783062   , 0.0005222095, 0.000425857637, 0.000327902148, -0.459822029, -0.0192800332, 0.29641363  , 0.000970191031, -0.000927675632, 3.09807229  , 2.77        , 3           , 12          , 0.0497050323, 0
-0.02347746 , -0.0223989245, -9.784055   , -0.002740069, -0.000884158653, -0.0003658255, -0.461642176, -0.01921262 , 0.2967507   , 0.000942793733, -0.00093651365, 3.09806848  , 2.78        , 3           , 50          , 0           , 0
-0.0450690463, -0.02218072 , -9.791544   , -0.00192919257, 0.000515866 , -0.00134500954, -0.46056357 , -0.0191452075, 0.2956047   , 0.000923514366, -0.0009313425, 3.09805512  , 2.79        , 3           , 11          , 0.007486887 , 0.007486908
-0.0291888118, -0.023549227, -9.802206   , -0.0002243305, 0.000716938754, -0.000669508241, -0.460024267, -0.0193474442, 0.296615869 , 0.00100352161, -0.00102112757, 3.09804845  , 2.8         , 3           , 12          , 0.05066382  , 0
0.000921824947, -0.0359891653, -9.798347   , 0.00151194236, 0.00256723422, -0.000111994508, -0.460024267, -0.0193474442, 0.296615869 , 0.0010186421, -0.0009954539, 3.098047    , 2.81        , 3           , 50          , 0           , 0
-0.00168457627, -0.02690088 , -9.802355   , 0.001365    , 0.0004362323, 0.000332827447, -0.46150735 , -0.0190777946, 0.296683282 , 0.00103228888, -0.0009910951, 3.09805036  , 2.82        , 3           , 11          , 0.007390486 , 0.00739050563
0.0274842754, -0.0339924581, -9.789872   , -0.00103591627, -0.000684032333, 0.0004424981, -0.460428745, -0.01921262 , 0.2955373   , 0.00102192536, -0.00099794 , 3.09805512  , 2.83        , 3           , 12          , 0.05066382  , 0
-0.0287271366, -0.0226450954, -9.802643   , 0.00242193253, -0.000172608561, 0.00106363464, -0.459889442, -0.0195496827, 0.296615869 , 0.00104613416, -0.000999677, 3.09806561  , 2.84        , 3           , 50          , 0           , 0
-0.03595205 , -0.0217030942, -9.801367   , 0.002239504 , 0.00103971479, -0.000918896869, -0.459889442, -0.0195496827, 0.296615869 , 0.0010685384, -0.00098927 , 3.098056    , 2.85        , 3           , 11          , 0.007390486 , 0.00739050563
-0.0262838  , -0.003639838, -9.808296   , -0.00128588942, 0.0009894439, -0.000872047443, -0.461574763, -0.01921262 , 0.2967507   , 0.0010556879, -0.0009793661, 3.09804749  , 2.86        , 3           , 12          , 0.05066382  , 0
-0.012987854, 0.009478819 , -9.770959   , -0.002495793, -0.000540762558, -2.90409826E-05, -0.46056357 , -0.019414857, 0.29546988  , 0.0010307302, -0.0009847736, 3.09804749  , 2.87        , 3           , 50          , 0           , 0
-0.00156203657, -0.00211463869, -9.796233   , 0.0006359809, 0.00116941787, 0.000601186533, -0.460024267, -0.019414857, 0.2967507   , 0.00103708415, -0.0009730856, 3.09805322  , 2.88        , 3           , 11          , 0.007390486 , 0.00739050563
0.00430868  , -0.008877389, -9.8021     , 0.00169040821, 9.50070244E-05, 0.00132776273, -0.460024267, -0.019414857, 0.2967507   , 0.00105397543, -0.0009721494, 3.09806657  , 2.89        , 3           , 12          , 0.05066382  , 0
-0.0102839638, -0.009377951, -9.78557    , 0.000323403918, 0.001502032 , -0.0002609266, -0.461372524, -0.0190777946, 0.296615869 , 0.001083177 , -0.0009718205, 3.09806371  , 2.9         , 3           , 50          , 0           , 0
-0.0008466672, -0.0233839955, -9.792371   , 0.000651993731, 0.0009669556, -6.473976E-05, -0.460496157, -0.01921262 , 0.2956047   , 0.0010896977, -0.0009621504, 3.09806323  , 2.91        , 3           , 11          , 0.007294688 , 0.00729471166
0.00408170745, -0.0122426739, -9.77955    , -0.0002687106, 0.00217375578, -0.0007893916, -0.46009168 , -0.019414857, 0.2967507   , 0.00108701794, -0.00094040425, 3.09805512  , 2.92        , 3           , 12          , 0.0516363643, 0
0.00148578919, -0.00224706531, -9.783999   , -0.003465931, 0.000333237083, -0.0017532421, -0.46009168 , -0.019414857, 0.2967507   , 0.0010523753, -0.000937053061, 3.098038    , 2.93        , 3           , 50          , 0           , 0
0.0004919339, -0.0220631547, -9.789631   , -0.00280621625, 0.000322985084, -0.00075349625, -0.46150735 , -0.0192800332, 0.296615869 , 0.00102432  , -0.000933815143, 3.09803033  , 2.94        , 3           , 11          , 0.007294688 , 0.00729471166
-0.0202520471, -0.012937149, -9.783921   , -0.00226843334, 0.00197895314, -0.000137822819, -0.4601591  , -0.0193474442, 0.2955373   , 0.00100163685, -0.000914024247, 3.098029    , 2.95        , 3           , 12          , 0.0516363643, 0
-0.007333763, 0.000262394547, -9.804863   , -0.00147473277, 0.0002525348, -0.00107900333, -0.459822029, -0.0193474442, 0.296683282 , 0.0009868992, -0.000911488256, 3.098018    , 2.96        , 3           , 50          , 0           , 0
0.00428316742, 0.005895665 , -9.78749752 , -0.000623040251, -0.00148555671, -0.000425955717, -0.459822029, -0.0193474442, 0.296683282 , 0.0009806729, -0.0009263396, 3.098014    , 2.97        , 3           , 11          , 0.007294688 , 0.00729471166
-0.0171717536, -0.006759081, -9.770269   , -0.00261742016, -0.00121100352, -0.000301446, -0.461642176, -0.0192800332, 0.296548456 , 0.000954501447, -0.0009384467, 3.09801078  , 2.98        , 3           , 12          , 0.0516363643, 0
-0.0191670954, -0.0037927886, -9.796916   , -0.003131933, 0.00158825167, -0.0007438007, -0.460361332, -0.0193474442, 0.2955373   , 0.000923189 , -0.0009225572, 3.09800363  , 2.99        , 3           , 50          , 0           , 0
-0.00480063632, -0.0111411065, -9.794556   , -0.0022792  , 0.000656274031, -0.00127889437, -0.459889442, -0.0193474442, 0.2967507   , 0.000881293847, -0.000917026657, 3.09799075  , 3           , 3           , 11          , 0.00719983969, 0.007199862
-0.00389079 , -0.0210056957, -9.803226   , -0.00103196816, 0.000232293023, 0.00138072576, -0.459889442, -0.0193474442, 0.2967507   , 0.000870961347, -0.0009147157, 3.09800458  , 3.01        , 3           , 12          , 0.05262165  , 0
-0.00253869779, -0.008011991, -9.792689   , 0.000305156951, -0.000490952865, -0.00067751843, -0.461574763, -0.0192800332, 0.296548456 , 0.0008740192, -0.0009196193, 3.097998    , 3.02        , 3           , 50          , 0           , 0
-0.0185729675, -0.0198017266, -9.775386   , 4.627206E-05, 0.000246177573, -0.00127000175, -0.4602265  , -0.01921262 , 0.295739532 , 0.0008744936, -0.0009171464, 3.097985    , 3.03        , 3           , 11          , 0.00719983969, 0.007199862
-0.0377211459, -0.0149282562, -9.799965   , -0.00136638887, -0.00240996643, -0.000969633867, -0.460024267, -0.0191452075, 0.2967507   , 0.0008608386, -0.0009412376, 3.097975    , 3.04        , 3           , 12          , 0.05262165  , 0
-0.0133023625, -0.013700583, -9.804624   , 4.16095427E-05, -0.0008165626, -0.00147890649, -0.460024267, -0.0191452075, 0.2967507   , 0.0008612688, -0.000949390465, 3.09796071  , 3.05        , 3           , 50          , 0           , 0
-0.0152101479, -0.0236561671, -9.801132   , 0.00041645873, -0.00197326019, 0.0018999388, -0.4613051  , -0.0191452075, 0.296548456 , 0.0008654152, -0.000969139568, 3.09797978  , 3.06        , 3           , 11          , 0.00719983969, 0.007199862
-0.0253429934, -0.0166170374, -9.772726   , 0.000554417551, -0.00223141233, 0.000702833931, -0.460361332, -0.0192800332, 0.295672119 , 0.0008709525, -0.0009914595, 3.09798646  , 3.07        , 3           , 12          , 0.05262165  , 0
-0.0278613735, -0.0146160536, -9.792161   , 0.000821146939, -0.00209965371, 0.0007054736, -0.460361332, -0.0192800332, 0.296952933 , 0.000879157 , -0.00101246254, 3.09799361  , 3.08        , 3           , 50          , 0           , 0
0.0106405132, -0.00218027644, -9.798343   , -0.00109391683, -0.0008838642, -0.000622245, -0.460361332, -0.0192800332, 0.296952933 , 0.0008682242, -0.00102129567, 3.09798741  , 3.09        , 3           , 11          , 0.00719983969, 0.007199862
0.0118747894, -0.00813842751, -9.7898035  , 0.00125159929, -0.00111816439, 0.0002518037, -0.461372524, -0.01921262 , 0.296615869 , 0.0009290806, -0.00106851023, 3.0979898   , 3.1         , 3           , 12          , 0.0536187477, 0
-0.0161897726, -0.0219330247, -9.791189   , 0.002049256 , -0.00171675219, -0.000280633976, -0.4602265  , -0.01921262 , 0.2955373   , 0.0009495763, -0.00108567509, 3.097987    , 3.11        , 3           , 50          , 0           , 0
-0.009012958, -0.0193354487, -9.784299   , 0.000605481851, 0.00135343091, -0.000791989733, -0.46009168 , -0.0193474442, 0.297155172 , 0.0009556397, -0.00107213331, 3.09797883  , 3.12        , 3           , 11          , 0.00710719125, 0.00710724248
-0.0178860631, 0.003748808 , -9.782822   , -0.0002615514, 0.00122214376, -0.000465792138, -0.46009168 , -0.0193474442, 0.297155172 , 0.0009530291, -0.00105990749, 3.097974    , 3.13        , 3           , 12          , 0.0536187477, 0
-0.00927569 , -0.0110725388, -9.798676   , -0.00101308583, -0.00157443283, 0.000434645219, -0.4613051  , -0.0193474442, 0.296548456 , 0.000942893559, -0.00107565569, 3.09797883  , 3.14        , 3           , 50          , 0           , 0
-0.005755201, -0.007599244, -9.785949   , -0.000611218449, -0.00137442863, 0.000106548308, -0.46009168 , -0.0195496827, 0.295874357 , 0.000936780241, -0.001089401, 3.09797978  , 3.15        , 3           , 11          , 0.00710719125, 0.00710724248
0.01063272  , -0.0268565938, -9.766968   , -0.000415248156, -0.0012480336, 0.000905765453, -0.46009168 , -0.0192800332, 0.297020346 , 0.00093261787, -0.00110188976, 3.09798884  , 3.16        , 3           , 12          , 0.0536187477, 0
-0.00557732955, -0.00428289548, -9.80308    , 0.00078818365, -0.00150933792, -0.000551261764, -0.46009168 , -0.0192800332, 0.297020346 , 0.0009405058, -0.00111697777, 3.0979836   , 3.17        , 3           , 50          , 0           , 0
-0.0269014183, -0.0208431873, -9.803506   , -0.00100770767, -0.000378672645, 0.0006447587, -0.461574763, -0.0192800332, 0.296548456 , 0.0009304215, -0.00112077047, 3.0979898   , 3.18        , 3           , 11          , 0.00710719125, 0.00710724248
-0.0039485395, -0.004471019, -9.783637   , -0.00433720276, -0.001755357, 1.64801586E-05, -0.4601591  , -0.01948227 , 0.295739532 , 0.000887049362, -0.00113832427, 3.0979898   , 3.19        , 3           , 12          , 0.0536187477, 0
-0.0199401677, -0.00276508369, -9.76032448 , -0.00219968217, -0.00235879514, 0.00101862976, -0.4601591  , -0.0193474442, 0.297087759 , 0.0009030364, -0.00113579072, 3.09799981  , 3.2         , 3           , 50          , 0           , 0
-0.00176838611, -0.01577345 , -9.784175   , 0.0004129325, 0.00141808414, 0.00133267662, -0.4601591  , -0.0193474442, 0.297087759 , 0.000907150563, -0.00112162216, 3.09801316  , 3.21        , 3           , 11          , 0.0070152916, 0.007015327
0.0119653214, -0.00625444157, -9.7983675  , 0.00234539667, 0.0006877412, -0.000124646962, -0.4612377  , -0.01921262 , 0.296481043 , 0.000930605864, -0.00111474341, 3.09801221  , 3.22        , 3           , 12          , 0.0546267629, 0
-0.0110940151, -0.008382682, -9.795055   , -0.0001967389, -0.00156540226, 0.000372500654, -0.4601591  , -0.0193474442, 0.295874357 , 0.0009286342, -0.00113040069, 3.098016    , 3.23        , 3           , 50          , 0           , 0
-0.0135606723, -0.01575178 , -9.777543   , 0.000809031131, -0.0003045492, 0.000123704944, -0.460361332, -0.019414857, 0.297222584 , 0.0009367231, -0.00113344728, 3.098017    , 3.24        , 3           , 11          , 0.0070152916, 0.007015327
-0.011575358, -0.0137908179, -9.79602    , 8.49607E-05 , 0.000105078019, -0.0008727719, -0.460361332, -0.019414857, 0.297222584 , 0.0009375827, -0.00113238825, 3.09800839  , 3.25        , 3           , 12          , 0.0546267629, 0
-0.00129954144, -0.01844966 , -9.788261   , 0.00278808339, -0.00218433421, 0.00124650321, -0.4612377  , -0.0191452075, 0.296548456 , 0.0009654493, -0.001154244, 3.09802079  , 3.26        , 3           , 50          , 0           , 0
-0.007511744, -0.00709000742, -9.790935   , 0.00287208473, 0.00028189944, 0.000472289277, -0.460024267, -0.0193474442, 0.295874357 , 0.0009941646, -0.00115142926, 3.09802556  , 3.27        , 3           , 11          , 0.0070152916, 0.007015327
-0.009846559, -0.0147761377, -9.788329   , 0.002547087 , 0.00174622261, 0.0005502094, -0.460293919, -0.01948227 , 0.297087759 , 0.0010196293, -0.00113397255, 3.09803128  , 3.28        , 3           , 12          , 0.0546267629, 0
-0.0259130672, -0.0248042531, -9.766039   , 0.00255094562, 0.0008929506, -0.00105151848, -0.460293919, -0.01948227 , 0.297087759 , 0.00104515057, -0.00112503208, 3.09802079  , 3.29        , 3           , 50          , 0           , 0
0.008688172 , -0.0287725  , -9.80315    , 0.00157452  , 0.000966386055, -0.00105630409, -0.461372524, -0.01921262 , 0.296481043 , 0.00110626884, -0.001110555, 3.09800982  , 3.3         , 3           , 11          , 0.006926776 , 0.00692679966
0.0001971945, -0.00396650471, -9.792616   , 0.0008330297, 0.000494346546, 0.000330166949, -0.459956855, -0.01948227 , 0.29594177  , 0.00111459545, -0.00110561494, 3.09801316  , 3.31        , 3           , 12          , 0.0556448922, 0
-0.0110358261, -0.008773129, -9.801835   , -0.00150207628, -0.000296996179, 0.000908096263, -0.46056357 , -0.01921262 , 0.2973574   , 0.0010995646, -0.00110859517, 3.09802222  , 3.32        , 3           , 50          , 0           , 0
-0.0128742177, -0.008345466, -9.797789   , -0.002830391, -0.000684543862, 0.000166792175, -0.4612377  , -0.01948227 , 0.29641363  , 0.0010712588, -0.00111544237, 3.09802365  , 3.33        , 3           , 11          , 0.006926776 , 0.00692679966
-0.0120985247, -0.01879219 , -9.792011   , -3.19215833E-05, -0.000558615429, -0.0006803227, -0.4612377  , -0.01948227 , 0.29641363  , 0.00107094727, -0.00112102134, 3.098017    , 3.34        , 3           , 12          , 0.0556448922, 0
-0.00753684761, -0.0272947755, -9.804237   , -0.00260589854, 0.00251740124, -0.00126417039, -0.459956855, -0.01948227 , 0.295874357 , 0.00104490225, -0.00109583384, 3.09800458  , 3.35        , 3           , 50          , 0           , 0
-0.007130349, -0.015234651, -9.789657   , -0.00242282962, -8.074726E-05, -0.0008217909, -0.4606984  , -0.0192800332, 0.29729     , 0.00102068286, -0.00109663291, 3.097996    , 3.36        , 3           , 11          , 0.006926776 , 0.00692679966
-0.01975007 , -0.01782254 , -9.793449   , 0.00022766288, -0.00149290962, -0.000421708741, -0.461439937, -0.0191452075, 0.296481043 , 0.00102296413, -0.00111155771, 3.09799218  , 3.37        , 3           , 12          , 0.0556448922, 0
0.0114218239, -0.0399761535, -9.814974   , -0.0008338635, -0.0005600372, 4.59090443E-05, -0.461439937, -0.0191452075, 0.296481043 , 0.00101462507, -0.00111715856, 3.09799266  , 3.38        , 3           , 50          , 0           , 0
-0.00737888925, -0.00381852314, -9.803097   , 0.0005551987, -0.00183129532, 0.000174758927, -0.4596872  , -0.019414857, 0.29594177  , 0.001020175 , -0.00113547326, 3.097994    , 3.39        , 3           , 11          , 0.006926776 , 0.00692679966
-0.0228127055, 0.006062381 , -9.785117   , 0.00126015884, -0.001345954, -1.67295711E-05, -0.460496157, -0.0192800332, 0.297424823 , 0.00111464947, -0.00110048836, 3.097994    , 3.4         , 3           , 12          , 0.056672357 , 0
-0.000249015167, -0.0268331468, -9.761229   , 0.00366501557, 0.0005719573, -5.2735897E-05, -0.4611703  , -0.019414857, 0.296481043 , 0.00115130027, -0.00109476829, 3.09799314  , 3.41        , 3           , 50          , 0           , 0
-0.0277762245, -0.010046808, -9.797988   , -0.0003276846, 0.0003234172, 0.000122619051, -0.4611703  , -0.019414857, 0.296481043 , 0.001148022 , -0.00109153544, 3.097995    , 3.42        , 3           , 11          , 0.00683928747, 0.006839291
-0.0105394647, 0.0136906356, -9.788957   , 0.00227594352, 0.00164510531, -0.0003826329, -0.459822029, -0.0193474442, 0.29594177  , 0.00117078563, -0.0010750799, 3.09799123  , 3.43        , 3           , 12          , 0.056672357 , 0
-0.00615801476, -0.0174134877, -9.799151   , 0.00168025657, 0.00178380276, -0.0007831108, -0.460833222, -0.01921262 , 0.2973574   , 0.0011875967, -0.00105723261, 3.09798312  , 3.44        , 3           , 50          , 0           , 0
-0.0128214136, -0.006050648, -9.80183    , 0.00161664234, 0.00284449174, -0.000242507609, -0.461574763, -0.0192800332, 0.296481043 , 0.00120376574, -0.00102878478, 3.09798074  , 3.45        , 3           , 11          , 0.00683928747, 0.006839291
-6.559864E-05, 0.0186463781, -9.795554   , 0.00381337316, 0.0026388152, -0.000830218545, -0.461574763, -0.0192800332, 0.296481043 , 0.00124190771, -0.00100238621, 3.09797215  , 3.46        , 3           , 12          , 0.056672357 , 0
-0.0164905116, -0.00698142 , -9.796011   , 0.001677029 , 0.00105313922, -0.000922582, -0.459889442, -0.01921262 , 0.2962114   , 0.00125868712, -0.0009918433, 3.09796357  , 3.47        , 3           , 50          , 0           , 0
-0.0137931351, 0.001958508 , -9.787759   , -0.000260852656, -0.00020471889, -0.000479560025, -0.4606984  , -0.0190777946, 0.297559649 , 0.00125608325, -0.0009938848, 3.09795833  , 3.48        , 3           , 11          , 0.00683928747, 0.006839291
0.0151104657, -0.00584143959, -9.796518   , 0.00360067585, 0.0013015162, 0.0002856114, -0.4613051  , -0.0196845084, 0.296548456 , 0.00129208725, -0.000980873, 3.09796119  , 3.49        , 3           , 12          , 0.056672357 , 0
-0.00159848121, -0.00439314358, -9.793997   , 0.00137559709, 0.00153105927, -0.0005212766, -0.4613051  , -0.0196845084, 0.296548456 , 0.00122278288, -0.000933251635, 3.097956    , 3.5         , 3           , 50          , 0           , 0
-0.0128778061, -0.00655528344, -9.795963   , 0.00237422553, 0.001791896 , -0.000447082362, -0.459822029, -0.019414857, 0.296076566 , 0.00124652917, -0.0009153271, 3.09795213  , 3.51        , 3           , 11          , 0.006753271 , 0.006753287
-0.000885670946, 0.00214255415, -9.817865   , 0.000696605 , -0.00105967745, -0.000548426, -0.460833222, -0.01921262 , 0.297492236 , 0.00125350023, -0.000925916946, 3.09794641  , 3.52        , 3           , 12          , 0.0577084459, 0
0.000341778621, -0.0208630785, -9.822145   , 0.00109281763, -0.0004710246, 0.0005881515, -0.4611703  , -0.0192800332, 0.29641363  , 0.0012644229, -0.00093063456, 3.09795213  , 3.53        , 3           , 50          , 0           , 0
-0.006066248, -0.00386887952, -9.798564   , 0.00130691391, 0.000471947 , -0.00119541783, -0.4611703  , -0.0192800332, 0.29641363  , 0.00127750321, -0.0009258999, 3.09794021  , 3.54        , 3           , 11          , 0.006753271 , 0.006753287
-0.006763013, -0.0224964246, -9.78611    , -0.0001504314, 0.00160908082, -0.00112660043, -0.459822029, -0.01948227 , 0.296076566 , 0.00127600925, -0.0009097947, 3.09792924  , 3.55        , 3           , 12          , 0.0577084459, 0
-0.008983536, -0.0237904973, -9.79112    , -0.00222022668, 0.000947603839, -0.0002803864, -0.460900635, -0.0190777946, 0.297424823 , 0.00125380943, -0.000900315, 3.09792638  , 3.56        , 3           , 50          , 0           , 0
-0.01816421 , -0.00280210935, -9.807283   , -0.0025352654, 0.00301950867, -0.00145884068, -0.4611703  , -0.0189429689, 0.296548456 , 0.00122846966, -0.0008701019, 3.0979116   , 3.57        , 3           , 11          , 0.006753271 , 0.006753287
-0.0146767814, -0.0114696119, -9.800552   , -0.00346812536, 0.002229116 , -0.00193598017, -0.4611703  , -0.0189429689, 0.296548456 , 0.0011938049, -0.000847787247, 3.097892    , 3.58        , 3           , 12          , 0.0577084459, 0
-0.0160361249, -0.00653298944, -9.796002   , -0.00202713232, 0.000277771935, 0.0002459325, -0.459822029, -0.019414857, 0.2962788   , 0.0011735314, -0.0008450123, 3.097895    , 3.59        , 3           , 50          , 0           , 0
0.00168810226, -0.002942305, -9.807043   , 0.000560960441, -0.0002005646, -0.00080690824, -0.4607658  , -0.0191452075, 0.297559649 , 0.00115834654, -0.000866222952, 3.0978868   , 3.6         , 3           , 11          , 0.006670217 , 0.00667022262
-0.0110421125, -0.0280666687, -9.766342   , 0.000430110784, 0.0003972362, -0.000602949935, -0.46103546 , -0.0193474442, 0.2962788   , 0.00116265262, -0.000862243643, 3.0978806   , 3.61        , 3           , 12          , 0.0587525   , 0
0.00120389648, 0.00330610946, -9.798404   , -0.00164151285, -0.00138923177, -0.0005639464, -0.46103546 , -0.0193474442, 0.2962788   , 0.0011462426, -0.0008761295, 3.09787488  , 3.62        , 3           , 50          , 0           , 0
-0.01751687 , 0.00366833643, -9.823926   , -0.00343921618, -0.00105337368, 0.000159942181, -0.460024267, -0.0193474442, 0.296346217 , 0.001111849 , -0.000886665133, 3.09787679  , 3.63        , 3           , 11          , 0.006670217 , 0.00667022262
-0.0209563766, -0.00331618078, -9.798287   , -0.00144377246, -0.00132650719, -0.000163801247, -0.460900635, -0.0191452075, 0.297559649 , 0.00109741278, -0.000899928331, 3.09787488  , 3.64        , 3           , 12          , 0.0587525   , 0
0.003296999 , -0.0157065373, -9.795405   , -0.0008377161, 0.000265474955, 5.315783E-05, -0.461102873, -0.01921262 , 0.296346217 , 0.00108903507, -0.0008972742, 3.09787583  , 3.65        , 3           , 50          , 0           , 0
0.005498953 , -0.0112918839, -9.785849   , 9.37057557E-05, 0.0006577542, 0.000393848284, -0.461102873, -0.01921262 , 0.296346217 , 0.00108996849, -0.000890700961, 3.09787965  , 3.66        , 3           , 11          , 0.006670217 , 0.00667022262
0.007380739 , -0.0210935082, -9.802186   , 0.00182637677, 0.00138069235, 0.000476208021, -0.4601591  , -0.0193474442, 0.2962788   , 0.001108228 , -0.0008768993, 3.09788442  , 3.67        , 3           , 12          , 0.0587525   , 0
0.0005397517, -0.0193248782, -9.792765   , -0.00010295742, 0.0008605963, 6.253217E-05, -0.46103546 , -0.0191452075, 0.297492236 , 0.00110719784, -0.0008682939, 3.097885    , 3.68        , 3           , 50          , 0           , 0
-0.0151163694, -0.00293453224, -9.795051   , -0.00170189922, 0.000402121 , 0.000116128 , -0.4613051  , -0.01921262 , 0.2962788   , 0.0010901778, -0.000864274043, 3.09788632  , 3.69        , 3           , 11          , 0.006670217 , 0.00667022262
-0.0203806236, -0.00409209542, -9.812744   , 0.00201328075, -0.00126369158, -1.17857617E-05, -0.4613051  , -0.01921262 , 0.2962788   , 0.00110840471, -0.00084336265, 3.09788585  , 3.7         , 3           , 12          , 0.05980388  , 0
0.01286669  , -0.009849329, -9.801102   , 0.001341502 , -0.00140160345, 0.00111242  , -0.459822029, -0.0196170956, 0.296346217 , 0.00112181029, -0.000857391162, 3.09789681  , 3.71        , 3           , 50          , 0           , 0
-0.00389573723, -0.00217621215, -9.787679   , -0.000317195139, -0.00165266159, 0.000104891289, -0.4612377  , -0.01921262 , 0.297559649 , 0.0011186375, -0.000873918936, 3.09789777  , 3.72        , 3           , 11          , 0.006588506 , 0.00658853725
0.003192002 , -0.014465861, -9.782746   , -0.00143097411, 0.0006201909, -0.0007439855, -0.46150735 , -0.0193474442, 0.2962788   , 0.00110433425, -0.0008677088, 3.09789062  , 3.73        , 3           , 12          , 0.05980388  , 0
-0.00268236361, -0.0242989641, -9.789692   , 9.187586E-05, 0.0008020569, 0.0007271024, -0.46150735 , -0.0193474442, 0.2962788   , 0.00110524672, -0.000859696243, 3.09789777  , 3.74        , 3           , 50          , 0           , 0
-0.02948176 , -0.00634766323, -9.806103   , 0.000293858757, 0.000606313348, 6.224955E-05, -0.46009168 , -0.0193474442, 0.296346217 , 0.00110818469, -0.0008536338, 3.09789872  , 3.75        , 3           , 11          , 0.006588506 , 0.00658853725
-0.01184134 , 0.008370444 , -9.7989645  , 0.000763618853, 0.000213564534, -0.001134276, -0.461102873, -0.01921262 , 0.297627062 , 0.00111583062, -0.0008514856, 3.09788728  , 3.76        , 3           , 12          , 0.05980388  , 0
-0.00226997025, -0.0131298555, -9.776475   , -0.000428474246, 0.00029190263, -0.00200345647, -0.4613051  , -0.0192800332, 0.29641363  , 0.00111156283, -0.000848544238, 3.09786725  , 3.77        , 3           , 50          , 0           , 0
-0.0154188434, -0.00143780559, -9.810399   , -0.00129268994, -0.000231818878, -0.00261064316, -0.4613051  , -0.0192800332, 0.29641363  , 0.00109865807, -0.000850833545, 3.097841    , 3.78        , 3           , 11          , 0.006588506 , 0.00658853725
0.0062038037, 0.00330776  , -9.802407   , 0.00195068843, -0.00106006046, -0.000541620248, -0.4601591  , -0.0193474442, 0.29641363  , 0.00111816963, -0.0008614282, 3.09783578  , 3.79        , 3           , 12          , 0.05980388  , 0
-0.0129425526, 0.003245827 , -9.780959   , 0.00126432686, -0.001246496, -0.0006134049, -0.461439937, -0.0191452075, 0.297627062 , 0.00107873173, -0.00084997277, 3.09782958  , 3.8         , 3           , 50          , 0           , 0
-0.0215622168, -0.0223015584, -9.796227   , 0.00166482467, -5.783341E-05, 0.000329378527, -0.461372524, -0.019414857, 0.2962114   , 0.001095377 , -0.0008505547, 3.097833    , 3.81        , 3           , 11          , 0.006508912 , 0.006508952
-0.0237514582, -0.01055974 , -9.79433    , 0.0009965792, -0.0004551599, 0.000521409 , -0.461372524, -0.019414857, 0.2962114   , 0.00110533845, -0.000855112, 3.09783816  , 3.82        , 3           , 12          , 0.0608620234, 0
0.001141334 , 0.009970333 , -9.78614    , -0.0007282473, -0.000309208932, -0.000150794585, -0.459889442, -0.019414857, 0.29641363  , 0.00109805726, -0.0008582024, 3.09783673  , 3.83        , 3           , 50          , 0           , 0
-0.00628722645, -0.0040891096, -9.774175   , 0.00161932665, 0.00162132224, -0.00191385159, -0.4611703  , -0.0190103818, 0.297559649 , 0.00111426669, -0.000841968053, 3.09781766  , 3.84        , 3           , 11          , 0.006508912 , 0.006508952
-0.0133708138, -0.006145342, -9.790997   , 0.000739503244, 0.001010741 , 0.0003340418, -0.461102873, -0.0193474442, 0.2962788   , 0.001121659 , -0.0008318644, 3.09782052  , 3.85        , 3           , 12          , 0.0608620234, 0
-0.0220417865, 0.00413123332, -9.772027   , -0.00106855016, 1.2140029E-05, 0.00164354336, -0.461102873, -0.0193474442, 0.2962788   , 0.0011109598, -0.0008317614, 3.09783721  , 3.86        , 3           , 50          , 0           , 0
-0.03076302 , -0.0116517376, -9.768226   , 0.000325106084, -0.00158314942, 0.0005739682, -0.459956855, -0.019414857, 0.29641363  , 0.00111420616, -0.0008475992, 3.097843    , 3.87        , 3           , 11          , 0.006508912 , 0.006508952
-0.0260770824, -0.0146491937, -9.789882   , 0.00273600151, 0.000540917041, -0.000389982568, -0.4611703  , -0.0191452075, 0.297424823 , 0.00114156946, -0.0008421856, 3.097839    , 3.88        , 3           , 12          , 0.0608620234, 0
-0.007563265, -0.0120741762, -9.789178   , 0.00313967443, 0.001403655 , -0.00037997897, -0.461102873, -0.0191452075, 0.29641363  , 0.00117296935, -0.0008281446, 3.0978353   , 3.89        , 3           , 50          , 0           , 0
-0.009390436, -0.000872811361, -9.777794   , 0.0008440801, -0.0012123147, 0.000447686238, -0.461102873, -0.0191452075, 0.29641363  , 0.00114011  , -0.000909481256, 3.09783959  , 3.9         , 3           , 11          , 0.006431625 , 0.00643165363
-0.00335312076, -0.0007429421, -9.796692   , 0.00130460632, -0.001881515, 0.000709790853, -0.46009168 , -0.0193474442, 0.29641363  , 0.00115314941, -0.000928304566, 3.09784722  , 3.91        , 3           , 12          , 0.06192637  , 0
-0.00398021 , -0.0152651118, -9.788714   , 0.0009144944, -0.00100931409, -8.143287E-05, -0.461439937, -0.0193474442, 0.297492236 , 0.00116229523, -0.000938396668, 3.09784627  , 3.92        , 3           , 50          , 0           , 0
0.00214012712, 0.01095693  , -9.796056   , 0.0014643647, 0.001257075 , -0.00112060132, -0.46103546 , -0.0193474442, 0.2962788   , 0.00117694924, -0.00092581287, 3.09783483  , 3.93        , 3           , 11          , 0.006431625 , 0.00643165363
0.00625889748, 0.00650175055, -9.805988   , -0.000463521515, 0.0013332027, -0.001196781, -0.46103546 , -0.0193474442, 0.2962788   , 0.001172325 , -0.0009124667, 3.097823    , 3.94        , 3           , 12          , 0.06192637  , 0
0.0005895756, -0.009409562, -9.790406   , 0.00198820932, 0.0007153738, -0.000126406216, -0.4601591  , -0.01948227 , 0.296481043 , 0.00119220815, -0.0009053116, 3.09782147  , 3.95        , 3           , 50          , 0           , 0
-0.00300641544, 0.00228878669, -9.782655   , 0.000455019122, -0.000602841261, -0.000810834, -0.461574763, -0.0191452075, 0.297627062 , 0.00119676569, -0.0009113303, 3.09781384  , 3.96        , 3           , 11          , 0.006431625 , 0.00643165363
-0.0024045445, -0.00742986239, -9.80713749 , -0.0014127898, -0.00139402493, -0.000562457251, -0.46103546 , -0.0193474442, 0.2962114   , 0.001182643 , -0.0009252638, 3.09780812  , 3.97        , 3           , 12          , 0.06192637  , 0
-0.002015464, -0.0173605885, -9.808136   , -0.0015486991, -0.00271791546, -0.00137219636, -0.46103546 , -0.0193474442, 0.2962114   , 0.001167169 , -0.0009524268, 3.09779382  , 3.98        , 3           , 50          , 0           , 0
-0.0226008669, -0.0340904  , -9.790484   , -0.00147290656, -0.00131915463, -0.00169120217, -0.459889442, -0.0193474442, 0.296548456 , 0.00115245616, -0.000965598854, 3.09777713  , 3.99        , 3           , 11          , 0.006431625 , 0.00643165363
-0.01626153 , -0.0188654736, -9.780769   , 0.00132135523, 0.0008622633, -0.0004608343, -0.46150735 , -0.01921262 , 0.2973574   , 0.00115417852, -0.0009347094, 3.09777284  , 4           , 3           , 12          , 0.06299642  , 0
0.0113772471, -0.0238767862, -9.797195   , 0.0018454988, -0.000801589165, -0.0006723172, -0.4613051  , -0.0192800332, 0.296143979 , 0.0011726399, -0.0009427176, 3.09776616  , 4.01        , 3           , 50          , 0           , 0
-0.00286851823, -0.00923316553, -9.807161   , 0.00291205873, -0.000341064646, -0.000662363251, -0.4613051  , -0.0192800332, 0.296143979 , 0.00120176678, -0.000946120359, 3.09775949  , 4.02        , 3           , 11          , 0.00635700254, 0.00635701464
-0.0107428841, -0.0259746928, -9.797938   , 0.000119595461, -0.0009212052, -0.00141334976, -0.4602265  , -0.019414857, 0.296615869 , 0.00120297621, -0.000955315249, 3.09774518  , 4.03        , 3           , 12          , 0.06299642  , 0
-0.0183320958, -0.00700537674, -9.791969   , 0.0008400935, -0.00186385878, -0.00028888564, -0.46150735 , -0.0195496827, 0.297424823 , 0.00121138  , -0.0009739504, 3.09774232  , 4.04        , 3           , 50          , 0           , 0
-0.0245505273, -0.0068628937, -9.802885   , 0.00223420188, -0.00147757307, 0.000585598638, -0.460833222, -0.0190777946, 0.295874357 , 0.00123371615, -0.0009887331, 3.097748    , 4.05        , 3           , 11          , 0.00635700254, 0.00635701464
-0.0111529287, -0.0178586077, -9.796055   , 0.00170898146, -7.928701E-05, 0.000728252635, -0.460833222, -0.0190777946, 0.295874357 , 0.00125079881, -0.0009895351, 3.09775567  , 4.06        , 3           , 12          , 0.06299642  , 0
-0.00663779676, 0.000947177468, -9.781357   , 0.00185056822, 0.0013182119, 0.0005424271, -0.459889442, -0.0195496827, 0.296481043 , 0.00126929919, -0.00097636 , 3.09776044  , 4.07        , 3           , 50          , 0           , 0
0.0204809029, -0.0126499441, -9.796972   , 0.00257887156, 0.0004520065, 0.0002728591, -0.461574763, -0.0192800332, 0.2973574   , 0.00129508507, -0.000971843547, 3.0977633   , 4.08        , 3           , 11          , 0.00635700254, 0.00635701464
0.006434176 , -0.007229576, -9.786247   , 0.00157203129, -0.0009423398, 0.0005868572, -0.460900635, -0.0192800332, 0.296076566 , 0.00131079962, -0.0009812744, 3.0977695   , 4.09        , 3           , 12          , 0.06299642  , 0
-0.006293157, -0.0215841252, -9.787451   , 0.00158254977, 0.00134819828, -0.0004551943, -0.460900635, -0.0192800332, 0.296076566 , 0.00130656979, -0.000908614136, 3.09776473  , 4.1         , 3           , 50          , 0           , 0
-0.00250696018, -0.0115678813, -9.799049   , 0.0005070323, -0.00097318663, -0.00068130577, -0.459956855, -0.01921262 , 0.296548456 , 0.00131164631, -0.0009183372, 3.097758    , 4.11        , 3           , 11          , 0.00628392957, 0.00628392957
-0.0251901727, -0.0151194269, -9.788521   , 0.00069726  , -0.002241135, -0.0002268379, -0.46150735 , -0.0188755561, 0.2973574   , 0.001318621 , -0.0009407455, 3.09775567  , 4.12        , 3           , 12          , 0.0640717   , 0
-0.0232104249, -0.0225856416, -9.763725   , -0.0004922984, -0.00110289652, -0.000488646154, -0.460968047, -0.0193474442, 0.296076566 , 0.00131370279, -0.0009517681, 3.097751    , 4.13        , 3           , 50          , 0           , 0
-0.00653599948, -0.023171464, -9.761721   , -0.00134863693, -9.736125E-05, -0.00101551972, -0.459956855, -0.0195496827, 0.296548456 , 0.00130022608, -0.0009527284, 3.09774041  , 4.14        , 3           , 11          , 0.00628392957, 0.00628392957
-0.0206412822, -0.0254285056, -9.800764   , 0.00269703823, -0.000923707732, 0.000260859932, -0.459956855, -0.0195496827, 0.296548456 , 0.00132719381, -0.000961969141, 3.09774327  , 4.15        , 3           , 12          , 0.0640717   , 0
-0.0210498217, -0.0119296443, -9.794761   , -9.393507E-05, -4.91468454E-05, 0.000718573458, -0.4613051  , -0.0193474442, 0.297222584 , 0.0013262477, -0.0009624702, 3.09775043  , 4.16        , 3           , 50          , 0           , 0
0.00291901082, 0.00096183084, -9.790274   , 0.000912176445, 0.0009480325, 0.000135303751, -0.4607658  , -0.01948227 , 0.296076566 , 0.00133536791, -0.000952991541, 3.09775186  , 4.17        , 3           , 11          , 0.00628392957, 0.00628392957
-0.0107297692, -0.0120600294, -9.788313   , -0.000475874025, 0.00116412248, -0.00126503117, -0.459822029, -0.0193474442, 0.296683282 , 0.001330621 , -0.0009413335, 3.09773946  , 4.18        , 3           , 12          , 0.0640717   , 0
-0.006140407, -0.00573653728, -9.791807   , 0.00118779473, 0.00155387935, -0.00105322851, -0.459822029, -0.0193474442, 0.296683282 , 0.00134250883, -0.0009257807, 3.097729    , 4.19        , 3           , 50          , 0           , 0
-0.0137343332, 0.00739837671, -9.789962   , 0.00117466738, 8.623719E-05, -0.0006680497, -0.46150735 , -0.019414857, 0.297424823 , 0.0013454908, -0.0009293546, 3.09772229  , 4.2         , 3           , 11          , 0.00621273974, 0.00621271133
-0.006271252, -0.00183099508, -9.774153   , 0.00190089841, 0.000339816848, 0.0006001166, -0.460833222, -0.01921262 , 0.296076566 , 0.00136449456, -0.000925964559, 3.097728    , 4.21        , 3           , 12          , 0.06515176  , 0
-0.0114100575, -0.0266352128, -9.774464   , 0.0008521847, 0.00221424084, -0.0003848515, -0.46009168 , -0.019414857, 0.2967507   , 0.00137301977, -0.000903816952, 3.0977242   , 4.22        , 3           , 50          , 0           , 0
-0.0163202658, -0.0386553034, -9.790003   , 0.0007867224, 0.00175371859, -0.00105355273, -0.46009168 , -0.019414857, 0.2967507   , 0.0013808962, -0.000886265247, 3.09771371  , 4.23        , 3           , 11          , 0.00621273974, 0.00621271133
-0.0216646362, -0.026439568, -9.788138   , 0.0015168055, 0.00102195248, -0.00152114581, -0.461642176, -0.01921262 , 0.2973574   , 0.0013960778, -0.000876024656, 3.09769845  , 4.24        , 3           , 12          , 0.06515176  , 0
-0.0001891926, 0.00462159328, -9.792986   , -0.000291628647, -0.0005054156, -0.000681358564, -0.460968047, -0.01948227 , 0.296076566 , 0.0013931673, -0.0008810693, 3.09769177  , 4.25        , 3           , 50          , 0           , 0
-0.00102581084, -0.00158462871, -9.805256   , -0.001233345, -0.001109529, 0.0007028307, -0.460024267, -0.0192800332, 0.296548456 , 0.00138082763, -0.00089217443, 3.09769845  , 4.26        , 3           , 11          , 0.00621273974, 0.00621271133
-0.02134909 , -0.00998128951, -9.810105   , -0.00163308787, -0.00137273059, 0.000565444352, -0.460024267, -0.0192800332, 0.296548456 , 0.00136449188, -0.0009059094, 3.09770417  , 4.27        , 3           , 12          , 0.06515176  , 0
-0.01310287 , 0.015646752 , -9.803423   , -0.00136066449, -0.000837179541, -9.240223E-05, -0.461642176, -0.0193474442, 0.2973574   , 0.001350886 , -0.0009142799, 3.09770322  , 4.28        , 3           , 50          , 0           , 0
-0.0253443755, 0.004462613 , -9.805944   , -2.77330855E-05, -0.000311406126, -8.04131341E-05, -0.46056357 , -0.0192800332, 0.296143979 , 0.00135060935, -0.0009173928, 3.09770226  , 4.29        , 3           , 11          , 0.00621273974, 0.00621271133
0.00752591761, 0.0005762391, -9.801064   , 0.000219895635, 0.0010021613, 6.59937359E-05, -0.459956855, -0.0191452075, 0.2967507   , 0.00128137378, -0.0009488935, 3.09770322  , 4.3         , 3           , 12          , 0.06623618  , 0
-0.001762664, -0.006350536, -9.777305   , -0.0007039744, 0.00273299636, 0.0004751687, -0.459956855, -0.0191452075, 0.2967507   , 0.00127432949, -0.000921569648, 3.097708    , 4.31        , 3           , 50          , 0           , 0
-0.01565949 , -0.006162036, -9.787411   , -0.00163220474, 0.00234497641, -0.000463223027, -0.461574763, -0.01921262 , 0.297424823 , 0.00125801156, -0.000898114056, 3.0977037   , 4.32        , 3           , 11          , 0.006143623 , 0.006143594
-0.008935606, -0.0170161575, -9.79105    , -0.00216708868, 0.00194749248, -0.0003368885, -0.46056357 , -0.0191452075, 0.29594177  , 0.00123634364, -0.000878635, 3.09770036  , 4.33        , 3           , 12          , 0.06623618  , 0
-0.00118703209, -0.0111625176, -9.794963   , -0.00124743511, 0.00100341975, 0.000855059945, -0.46009168 , -0.019414857, 0.2968181   , 0.00122386182, -0.000868611271, 3.097709    , 4.34        , 3           , 50          , 0           , 0
0.00226007961, -0.01404049 , -9.77913952 , 0.00180671131, 5.777473E-05, 0.000863051566, -0.46009168 , -0.019414857, 0.2968181   , 0.00124192156, -0.000868044037, 3.09771752  , 4.35        , 3           , 11          , 0.006143623 , 0.006143594
0.00111852027, -0.0317616165, -9.766683   , 0.0028793097, 0.000724454934, -5.49389842E-05, -0.4613051  , -0.019414857, 0.297222584 , 0.00127071491, -0.0008607989, 3.097717    , 4.36        , 3           , 12          , 0.06623618  , 0
-0.01340355 , -0.006177968, -9.787383   , 0.00035362484, 0.00126662443, 0.000201949413, -0.4607658  , -0.01921262 , 0.295874357 , 0.00127424952, -0.0008481352, 3.097719    , 4.37        , 3           , 50          , 0           , 0
-0.0130711989, -0.02872152 , -9.792121   , 0.0007512004, 0.0007345454, -6.63848841E-05, -0.459956855, -0.0196845084, 0.296952933 , 0.00128176215, -0.0008407889, 3.09771848  , 4.38        , 3           , 11          , 0.006143623 , 0.006143594
-0.0152820125, -0.02462466 , -9.793915   , 0.00233723479, -0.00166359649, -0.0006108498, -0.459956855, -0.0196845084, 0.296952933 , 0.00130513962, -0.000857417, 3.09771228  , 4.39        , 3           , 12          , 0.06623618  , 0
0.00114795007, -0.0137903094, -9.805802   , 0.002208016 , -0.00180331955, 0.000184154487, -0.461439937, -0.0192800332, 0.297155172 , 0.00135303836, -0.0008803228, 3.09771371  , 4.4         , 3           , 50          , 0           , 0
-0.020131072, -0.0119197033, -9.796558   , -4.093772E-05, 0.00033666793, 5.8512167E-05, -0.460293919, -0.01921262 , 0.296009183 , 0.00135262846, -0.000876956969, 3.09771466  , 4.41        , 3           , 11          , 0.00607608072, 0.006076061
-0.0323760621, -0.0172776077, -9.79405    , -0.00190518063, -5.356292E-05, 4.48704559E-05, -0.46009168 , -0.0193474442, 0.29688552  , 0.00133357628, -0.0008774932, 3.09771466  , 4.42        , 3           , 12          , 0.06732461  , 0
-0.0118135344, -0.00550343469, -9.813106   , -0.000843299436, -0.000985962, -0.0004891586, -0.46009168 , -0.0193474442, 0.29688552  , 0.00132514758, -0.000887346338, 3.09771     , 4.43        , 3           , 50          , 0           , 0
-0.0155888563, -0.016854167, -9.80378    , -0.0016378006, -0.00110951927, -0.00129159482, -0.4613051  , -0.01921262 , 0.296952933 , 0.00130878109, -0.0008984245, 3.0976975   , 4.44        , 3           , 11          , 0.00607608072, 0.006076061
-0.0323939472, -0.022676697, -9.796364   , -0.00230783224, -0.001773359, -0.001035571, -0.460496157, -0.0192800332, 0.29594177  , 0.00128571223, -0.0009161446, 3.097687    , 4.45        , 3           , 12          , 0.06732461  , 0
-3.85791063E-05, -0.0131702581, -9.773739   , 0.001408511 , -0.002725943, -0.0004927123, -0.460024267, -0.019414857, 0.297020346 , 0.001299802 , -0.000943397637, 3.09768176  , 4.46        , 3           , 50          , 0           , 0
-0.008961337, -0.0103152283, -9.782853   , 0.00379841076, -0.00208260631, 0.0009872563, -0.460024267, -0.019414857, 0.297020346 , 0.00133777654, -0.00096423697, 3.09769177  , 4.47        , 3           , 11          , 0.00607608072, 0.006076061
-0.008999569, -0.0116986427, -9.779705   , 0.00461430056, 0.000314595032, 8.355E-05   , -0.46150735 , -0.01921262 , 0.296952933 , 0.00138391869, -0.000961091951, 3.09769273  , 4.48        , 3           , 12          , 0.06732461  , 0
-0.0220377389, -0.014250719, -9.787118   , 0.00449412  , 0.00152092415, -0.00110168837, -0.460496157, -0.0190103818, 0.296009183 , 0.00142887037, -0.0009458672, 3.09768128  , 4.49        , 3           , 50          , 0           , 0
-0.00295193866, -0.0003475286, -9.790812   , 0.00101818948, -0.000348540256, 0.0003238748, -0.460024267, -0.0195496827, 0.296952933 , 0.001439273 , -0.0009891081, 3.097685    , 4.5         , 3           , 11          , 0.00601090537, 0.006010907
-0.01825653 , -0.00379100256, -9.797809   , -0.000186049554, -0.002069285, -9.67460437E-05, -0.460024267, -0.0195496827, 0.296952933 , 0.00143741362, -0.00100979966, 3.09768414  , 4.51        , 3           , 12          , 0.06841663  , 0
-0.0118396636, -0.0189870577, -9.770779   , -0.000708075066, -0.000600703061, -0.000484777818, -0.461372524, -0.0193474442, 0.297020346 , 0.0014303379, -0.00101579982, 3.09767938  , 4.52        , 3           , 50          , 0           , 0
0.00426266342, -0.012510756, -9.799879   , -0.00136451935, 0.0009986901, -0.000473848573, -0.46056357 , -0.0192800332, 0.296076566 , 0.00141669752, -0.001005806, 3.09767461  , 4.53        , 3           , 11          , 0.00601090537, 0.006010907
-0.00228363648, 0.007937558 , -9.808337   , -0.00123295083, 0.00059994607, -0.0006095823, -0.459956855, -0.0192800332, 0.297087759 , 0.00140437426, -0.0009997978, 3.097668    , 4.54        , 3           , 12          , 0.06841663  , 0
-0.016877519, -0.00422363 , -9.800959   , -0.000443480181, -0.0006038572, -0.0002177021, -0.459956855, -0.0192800332, 0.297087759 , 0.00139994163, -0.00100583315, 3.097666    , 4.55        , 3           , 50          , 0           , 0
-0.006616153, -0.00575782731, -9.789103   , 0.000486142584, -0.000742238248, -8.108083E-05, -0.461439937, -0.01921262 , 0.297020346 , 0.00140480383, -0.0010132544, 3.097665    , 4.56        , 3           , 11          , 0.00601090537, 0.006010907
0.003879752 , -0.009748895, -9.805277   , -4.72836618E-05, -0.000345388165, 0.0005837968, -0.46056357 , -0.0192800332, 0.296009183 , 0.001404325 , -0.00101671647, 3.09767079  , 4.57        , 3           , 12          , 0.06841663  , 0
-0.0241263565, 0.00252421014, -9.792397   , -0.000170314728, 0.000593007833, -0.0003382143, -0.4601591  , -0.0195496827, 0.297087759 , 0.00140262523, -0.00101078162, 3.097668    , 4.58        , 3           , 50          , 0           , 0
-0.0369727053, -0.0240568  , -9.790109   , 0.0021022216, 0.00205023913, -0.0009768683, -0.4601591  , -0.0195496827, 0.297087759 , 0.00142365729, -0.0009902655, 3.097658    , 4.59        , 3           , 11          , 0.00601090537, 0.006010907
0.0053483285, -0.0159263834, -9.772796   , 0.00288938  , 0.00296101416, -0.000432764878, -0.461372524, -0.0190777946, 0.297020346 , 0.0014122352, -0.00100018806, 3.09765363  , 4.6         , 3           , 12          , 0.06951196  , 0
-0.0167016219, -0.0121246427, -9.776642   , -0.0005616785, 0.00351516972, -0.0012434643, -0.460361332, -0.0193474442, 0.296143979 , 0.00140663062, -0.000965018931, 3.09764123  , 4.61        , 3           , 50          , 0           , 0
-0.0153517555, -0.0143800806, -9.778003   , -0.001504869, 0.00178653863, -0.0007328968, -0.4601591  , -0.01921262 , 0.296952933 , 0.00139158883, -0.0009471432, 3.097634    , 4.62        , 3           , 11          , 0.005948184 , 0.00594816031
-0.010031214, -0.0167539269, -9.769378   , -0.00045720613, 0.0001748422, 0.0007193679, -0.4601591  , -0.01921262 , 0.296952933 , 0.00138701  , -0.000945404754, 3.09764123  , 4.63        , 3           , 12          , 0.06951196  , 0
-0.0198777132, -0.0134653645, -9.77579    , 0.00127257872, -9.655678E-05, 0.000327782385, -0.461777   , -0.0191452075, 0.2968181   , 0.00139973266, -0.000946374843, 3.09764457  , 4.64        , 3           , 50          , 0           , 0
-0.0118593425, -0.00106470473, -9.804479   , 0.00166516984, -0.00103148166, 0.0005871117, -0.460428745, -0.0191452075, 0.29594177  , 0.00141637877, -0.000956698146, 3.09765077  , 4.65        , 3           , 11          , 0.005948184 , 0.00594816031
-0.00309677958, -0.009909103, -9.782326   , 0.000210658414, 4.340145E-05, 5.7623176E-05, -0.4601591  , -0.0193474442, 0.297155172 , 0.00141848461, -0.0009562649, 3.09765077  , 4.66        , 3           , 12          , 0.06951196  , 0
-0.014301043, -0.0106511172, -9.791505   , 0.0007569629, 0.00190883747, -0.000719526666, -0.4601591  , -0.0193474442, 0.297155172 , 0.00142606115, -0.000937166333, 3.097644    , 4.67        , 3           , 50          , 0           , 0
-0.0205852836, -0.0226820521, -9.804803   , 0.0007626698, 0.00257677678, -0.00111195 , -0.461372524, -0.0191452075, 0.296952933 , 0.00143369823, -0.000911382667, 3.09763265  , 4.68        , 3           , 11          , 0.005948184 , 0.00594816031
0.0009583104, -0.01532463 , -9.785944   , 0.000753318542, -7.699746E-05, -0.00206588465, -0.460293919, -0.0192800332, 0.296076566 , 0.00144125  , -0.0009121229, 3.09761214  , 4.69        , 3           , 12          , 0.06951196  , 0
0.0155965816, -0.008948887, -9.802866   , 0.00299610267, -0.0022264868, -0.0014089254, -0.4602265  , -0.019414857, 0.297222584 , 0.00146069913, -0.000952436, 3.09759831  , 4.7         , 3           , 50          , 0           , 0
-0.00200671516, -0.029908156, -9.819102   , 0.00327003584, 0.0001599859, -0.000455977628, -0.4602265  , -0.019414857, 0.297222584 , 0.0014934038, -0.000950829533, 3.09759355  , 4.71        , 3           , 11          , 0.00588638  , 0.00588636473
-0.017016517, -0.033062242, -9.808477   , 0.0003403198, -0.000227092736, -0.000209697246, -0.461372524, -0.0193474442, 0.29688552  , 0.00149680907, -0.0009530971, 3.09759164  , 4.72        , 3           , 12          , 0.07061023  , 0
-0.00283308513, -0.010543162, -9.812143   , 0.000722935365, -0.002099783, 0.000970927649, -0.46009168 , -0.01921262 , 0.29594177  , 0.00150402891, -0.0009741096, 3.09760118  , 4.73        , 3           , 50          , 0           , 0
-0.000274121761, 0.008124458 , -9.780755   , -0.0007329748, -0.0006305723, 0.00110917853, -0.4602265  , -0.01948227 , 0.297155172 , 0.00149668835, -0.000980432, 3.09761214  , 4.74        , 3           , 11          , 0.00588638  , 0.00588636473
-0.0211117025, -0.0137850791, -9.789361   , -0.0009840152, 0.0009754472, -7.314883E-05, -0.4602265  , -0.01948227 , 0.297155172 , 0.001486849 , -0.0009706765, 3.09761167  , 4.75        , 3           , 12          , 0.07061023  , 0
-0.0192657448, -0.0200348962, -9.798887   , 0.00141440856, 0.00189428893, 8.10122947E-05, -0.461574763, -0.0191452075, 0.296683282 , 0.00150099222, -0.0009517348, 3.09761262  , 4.76        , 3           , 50          , 0           , 0
-0.00324033946, -0.0221600179, -9.776125   , -0.0005806937, 0.00190374872, 7.028173E-05, -0.459956855, -0.0193474442, 0.295874357 , 0.00149518461, -0.0009326983, 3.097613    , 4.77        , 3           , 11          , 0.00588638  , 0.00588636473
-0.00169332325, -0.0143533275, -9.791388   , -0.00258656545, -0.000742458855, -0.0006287383, -0.4601591  , -0.01921262 , 0.29729     , 0.00146932481, -0.000940113561, 3.097607    , 4.78        , 3           , 12          , 0.07061023  , 0
-0.0135319643, -0.030073192, -9.792141   , -0.0013902263, -0.0010132282, -0.000757540169, -0.4601591  , -0.01921262 , 0.29729     , 0.00145542971, -0.0009502348, 3.09759927  , 4.79        , 3           , 50          , 0           , 0
-0.00432578661, -0.0106722806, -9.796803   , 0.000887043832, 0.000440667849, -0.000732096669, -0.461372524, -0.01921262 , 0.296615869 , 0.00149106316, -0.000941292965, 3.09759164  , 4.8         , 3           , 11          , 0.005826095 , 0.00582609931
-0.0188172515, -0.0186954439, -9.797512   , 0.0006181995, 0.0005702166, -6.820592E-05, -0.4601591  , -0.0193474442, 0.296009183 , 0.00149724563, -0.000935589662, 3.09759116  , 4.81        , 3           , 12          , 0.07171118  , 0
0.005363863 , -0.0298125  , -9.7855835  , -5.18125853E-05, 0.0003025975, 0.0005899122, -0.460496157, -0.0193474442, 0.297087759 , 0.001496722 , -0.0009325726, 3.09759736  , 4.82        , 3           , 50          , 0           , 0
0.007064745 , -0.020960005, -9.76695251 , -0.0007190006, -0.000225382639, 0.0004486773, -0.460496157, -0.0193474442, 0.297087759 , 0.00148952787, -0.0009348331, 3.09760165  , 4.83        , 3           , 11          , 0.005826095 , 0.00582609931
-0.008848332, -0.00123382173, -9.788182   , -0.0009843049, -0.000223174837, 0.000314424047, -0.461102873, -0.01948227 , 0.2967507   , 0.00147968181, -0.0009370696, 3.097605    , 4.84        , 3           , 12          , 0.07171118  , 0
-0.01105186 , 0.00331872329, -9.79042149 , -0.00125322747, -0.00167850812, -0.0006300616, -0.460024267, -0.0192800332, 0.29594177  , 0.00146715553, -0.000953845331, 3.09759831  , 4.85        , 3           , 50          , 0           , 0
0.0006620623, -0.002610743, -9.793048   , 0.000472295244, -0.00208765944, -0.000358743273, -0.46009168 , -0.01921262 , 0.2973574   , 0.00147188187, -0.0009747167, 3.0975945   , 4.86        , 3           , 11          , 0.005826095 , 0.00582609931
-0.005294148, -0.0125254169, -9.790961   , 0.00247454923, -0.000898992759, -0.000469955761, -0.46009168 , -0.01921262 , 0.2973574   , 0.001496632 , -0.0009836997, 3.09758973  , 4.87        , 3           , 12          , 0.07171118  , 0
-0.008022353, -0.0183570012, -9.793312   , 0.00101429166, -0.00128449011, -0.00141120912, -0.4613051  , -0.01921262 , 0.296615869 , 0.001506789 , -0.0009965233, 3.097576    , 4.88        , 3           , 50          , 0           , 0
0.004076168 , -0.0319794938, -9.794655   , -0.00112095592, -0.002208379, -0.00103264931, -0.459956855, -0.01948227 , 0.296143979 , 0.00149558962, -0.00101859157, 3.097566    , 4.89        , 3           , 11          , 0.005826095 , 0.00582609931
0.0162821878, -0.00513535738, -9.775716   , -0.0009858406, -0.00193195709, -0.0006311129, -0.460293919, -0.019414857, 0.297492236 , 0.00149498472, -0.0009921509, 3.09755921  , 4.9         , 3           , 12          , 0.07281451  , 0
0.007737192 , -0.0270208213, -9.796368   , 0.002079778 , -0.000353061769, -0.000201685645, -0.460293919, -0.019414857, 0.297492236 , 0.00151578453, -0.0009956784, 3.09755731  , 4.91        , 3           , 50          , 0           , 0
-0.02028869 , -0.000861402659, -9.820392   , 0.0018145194, 0.000573660538, 0.000602280663, -0.461574763, -0.01921262 , 0.296615869 , 0.00153392379, -0.000989951, 3.097563    , 4.92        , 3           , 11          , 0.00576731935, 0.005767322
-0.0172850862, -0.005522294, -9.80684948 , 0.00128392375, 0.00084222306, 0.0006018369, -0.459956855, -0.019414857, 0.29594177  , 0.00154675683, -0.000981538, 3.09756875  , 4.93        , 3           , 12          , 0.07281451  , 0
-0.007301256, -0.0302034561, -9.782579   , 0.00260469946, -0.0006291963, 0.00086133834, -0.4602265  , -0.019414857, 0.297492236 , 0.00157279556, -0.0009878435, 3.09757733  , 4.94        , 3           , 50          , 0           , 0
-0.014054358, -0.006822165, -9.765715   , 0.00100721873, -0.000227300829, 0.00152049307, -0.4611703  , -0.0192800332, 0.296481043 , 0.00158285268, -0.0009901405, 3.09759259  , 4.95        , 3           , 11          , 0.00576731935, 0.005767322
-0.0142439865, 0.0140698627, -9.778156   , 0.000485193159, 0.00124128116, 0.00113246124, -0.4611703  , -0.0192800332, 0.296481043 , 0.00158769358, -0.0009777456, 3.097604    , 4.96        , 3           , 12          , 0.07281451  , 0
-0.0229248647, -0.02185261 , -9.794885   , 0.00129032694, 0.001246962 , -0.000191471714, -0.459889442, -0.01921262 , 0.296076566 , 0.00160059845, -0.00096527295, 3.09760213  , 4.97        , 3           , 50          , 0           , 0
-0.0206833873, -0.0187438764, -9.79076    , 0.00301156146, 0.000171764259, 0.000206624929, -0.460428745, -0.0192800332, 0.2973574   , 0.0016307123, -0.0009635587, 3.097604    , 4.98        , 3           , 11          , 0.00576731935, 0.005767322
-0.0183730647, -0.0254322048, -9.802093   , 0.00473208632, -0.0009043801, 0.000737544033, -0.4612377  , -0.01948227 , 0.2967507   , 0.001678026 , -0.000972614565, 3.09761167  , 4.99        , 3           , 12          , 0.07281451  , 0
-0.0171724837, -0.0166254491, -9.778048   , 0.00473436061, 0.0002847482, 0.000748473569, -0.4612377  , -0.01948227 , 0.2967507   , 0.00171130709, -0.0009969488, 3.0976193   , 5           , 3           , 50          , 0           , 0
-0.0138671836, 0.00412689336, -9.7778     , 0.00301313284, 0.00149201974, 0.000484408345, -0.459956855, -0.0195496827, 0.29594177  , 0.0017414334, -0.0009820369, 3.097624    , 5.01        , 3           , 11          , 0.0057102805, 0.00571027352
