Acc X       , Acc Y       , Acc Z       , Gyro X      , Gyro Y      , Gyro Z      , Magn X      , Magn Y      , Magn Z      , Euler X     , Euler Y     , Euler Z     , Time        , Status      , LowRate X   , LowRate Y   , LowRate Z    
-0.126037583, -0.07380962 , -9.787323   , 0.007247996 , 0.00356319267, 0.000764673168, 0.202035859 , -0.09613051 , 0.3475799   , 0.00771091832, -0.01089192 , 0.462305784 , 0           , 3           , 11          , 0.0346410163, 0.0346410163
-0.1334391  , -0.07113038 , -9.820786   , -0.00243464462, 0.002234943 , -2.98600753E-05, 0.201766208 , -0.09599569 , 0.3475799   , 0.00768657168, -0.0108695664, 0.462305546 , 0.01        , 3           , 12          , 0.0346410163, 0
-0.107541509, -0.07525049 , -9.793946   , -0.004032618, -0.000333495758, 0.0004954825, 0.201833621 , -0.0960631  , 0.3475799   , 0.00764619233, -0.01087294 , 0.462310553 , 0.02        , 3           , 50          , 0           , 0
-0.0906264558, -0.0837093  , -9.77582    , -0.000315641053, 0.00064220425, -0.000612292, 0.201833621 , -0.0960631  , 0.3475799   , 0.00764310127, -0.0108664716, 0.462304354 , 0.03        , 3           , 11          , 0.0346410163, 0.0346410163
-0.09509292 , -0.0827247351, -9.779916   , 0.00211186614, 0.00105391  , -0.0013068777, 0.201901034 , -0.09613051 , 0.3476473   , 0.00766436057, -0.010855834, 0.462291479 , 0.04        , 3           , 12          , 0.0346410163, 0
-0.1027041  , -0.0696834549, -9.7703495  , -0.00131557661, -5.901086E-05, -0.00120105071, 0.201833621 , -0.0960631  , 0.3476473   , 0.00765133463, -0.0108563313, 0.462279558 , 0.05        , 3           , 50          , 0           , 0
-0.107227266, -0.08481052 , -9.785923   , -0.00287105981, 0.0008153396, -0.001054872, 0.202035859 , -0.09599569 , 0.347849548 , 0.00762273837, -0.0108480966, 0.462269068 , 0.06        , 3           , 11          , 0.0346410163, 0.0346410163
-0.122272193, -0.0695844442, -9.805759   , -0.00200921367, 0.00138238864, -0.00132754853, 0.201833621 , -0.0961979255, 0.347714722 , 0.007602788 , -0.0108341705, 0.462255716 , 0.07        , 3           , 12          , 0.0346410163, 0
-0.102070242, -0.06450966 , -9.79061    , -0.000301610446, 0.00136633066, -0.00146035012, 0.201833621 , -0.0961979255, 0.347714722 , 0.00759992842, -0.0108203972, 0.4622414   , 0.08        , 3           , 50          , 0           , 0
-0.09918303 , -0.08274752 , -9.774533   , 0.000417872448, 0.00249902438, -0.000723962556, 0.201766208 , -0.09613051 , 0.347512484 , 0.0076041827, -0.010795352, 0.462234259 , 0.09        , 3           , 11          , 0.0346410163, 0.0346410163
-0.100014351, -0.07595674 , -9.77627    , 0.0015686074, 0.00320858159, -0.0009928854, 0.201901034 , -0.0960631  , 0.347782135 , 0.00779093569, -0.010634359, 0.4622228   , 0.1         , 3           , 12          , 0.0346410163, 0
-0.0963898152, -0.08485623 , -9.790341   , 0.00309520983, 0.0003204983, -0.000309787079, 0.201901034 , -0.0961979255, 0.347714722 , 0.00782192  , -0.010631131, 0.462219715 , 0.11        , 3           , 50          , 0           , 0
-0.104430266, -0.0748947561, -9.787589   , 0.001352126 , -0.00225033448, 0.000643944833, 0.201968446 , -0.09599569 , 0.347714722 , 0.007835375 , -0.010653683, 0.4622259   , 0.12        , 3           , 11          , 0.0346410163, 0.0346410163
-0.105400592, -0.06831689 , -9.769454   , -0.0009177577, -0.00165533915, 0.0007816668, 0.201968446 , -0.0961979255, 0.347512484 , 0.007826116 , -0.0106702987, 0.462233543 , 0.13        , 3           , 12          , 0.0346410163, 0
-0.1171955  , -0.06612497 , -9.754181   , -6.278779E-05, -0.00152071833, 0.0007888937, 0.201968446 , -0.0961979255, 0.347512484 , 0.007825405 , -0.010685565, 0.4622414   , 0.14        , 3           , 50          , 0           , 0
-0.121923506, -0.06084123 , -9.780361   , 0.00223927666, 0.000184597957, -0.000173931956, 0.201968446 , -0.0960631  , 0.347714722 , 0.007847817 , -0.010683706, 0.462239742 , 0.15        , 3           , 11          , 0.0346410163, 0.0346410163
-0.103424296, -0.0738508  , -9.801571   , 0.00136339921, -0.00110657746, 0.0009468029, 0.201901034 , -0.09586086 , 0.347782135 , 0.007861351 , -0.0106948456, 0.462249041 , 0.16        , 3           , 12          , 0.0346410163, 0
-0.125907332, -0.07539067 , -9.808119   , 0.00235495251, -0.00154528033, 0.000803457457, 0.201968446 , -0.09613051 , 0.3476473   , 0.007884816 , -0.0107103605, 0.4622569   , 0.17        , 3           , 50          , 0           , 0
-0.103542686, -0.08204453 , -9.794438   , 0.000510500453, -0.00180283864, -0.00035650903, 0.202170685 , -0.0961979255, 0.3476473   , 0.00788996  , -0.01072836 , 0.462253332 , 0.18        , 3           , 11          , 0.0346410163, 0.0346410163
-0.113327533, -0.0537302457, -9.777491   , -0.00247858837, -0.00248126686, -0.00124342553, 0.202170685 , -0.0961979255, 0.3476473   , 0.007865312 , -0.0107530747, 0.4622407   , 0.19        , 3           , 12          , 0.0346410163, 0
-0.115227908, -0.0618792623, -9.773085   , -0.0008996419, 7.763506E-05, -0.00133930414, 0.202103272 , -0.0959282741, 0.347512484 , 0.00741717638, -0.0109073175, 0.462231874 , 0.2         , 3           , 50          , 0           , 0
-0.08005879 , -0.07857822 , -9.8000555  , -5.01759E-05, 6.384712E-05, -0.000761835952, 0.201968446 , -0.09613051 , 0.347782135 , 0.00741675775, -0.0109066209, 0.462224245 , 0.21        , 3           , 11          , 0.0310312174, 0.0310312379
-0.106606953, -0.06185214 , -9.782491   , -0.000918755366, -0.00149983 , -0.00121917669, 0.201901034 , -0.0960631  , 0.3476473   , 0.007407704 , -0.01092153 , 0.4622121   , 0.22        , 3           , 12          , 0.0346698426, 0
-0.135279313, -0.06983939 , -9.813562   , -0.00220767176, -0.00234528421, -0.00138248969, 0.201968446 , -0.09599569 , 0.3476473   , 0.00738577964, -0.0109448787, 0.462198019 , 0.23        , 3           , 50          , 0           , 0
-0.09879499 , -0.0710248649, -9.816402   , -0.001771533, -0.000784951262, -6.922701E-05, 0.201968446 , -0.09599569 , 0.3476473   , 0.00736807147, -0.0109527213, 0.4621973   , 0.24        , 3           , 11          , 0.0310312174, 0.0310312379
-0.100002915, -0.07682952 , -9.77899    , -0.000893463264, 0.00135572336, -3.27852831E-05, 0.202035859 , -0.0960631  , 0.347445071 , 0.00735914  , -0.0109391641, 0.462197065 , 0.25        , 3           , 12          , 0.0346698426, 0
-0.10667029 , -0.07129695 , -9.784859   , 0.0008494881, 0.00350308628, -0.00170818751, 0.201766208 , -0.0961979255, 0.347714722 , 0.00736781955, -0.0109040085, 0.462180376 , 0.26        , 3           , 50          , 0           , 0
-0.114330858, -0.0690145  , -9.781289   , 0.00154848408, 0.0027742954, -0.00114200974, 0.201968446 , -0.09613051 , 0.347714722 , 0.007383426 , -0.0108761825, 0.462168932 , 0.27        , 3           , 11          , 0.0310312174, 0.0310312379
-0.126506329, -0.08273672 , -9.795563   , -0.0014967164, -0.00178830849, -0.000368285022, 0.201901034 , -0.09613051 , 0.347916961 , 0.00736850128, -0.0108940387, 0.462165356 , 0.28        , 3           , 12          , 0.0346698426, 0
-0.131852   , -0.07770552 , -9.79781151 , -0.000102843478, -0.00409794925, -0.0001069423, 0.201968446 , -0.0960631  , 0.347445071 , 0.007367487 , -0.0109350085, 0.462163925 , 0.29        , 3           , 50          , 0           , 0
-0.08423989 , -0.07829527 , -9.781119   , 0.00280865282, -0.00169269624, -0.0006237973, 0.201968446 , -0.0960631  , 0.347445071 , 0.007945192 , -0.0134114977, 0.4621501   , 0.3         , 3           , 11          , 0.0280783735, 0.02807835
-0.112946115, -0.0671936  , -9.783965   , 0.00139635289, -0.0008185106, -0.0006198436, 0.202035859 , -0.09599569 , 0.3475799   , 0.00795924  , -0.0134196319, 0.4621439   , 0.31        , 3           , 12          , 0.0347559527, 0
-0.103685096, -0.08938481 , -9.782782   , 0.001225662 , -0.00254805852, 0.000641996332, 0.201968446 , -0.09599569 , 0.347714722 , 0.0079714125, -0.0134451622, 0.4621501   , 0.32        , 3           , 50          , 0           , 0
-0.111710973, -0.08029131 , -9.783201   , 0.00152495177, -0.00126134208, 0.000662490667, 0.201901034 , -0.0960631  , 0.347714722 , 0.0079865735, -0.013457831, 0.462156534 , 0.33        , 3           , 11          , 0.0280783735, 0.02807835
-0.108572736, -0.0763331652, -9.776352   , 0.00324782613, -0.000692723959, -0.000749701867, 0.202103272 , -0.0960631  , 0.347782135 , 0.008019152 , -0.0134646958, 0.462149143 , 0.34        , 3           , 12          , 0.0347559527, 0
-0.119922891, -0.0781597644, -9.765184   , 0.00239504874, 2.21547452E-05, 0.0004002478, 0.202103272 , -0.0960631  , 0.347782135 , 0.00804305  , -0.0134645067, 0.4621532   , 0.35        , 3           , 50          , 0           , 0
-0.113002263, -0.0690601245, -9.778115   , -0.0003005428, 0.00161043426, 0.002123909 , 0.202035859 , -0.0960631  , 0.347445071 , 0.008039758 , -0.0134485736, 0.462174416 , 0.36        , 3           , 11          , 0.0280783735, 0.02807835
-0.0975441039, -0.0587258078, -9.786888   , 0.00226464379, 0.00187356654, 0.00185733917, 0.201968446 , -0.0959282741, 0.347849548 , 0.008062151 , -0.0134299872, 0.462193251 , 0.37        , 3           , 12          , 0.0347559527, 0
-0.103720941, -0.08098213 , -9.767327   , 0.00141270866, 0.00117858511, 0.000410945 , 0.202170685 , -0.09599569 , 0.347849548 , 0.008076222 , -0.0134182349, 0.4621973   , 0.38        , 3           , 50          , 0           , 0
-0.134680331, -0.08054711 , -9.782965   , -0.00158587063, -7.684081E-05, -5.507254E-05, 0.202035859 , -0.09599569 , 0.347782135 , 0.0080603715, -0.0134189986, 0.462196827 , 0.39        , 3           , 11          , 0.0280783735, 0.02807835
-0.120344587, -0.0803377852, -9.77199    , -0.00119147263, -0.00224436074, 0.00120393827, 0.201968446 , -0.0961979255, 0.347512484 , 0.008049519 , -0.0134439915, 0.4622085   , 0.4         , 3           , 12          , 0.03489849  , 0
-0.119690038, -0.0715712756, -9.7908535  , -0.00175581232, -0.00209145271, 0.0007733523, 0.201968446 , -0.0961979255, 0.347512484 , 0.008031861 , -0.0134649687, 0.462216139 , 0.41        , 3           , 50          , 0           , 0
-0.121277981, -0.06099121 , -9.808813   , -0.0007374378, -0.000942452, -0.000634776661, 0.201968446 , -0.0960631  , 0.3475799   , 0.008024571 , -0.0134743415, 0.4622097   , 0.42        , 3           , 11          , 0.00441113  , 0.0044110883
-0.0918148458, -0.08255863 , -9.797951   , -0.00115722069, -0.000505689357, -0.000917250465, 0.202103272 , -0.0960631  , 0.347714722 , 0.008013124 , -0.0134793241, 0.4622004   , 0.43        , 3           , 12          , 0.03489849  , 0
-0.07724938 , -0.0641921163, -9.798057   , -0.001124221, 0.00236010249, -0.000875515165, 0.2022381   , -0.0960631  , 0.347782135 , 0.008001997 , -0.0134556536, 0.46219182  , 0.44        , 3           , 50          , 0           , 0
-0.0907482654, -0.0556040742, -9.789048   , 0.0009907845, 0.00132644479, 0.000124301921, 0.202170685 , -0.09613051 , 0.3475799   , 0.008011885 , -0.013442398, 0.462193251 , 0.45        , 3           , 11          , 0.00441113  , 0.0044110883
-0.095725   , -0.0547075234, -9.784567   , 0.00167726749, -0.000406653155, 0.00081895414, 0.202170685 , -0.09613051 , 0.3475799   , 0.008028548 , -0.0134465294, 0.462201357 , 0.46        , 3           , 12          , 0.03489849  , 0
-0.107468314, -0.0608940981, -9.787004   , 0.00339477044, 0.0004370264, 0.000698673131, 0.202170685 , -0.09626534 , 0.3475799   , 0.008062402 , -0.0134422155, 0.4622085   , 0.47        , 3           , 50          , 0           , 0
-0.0942397043, -0.08503066 , -9.775868   , 0.00339421676, 0.0007184865, 0.00127517467, 0.201833621 , -0.09599569 , 0.3476473   , 0.00809617247, -0.0134351356, 0.462221146 , 0.48        , 3           , 11          , 0.00441113  , 0.0044110883
-0.1086242  , -0.08397922 , -9.778248   , 0.000429468142, 0.001906662 , -1.38598352E-05, 0.202035859 , -0.09579345 , 0.347714722 , 0.008100468 , -0.0134160677, 0.462221146 , 0.49        , 3           , 12          , 0.03489849  , 0
-0.11262814 , -0.0878762752, -9.790073   , -0.000965608167, 0.003807451 , -0.0001386228, 0.202035859 , -0.09599569 , 0.3476473   , 0.008094107 , -0.0133624543, 0.4622202   , 0.5         , 3           , 50          , 0           , 0
-0.116651624, -0.08067489 , -9.78551    , -0.00027211578, 0.00293025165, 0.0009977961, 0.202035859 , -0.09626534 , 0.347512484 , 0.008091248 , -0.013333234, 0.462230444 , 0.51        , 3           , 11          , 0.00464099459, 0.00464092148
-0.128756553, -0.077374   , -9.789197   , 0.0006898704, 0.000335806253, 0.0015385591, 0.202035859 , -0.09626534 , 0.347512484 , 0.008097942 , -0.0133300032, 0.4622457   , 0.52        , 3           , 12          , 0.0350963436, 0
-0.10228242 , -0.0675054342, -9.763544   , 0.000113571288, -0.000797052635, 0.0006599462, 0.202305511 , -0.0959282741, 0.347714722 , 0.00809899  , -0.0133380247, 0.462252378 , 0.53        , 3           , 50          , 0           , 0
-0.09548214 , -0.07728575 , -9.782115   , -0.00185192807, 0.0009503282, -0.0001854984, 0.201901034 , -0.0960631  , 0.3476473   , 0.008080494 , -0.0133285057, 0.462250471 , 0.54        , 3           , 11          , 0.00464099459, 0.00464092148
-0.08502162 , -0.0651966259, -9.78233051 , -0.00127727888, 0.00193989731, 0.0006910278, 0.2022381   , -0.09599569 , 0.347849548 , 0.008067627 , -0.013309164, 0.462257624 , 0.55        , 3           , 12          , 0.0350963436, 0
-0.100178473, -0.0603801  , -9.798676   , -0.00102487509, -0.0009275038, 0.0005079238, 0.201968446 , -0.0960631  , 0.347714722 , 0.008057314 , -0.01331848 , 0.46226263  , 0.56        , 3           , 50          , 0           , 0
-0.119838811, -0.07892124 , -9.778292   , 0.000119207652, -0.000225173892, 0.000811375154, 0.201968446 , -0.0960631  , 0.347714722 , 0.008058399 , -0.0133207971, 0.462270737 , 0.57        , 3           , 11          , 0.00464099459, 0.00464092148
-0.119044691, -0.0875495151, -9.773416   , 0.00185554707, 0.00233670068, 0.0008592173, 0.202170685 , -0.0959282741, 0.347445071 , 0.008076837 , -0.013297502, 0.462279558 , 0.58        , 3           , 12          , 0.0350963436, 0
-0.108551189, -0.06517184 , -9.765833   , 0.00129354431, 0.00277490844, 0.0005758869, 0.201833621 , -0.09613051 , 0.347782135 , 0.008089694 , -0.0132698007, 0.462285519 , 0.59        , 3           , 50          , 0           , 0
-0.08157133 , -0.06546026 , -9.760621   , -0.000440691481, 0.0012386723, 0.000113420043, 0.201968446 , -0.09599569 , 0.347714722 , 0.008077403 , -0.0132454522, 0.462286949 , 0.6         , 3           , 11          , 0.00523578655, 0.005235711
-0.0963977054, -0.07908156 , -9.782144   , -0.00100585 , 0.0008261006, -0.00118400517, 0.202035859 , -0.0961979255, 0.347782135 , 0.008067499 , -0.0132370945, 0.462275028 , 0.61        , 3           , 12          , 0.0353481732, 0
-0.112664856, -0.08704221 , -9.78374    , 0.0008617018, 0.00308971363, 5.176207E-06, 0.202035859 , -0.0961979255, 0.347782135 , 0.008076112 , -0.0132061988, 0.462275267 , 0.62        , 3           , 50          , 0           , 0
-0.120024353, -0.10858424 , -9.78767    , 0.004558868 , 0.00333360885, 0.000603951863, 0.202170685 , -0.0959282741, 0.3476473   , 0.008121618 , -0.0131729133, 0.4622817   , 0.63        , 3           , 11          , 0.00523578655, 0.005235711
-0.08917756 , -0.08802205 , -9.7952795  , 0.0032651457, 0.0014940853, -0.000575542334, 0.201901034 , -0.09599569 , 0.3476473   , 0.008154342 , -0.0131579265, 0.462275982 , 0.64        , 3           , 12          , 0.0353481732, 0
-0.110104144, -0.10241586 , -9.782088   , -0.00229724729, 0.000259546854, -0.000484652468, 0.202103272 , -0.0959282741, 0.347714722 , 0.008131433 , -0.01315529 , 0.4622712   , 0.65        , 3           , 50          , 0           , 0
-0.0975404  , -0.08790221 , -9.757864   , -0.0024335538, 0.0006921402, -0.000622330932, 0.202170685 , -0.0960631  , 0.347714722 , 0.00810718  , -0.01314832 , 0.462265    , 0.66        , 3           , 11          , 0.00523578655, 0.005235711
-0.0894917548, -0.0668884739, -9.789167   , -0.00229710317, -0.000304653, -0.00149457355, 0.202103272 , -0.09599569 , 0.3475799   , 0.008084406 , -0.0131512461, 0.46225     , 0.67        , 3           , 12          , 0.0353481732, 0
-0.108175322, -0.06885074 , -9.759549   , -0.001748854, -0.0016077169, -0.0006514356, 0.202103272 , -0.09599569 , 0.3475799   , 0.008067004 , -0.01316727 , 0.462243557 , 0.68        , 3           , 50          , 0           , 0
-0.138891488, -0.08609689 , -9.766807   , -0.000193658823, -0.0013536677, 0.00122222758, 0.201901034 , -0.0960631  , 0.3476473   , 0.008064909 , -0.0131809041, 0.462255478 , 0.69        , 3           , 11          , 0.00523578655, 0.005235711
-0.142927557, -0.0927139148, -9.777309   , -0.00159309607, -0.0004868363, 0.0006538345, 0.202170685 , -0.09586086 , 0.3475799   , 0.008054818 , -0.0131940255, 0.462261915 , 0.7         , 3           , 12          , 0.03565242  , 0
-0.1123547  , -0.07232289 , -9.810669   , -0.0014536219, -0.00105632027, 7.401611E-05, 0.202170685 , -0.0960631  , 0.347714722 , 0.008040272 , -0.0132045923, 0.46226263  , 0.71        , 3           , 50          , 0           , 0
-0.0946569145, -0.0885372162, -9.784946   , -0.00346587482, -0.00303958729, -0.0002533565, 0.2022381   , -0.0961979255, 0.3476473   , 0.008005648 , -0.0132349664, 0.462259769 , 0.72        , 3           , 11          , 0.00608560629, 0.00608555367
-0.09514091 , -0.08324339 , -9.773599   , -0.00346216559, -0.0024702684, 0.000184236531, 0.2022381   , -0.0961979255, 0.3476473   , 0.00797100551, -0.0132596837, 0.462261438 , 0.73        , 3           , 12          , 0.03565242  , 0
-0.0891343951, -0.0794984  , -9.791116   , 0.00111622573, 0.0007650806, 0.00183354865, 0.201968446 , -0.0961979255, 0.3475799   , 0.007981923 , -0.0132521782, 0.4622798   , 0.74        , 3           , 50          , 0           , 0
-0.126735076, -0.09555078 , -9.778095   , 0.00326822931, 0.00203813356, 0.001292852 , 0.201901034 , -0.09599569 , 0.347782135 , 0.008014433 , -0.0132319015, 0.4622929   , 0.75        , 3           , 11          , 0.00608560629, 0.00608555367
-0.110063866, -0.0867745  , -9.768807   , 0.00425868668, 0.00117468124, 0.0005709183, 0.202103272 , -0.09599569 , 0.347782135 , 0.008056943 , -0.0132202  , 0.462298632 , 0.76        , 3           , 12          , 0.03565242  , 0
-0.09055291 , -0.0760294  , -9.777085   , 0.00325613725, 0.000328896655, 0.000123154823, 0.202035859 , -0.09613051 , 0.347714722 , 0.008089488 , -0.0132169211, 0.462299824 , 0.77        , 3           , 50          , 0           , 0
-0.105774835, -0.08422138 , -9.799905   , 0.000414760463, 0.000785102136, 0.0003984451, 0.201833621 , -0.0961979255, 0.3475799   , 0.008093582 , -0.0132091017, 0.462303877 , 0.78        , 3           , 11          , 0.00608560629, 0.00608555367
-0.0704452  , -0.07574704 , -9.819357   , 0.0002801039, 0.00136098487, 0.000262853428, 0.201833621 , -0.0961979255, 0.3475799   , 0.008096346 , -0.0131955137, 0.462306738 , 0.79        , 3           , 12          , 0.03565242  , 0
-0.109887384, -0.07760154 , -9.78315449 , 0.00195494317, -0.0003891417, 0.0005312123, 0.201766208 , -0.0960631  , 0.347714722 , 0.008109851 , -0.0131053943, 0.462311983 , 0.8         , 3           , 50          , 0           , 0
-0.12197198 , -0.0640314445, -9.777236   , 0.00309022213, -0.00012179953, 0.0014007315, 0.202170685 , -0.0960631  , 0.3476473   , 0.00814057  , -0.0131067252, 0.46232605  , 0.81        , 3           , 11          , 0.00708390959, 0.007083869
-0.10064055 , -0.06440044 , -9.80188751 , 0.00539860874, 0.002297405 , 0.0007345037, 0.202170685 , -0.09599569 , 0.347714722 , 0.008194456 , -0.0130838118, 0.462333441 , 0.82        , 3           , 12          , 0.0360073522, 0
-0.07734614 , -0.0750235245, -9.797278   , 0.00680966862, 0.00156266964, 0.00116188277, 0.201833621 , -0.09613051 , 0.347782135 , 0.0082624   , -0.0130682783, 0.462345362 , 0.83        , 3           , 50          , 0           , 0
-0.078967   , -0.08121225 , -9.765747   , 0.00352485524, 0.000731043867, 0.00170198618, 0.201833621 , -0.09613051 , 0.347782135 , 0.008297424 , -0.0130611127, 0.4623623   , 0.84        , 3           , 11          , 0.00708390959, 0.007083869
-0.117279008, -0.07649096 , -9.754753   , -0.00103388075, -0.000220630231, 0.00108763657, 0.202035859 , -0.0959282741, 0.3476473   , 0.008286944 , -0.0130634084, 0.462373257 , 0.85        , 3           , 12          , 0.0360073522, 0
-0.123493865, -0.07852607 , -9.77019    , 0.0006785399, -0.000230289341, 0.000239424844, 0.201968446 , -0.09626534 , 0.3476473   , 0.008293699 , -0.01306573 , 0.462375641 , 0.86        , 3           , 50          , 0           , 0
-0.10663569 , -0.0805917755, -9.801227   , 0.00011818725, 0.000351207826, -4.18189E-05, 0.202035859 , -0.0960631  , 0.347782135 , 0.008294886 , -0.0130622154, 0.462375164 , 0.87        , 3           , 11          , 0.00708390959, 0.007083869
-0.09478322 , -0.0591034479, -9.795901   , -0.00173892244, -0.000346457527, -6.33898E-05, 0.201968446 , -0.0960631  , 0.3476473   , 0.008277504 , -0.0130656743, 0.4623747   , 0.88        , 3           , 12          , 0.0360073522, 0
-0.106863491, -0.0742636845, -9.760504   , -0.00274986634, -0.0013444901, 0.0004883339, 0.201968446 , -0.0960631  , 0.3476473   , 0.008249943 , -0.013079158, 0.462379217 , 0.89        , 3           , 50          , 0           , 0
-0.1290085  , -0.09333956 , -9.77222    , -0.004195917, -0.00216584024, 0.00118253264, 0.202103272 , -0.09599569 , 0.3475799   , 0.00820073  , -0.0130773168, 0.462391138 , 0.9         , 3           , 11          , 0.008142539 , 0.008142498
-0.130105346, -0.07824953 , -9.790574   , -0.002191493, -0.0016039511, 0.000201299423, 0.202035859 , -0.0960631  , 0.347714722 , 0.008178789 , -0.0130933728, 0.462393045 , 0.91        , 3           , 12          , 0.03641109  , 0
-0.12622121 , -0.07898734 , -9.767059   , -0.00206136471, -0.00331463269, -0.000967541, 0.201631382 , -0.09586086 , 0.347782135 , 0.008158307 , -0.0131264385, 0.462383032 , 0.92        , 3           , 50          , 0           , 0
-0.114404038, -0.07179734 , -9.774095   , -0.00336004817, -0.00459635444, -0.0004217043, 0.201901034 , -0.09613051 , 0.347849548 , 0.008124767 , -0.0131723657, 0.4623785   , 0.93        , 3           , 11          , 0.008142539 , 0.008142498
-0.09994272 , -0.06738955 , -9.77617    , -0.00374215888, -0.0007232015, -0.0003679317, 0.201901034 , -0.0960631  , 0.347782135 , 0.008087395 , -0.0131795686, 0.4623747   , 0.94        , 3           , 12          , 0.03641109  , 0
-0.101445161, -0.07918359 , -9.76864052 , -0.00285322615, 0.00227849046, -0.000462051423, 0.201901034 , -0.0960631  , 0.347782135 , 0.008058921 , -0.0131567474, 0.4623704   , 0.95        , 3           , 50          , 0           , 0
-0.0970220938, -0.084240824, -9.763237   , -0.00244402932, 0.0008399803, -0.000337266916, 0.201968446 , -0.09626534 , 0.3476473   , 0.008034524 , -0.013148319, 0.462367058 , 0.96        , 3           , 11          , 0.008142539 , 0.008142498
-0.105181724, -0.0604143962, -9.791494   , -0.00103228318, 0.0002472549, 0.000235280968, 0.201901034 , -0.0959282741, 0.347714722 , 0.00802417  , -0.0131458677, 0.462369442 , 0.97        , 3           , 12          , 0.03641109  , 0
-0.08871142 , -0.06485469 , -9.769261   , 0.00365506322, -0.00023157234, 0.000400373683, 0.202035859 , -0.0960631  , 0.347714722 , 0.008060669 , -0.0131482137, 0.4623735   , 0.98        , 3           , 50          , 0           , 0
-0.132439137, -0.0948263258, -9.798917   , 0.00465212064, -0.0005218664, -0.000313212979, 0.202035859 , -0.0959282741, 0.3475799   , 0.008107232 , -0.0131534068, 0.462370157 , 0.99        , 3           , 11          , 0.008142539 , 0.008142498
-0.119730182, -0.0778646  , -9.792733   , 0.00181025371, -0.00133242051, -0.0007800237, 0.202035859 , -0.0959282741, 0.3475799   , 0.008618921 , -0.0132801021, 0.462355375 , 1           , 3           , 12          , 0.03686164  , 0
-0.117064074, -0.07838741 , -9.788197   , -0.000335559569, -0.002315055, -0.0006643995, 0.201968446 , -0.0959282741, 0.347445071 , 0.008615656 , -0.0133031951, 0.462348461 , 1.01        , 3           , 50          , 0           , 0
-0.114615336, -0.0607442632, -9.795199   , -0.0007321103, 0.0005512314, -0.000195988338, 0.201968446 , -0.0960631  , 0.347714722 , 0.008608361 , -0.0132976668, 0.462346554 , 1.02        , 3           , 11          , 0.009267833 , 0.009267784
-0.10989809 , -0.0785082  , -9.782713   , 0.000271956465, 0.00111683575, -0.000467808422, 0.202103272 , -0.0960631  , 0.3476473   , 0.00861114  , -0.0132864583, 0.462342024 , 1.03        , 3           , 12          , 0.03686164  , 0
-0.133348   , -0.09171538 , -9.793921   , 0.00039382276, -0.000322623964, 8.450863E-05, 0.202035859 , -0.0959282741, 0.347714722 , 0.008615068 , -0.0132896919, 0.462342739 , 1.04        , 3           , 50          , 0           , 0
-0.116303749, -0.09329932 , -9.786104   , -0.000602403656, -0.000454520079, -6.665698E-05, 0.202035859 , -0.09613051 , 0.3475799   , 0.008609055 , -0.0132942311, 0.462342024 , 1.05        , 3           , 11          , 0.009267833 , 0.009267784
-0.106154889, -0.0605178475, -9.78111649 , -0.00171775045, 0.001421083 , -0.000189464583, 0.202035859 , -0.09613051 , 0.3475799   , 0.008591899 , -0.0132800015, 0.462340355 , 1.06        , 3           , 12          , 0.03686164  , 0
-0.08777365 , -0.06525053 , -9.775129   , -0.0004244381, 0.00297786621, 0.0005566101, 0.201968446 , -0.09599569 , 0.3475799   , 0.008587577 , -0.0132502737, 0.462346315 , 1.07        , 3           , 50          , 0           , 0
-0.09005627 , -0.0813038647, -9.790241   , 0.00127491553, 0.00224536  , 0.000413374626, 0.201833621 , -0.0957260355, 0.3476473   , 0.00860026851, -0.0132278549, 0.4623506   , 1.08        , 3           , 11          , 0.009267833 , 0.009267784
-0.110787213, -0.09094667 , -9.799577   , -0.00114200485, 0.00283540157, 0.0012656498, 0.202035859 , -0.0961979255, 0.347782135 , 0.008588679 , -0.0131996125, 0.462363482 , 1.09        , 3           , 12          , 0.03686164  , 0
-0.100303337, -0.07793155 , -9.802041   , -0.0011340332, 0.00144586246, 0.00137458055, 0.2022381   , -0.09599569 , 0.3476473   , 0.008737955 , -0.01274472 , 0.462374926 , 1.1         , 3           , 50          , 0           , 0
-0.102263786, -0.08617249 , -9.789055   , -0.000435844617, -0.000836077961, -0.0006576723, 0.2022381   , -0.09599569 , 0.3476473   , 0.008733681 , -0.0127530238, 0.46236825  , 1.11        , 3           , 11          , 0.008680633 , 0.008680625
-0.09319776 , -0.0830413252, -9.793904   , -0.0007019904, 0.000178797069, -0.00164635223, 0.201901034 , -0.0960631  , 0.3476473   , 0.008726871 , -0.0127510913, 0.4623518   , 1.12        , 3           , 12          , 0.03735692  , 0
-0.13916111 , -0.07157205 , -9.775224   , 0.0011490616, 0.00100951386, -0.000478038623, 0.201833621 , -0.09599569 , 0.347782135 , 0.008738421 , -0.0127409576, 0.462347269 , 1.13        , 3           , 50          , 0           , 0
-0.125539184, -0.06394686 , -9.782237   , 0.0011485077, 0.00129097386, 9.84628859E-05, 0.201901034 , -0.09599569 , 0.347714722 , 0.008749892 , -0.012728055, 0.462348223 , 1.14        , 3           , 11          , 0.008680633 , 0.008680625
-0.09785559 , -0.07211174 , -9.758137   , 0.00101151457, 0.00158155733, -0.000184384247, 0.202035859 , -0.09599569 , 0.347714722 , 0.00876002852, -0.0127122225, 0.462346554 , 1.15        , 3           , 12          , 0.03735692  , 0
-0.13283813 , -0.0711518452, -9.777418   , 0.004717075 , 0.00197770027, -0.0005850958, 0.202035859 , -0.09599569 , 0.347714722 , 0.008807272 , -0.0126923947, 0.462340832 , 1.16        , 3           , 50          , 0           , 0
-0.117079146, -0.08019103 , -9.7882185  , 0.0040025427, 0.00127487525, -0.00131522294, 0.201901034 , -0.09613051 , 0.347512484 , 0.008847462 , -0.0126795294, 0.462327957 , 1.17        , 3           , 11          , 0.008680633 , 0.008680625
-0.108743891, -0.0908395648, -9.769293   , -0.0019779834, 0.000620389241, -0.00150472031, 0.201766208 , -0.0960631  , 0.3475799   , 0.008827873 , -0.0126731927, 0.462312937 , 1.18        , 3           , 12          , 0.03735692  , 0
-0.08379066 , -0.0836423039, -9.7875     , -0.00225802767, 0.00133460772, -0.0009236718, 0.201968446 , -0.0960631  , 0.347782135 , 0.008805407 , -0.012659763, 0.462303638 , 1.19        , 3           , 50          , 0           , 0
-0.0805888548, -0.07469034 , -9.783754   , 0.0008385956, 1.90308583E-05, -6.837458E-05, 0.201901034 , -0.09599569 , 0.347849548 , 0.008803791 , -0.0125016142, 0.462303162 , 1.2         , 3           , 11          , 0.008511035 , 0.008511051
-0.128346175, -0.07654868 , -9.782408   , 0.00312883244, 0.000862050045, -0.0007575568, 0.202103272 , -0.0961979255, 0.347512484 , 0.008835173 , -0.0124929277, 0.462295771 , 1.21        , 3           , 12          , 0.037894804 , 0
-0.118509255, -0.0851973  , -9.782869   , 0.00499721523, 0.00270347227, -0.000433127774, 0.202103272 , -0.0961979255, 0.347512484 , 0.00888519548, -0.0124658551, 0.462291479 , 1.22        , 3           , 50          , 0           , 0
-0.0958328  , -0.0597691052, -9.775141   , 0.002126548 , 0.000863205467, 0.0002380203, 0.201968446 , -0.0961979255, 0.3476473   , 0.008906431 , -0.0124572469, 0.4622941   , 1.23        , 3           , 11          , 0.008511035 , 0.008511051
-0.09972977 , -0.0864524841, -9.765095   , -0.0015758446, 0.000330171722, -7.8764926E-05, 0.201833621 , -0.0960631  , 0.3476473   , 0.008890681 , -0.012453936, 0.4622934   , 1.24        , 3           , 12          , 0.037894804 , 0
-0.0905391052, -0.0866914541, -9.792114   , -0.0031258238, 0.001352931 , -0.0005028273, 0.202103272 , -0.0959282741, 0.3476473   , 0.008859484 , -0.0124403629, 0.46228838  , 1.25        , 3           , 50          , 0           , 0
-0.105053879, -0.07025992 , -9.756825   , -0.00311138364, 0.00235979748, -0.0009174659, 0.202103272 , -0.0961979255, 0.3475799   , 0.008828483 , -0.0124166841, 0.46227932  , 1.26        , 3           , 11          , 0.008511035 , 0.008511051
-0.127908289, -0.0694494  , -9.771934   , 0.000303955778, 0.00275115133, -0.000461398828, 0.202103272 , -0.0961979255, 0.3475799   , 0.008831575 , -0.0123891309, 0.462275028 , 1.27        , 3           , 12          , 0.037894804 , 0
-0.113418281, -0.08324808 , -9.800416   , -0.0011420307, 0.000617535552, -0.0006443494, 0.202035859 , -0.09613051 , 0.347445071 , 0.008820235 , -0.0123828985, 0.4622686   , 1.28        , 3           , 50          , 0           , 0
-0.105242983, -0.0613984838, -9.783828   , -0.00372660765, -0.00108233164, 3.05988142E-05, 0.202035859 , -0.09613051 , 0.3476473   , 0.008782964 , -0.0123937242, 0.462268829 , 1.29        , 3           , 11          , 0.008511035 , 0.008511051
-0.0927654356, -0.06615762 , -9.770669   , -0.001675071, -0.00148178579, -0.000105309395, 0.202103272 , -0.0960631  , 0.3476473   , 0.008681531 , -0.0123532228, 0.4622686   , 1.3         , 3           , 12          , 0.03847314  , 0
-0.101482846, -0.08369265 , -9.768693   , -0.000351083319, 0.00166781992, -0.00119634625, 0.2022381   , -0.09599569 , 0.347849548 , 0.008678166 , -0.0123364422, 0.4622569   , 1.31        , 3           , 50          , 0           , 0
-0.101094954, -0.08779827 , -9.764671   , -0.000352600677, 0.00194800051, -0.000476762856, 0.202103272 , -0.0961979255, 0.3475799   , 0.008674697 , -0.0123169217, 0.462252378 , 1.32        , 3           , 11          , 0.009255299 , 0.009255323
-0.10509602 , -0.08723949 , -9.771477   , 0.0001612756, -0.002504875, 3.43022548E-05, 0.202103272 , -0.0961979255, 0.3475799   , 0.008676308 , -0.0123419743, 0.462252378 , 1.33        , 3           , 12          , 0.03847314  , 0
-0.09228138 , -0.08525047 , -9.798889   , 0.001297795 , -0.00237698318, 0.0004724886, 0.202035859 , -0.0960631  , 0.347445071 , 0.008689231 , -0.0123657826, 0.4622569   , 1.34        , 3           , 50          , 0           , 0
-0.126418591, -0.0808218047, -9.805928   , -0.000817355, -0.000779125665, 0.000482592528, 0.201833621 , -0.0959282741, 0.347782135 , 0.008680999 , -0.012373616, 0.462261677 , 1.35        , 3           , 11          , 0.009255299 , 0.009255323
-0.111134432, -0.06630263 , -9.7843895  , -0.002379306, -5.44634531E-05, 0.00134209485, 0.202103272 , -0.09613051 , 0.347782135 , 0.00865704  , -0.0123742772, 0.462275267 , 1.36        , 3           , 12          , 0.03847314  , 0
-0.102554522, -0.066338405, -9.787926   , -0.00123755913, 0.000362567022, 0.00149829069, 0.202035859 , -0.09613051 , 0.347714722 , 0.00864448  , -0.01237078 , 0.462290049 , 1.37        , 3           , 50          , 0           , 0
-0.12339668 , -0.0881701857, -9.796048   , -0.0006715579, -0.000634721364, 0.000199372036, 0.202035859 , -0.09613051 , 0.347714722 , 0.008637738 , -0.0123771438, 0.4622922   , 1.38        , 3           , 11          , 0.009255299 , 0.009255323
-0.121067889, -0.0729364157, -9.788623   , -0.00166888011, -0.00119136728, -0.000530382, 0.202103272 , -0.09613051 , 0.3475799   , 0.008621117 , -0.0123890117, 0.4622867   , 1.39        , 3           , 12          , 0.03847314  , 0
-0.10989055 , -0.07760639 , -9.782702   , -0.0005925801, -0.0014884168, -0.0005269614, 0.202103272 , -0.0959282741, 0.347714722 , 0.008546971 , -0.0124025848, 0.462282181 , 1.4         , 3           , 50          , 0           , 0
-0.135817647, -0.06507391 , -9.79499149 , 0.00341130584, 0.00019316285, -0.0007640966, 0.201968446 , -0.09599569 , 0.347782135 , 0.008581178 , -0.0124005852, 0.462274551 , 1.41        , 3           , 11          , 0.0100109344, 0.0100109652
-0.117165171, -0.0785422549, -9.77374649 , 0.00471920241, 0.0021926125, -0.00144258165, 0.202103272 , -0.0959282741, 0.347714722 , 0.008628544 , -0.0123785362, 0.462260246 , 1.42        , 3           , 12          , 0.0390897654, 0
-0.08747714 , -0.07394747 , -9.763483   , 0.00200794218, 0.00192580617, -0.000604540342, 0.202103272 , -0.0961979255, 0.3475799   , 0.008648697 , -0.0123592252, 0.462254524 , 1.43        , 3           , 50          , 0           , 0
-0.11420279 , -0.06525725 , -9.795247   , -0.00198797113, 0.00110140443, -6.87205247E-05, 0.202103272 , -0.0961979255, 0.3475799   , 0.008628827 , -0.0123482076, 0.4622538   , 1.44        , 3           , 11          , 0.0100109344, 0.0100109652
-0.131978467, -0.101046152, -9.80802    , -0.0007411352, -0.0012131905, 0.0009071757, 0.202103272 , -0.09599569 , 0.3476473   , 0.008621304 , -0.0123604145, 0.462262869 , 1.45        , 3           , 12          , 0.0390897654, 0
-0.101381019, -0.08531722 , -9.785423   , 0.00251437654, -0.00169036724, 0.00249452167, 0.201968446 , -0.09599569 , 0.347714722 , 0.00864614  , -0.0123775331, 0.462287664 , 1.46        , 3           , 50          , 0           , 0
-0.09066158 , -0.0886595845, -9.776781   , 0.0028260476, 0.000177186128, 0.00166487088, 0.201901034 , -0.09613051 , 0.347714722 , 0.008674193 , -0.0123759052, 0.462304354 , 1.47        , 3           , 11          , 0.0100109344, 0.0100109652
-0.110497072, -0.07428072 , -9.75602    , 0.00257943617, 0.00206459616, -0.000742108852, 0.2022381   , -0.09613051 , 0.3475799   , 0.00870007649, -0.0123551972, 0.4622972   , 1.48        , 3           , 12          , 0.0390897654, 0
-0.104540609, -0.0795151144, -9.777255   , -0.000246669428, 0.00310547766, -0.00174620945, 0.2022381   , -0.09613051 , 0.3475799   , 0.008697823 , -0.01232399 , 0.4622798   , 1.49        , 3           , 50          , 0           , 0
-0.102232657, -0.07722212 , -9.782627   , -0.000419391523, 0.00199432881, -0.00119159056, 0.201968446 , -0.09613051 , 0.3475799   , 0.008676804 , -0.0122549385, 0.462268353 , 1.5         , 3           , 11          , 0.0106145078, 0.0106145386
-0.115055129, -0.0553827062, -9.790173   , 0.00137913774, -0.00190095115, -0.000378304278, 0.202035859 , -0.09599569 , 0.3476473   , 0.008690643 , -0.012273916, 0.462264538 , 1.51        , 3           , 12          , 0.03974256  , 0
-0.122028746, -0.06634402 , -9.771844   , -0.000628309033, -0.0028901496, 0.000310504634, 0.202035859 , -0.0960631  , 0.347714722 , 0.008684324 , -0.0123028411, 0.4622674   , 1.52        , 3           , 50          , 0           , 0
-0.106715366, -0.0673597753, -9.77352    , 0.000253747 , -0.000320885621, 0.000496288645, 0.202035859 , -0.0960631  , 0.3476473   , 0.0086868   , -0.0123060942, 0.4622724   , 1.53        , 3           , 11          , 0.0106145078, 0.0106145386
-0.125491679, -0.0660997555, -9.791747   , 0.00222929  , -0.0017727291, 0.000344332715, 0.202035859 , -0.0960631  , 0.3476473   , 0.008709053 , -0.0123238536, 0.4622755   , 1.54        , 3           , 12          , 0.03974256  , 0
-0.10107854 , -0.06927424 , -9.809627   , 0.00138312415, -0.001472362, -0.000228961959, 0.202035859 , -0.09613051 , 0.347445071 , 0.00872291252, -0.0123385545, 0.462273359 , 1.55        , 3           , 50          , 0           , 0
-0.10400141 , -0.07671198 , -9.786703   , 0.002253498 , -0.0003295953, -0.0007794557, 0.202103272 , -0.0961979255, 0.347714722 , 0.008745545 , -0.0123417806, 0.4622655   , 1.56        , 3           , 11          , 0.0106145078, 0.0106145386
-0.117895894, -0.07426819 , -9.793126   , 0.00224510371, -0.0004818431, 0.00022003155, 0.201766208 , -0.0959282741, 0.347714722 , 0.008767968 , -0.0123466179, 0.462267637 , 1.57        , 3           , 12          , 0.03974256  , 0
-0.09827169 , -0.07250067 , -9.763566   , 0.000140540287, 0.00211776164, 0.000387824926, 0.202170685 , -0.0960631  , 0.3476473   , 0.008769323 , -0.012325475, 0.4622717   , 1.58        , 3           , 50          , 0           , 0
-0.104402453, -0.075297296, -9.792111   , -0.000857059553, 0.00170184579, -5.36782463E-05, 0.2022381   , -0.09599569 , 0.347714722 , 0.008760756 , -0.0123084523, 0.4622712   , 1.59        , 3           , 11          , 0.0106145078, 0.0106145386
-0.104503654, -0.07322663 , -9.774923   , -9.476316E-05, 0.00153322623, 0.000376482378, 0.2022381   , -0.09599569 , 0.347714722 , 0.008645063 , -0.0121167926, 0.462276459 , 1.6         , 3           , 12          , 0.04042941  , 0
-0.117101826, -0.06909743 , -9.77137852 , -6.73999239E-05, 0.00382713927, 0.000266788644, 0.201968446 , -0.09599569 , 0.347714722 , 0.008644353 , -0.012078546, 0.46227932  , 1.61        , 3           , 50          , 0           , 0
-0.126723811, -0.062345285, -9.804362   , -0.0009307523, 0.00255260058, -0.000472542539, 0.201968446 , -0.0959282741, 0.347782135 , 0.0086351   , -0.01205298 , 0.4622748   , 1.62        , 3           , 11          , 0.0113505777, 0.011350601
-0.105133891, -0.06924381 , -9.809213   , -0.00137542922, 0.00140421989, 0.000223603274, 0.202035859 , -0.09599569 , 0.347782135 , 0.008621316 , -0.0120389592, 0.462277174 , 1.63        , 3           , 12          , 0.04042941  , 0
-0.09010819 , -0.09162146 , -9.79533    , 2.65493327E-05, 0.000375226868, 0.001505301 , 0.201901034 , -0.09599569 , 0.347714722 , 0.008621401 , -0.0120353363, 0.4622922   , 1.64        , 3           , 50          , 0           , 0
-0.09792657 , -0.08023289 , -9.757779   , 0.00043961138, -0.002045834, -0.00067383406, 0.201901034 , -0.09599569 , 0.347714722 , 0.008625881 , -0.012055736, 0.46228528  , 1.65        , 3           , 11          , 0.0113505777, 0.011350601
-0.109948188, -0.08748759 , -9.78643    , -0.00183865451, -0.00259075616, -0.00126821629, 0.201833621 , -0.09613051 , 0.3475799   , 0.008607649 , -0.0120815337, 0.4622724   , 1.66        , 3           , 12          , 0.04042941  , 0
-0.08713057 , -0.0671847761, -9.805409   , -0.00182615279, -0.00059877953, 0.0003349005, 0.201968446 , -0.09613051 , 0.3476473   , 0.008589347 , -0.0120875463, 0.462275743 , 1.67        , 3           , 50          , 0           , 0
-0.07670579 , -0.06049201 , -9.807043   , -0.0009704963, -0.000322149019, 0.00048729626, 0.201901034 , -0.0959282741, 0.347714722 , 0.008579584 , -0.01209081 , 0.4622805   , 1.68        , 3           , 11          , 0.0113505777, 0.011350601
-0.096736595, -0.06911416 , -9.786097   , 0.00115359027, -0.00106154883, 0.000632794865, 0.202103272 , -0.09613051 , 0.347714722 , 0.008591044 , -0.01210148 , 0.4622867   , 1.69        , 3           , 12          , 0.04042941  , 0
-0.111852318, -0.0845139548, -9.767895   , 0.00383929955, 0.00258767023, 0.000128911823, 0.202035859 , -0.0960631  , 0.3475799   , 0.008540562 , -0.0119467564, 0.462289333 , 1.7         , 3           , 50          , 0           , 0
-0.108416326, -0.07030688 , -9.791639   , 0.00427558273, 0.00358380331, 0.000432253233, 0.202035859 , -0.0960631  , 0.3475799   , 0.008583263 , -0.0119109564, 0.462293863 , 1.71        , 3           , 11          , 0.0115810335, 0.0115810465
-0.114267193, -0.06624615 , -9.787128   , 0.00340246316, 0.00187299668, 0.000402071833, 0.201968446 , -0.09613051 , 0.3476473   , 0.008617237 , -0.0118922647, 0.462298155 , 1.72        , 3           , 12          , 0.04114828  , 0
-0.105851993, -0.08300415 , -9.787244   , -0.00178258168, 0.00207478087, -0.000270979828, 0.201968446 , -0.0959282741, 0.347849548 , 0.0085994415, -0.0118714916, 0.462295532 , 1.73        , 3           , 50          , 0           , 0
-0.0906153  , -0.09170462 , -9.787206   , -0.002603855, -0.0001561777, 0.00169511174, 0.201833621 , -0.0960631  , 0.347916961 , 0.008573202 , -0.0118732  , 0.46231246  , 1.74        , 3           , 11          , 0.0115810335, 0.0115810465
-0.0771601051, -0.08611531 , -9.772562   , -0.00190202845, -0.00158669939, 0.0006054124, 0.201968446 , -0.09599569 , 0.347714722 , 0.008554112 , -0.0118891159, 0.46231842  , 1.75        , 3           , 12          , 0.04114828  , 0
-0.09338394 , -0.08777781 , -9.77273    , -0.0008927346, -0.000731956447, 5.16017972E-05, 0.201968446 , -0.09599569 , 0.347714722 , 0.00854518  , -0.0118964426, 0.4623189   , 1.76        , 3           , 50          , 0           , 0
-0.123817906, -0.08767665 , -9.79966    , -0.001237765, 6.166791E-05, -0.000153685731, 0.201901034 , -0.0960631  , 0.347512484 , 0.008532821 , -0.0118958093, 0.462317467 , 1.77        , 3           , 11          , 0.0115810335, 0.0115810465
-0.116570264, -0.09034319 , -9.809109   , -0.002085232, -0.0002040847, -0.00152227841, 0.201833621 , -0.0961979255, 0.347714722 , 0.008512151 , -0.0118977213, 0.4623022   , 1.78        , 3           , 12          , 0.04114828  , 0
-0.109916709, -0.08521371 , -9.788212   , -0.004443213, -0.0005480675, -0.0004685158, 0.201968446 , -0.09613051 , 0.347714722 , 0.008467775 , -0.0119031621, 0.46229744  , 1.79        , 3           , 50          , 0           , 0
-0.112960026, -0.0543060452, -9.766201   , 0.00061259314, -0.00106608879, -0.00058892346, 0.202170685 , -0.0960631  , 0.347984374 , 0.008492102 , -0.0118623329, 0.462291241 , 1.8         , 3           , 11          , 0.0120749623, 0.0120749772
-0.117265485, -0.0508492067, -9.790592   , -0.000223606548, 0.0003057507, -0.0007888624, 0.202170685 , -0.0960631  , 0.347984374 , 0.00848996  , -0.0118592083, 0.462283373 , 1.81        , 3           , 12          , 0.0418972   , 0
-0.118467078, -0.0820167661, -9.78509    , 0.0005550925, 0.000363690167, -0.000139238138, 0.202035859 , -0.09626534 , 0.347512484 , 0.008495527 , -0.0118555594, 0.462281942 , 1.82        , 3           , 50          , 0           , 0
-0.108305633, -0.078843236, -9.752891   , -0.00163756218, 0.00153048174, 7.880021E-05, 0.201833621 , -0.09599569 , 0.347714722 , 0.00847914  , -0.0118402625, 0.4622829   , 1.83        , 3           , 11          , 0.0120749623, 0.0120749772
-0.12601763 , -0.06843745 , -9.78364849 , 0.00104543194, 0.000207665114, 0.0007201656, 0.201968446 , -0.0960631  , 0.347916961 , 0.008489507 , -0.0118382452, 0.462290049 , 1.84        , 3           , 12          , 0.0418972   , 0
-0.104121447, -0.0588421039, -9.812696   , 0.00394216552, -0.0008345787, 0.00179623556, 0.201766208 , -0.0961979255, 0.347916961 , 0.00852872  , -0.0118467426, 0.46230793  , 1.85        , 3           , 50          , 0           , 0
-0.08543712 , -0.06513948 , -9.787302   , 0.0007007511, 0.000578459352, -0.000278333348, 0.201968446 , -0.0961979255, 0.347849548 , 0.008535758 , -0.0118409349, 0.4623053   , 1.86        , 3           , 11          , 0.0120749623, 0.0120749772
-0.0985802  , -0.06337704 , -9.772949   , -0.0007986107, 0.00023284652, -6.38152642E-06, 0.201968446 , -0.0961979255, 0.347849548 , 0.0085277725, -0.0118386084, 0.4623053   , 1.87        , 3           , 12          , 0.0418972   , 0
-0.110149644, -0.114949293, -9.790814   , -0.00212404737, 0.0016916258, -0.00135293137, 0.201901034 , -0.09599569 , 0.347782135 , 0.008506691 , -0.0118215755, 0.462291956 , 1.88        , 3           , 50          , 0           , 0
-0.1035094  , -0.07843243 , -9.794848   , 9.589439E-06, 0.00223479327, -0.0004017009, 0.201968446 , -0.0960631  , 0.347916961 , 0.008506831 , -0.0117991939, 0.4622879   , 1.89        , 3           , 11          , 0.0120749623, 0.0120749772
-0.08743006 , -0.09257099 , -9.793057   , -0.001544689, 0.00240404578, -0.000554349332, 0.202170685 , -0.0960631  , 0.347714722 , 0.00839057  , -0.0115262531, 0.4622836   , 1.9         , 3           , 12          , 0.0426742621, 0
-0.120848469, -0.09421517 , -9.781188   , -0.00335539412, 0.00585985836, -0.000300781016, 0.202035859 , -0.09599569 , 0.3476473   , 0.008357044 , -0.01146763 , 0.462281    , 1.91        , 3           , 50          , 0           , 0
-0.117496826, -0.0747956038, -9.786354   , -0.00356416171, -8.265461E-05, -0.0006744025, 0.202035859 , -0.09599569 , 0.3476473   , 0.00832148  , -0.0114684  , 0.4622743   , 1.92        , 3           , 11          , 0.0124132372, 0.0124132531
-0.09509809 , -0.06804326 , -9.761227   , -0.003738839, -0.00224079168, 0.000438095332, 0.201901034 , -0.09613051 , 0.347714722 , 0.00828404352, -0.0114908433, 0.4622786   , 1.93        , 3           , 12          , 0.0426742621, 0
-0.100883961, -0.07412109 , -9.778515   , 0.00158394035, 0.002724725 , 0.000113583905, 0.202035859 , -0.0959282741, 0.347714722 , 0.008299865 , -0.0114636058, 0.4622798   , 1.94        , 3           , 50          , 0           , 0
-0.100292116, -0.0627797842, -9.785153   , 0.00206465623, 0.00156823243, 0.0006722163, 0.202035859 , -0.0960631  , 0.347916961 , 0.008320434 , -0.0114479791, 0.4622867   , 1.95        , 3           , 11          , 0.0124132372, 0.0124132531
-0.113865361, -0.08323932 , -9.800872   , 0.00225832523, -0.000223774783, 0.000504334748, 0.2022381   , -0.0960631  , 0.347849548 , 0.008342958 , -0.011450259, 0.462291718 , 1.96        , 3           , 12          , 0.0426742621, 0
-0.117564492, -0.07356385 , -9.775048   , -0.00052411214, -0.0007015937, 0.0009811124, 0.202103272 , -0.09613051 , 0.3475799   , 0.008337606 , -0.0114573557, 0.4623015   , 1.97        , 3           , 50          , 0           , 0
-0.13074553 , -0.0834329948, -9.76941    , 0.001071658 , 0.00200501527, 0.00103018456, 0.202103272 , -0.09613051 , 0.3475799   , 0.008348202 , -0.0114373937, 0.462311983 , 1.98        , 3           , 11          , 0.0124132372, 0.0124132531
-0.094968155, -0.08832038 , -9.804822   , 0.0006566202, 0.00273027667, 0.0005372614, 0.202035859 , -0.0961979255, 0.347782135 , 0.008354703 , -0.0114101348, 0.4623177   , 1.99        , 3           , 12          , 0.0426742621, 0
-0.09336409 , -0.0621263869, -9.809474   , -0.002709643, 0.00217428035, -0.00178443338, 0.201968446 , -0.0959282741, 0.347849548 , 0.008396412 , -0.0112069864, 0.4622991   , 2           , 3           , 50          , 0           , 0
-0.112847507, -0.0550239757, -9.783373   , -0.00137478171, 0.001080764 , -0.00121961755, 0.202035859 , -0.0960631  , 0.347984374 , 0.0083828   , -0.0111960787, 0.462286949 , 2.01        , 3           , 11          , 0.0118150525, 0.0118150627
-0.104099467, -0.07463648 , -9.769967   , -0.00146817847, 0.000134747082, 0.0004833743, 0.201901034 , -0.09599569 , 0.347782135 , 0.008368063 , -0.01119477 , 0.462291956 , 2.02        , 3           , 12          , 0.0434776433, 0
-0.109138563, -0.0778416544, -9.761468   , -0.000468302751, 0.000130392349, -0.000154497888, 0.201901034 , -0.09599569 , 0.347782135 , 0.008363398 , -0.0111934533, 0.4622903   , 2.03        , 3           , 50          , 0           , 0
-0.116764255, -0.07773145 , -9.765602   , -0.00153171865, 0.000216072614, -0.000517584733, 0.201968446 , -0.0961979255, 0.3476473   , 0.008348139 , -0.0111912489, 0.46228528  , 2.04        , 3           , 11          , 0.0118150525, 0.0118150627
-0.0914490148, -0.0751245841, -9.776632   , -0.00203835848, -0.000425593229, -0.0003153506, 0.201766208 , -0.0960631  , 0.347782135 , 0.008327789 , -0.011195478, 0.462281942 , 2.05        , 3           , 12          , 0.0434776433, 0
-0.109126285, -0.06466558 , -9.812358   , 0.0005281283, 0.0004036584, 0.000213377585, 0.2022381   , -0.0960631  , 0.347849548 , 0.008333046 , -0.01119146 , 0.4622841   , 2.06        , 3           , 50          , 0           , 0
-0.116447523, -0.0558799133, -9.784771   , 0.00248076045, 0.002685105 , -0.0006717018, 0.202170685 , -0.09599569 , 0.347849548 , 0.008357928 , -0.0111645507, 0.462277651 , 2.07        , 3           , 11          , 0.0118150525, 0.0118150627
-0.101364672, -0.07104793 , -9.770352   , -0.00122753961, 0.00122708781, -0.001717461, 0.202170685 , -0.09599569 , 0.347849548 , 0.008345842 , -0.0111521371, 0.462260485 , 2.08        , 3           , 12          , 0.0434776433, 0
-0.123763904, -0.08047184 , -9.798673   , -0.00237026135, 0.00179644767, 1.01651949E-06, 0.201901034 , -0.0960631  , 0.3475799   , 0.008322138 , -0.0111341737, 0.462260723 , 2.09        , 3           , 50          , 0           , 0
-0.09189981 , -0.08936576 , -9.793965   , -0.000411615882, 0.00155134511, 0.000449533225, 0.202103272 , -0.0960631  , 0.347782135 , 0.008259889 , -0.0119096925, 0.4622662   , 2.1         , 3           , 11          , 0.0118670752, 0.01186709
-0.07463458 , -0.07458646 , -9.798153   , -0.00216500973, -0.00216196547, 0.000957324752, 0.2022381   , -0.0959282741, 0.347849548 , 0.00823812652, -0.0119313914, 0.462275743 , 2.11        , 3           , 12          , 0.0443056077, 0
-0.112043835, -0.07743678 , -9.796722   , 0.003254808 , -9.317046E-06, 0.00252458523, 0.201968446 , -0.09599569 , 0.347849548 , 0.0082703745, -0.0119316932, 0.462301016 , 2.12        , 3           , 50          , 0           , 0
-0.118406437, -0.08147876 , -9.793215   , 0.00127920473, 0.000736956368, 0.00144991034, 0.202103272 , -0.09613051 , 0.347714722 , 0.008282994 , -0.0119244456, 0.462315559 , 2.13        , 3           , 11          , 0.0118670752, 0.01186709
-0.11253234 , -0.07081442 , -9.7831     , 0.002935028 , 0.00145278615, -0.0003183288, 0.202103272 , -0.09613051 , 0.347714722 , 0.008312379 , -0.0119098891, 0.46231246  , 2.14        , 3           , 12          , 0.0443056077, 0
-0.09678023 , -0.06873582 , -9.779318   , -0.0005821566, -0.00123623782, -0.000164343466, 0.201766208 , -0.09599569 , 0.3476473   , 0.00830658  , -0.0119222393, 0.4623108   , 2.15        , 3           , 50          , 0           , 0
-0.08413777 , -0.0612237379, -9.77505    , -0.000149721629, -0.0007390586, -0.000154469672, 0.201833621 , -0.09599569 , 0.347849548 , 0.0083051   , -0.0119296154, 0.462309122 , 2.16        , 3           , 11          , 0.0118670752, 0.01186709
-0.108545192, -0.08385824 , -9.789537   , -0.0003357666, 0.002332957 , 0.00110530783, 0.201766208 , -0.0959282741, 0.347984374 , 0.008301608 , -0.011906378, 0.462320328 , 2.17        , 3           , 12          , 0.0443056077, 0
-0.1036294  , -0.0786163062, -9.777688   , -0.000191270534, 0.00191124133, 2.678919E-05, 0.201833621 , -0.09613051 , 0.347984374 , 0.008299691 , -0.0118872682, 0.4623208   , 2.18        , 3           , 50          , 0           , 0
-0.09240588 , -0.07253228 , -9.765318   , -0.0007259  , -0.000460777577, 0.00142017915, 0.201833621 , -0.09613051 , 0.347984374 , 0.008292264 , -0.0118919937, 0.462334871 , 2.19        , 3           , 11          , 0.0118670752, 0.01186709
-0.096573174, -0.08291139 , -9.761412   , -0.000741295866, -0.00130507455, 0.00140759  , 0.202103272 , -0.0960631  , 0.3475799   , 0.008274256 , -0.0118758613, 0.462349176 , 2.2         , 3           , 12          , 0.0451564975, 0
-0.0983289  , -0.102857411, -9.792373   , 0.002522345 , -0.00247694342, 0.000552107929, 0.2022381   , -0.09613051 , 0.347916961 , 0.008299416 , -0.0119006783, 0.462354422 , 2.21        , 3           , 50          , 0           , 0
-0.11833933 , -0.07158303 , -9.790841   , 0.003221746 , 0.00168730994, -0.00110050465, 0.202170685 , -0.09586086 , 0.347714722 , 0.008331764 , -0.0118837105, 0.462343454 , 2.22        , 3           , 11          , 0.00862358  , 0.008623557
-0.111296296, -0.0582897626, -9.81637    , -0.000964409439, 0.003858799 , 0.00119483611, 0.202170685 , -0.09613051 , 0.347916961 , 0.0083219735, -0.0118452236, 0.462355852 , 2.23        , 3           , 12          , 0.0451564975, 0
-0.09686071 , -0.0768714845, -9.777606   , -0.00191262574, 0.00172012649, 0.0010148841, 0.202709988 , -0.0960631  , 0.347849548 , 0.008302725 , -0.0118281078, 0.4623661   , 2.24        , 3           , 50          , 0           , 0
-0.113333464, -0.09226923 , -9.758512   , 0.0008099136, 0.00263685524, -0.000386094645, 0.202709988 , -0.0960631  , 0.347849548 , 0.008310868 , -0.0118017085, 0.462362528 , 2.25        , 3           , 11          , 0.00862358  , 0.008623557
-0.09324067 , -0.08444244 , -9.789404   , 0.000789837039, 0.00105811  , -0.00012288506, 0.202440336 , -0.0961979255, 0.347782135 , 0.00831878  , -0.0117911166, 0.462361336 , 2.26        , 3           , 12          , 0.0451564975, 0
-0.11682941 , -0.07046071 , -9.812496   , -0.00141684257, 0.00100694038, 7.741577E-05, 0.202103272 , -0.09599569 , 0.347916961 , 0.00830460247, -0.0117810564, 0.462362051 , 2.27        , 3           , 50          , 0           , 0
-0.119516782, -0.0739766955, -9.818885   , -0.000125933191, 0.00206668931, 0.0003153998, 0.202372923 , -0.09613051 , 0.347916961 , 0.008303303 , -0.0117604146, 0.4623654   , 2.28        , 3           , 11          , 0.00862358  , 0.008623557
-0.1045797  , -0.1058379  , -9.803758   , -0.0007719753, 0.00171240745, 0.000592491764, 0.202170685 , -0.0960631  , 0.347849548 , 0.008295514 , -0.0117433406, 0.4623716   , 2.29        , 3           , 12          , 0.0451564975, 0
-0.09045813 , -0.07588422 , -9.790633   , -0.00174052292, 0.00113774394, -0.001713965, 0.202170685 , -0.0960631  , 0.347849548 , 0.008457061 , -0.0116548035, 0.462352753 , 2.3         , 3           , 50          , 0           , 0
-0.116002411, -0.06657492 , -9.797086   , -0.00111545529, 0.000123736143, -0.00122393027, 0.201901034 , -0.09599569 , 0.3476473   , 0.008446048 , -0.0116534634, 0.462340355 , 2.31        , 3           , 11          , 0.00904688  , 0.009046848
-0.1076028  , -0.0878081  , -9.800415   , -0.00143781235, 0.00412217947, 0.000763964665, 0.202035859 , -0.09613051 , 0.347782135 , 0.008431576 , -0.0116123054, 0.462348461 , 2.32        , 3           , 12          , 0.04602877  , 0
-0.111859106, -0.06914143 , -9.813337   , -0.00169349427, 0.0006111928, 0.0009977178, 0.201968446 , -0.09599569 , 0.347849548 , 0.00841452647, -0.0116062779, 0.462358475 , 2.33        , 3           , 50          , 0           , 0
-0.08948265 , -0.07177102 , -9.796451   , 0.00257750181, 0.001279177 , 0.00160618057, 0.202372923 , -0.09613051 , 0.347984374 , 0.008440115 , -0.0115936222, 0.4623747   , 2.34        , 3           , 11          , 0.00904688  , 0.009046848
-0.110437825, -0.09555642 , -9.790593   , 0.0005790028, 0.000160766431, 0.0007190006, 0.2022381   , -0.09599569 , 0.347782135 , 0.008445818 , -0.0115920743, 0.46238184  , 2.35        , 3           , 12          , 0.04602877  , 0
-0.134642541, -0.07826355 , -9.785647   , 0.00116472563, 0.001658888 , 0.0008158795, 0.2022381   , -0.09599569 , 0.347782135 , 0.008457371 , -0.0115755545, 0.462390184 , 2.36        , 3           , 50          , 0           , 0
-0.12364012 , -0.0544644855, -9.78482    , -0.00252776733, 0.00198559184, 0.000511614839, 0.202305511 , -0.0960631  , 0.347849548 , 0.008432031 , -0.0115557425, 0.46239543  , 2.37        , 3           , 11          , 0.00904688  , 0.009046848
-0.127493933, -0.08419773 , -9.784747   , -0.00354007259, -0.000284130365, -0.000958590244, 0.202709988 , -0.09599569 , 0.347984374 , 0.00839674  , -0.0115585038, 0.4623859   , 2.38        , 3           , 12          , 0.04602877  , 0
-0.100934625, -0.07197301 , -9.768553   , 0.00108083687, -0.0001916364, -0.0004994148, 0.202372923 , -0.09613051 , 0.347984374 , 0.008407608 , -0.0115603777, 0.462380648 , 2.39        , 3           , 50          , 0           , 0
-0.108072817, -0.0838282853, -9.792695   , 0.000453863933, 0.00140315876, -0.0008380142, 0.202372923 , -0.0961979255, 0.347782135 , 0.008396626 , -0.0115278307, 0.462372541 , 2.4         , 3           , 11          , 0.009179887 , 0.009179859
-0.116763584, -0.09108443 , -9.782018   , -0.005626996, -0.00133534253, -0.000271246739, 0.202372923 , -0.0961979255, 0.347782135 , 0.00834038947, -0.0115411617, 0.462369919 , 2.41        , 3           , 12          , 0.04692093  , 0
-0.112531327, -0.0908439  , -9.807722   , -0.00373157533, 0.00124748307, -0.00272648316, 0.202372923 , -0.09613051 , 0.3480518   , 0.008303387 , -0.01152846 , 0.462342739 , 2.42        , 3           , 50          , 0           , 0
-0.09646398 , -0.0929822  , -9.789532   , -0.004069381, -0.00206576358, -0.00048688 , 0.202035859 , -0.09613051 , 0.347984374 , 0.008262752 , -0.0115490789, 0.462337732 , 2.43        , 3           , 11          , 0.009179887 , 0.009179859
-0.10602314 , -0.09751054 , -9.780187   , -0.005194766, -0.0009795334, -0.000478082715, 0.202305511 , -0.09599569 , 0.3480518   , 0.00821086  , -0.0115588326, 0.462332726 , 2.44        , 3           , 12          , 0.04692093  , 0
-0.09970593 , -0.0828549042, -9.764151   , -0.0039342544, -0.00165333657, 0.001308762 , 0.2022381   , -0.09613051 , 0.347984374 , 0.008171367 , -0.0115754716, 0.462345839 , 2.45        , 3           , 50          , 0           , 0
-0.09266096 , -0.07044892 , -9.791043   , -0.00148604438, -0.000226446224, -0.0007304953, 0.2022381   , -0.09613051 , 0.347984374 , 0.008156593 , -0.011577677, 0.462338448 , 2.46        , 3           , 11          , 0.009179887 , 0.009179859
-0.09757703 , -0.05744082 , -9.78055    , 0.00173129665, 0.001457321 , -0.0003284734, 0.202642575 , -0.09613051 , 0.347849548 , 0.008173943 , -0.0115630766, 0.462335348 , 2.47        , 3           , 12          , 0.04692093  , 0
-0.101704746, -0.07577171 , -9.792092   , 0.00341050117, -0.0005718296, 0.00029646125, 0.202305511 , -0.0960631  , 0.347782135 , 0.008208016 , -0.0115688173, 0.4623382   , 2.48        , 3           , 50          , 0           , 0
-0.09810695 , -0.0811510459, -9.797993   , 0.00244419114, 0.00102918665, -0.00133202411, 0.202103272 , -0.09613051 , 0.347984374 , 0.008232609 , -0.0115584172, 0.462324858 , 2.49        , 3           , 11          , 0.009179887 , 0.009179859
-0.109883577, -0.06557709 , -9.769013   , 0.0009812746, 0.00229589548, -0.00233513047, 0.2022381   , -0.09599569 , 0.3480518   , 0.00827415753, -0.0105539653, 0.462301254 , 2.5         , 3           , 12          , 0.0478315949, 0
-0.120494328, -0.0930308849, -9.765813   , -0.00134630362, -0.0009248395, -0.000178018847, 0.2022381   , -0.0960631  , 0.347849548 , 0.008260713 , -0.0105631994, 0.462299347 , 2.51        , 3           , 50          , 0           , 0
-0.103237994, -0.0778200254, -9.768189   , -0.00222575245, -0.00285569881, 0.000360997685, 0.2022381   , -0.0960631  , 0.347849548 , 0.00823842  , -0.0105917864, 0.462302685 , 2.52        , 3           , 11          , 0.009572308 , 0.009572284
-0.10181503 , -0.0941911  , -9.798629   , 0.00157407764, 0.000251345744, 0.00121656014, 0.202372923 , -0.09599569 , 0.347849548 , 0.008254031 , -0.0105893724, 0.462314844 , 2.53        , 3           , 12          , 0.0478315949, 0
-0.100200884, -0.06753652 , -9.804178   , 0.00265489123, 0.00138810591, 0.00109659752, 0.202103272 , -0.0959282741, 0.3481192   , 0.00828046352, -0.0105755832, 0.46232605  , 2.54        , 3           , 50          , 0           , 0
-0.101116031, -0.05286171 , -9.78414249 , -0.0003911449, 0.0018579968, 8.286468E-05, 0.202305511 , -0.0961979255, 0.347984374 , 0.008276541 , -0.01055701 , 0.462327    , 2.55        , 3           , 11          , 0.009572308 , 0.009572284
-0.115674093, -0.07967447 , -9.795426   , -0.00547742238, -0.00138573267, -6.70847E-05, 0.202372923 , -0.0961979255, 0.347984374 , 0.008221775 , -0.0105708642, 0.4623263   , 2.56        , 3           , 12          , 0.0478315949, 0
-0.09409609 , -0.088371776, -9.800749   , -0.00381969521, 0.00130799587, 0.001341695 , 0.202372923 , -0.0961979255, 0.347984374 , 0.008183434 , -0.0105578918, 0.46233964  , 2.57        , 3           , 50          , 0           , 0
-0.09844061 , -0.08077182 , -9.749208   , 0.00168280024, 0.00298144366, 0.000326603971, 0.202372923 , -0.09613051 , 0.347782135 , 0.008200225 , -0.0105281053, 0.462343216 , 2.58        , 3           , 11          , 0.009572308 , 0.009572284
-0.114301883, -0.09815219 , -9.755878   , 0.00336290174, 0.000741837837, 0.000447621365, 0.202170685 , -0.0960631  , 0.3481866   , 0.008233806 , -0.0105207236, 0.462347746 , 2.59        , 3           , 12          , 0.0478315949, 0
-0.115467183, -0.09162451 , -9.774786   , 0.0006321593, -0.00216872338, 0.000173930966, 0.2022381   , -0.0961979255, 0.3480518   , 0.008248602 , -0.0105479751, 0.462349176 , 2.6         , 3           , 50          , 0           , 0
-0.106665038, -0.0628313646, -9.775276   , 0.00209306739, 0.0009723987, -0.000129298191, 0.202305511 , -0.09613051 , 0.347916961 , 0.008269547 , -0.0105382437, 0.462348223 , 2.61        , 3           , 11          , 0.006069754 , 0.006069776
-0.118725657, -0.07326177 , -9.80215549 , 0.00182498887, 0.00247854926, 3.398146E-05, 0.202103272 , -0.09613051 , 0.347849548 , 0.008287789 , -0.01051346 , 0.4623487   , 2.62        , 3           , 12          , 0.048759453 , 0
-0.110149033, -0.07107688 , -9.802504   , -0.000699414057, 0.000199042333, 0.00134488009, 0.202103272 , -0.09613051 , 0.347849548 , 0.008280654 , -0.0105115818, 0.462362051 , 2.63        , 3           , 50          , 0           , 0
-0.1079529  , -0.081418924, -9.807119   , 0.00135700684, -0.000817255932, 0.000484202756, 0.2022381   , -0.09613051 , 0.347849548 , 0.008294174 , -0.0105197933, 0.462366819 , 2.64        , 3           , 11          , 0.006069754 , 0.006069776
-0.09502612 , -0.09152511 , -9.80034351 , 0.00165960845, -0.000231630009, -0.00122272072, 0.202170685 , -0.0960631  , 0.3481192   , 0.008310899 , -0.0105220089, 0.46235466  , 2.65        , 3           , 12          , 0.048759453 , 0
-0.117420033, -0.08090988 , -9.804943   , 0.00510154  , 0.00358139747, 0.00121503579, 0.202440336 , -0.09613051 , 0.3480518   , 0.008361784 , -0.0104862964, 0.462367058 , 2.66        , 3           , 50          , 0           , 0
-0.145026743, -0.08756499 , -9.793077   , 0.005032014 , 0.00351367425, 0.000855859 , 0.2022381   , -0.09613051 , 0.347916961 , 0.008412011 , -0.0104512321, 0.462375879 , 2.67        , 3           , 11          , 0.006069754 , 0.006069776
-0.115423225, -0.055252973, -9.801918   , -0.000307612383, 0.00165456114, -0.00156529155, 0.2022381   , -0.09613051 , 0.347916961 , 0.008409098 , -0.0104345549, 0.462360382 , 2.68        , 3           , 12          , 0.048759453 , 0
-0.1142203  , -0.06884513 , -9.797095   , -0.004100572, -0.0005262202, -0.00183496182, 0.202305511 , -0.0961979255, 0.347849548 , 0.008368283 , -0.0104396651, 0.462342024 , 2.69        , 3           , 50          , 0           , 0
-0.117816955, -0.0857207552, -9.818553   , -0.006399593, 0.000327843125, -0.000402461243, 0.202372923 , -0.0960631  , 0.3481192   , 0.008084751 , -0.0106357653, 0.462339163 , 2.7         , 3           , 11          , 0.0063391244, 0.006339141
-0.100831583, -0.07270548 , -9.784369   , -0.0007015137, 0.00119951332, -0.000140006348, 0.2022381   , -0.09613051 , 0.348321438 , 0.008077749 , -0.0106237605, 0.462337732 , 2.71        , 3           , 12          , 0.0497032851, 0
-0.106852248, -0.0844845  , -9.774623   , 0.00158397818, 0.00175403373, -0.0006187391, 0.202507749 , -0.09613051 , 0.347916961 , 0.008093653 , -0.01060617 , 0.462331533 , 2.72        , 3           , 50          , 0           , 0
-0.115357086, -0.0941267163, -9.793784   , -0.00265386351, -0.00171649829, -0.0004089735, 0.202507749 , -0.09613051 , 0.347916961 , 0.00806716  , -0.0106233014, 0.46232748  , 2.73        , 3           , 11          , 0.0063391244, 0.006339141
-0.106725231, -0.07227134 , -9.778095   , 0.000214533342, 5.02042458E-05, -0.0008665421, 0.202305511 , -0.0961979255, 0.347916961 , 0.008069398 , -0.0106227286, 0.462318659 , 2.74        , 3           , 12          , 0.0497032851, 0
-0.106514633, -0.08154501 , -9.754711   , -0.00390675152, 0.000237312823, -0.00110392272, 0.202305511 , -0.09613051 , 0.3480518   , 0.008030446 , -0.0106202662, 0.4623077   , 2.75        , 3           , 50          , 0           , 0
-0.09549372 , -0.0857610255, -9.790794   , -0.0038550368, -0.0007063096, 0.000170679923, 0.202170685 , -0.09613051 , 0.3481866   , 0.007991878 , -0.0106273433, 0.462309361 , 2.76        , 3           , 11          , 0.0063391244, 0.006339141
-0.10095872 , -0.0826931447, -9.778162   , -0.003668932, -0.003072755, 0.000137533367, 0.202305511 , -0.09599569 , 0.3481192   , 0.007955177 , -0.01065808 , 0.462310553 , 2.77        , 3           , 12          , 0.0497032851, 0
-0.100857861, -0.078087315, -9.787142   , -0.000170384577, -0.00146672153, 0.0008979301, 0.202440336 , -0.09613051 , 0.347984374 , 0.007953378 , -0.010672817, 0.462319374 , 2.78        , 3           , 50          , 0           , 0
-0.106985033, -0.06440847 , -9.796074   , 0.000203658652, 0.000176856876, 0.0009956107, 0.202440336 , -0.09613051 , 0.347984374 , 0.007955308 , -0.0106711276, 0.4623294   , 2.79        , 3           , 11          , 0.0063391244, 0.006339141
-0.121358246, -0.09163162 , -9.769419   , -0.00014222374, -0.00147022738, 0.000254817132, 0.202440336 , -0.09613051 , 0.347916961 , 0.007842165 , -0.0107060336, 0.462332    , 2.8         , 3           , 12          , 0.0506619364, 0
-0.119968422, -0.102266721, -9.788049   , 0.00415655039, 0.00128057506, 0.000321209984, 0.202170685 , -0.0961979255, 0.3481192   , 0.007883696 , -0.0106932521, 0.462335348 , 2.81        , 3           , 50          , 0           , 0
-0.1264503  , -0.0786447  , -9.798676   , 0.00278929272, 0.00092007994, 0.00209637941, 0.202440336 , -0.0959282741, 0.3481192   , 0.007911362 , -0.0106842164, 0.462356567 , 2.82        , 3           , 11          , 0.006060506 , 0.006060499
-0.127650574, -0.08577302 , -9.76398849 , 0.00341827632, 0.00473323045, -0.000277288258, 0.202372923 , -0.0961979255, 0.3480518   , 0.007945569 , -0.0106368633, 0.462353945 , 2.83        , 3           , 12          , 0.0506619364, 0
-0.10273701 , -0.09377106 , -9.795019   , 0.000280090258, 0.00362381875, -0.0008851579, 0.202372923 , -0.0961979255, 0.3480518   , 0.007948462 , -0.0106005548, 0.462345362 , 2.84        , 3           , 50          , 0           , 0
-0.105866656, -0.105283275, -9.812345   , -0.00161489716, -0.000651607057, -0.001459685, 0.202305511 , -0.0960631  , 0.347849548 , 0.007932468 , -0.0106069557, 0.462330818 , 2.85        , 3           , 11          , 0.006060506 , 0.006060499
-0.09414888 , -0.06931186 , -9.76981449 , 0.0007620526, 0.00183404109, -0.001623654, 0.202507749 , -0.09599569 , 0.3480518   , 0.007940261 , -0.0105884857, 0.4623146   , 2.86        , 3           , 12          , 0.0506619364, 0
-0.110130571, -0.0917731747, -9.765252   , -0.001339067, 0.004156025 , -0.0024616085, 0.202305511 , -0.09599569 , 0.3481192   , 0.007927127 , -0.0105467327, 0.462290525 , 2.87        , 3           , 50          , 0           , 0
-0.115984857, -0.09483984 , -9.768955   , -0.002170107, 0.00148879876, 0.000213632578, 0.202507749 , -0.0961979255, 0.3481866   , 0.007905401 , -0.01053186 , 0.462292671 , 2.88        , 3           , 11          , 0.006060506 , 0.006060499
-0.122051284, -0.0828485042, -9.788747   , -0.00148122152, 0.000252735423, 0.00141637574, 0.202372923 , -0.09613051 , 0.347849548 , 0.007890439 , -0.0105294455, 0.462306738 , 2.89        , 3           , 12          , 0.0506619364, 0
-0.0972115546, -0.0802764148, -9.796167   , 2.91005344E-05, -4.51007181E-05, -0.0008680123, 0.202372923 , -0.09613051 , 0.347849548 , 0.007902727 , -0.0105700931, 0.462297916 , 2.9         , 3           , 50          , 0           , 0
-0.09197436 , -0.0770162344, -9.768077   , 0.00134325412, 0.00245650229, -0.00161073485, 0.202372923 , -0.09613051 , 0.3481192   , 0.007916328 , -0.0105454009, 0.462282181 , 2.91        , 3           , 11          , 0.00606600055, 0.00606599636
-0.11089319 , -0.051243715, -9.800927   , 0.0039897887, 0.004143489 , -0.0009259755, 0.202372923 , -0.09579345 , 0.3480518   , 0.007956321 , -0.0105038937, 0.462273121 , 2.92        , 3           , 12          , 0.051634334 , 0
-0.0999051  , -0.0744540244, -9.790253   , 0.0028287177, 0.00250145863, -0.0003129579, 0.202372923 , -0.0960631  , 0.3481192   , 0.00798464  , -0.010478856, 0.46227026  , 2.93        , 3           , 50          , 0           , 0
-0.110340223, -0.08872994 , -9.796386   , 0.004349319 , 0.00506230164, 9.13041949E-05, 0.202372923 , -0.0960631  , 0.3480518   , 0.008028118 , -0.0104282415, 0.4622717   , 2.94        , 3           , 11          , 0.00606600055, 0.00606599636
-0.130807489, -0.06458387 , -9.802619   , 0.00184945529, 0.005284603 , 0.00208259025, 0.202372923 , -0.0960631  , 0.3480518   , 0.008046392 , -0.0103755649, 0.4622929   , 2.95        , 3           , 12          , 0.051634334 , 0
-0.118707143, -0.0643307343, -9.793922   , 0.000569481461, 0.00480377162, 0.00120908429, 0.202372923 , -0.0961979255, 0.347916961 , 0.008051958 , -0.010327626, 0.4623053   , 2.96        , 3           , 50          , 0           , 0
-0.118857406, -0.07969542 , -9.790939   , 0.000489591155, 0.00239416631, -0.00168845931, 0.202372923 , -0.09586086 , 0.3480518   , 0.008057025 , -0.0103035495, 0.462288618 , 2.97        , 3           , 11          , 0.00606600055, 0.00606599636
-0.111606792, -0.06633257 , -9.781233   , 0.00155121868, 0.00223556138, -0.00118333381, 0.2022381   , -0.0960631  , 0.3481192   , 0.008072657 , -0.010281099, 0.462276936 , 2.98        , 3           , 12          , 0.051634334 , 0
-0.09591494 , -0.0598949268, -9.763397   , 0.000559332431, -0.00250087981, 0.0006738414, 0.202305511 , -0.0961979255, 0.347984374 , 0.008078181 , -0.0103061618, 0.4622836   , 2.99        , 3           , 50          , 0           , 0
-0.07844486 , -0.09089899 , -9.787986   , -0.00325326226, -1.96960627E-05, 0.000113859693, 0.202305511 , -0.0961979255, 0.347984374 , 0.008034224 , -0.0103035318, 0.462284565 , 3           , 3           , 11          , 0.006259176 , 0.00625916757
-0.08735735 , -0.08088615 , -9.789309   , -0.000723837235, 0.00240757922, -0.00169573911, 0.202305511 , -0.09599569 , 0.347984374 , 0.008027159 , -0.01027932 , 0.462267876 , 3.01        , 3           , 12          , 0.05261947  , 0
-0.100001626, -0.08973644 , -9.794948   , -0.000164586163, 0.0018951674, -0.001127288, 0.202440336 , -0.0959282741, 0.347984374 , 0.008025626 , -0.0102602793, 0.46225667  , 3.02        , 3           , 50          , 0           , 0
-0.11867328 , -0.071846135, -9.808012   , 5.828294E-05, 0.004163238 , 0.00141132041, 0.202305511 , -0.09613051 , 0.3481192   , 0.008026061 , -0.0102187609, 0.4622712   , 3.03        , 3           , 11          , 0.006259176 , 0.00625916757
-0.112135336, -0.0798026  , -9.786363   , 0.001493821 , 0.00522474153, 0.00129245617, 0.2022381   , -0.0960631  , 0.3480518   , 0.008040864 , -0.010166618, 0.462284565 , 3.04        , 3           , 12          , 0.05261947  , 0
-0.11686179 , -0.09835698 , -9.776683   , 0.00101526442, -6.04811248E-05, -0.0001466034, 0.202305511 , -0.09633275 , 0.347849548 , 0.00805103  , -0.0101672113, 0.462283134 , 3.05        , 3           , 50          , 0           , 0
-0.12826997 , -0.07153549 , -9.787317   , 0.00010314909, 0.000318012142, -0.00136315194, 0.202305511 , -0.09633275 , 0.347849548 , 0.008052202 , -0.0101639209, 0.462269545 , 3.06        , 3           , 11          , 0.006259176 , 0.00625916757
-0.114990719, -0.0543937869, -9.79829    , 0.000953440031, 0.0003758691, -0.0007846404, 0.2022381   , -0.0961979255, 0.347916961 , 0.008061814 , -0.0101601  , 0.462261677 , 3.07        , 3           , 12          , 0.05261947  , 0
-0.09058706 , -0.07563655 , -9.771661   , 0.002144088 , -0.000930497132, -0.0002953524, 0.2022381   , -0.09599569 , 0.3481192   , 0.008083287 , -0.0101693794, 0.462258577 , 3.08        , 3           , 50          , 0           , 0
-0.113210909, -0.07872754 , -9.759709   , -0.000968113134, 0.0004638194, -0.0004374575, 0.202170685 , -0.09613051 , 0.3481866   , 0.008073649 , -0.010164706, 0.4622543   , 3.09        , 3           , 11          , 0.006259176 , 0.00625916757
-0.100591116, -0.08549442 , -9.7696085  , -0.000631891948, -0.00175566494, -0.00139767164, 0.202305511 , -0.0961979255, 0.3480518   , 0.008067433 , -0.0101904105, 0.462240219 , 3.1         , 3           , 12          , 0.0536163934, 0
-0.104442671, -0.07936512 , -9.791256   , 0.00117418461, 0.0005214676, -0.0016397388, 0.202305511 , -0.0961979255, 0.3480518   , 0.008079342 , -0.0101850638, 0.462223768 , 3.11        , 3           , 50          , 0           , 0
-0.107479654, -0.07382035 , -9.801156   , 0.00244879886, 0.000289690564, -0.00120591267, 0.202440336 , -0.0960631  , 0.347849548 , 0.008103953 , -0.01018207 , 0.462211847 , 3.12        , 3           , 11          , 0.00649962854, 0.006499613
-0.114864543, -0.0931756049, -9.798737   , 0.0010161337, 0.000713531335, 0.00108109287, 0.202103272 , -0.09599569 , 0.3481192   , 0.008114002 , -0.0101750223, 0.462222576 , 3.13        , 3           , 12          , 0.0536163934, 0
-0.117376633, -0.07683722 , -9.80625    , -0.002489705, 0.0030026345, -0.00248503033, 0.202035859 , -0.09613051 , 0.347984374 , 0.008089355 , -0.0101447934, 0.462198019 , 3.14        , 3           , 50          , 0           , 0
-0.09675275 , -0.0624618679, -9.775632   , -0.003119098, -0.00109325617, -0.0005447815, 0.202372923 , -0.09613051 , 0.347984374 , 0.008058218 , -0.0101556834, 0.462192535 , 3.15        , 3           , 11          , 0.00649962854, 0.006499613
-0.09540833 , -0.0624832958, -9.774716   , -0.000447111146, -0.00271288981, 0.00123706646, 0.2022381   , -0.09626534 , 0.3481192   , 0.008053623 , -0.0101829125, 0.4622047   , 3.16        , 3           , 12          , 0.0536163934, 0
-0.101315036, -0.07853913 , -9.786699   , 0.00131439359, 0.00178723317, 0.000883833854, 0.2022381   , -0.09626534 , 0.3481192   , 0.00806667749, -0.0101651121, 0.462213755 , 3.17        , 3           , 50          , 0           , 0
-0.080637   , -0.08455704 , -9.788837   , 0.00202281959, 0.00092986977, -0.000197518282, 0.202305511 , -0.0961979255, 0.347916961 , 0.008086925 , -0.010155797, 0.462211847 , 3.18        , 3           , 11          , 0.00649962854, 0.006499613
-0.112871796, -0.09314592 , -9.761228   , 0.001933831 , -0.000292488141, 0.0003566439, 0.201901034 , -0.09599569 , 0.347984374 , 0.008106227 , -0.0101587521, 0.462215424 , 3.19        , 3           , 12          , 0.0536163934, 0
-0.110679649, -0.09948787 , -9.760378   , -0.00155312335, -0.0006212824, 0.0006166266, 0.202305511 , -0.0960631  , 0.347849548 , 0.008099903 , -0.0101740733, 0.462221384 , 3.2         , 3           , 50          , 0           , 0
-0.0982276  , -0.08178097 , -9.781288   , 0.000969550863, 0.0022908696, 0.000674397452, 0.202305511 , -0.0961979255, 0.347916961 , 0.008109527 , -0.0101512177, 0.4622283   , 3.21        , 3           , 11          , 0.006741635 , 0.006741618
-0.116919644, -0.0603608638, -9.787085   , 0.00455640024, 0.004977252 , 0.000735463458, 0.202305511 , -0.0961979255, 0.347916961 , 0.008155012 , -0.0101015056, 0.462236166 , 3.22        , 3           , 12          , 0.05462424  , 0
-0.12743111 , -0.0774244741, -9.785571   , 0.00150857621, 0.00537421834, -0.000136230621, 0.202035859 , -0.0961979255, 0.347984374 , 0.008170106 , -0.0100477543, 0.4622352   , 3.23        , 3           , 50          , 0           , 0
-0.119731009, -0.07385968 , -9.787718   , 0.00123447354, -6.60596052E-05, -0.0005029768, 0.202103272 , -0.0959282741, 0.347916961 , 0.00818250049, -0.0100483745, 0.4622302   , 3.24        , 3           , 11          , 0.006741635 , 0.006741618
-0.09941573 , -0.07350774 , -9.794754   , 0.0007313443, -0.0007736116, -0.000945655163, 0.202103272 , -0.09613051 , 0.3481192   , 0.00818991  , -0.0100560328, 0.462220669 , 3.25        , 3           , 12          , 0.05462424  , 0
-0.110710576, -0.0694628954, -9.784422   , -0.000386494823, 0.00236856146, 0.00152579416, 0.202305511 , -0.09599569 , 0.347984374 , 0.008185889 , -0.0100324722, 0.462236166 , 3.26        , 3           , 50          , 0           , 0
-0.09191046 , -0.07869889 , -9.779388   , 0.0008287642, 0.00328190415, 0.00219050888, 0.202305511 , -0.09599569 , 0.347984374 , 0.008193955 , -0.009999832, 0.4622581   , 3.27        , 3           , 11          , 0.006741635 , 0.006741618
-0.107144751, -0.07978766 , -9.791737   , 4.33324676E-05, 0.00222733663, 0.0008108676, 0.2022381   , -0.0961979255, 0.347849548 , 0.008194306 , -0.009977626, 0.462266445 , 3.28        , 3           , 12          , 0.05462424  , 0
-0.121413492, -0.06787576 , -9.797602   , 0.000266773131, 0.002732442 , 0.00017558728, 0.2022381   , -0.09599569 , 0.347916961 , 0.008196953 , -0.009950316, 0.4622686   , 3.29        , 3           , 50          , 0           , 0
-0.08768274 , -0.0633307844, -9.785947   , 0.002237226 , 0.00162672007, 0.000107007865, 0.202170685 , -0.09599569 , 0.347984374 , 0.00779679557, -0.010746602, 0.462265    , 3.3         , 3           , 11          , 0.006982045 , 0.00698200753
-0.121248618, -0.08523184 , -9.777474   , 0.00158568588, 0.0006301948, 8.854535E-05, 0.202372923 , -0.0961979255, 0.347984374 , 0.007812643 , -0.0107403081, 0.462265968 , 3.31        , 3           , 12          , 0.05564218  , 0
-0.127390757, -0.07558213 , -9.789164   , 0.00136184145, -0.0006514853, -0.000575389655, 0.2022381   , -0.09613051 , 0.347782135 , 0.007826324 , -0.0107467789, 0.462260246 , 3.32        , 3           , 50          , 0           , 0
-0.104343809, -0.0600729547, -9.781998   , 0.002960291 , 0.00241142814, -0.000306477479, 0.2022381   , -0.09613051 , 0.347782135 , 0.007855957 , -0.010722639, 0.462257147 , 3.33        , 3           , 11          , 0.006982045 , 0.00698200753
-0.0899190456, -0.07085561 , -9.797347   , 0.0004669673, 0.00250131846, 0.000466524682, 0.202170685 , -0.09626534 , 0.347984374 , 0.007860575 , -0.0106976638, 0.462262154 , 3.34        , 3           , 12          , 0.05564218  , 0
-0.08979757 , -0.09228437 , -9.775912   , -0.00397959724, -0.0006081827, 0.000608681235, 0.2022381   , -0.09599569 , 0.347984374 , 0.007820715 , -0.0107037928, 0.4622681   , 3.35        , 3           , 50          , 0           , 0
-0.116978236, -0.06401166 , -9.783063   , -0.000661972736, -0.00265010912, 0.000814221858, 0.202575162 , -0.09599569 , 0.3481192   , 0.00781401  , -0.010730356, 0.46227622  , 3.36        , 3           , 11          , 0.006982045 , 0.00698200753
-0.10712076 , -0.06684205 , -9.779391   , 0.000846114766, -0.00109357387, 0.00134695868, 0.202305511 , -0.09613051 , 0.347916961 , 0.007822327 , -0.0107413977, 0.462289572 , 3.37        , 3           , 12          , 0.05564218  , 0
-0.110785514, -0.06201041 , -9.764462   , -0.00128030812, -0.0006394735, 0.00105420453, 0.202305511 , -0.09613051 , 0.347916961 , 0.00780940941, -0.0107478742, 0.462300062 , 3.38        , 3           , 50          , 0           , 0
-0.130603909, -0.07208777 , -9.776054   , 0.0003819706, 0.00121371436, 0.0003042335, 0.202372923 , -0.09599569 , 0.347984374 , 0.007813197 , -0.0107357595, 0.462303162 , 3.39        , 3           , 11          , 0.006982045 , 0.00698200753
-0.111757033, -0.0816972554, -9.77825    , 0.001183708 , 0.00313048763, 0.0005517803, 0.202440336 , -0.09613051 , 0.347984374 , 0.007821311 , -0.0107263448, 0.462308645 , 3.4         , 3           , 12          , 0.0566694   , 0
-0.09264185 , -0.104498193, -9.770206   , -0.00141618273, -0.00134113058, -0.00131789839, 0.202170685 , -0.0959282741, 0.347916961 , 0.00780729158, -0.0107396524, 0.4622953   , 3.41        , 3           , 50          , 0           , 0
-0.0934324563, -0.09096801 , -9.769607   , 0.000286530936, -0.00108148751, -0.00023032949, 0.202305511 , -0.09613051 , 0.347984374 , 0.00781018334, -0.0107504483, 0.4622929   , 3.42        , 3           , 11          , 0.00591929024, 0.00591925
-0.108381815, -0.06580267 , -9.791135   , -0.000179048016, -0.00388025818, 0.0007279825, 0.202305511 , -0.0961979255, 0.347984374 , 0.007808319 , -0.0107893078, 0.462300062 , 3.43        , 3           , 12          , 0.0566694   , 0
-0.1043825  , -0.06992512 , -9.788436   , 0.00304077379, -0.00247539114, 0.0002673388, 0.202305511 , -0.0961979255, 0.347984374 , 0.0078387   , -0.0108140791, 0.462302446 , 3.44        , 3           , 50          , 0           , 0
-0.09737383 , -0.0952143744, -9.790921   , 0.00321784243, 0.00116744987, 0.001394523 , 0.202305511 , -0.09599569 , 0.347849548 , 0.007870725 , -0.0108025176, 0.4623165   , 3.45        , 3           , 11          , 0.00591929024, 0.00591925
-0.09125934 , -0.0770597458, -9.806464   , 0.001144241 , 0.000115007504, 0.0012233681, 0.202103272 , -0.09599569 , 0.347984374 , 0.007882036 , -0.0108014625, 0.462328672 , 3.46        , 3           , 12          , 0.0566694   , 0
-0.100507751, -0.0844764858, -9.78043652 , 0.00230868952, 0.0012676823, -0.0007562321, 0.2022381   , -0.09613051 , 0.3480518   , 0.007905202 , -0.0107887257, 0.462321281 , 3.47        , 3           , 50          , 0           , 0
-0.10093388 , -0.07375244 , -9.770832   , 0.004561375 , 8.545106E-05, 0.0006716009, 0.202305511 , -0.09599569 , 0.347984374 , 0.007950745 , -0.0107879257, 0.4623282   , 3.48        , 3           , 11          , 0.00591929024, 0.00591925
-0.11205364 , -0.07077483 , -9.78716    , 0.0005775532, 0.0009702861, 0.002377118 , 0.202305511 , -0.09599569 , 0.347984374 , 0.007956262 , -0.0107784113, 0.4623518   , 3.49        , 3           , 12          , 0.0566694   , 0
-0.107078172, -0.08413703 , -9.806692   , 0.0003041409, 0.0009895975, 8.609696E-05, 0.202035859 , -0.0961979255, 0.347714722 , 0.007946625 , -0.0107802264, 0.462352753 , 3.5         , 3           , 50          , 0           , 0
-0.0953609347, -0.06241072 , -9.78149    , -0.00164760533, 0.00360183488, -0.00131915486, 0.201766208 , -0.09599569 , 0.347984374 , 0.007930289 , -0.0107441042, 0.462339878 , 3.51        , 3           , 11          , 0.00611149333, 0.00611143559
-0.130600452, -0.07875942 , -9.784714   , 0.002611841 , 0.00326679274, -0.000725299644, 0.201833621 , -0.09599569 , 0.347984374 , 0.007956483 , -0.0107113793, 0.462332726 , 3.52        , 3           , 12          , 0.0577052869, 0
-0.129932374, -0.105831288, -9.784117   , 0.005702454 , 8.007634E-05, -0.000466197118, 0.201968446 , -0.09599569 , 0.347984374 , 0.008013558 , -0.0107105412, 0.4623282   , 3.53        , 3           , 50          , 0           , 0
-0.09809902 , -0.07535216 , -9.792053   , -0.005962332, -0.000369488553, -0.00111712154, 0.201968446 , -0.09599569 , 0.347984374 , 0.007954055 , -0.0107141472, 0.462317    , 3.54        , 3           , 11          , 0.00611149333, 0.00611143559
-0.0891170055, -0.08525856 , -9.800667   , -0.00141487992, 0.0004260984, 0.0009259616, 0.202305511 , -0.0960631  , 0.347782135 , 0.007939807 , -0.01070996 , 0.4623263   , 3.55        , 3           , 12          , 0.0577052869, 0
-0.09435776 , -0.056474518, -9.789091   , -0.00226709177, -0.0001281529, -0.000232181745, 0.202035859 , -0.09599569 , 0.347916961 , 0.00791716  , -0.0107112229, 0.4623239   , 3.56        , 3           , 50          , 0           , 0
-0.121935666, -0.06976255 , -9.789498   , -0.000265293, 0.001276837 , 0.0006591717, 0.202103272 , -0.0959282741, 0.347984374 , 0.007914437 , -0.0106985094, 0.46233058  , 3.57        , 3           , 11          , 0.00611149333, 0.00611143559
-0.1046111  , -0.08496469 , -9.77370548 , -0.002808464, 0.00160733925, -0.00135522324, 0.201968446 , -0.0960631  , 0.347916961 , 0.00788649451, -0.0106823277, 0.462317228 , 3.58        , 3           , 12          , 0.0577052869, 0
-0.106671467, -0.0606155433, -9.771636   , 0.00140145817, -0.00105105061, 0.00263921218, 0.201833621 , -0.09599569 , 0.347782135 , 0.007900229 , -0.0106930463, 0.462343454 , 3.59        , 3           , 50          , 0           , 0
-0.117453635, -0.06627193 , -9.78219    , -0.0002944123, -0.001860752, -0.00110374251, 0.201833621 , -0.09599569 , 0.347782135 , 0.007884419 , -0.010713269, 0.462332249 , 3.6         , 3           , 11          , 0.00627493626, 0.00627484545
-0.102508746, -0.0720550045, -9.801542   , -0.0003392389, -0.00558884069, -0.000871834345, 0.201766208 , -0.0959282741, 0.347849548 , 0.007881123 , -0.0107690869, 0.46232295  , 3.61        , 3           , 12          , 0.058749117 , 0
-0.114193477, -0.09264453 , -9.764848   , 0.00256152544, 0.000101048616, 0.0006595903, 0.201968446 , -0.09565862 , 0.347984374 , 0.007906667 , -0.0107681286, 0.462329626 , 3.62        , 3           , 50          , 0           , 0
-0.100610219, -0.09487149 , -9.778299   , -0.00511449948, 0.000184187491, 4.10006433E-05, 0.202035859 , -0.0960631  , 0.347916961 , 0.007855518 , -0.0107662911, 0.4623301   , 3.63        , 3           , 11          , 0.00627493626, 0.00627484545
-0.09091929 , -0.0723359659, -9.784725   , -0.00399984 , -0.0018334249, 1.86394864E-05, 0.202170685 , -0.0959282741, 0.347849548 , 0.007815519 , -0.0107846251, 0.4623301   , 3.64        , 3           , 12          , 0.058749117 , 0
-0.104643881, -0.07433168 , -9.755966   , -0.005431121, -0.00211323472, 0.000864391041, 0.202170685 , -0.0959282741, 0.347849548 , 0.007761117 , -0.0108058266, 0.4623387   , 3.65        , 3           , 50          , 0           , 0
-0.0938839  , -0.09185623 , -9.770525   , 0.000293159741, 0.0004158638, 7.772868E-05, 0.2022381   , -0.09599569 , 0.3476473   , 0.00776404  , -0.0108016739, 0.4623394   , 3.66        , 3           , 11          , 0.00627493626, 0.00627484545
-0.103138462, -0.0718808249, -9.775347   , -0.000229785859, 0.00358681148, -0.001310609, 0.202170685 , -0.0961979255, 0.347849548 , 0.00776187843, -0.0107657034, 0.462326527 , 3.67        , 3           , 12          , 0.058749117 , 0
-0.1134824  , -0.07711444 , -9.783634   , -0.00194577186, 0.00246295147, -0.00190991187, 0.201901034 , -0.0960631  , 0.347849548 , 0.00774262473, -0.0107409265, 0.4623077   , 3.68        , 3           , 50          , 0           , 0
-0.110764585, -0.08824125 , -9.799546   , -0.000288366282, -0.00100613362, -0.0005188938, 0.201833621 , -0.09599569 , 0.347916961 , 0.00773979723, -0.0107509466, 0.462302446 , 3.69        , 3           , 11          , 0.00627493626, 0.00627484545
-0.110342622, -0.07894067 , -9.784078   , 0.00290428428, -0.000201673538, -0.00048707152, 0.2022381   , -0.0960631  , 0.347782135 , 0.007932981 , -0.0108244373, 0.4622991   , 3.7         , 3           , 12          , 0.0598002672, 0
-0.09522333 , -0.09049176 , -9.77052    , 0.000668098743, 0.00241345353, -0.00189403689, 0.2022381   , -0.0960631  , 0.347782135 , 0.007939865 , -0.010800153, 0.4622805   , 3.71        , 3           , 50          , 0           , 0
-0.0992182046, -0.09927135 , -9.789629   , 0.00376502355, 0.0009282956, 0.000393254828, 0.202035859 , -0.09599569 , 0.347714722 , 0.007977471 , -0.0107909041, 0.462284565 , 3.72        , 3           , 11          , 0.006468866 , 0.006468778
-0.110728249, -0.08239882 , -9.797671   , 0.00774195651, 0.00059870223, 0.0006992328, 0.201901034 , -0.09613051 , 0.347984374 , 0.008054814 , -0.0107849706, 0.462291479 , 3.73        , 3           , 12          , 0.0598002672, 0
-0.10531763 , -0.07219601 , -9.786211   , 0.00348527986, -0.0004735559, -0.00277713034, 0.202103272 , -0.09599569 , 0.347916961 , 0.008089966 , -0.0107894829, 0.462263823 , 3.74        , 3           , 50          , 0           , 0
-0.09081139 , -0.069499895, -9.796887   , -0.00304173655, 0.0027171215, 0.000377174554, 0.201901034 , -0.0960631  , 0.347782135 , 0.008059507 , -0.0107623423, 0.462267637 , 3.75        , 3           , 11          , 0.006468866 , 0.006468778
-0.125155538, -0.0711749345, -9.781414   , 0.00264513632, 0.00265676947, 0.0006976064, 0.201901034 , -0.0960631  , 0.347782135 , 0.008085882 , -0.0107358312, 0.4622748   , 3.76        , 3           , 12          , 0.0598002672, 0
-0.103024632, -0.04855954 , -9.763333   , 0.00116242887, -0.00192428671, 0.00176691893, 0.202103272 , -0.0960631  , 0.347714722 , 0.008097317 , -0.0107552195, 0.462292433 , 3.77        , 3           , 50          , 0           , 0
-0.09327443 , -0.07915254 , -9.77805    , -0.00139119592, -0.00217206217, 0.000316504855, 0.201766208 , -0.09586086 , 0.347714722 , 0.008083371 , -0.0107769622, 0.4622953   , 3.78        , 3           , 11          , 0.006468866 , 0.006468778
-0.108106486, -0.0807638839, -9.784078   , 0.0006474563, 0.0021038386, 0.0006772656, 0.201901034 , -0.09586086 , 0.347849548 , 0.008089772 , -0.0107559776, 0.462302446 , 3.79        , 3           , 12          , 0.0598002672, 0
-0.0994900241, -0.09098178 , -9.805346   , 0.000384675 , 0.00326195  , -0.0004523993, 0.202103272 , -0.0959282741, 0.347782135 , 0.008096006 , -0.010727481, 0.462298155 , 3.8         , 3           , 50          , 0           , 0
-0.116124831, -0.08234212 , -9.798624   , 0.002337528 , 8.679257E-05, -0.000200150462, 0.201833621 , -0.09613051 , 0.3476473   , 0.008119401 , -0.0107265981, 0.462296    , 3.81        , 3           , 11          , 0.00623973552, 0.006239663
-0.111025222, -0.07637345 , -9.81251049 , -0.00161712477, 0.00185696012, -0.00134375261, 0.201833621 , -0.09613051 , 0.3476473   , 0.008103374 , -0.01070792 , 0.462282658 , 3.82        , 3           , 12          , 0.06085813  , 0
-0.10984084 , -0.07352404 , -9.784914   , -0.000784446544, 0.00153867644, 0.00123268983, 0.201901034 , -0.09599569 , 0.347782135 , 0.008095396 , -0.0106926337, 0.4622953   , 3.83        , 3           , 50          , 0           , 0
-0.08372011 , -0.06661917 , -9.776914   , 0.0017543406, -0.000490824634, 0.0009327318, 0.201766208 , -0.0957260355, 0.347849548 , 0.00811284  , -0.0106976172, 0.4623046   , 3.84        , 3           , 11          , 0.00623973552, 0.006239663
-0.107527122, -0.0600938946, -9.77751    , 0.00403838651, 6.17762562E-05, 0.0006686219, 0.202035859 , -0.09599569 , 0.347782135 , 0.008153153 , -0.0106970528, 0.462311268 , 3.85        , 3           , 12          , 0.06085813  , 0
-0.113586478, -0.09329865 , -9.788338   , 0.00641704863, 0.007512753 , -0.00178463513, 0.202305511 , -0.09599569 , 0.347782135 , 0.008217506 , -0.0106217815, 0.462293863 , 3.86        , 3           , 50          , 0           , 0
-0.09045167 , -0.084580265, -9.736982   , 0.00265193288, 0.0035100556, 0.00128246529, 0.202305511 , -0.09599569 , 0.347782135 , 0.008243887 , -0.01058679 , 0.4623072   , 3.87        , 3           , 11          , 0.00623973552, 0.006239663
-0.08344463 , -0.07223235 , -9.758457   , -0.00335953315, 0.000415807037, 0.00148673926, 0.202103272 , -0.0960631  , 0.347714722 , 0.008210135 , -0.0105827544, 0.462322    , 3.88        , 3           , 12          , 0.06085813  , 0
-0.108720109, -0.0553891957, -9.794631   , 0.00287808129, -0.00221417961, 5.60521039E-05, 0.201968446 , -0.0959282741, 0.347849548 , 0.008238911 , -0.0106048994, 0.462322474 , 3.89        , 3           , 50          , 0           , 0
-0.121988371, -0.0464479253, -9.818589   , 0.0006652188, 0.00640811864, -0.0009774348, 0.202103272 , -0.0959282741, 0.347849548 , 0.008104602 , -0.0105677349, 0.462311029 , 3.9         , 3           , 11          , 0.00640004128, 0.00639994349
-0.09831124 , -0.04649511 , -9.791271   , 0.0011760724, 0.00152793352, -0.0007587939, 0.202103272 , -0.09599569 , 0.347782135 , 0.008116441 , -0.0105523933, 0.4623034   , 3.91        , 3           , 12          , 0.06192221  , 0
-0.10526105 , -0.0538588762, -9.771997   , -0.001954983, 0.00268556  , 0.001528365 , 0.202103272 , -0.09599569 , 0.347782135 , 0.008096727 , -0.0105256634, 0.4623189   , 3.92        , 3           , 50          , 0           , 0
-0.13078697 , -0.08839296 , -9.769468   , -0.00110356649, 0.0006989916, -0.00164351368, 0.201833621 , -0.09599569 , 0.3475799   , 0.008085863 , -0.01051854 , 0.462302446 , 3.93        , 3           , 11          , 0.00640004128, 0.00639994349
-0.115694128, -0.0712475851, -9.78223    , 0.00311269122, -0.00223318 , 0.000915928045, 0.201968446 , -0.09586086 , 0.347916961 , 0.008116896 , -0.0105409455, 0.4623115   , 3.94        , 3           , 12          , 0.06192221  , 0
-0.101104029, -0.06486197 , -9.800542   , -0.00227186829, -0.000458802155, 0.0009084147, 0.201901034 , -0.0959282741, 0.347849548 , 0.008094082 , -0.0105456067, 0.462320566 , 3.95        , 3           , 50          , 0           , 0
-0.09376917 , -0.08633891 , -9.780397   , 0.0014613315, 0.00209052372, 0.00010975857, 0.202170685 , -0.09599569 , 0.347782135 , 0.008108681 , -0.0105247125, 0.462322    , 3.96        , 3           , 11          , 0.00640004128, 0.00639994349
-0.09762057 , -0.07086155 , -9.790642   , 0.0022588172, -0.00194305088, 0.00148728932, 0.202035859 , -0.09599569 , 0.3476473   , 0.008131115 , -0.0105442628, 0.46233654  , 3.97        , 3           , 12          , 0.06192221  , 0
-0.113314204, -0.06706387 , -9.79571152 , 0.0008938245, 0.00238032243, 0.0003966693, 0.202035859 , -0.09599569 , 0.3476473   , 0.008140009 , -0.0105204917, 0.462340832 , 3.98        , 3           , 50          , 0           , 0
-0.108613521, -0.0946460962, -9.792826   , 0.00119560689, 0.00240046857, -0.00217709341, 0.202103272 , -0.0960631  , 0.3476473   , 0.00815219153, -0.0104963109, 0.462319136 , 3.99        , 3           , 11          , 0.00640004128, 0.00639994349
-0.130586818, -0.0733969361, -9.780134   , 2.41363014E-05, -0.001614931, -0.00138368038, 0.201968446 , -0.0959282741, 0.347714722 , 0.008212565 , -0.0105359005, 0.462306261 , 4           , 3           , 12          , 0.06299196  , 0
-0.140854135, -0.05714675 , -9.773266   , -0.00109905086, -0.000173036125, -0.00108350255, 0.201901034 , -0.0960631  , 0.3476473   , 0.00820169  , -0.0105375405, 0.4622953   , 4.01        , 3           , 50          , 0           , 0
-0.0998925343, -0.0606356375, -9.77518749 , 0.00374355912, 0.0020448782, 0.0018406536, 0.202305511 , -0.0960631  , 0.347849548 , 0.008238929 , -0.0105172452, 0.4623139   , 4.02        , 3           , 11          , 0.006423472 , 0.006423369
-0.103085376, -0.07224464 , -9.783481   , 6.0436E-05  , 0.00153743976, -0.00133777154, 0.202305511 , -0.0960631  , 0.347849548 , 0.00823967252, -0.0105017591, 0.462300539 , 4.03        , 3           , 12          , 0.06299196  , 0
-0.09196138 , -0.08367336 , -9.778091   , -0.00190039026, 0.00385541935, -0.00188870507, 0.202035859 , -0.0961979255, 0.347512484 , 0.008220864 , -0.0104630506, 0.462281942 , 4.04        , 3           , 50          , 0           , 0
-0.10335733 , -0.0797833353, -9.753306   , 0.000353668147, 0.00295720762, -0.000170534564, 0.201968446 , -0.09586086 , 0.347714722 , 0.008224416 , -0.0104334652, 0.4622805   , 4.05        , 3           , 11          , 0.006423472 , 0.006423369
-0.104276992, -0.05729978 , -9.788288   , 0.0006268348, 0.00181056117, -0.000471679319, 0.202035859 , -0.0959282741, 0.347849548 , 0.008230732 , -0.0104153212, 0.462275982 , 4.06        , 3           , 12          , 0.06299196  , 0
-0.0969469249, -0.0527179465, -9.800816   , -0.00139724463, -0.001035003, -0.0005254084, 0.201901034 , -0.0959282741, 0.3476473   , 0.008216814 , -0.0104256282, 0.4622705   , 4.07        , 3           , 50          , 0           , 0
-0.113794021, -0.08179467 , -9.809437   , 8.720788E-06, -0.001635407, 0.0009056316, 0.202035859 , -0.0960631  , 0.347849548 , 0.008216809 , -0.0104420567, 0.462279558 , 4.08        , 3           , 11          , 0.006423472 , 0.006423369
-0.1285966  , -0.0664458051, -9.799006   , 0.00235575577, 0.00323379762, -0.00129902316, 0.202035859 , -0.0960631  , 0.347849548 , 0.00824049953, -0.01040961 , 0.462266922 , 4.09        , 3           , 12          , 0.06299196  , 0
-0.13105844 , -0.0752063245, -9.779256   , 0.000212877363, -0.00235141721, 4.032694E-05, 0.201968446 , -0.0960631  , 0.3476473   , 0.007975222 , -0.0109300641, 0.46226     , 4.1         , 3           , 50          , 0           , 0
-0.102117151, -0.0619106926, -9.780643   , -0.00119997677, -0.00119577139, 0.0006207821, 0.202305511 , -0.0960631  , 0.347849548 , 0.00796315353, -0.0109420689, 0.462265968 , 4.11        , 3           , 11          , 0.006492515 , 0.00649241451
-0.106665574, -0.0770764649, -9.79260349 , -0.00372693688, 0.00169602688, 0.0006470969, 0.202103272 , -0.0959282741, 0.347714722 , 0.007925813 , -0.0109251617, 0.462272644 , 4.12        , 3           , 12          , 0.06406694  , 0
-0.141015083, -0.0734180659, -9.769841   , -0.00230996334, 0.00139243994, 0.0009376544, 0.201968446 , -0.0959282741, 0.347512484 , 0.007902609 , -0.0109113092, 0.462281942 , 4.13        , 3           , 50          , 0           , 0
-0.131912485, -0.0688954741, -9.778288   , 0.00280446373, 0.000204348224, -0.000192854714, 0.201968446 , -0.0959282741, 0.347512484 , 0.007930673 , -0.0109092519, 0.462280273 , 4.14        , 3           , 11          , 0.006492515 , 0.00649241451
-0.108427048, -0.07121353 , -9.791198   , -0.00232810155, -0.00117141521, -0.0008168915, 0.201968446 , -0.0960631  , 0.347512484 , 0.007907485 , -0.0109209  , 0.462271929 , 4.15        , 3           , 12          , 0.06406694  , 0
-0.141348869, -0.0643331259, -9.775612   , -0.00150944351, -0.00320149516, 0.000876018 , 0.202035859 , -0.0959282741, 0.347714722 , 0.007892297 , -0.0109529831, 0.462280273 , 4.16        , 3           , 50          , 0           , 0
-0.1238148  , -0.07387279 , -9.783239   , 0.000756730151, -0.00436580973, 0.000300703 , 0.202035859 , -0.0960631  , 0.347849548 , 0.007899836 , -0.010996663, 0.462283134 , 4.17        , 3           , 11          , 0.006492515 , 0.00649241451
-0.08962326 , -0.07777313 , -9.78342152 , -4.434376E-05, 0.000509585545, 0.0009388409, 0.202305511 , -0.0959282741, 0.347714722 , 0.007899288 , -0.01099164 , 0.462292433 , 4.18        , 3           , 12          , 0.06406694  , 0
-0.09258808 , -0.0747886151, -9.806902   , -0.00152733992, -0.00294307084, 0.00402799575, 0.202305511 , -0.0959282741, 0.347714722 , 0.007883574 , -0.0110213868, 0.4623325   , 4.19        , 3           , 50          , 0           , 0
-0.113208733, -0.0660120547, -9.809701   , 0.00139932032, 0.002511226 , 0.000976562 , 0.202170685 , -0.0959282741, 0.347512484 , 0.007891826 , -0.010961785, 0.4623425   , 4.2         , 3           , 11          , 0.006047835 , 0.00604775175
-0.09855862 , -0.0775882751, -9.793439   , -0.00201615156, 0.00169640232, -0.000201175411, 0.201833621 , -0.09599569 , 0.347445071 , 0.007871684 , -0.0109448051, 0.4623406   , 4.21        , 3           , 12          , 0.06514664  , 0
-0.118465863, -0.08112463 , -9.784177   , 0.00114074978, 0.00311286934, -0.00187844434, 0.201968446 , -0.09599569 , 0.3476473   , 0.00788329449, -0.0109135285, 0.462322235 , 4.22        , 3           , 50          , 0           , 0
-0.113486573, -0.0824624  , -9.789567   , -0.004633584, -0.00343345618, -0.0005778836, 0.2022381   , -0.0960631  , 0.347782135 , 0.00783702452, -0.010947817, 0.462316036 , 4.23        , 3           , 11          , 0.006047835 , 0.00604775175
-0.09776894 , -0.07331447 , -9.772152   , -0.0012128849, -0.00232949387, 0.000317863334, 0.202103272 , -0.0960631  , 0.3475799   , 0.007824862 , -0.0109711345, 0.462319136 , 4.24        , 3           , 12          , 0.06514664  , 0
-0.0841204748, -0.0531848632, -9.76773    , 0.00220039487, -0.00236416934, 0.000338424084, 0.202103272 , -0.0960631  , 0.3475799   , 0.00784683  , -0.0109948022, 0.462322235 , 4.25        , 3           , 50          , 0           , 0
-0.1272359  , -0.06377149 , -9.797155   , 0.00221689488, -0.0009312735, 0.000359291735, 0.202170685 , -0.09599569 , 0.3476473   , 0.0078689605, -0.0110041425, 0.4623258   , 4.26        , 3           , 11          , 0.006047835 , 0.00604775175
-0.120125376, -0.0791117847, -9.802237   , 0.00167248771, 0.00136457942, 0.0006754172, 0.202103272 , -0.0959282741, 0.3476473   , 0.00788561  , -0.0109905507, 0.4623325   , 4.27        , 3           , 12          , 0.06514664  , 0
-0.100973986, -0.06847223 , -9.75857449 , 0.00223339465, 0.000501622329, 0.0003801594, 0.202103272 , -0.09613051 , 0.347714722 , 0.007907902 , -0.0109855635, 0.46233654  , 4.28        , 3           , 50          , 0           , 0
-0.125785157, -0.07322626 , -9.757955   , 0.003375562 , 0.000213722757, -0.0007618166, 0.202170685 , -0.0959282741, 0.3475799   , 0.0079417415, -0.0109833665, 0.4623289   , 4.29        , 3           , 11          , 0.006047835 , 0.00604775175
-0.117597967, -0.08652397 , -9.786037   , 0.00217339164, -0.00465943059, 0.0003050365, 0.202170685 , -0.0959282741, 0.3475799   , 0.007961316 , -0.0110392459, 0.462331533 , 4.3         , 3           , 12          , 0.06623074  , 0
-0.124420278, -0.09057655 , -9.781178   , -0.001449248, 0.00140397507, -0.000488085469, 0.202103272 , -0.09613051 , 0.3475799   , 0.007946877 , -0.0110251671, 0.462326765 , 4.31        , 3           , 50          , 0           , 0
-0.107435614, -0.05772807 , -9.787871   , -0.0025925003, 0.000279455126, -0.001656289, 0.202103272 , -0.0959282741, 0.347512484 , 0.007921132 , -0.0110222409, 0.462310076 , 4.32        , 3           , 11          , 0.00616026344, 0.00616016844
-0.116471358, -0.05947748 , -9.785715   , -0.00228496 , 0.00228261971, -0.00162536115, 0.201901034 , -0.09599569 , 0.3476473   , 0.00789846  , -0.0109992865, 0.4622941   , 4.33        , 3           , 12          , 0.06623074  , 0
-0.126376092, -0.102371514, -9.773203   , -0.000100755191, -0.004352294, 0.0005816669, 0.202170685 , -0.09599569 , 0.3475799   , 0.007897392 , -0.0110428547, 0.4622996   , 4.34        , 3           , 50          , 0           , 0
-0.102925643, -0.1002918  , -9.775673   , 0.00309326476, 0.0007820234, -0.00018285423, 0.201901034 , -0.0959282741, 0.347512484 , 0.007928345 , -0.0110350195, 0.462297678 , 4.35        , 3           , 11          , 0.00616026344, 0.00616016844
-0.119999558, -0.07427096 , -9.749331   , -0.0006479085, -0.00262448052, 0.000317117258, 0.201901034 , -0.0959282741, 0.347512484 , 0.007921833 , -0.0110612884, 0.462300777 , 4.36        , 3           , 12          , 0.06623074  , 0
-0.115945019, -0.09566907 , -9.77574    , 0.00139185169, 0.00108849979, -0.000475125038, 0.202035859 , -0.0960631  , 0.347849548 , 0.007935802 , -0.0110503687, 0.462296    , 4.37        , 3           , 50          , 0           , 0
-0.118466012, -0.09047267 , -9.795577   , 0.000251876481, 0.00222589867, 0.00182402763, 0.201833621 , -0.09599569 , 0.347512484 , 0.007938117 , -0.0110282525, 0.462314367 , 4.38        , 3           , 11          , 0.00616026344, 0.00616016844
-0.101501733, -0.09752071 , -9.782856   , 0.00512339035, 0.004482206 , 0.000455723464, 0.202035859 , -0.0959282741, 0.347714722 , 0.007989295 , -0.010983468, 0.462319374 , 4.39        , 3           , 12          , 0.06623074  , 0
-0.10673596 , -0.08475153 , -9.79179    , 0.00085259  , 0.00451245857, 0.00214708364, 0.202507749 , -0.0959282741, 0.3475799   , 0.008024133 , -0.0109303473, 0.4623418   , 4.4         , 3           , 50          , 0           , 0
-0.101679772, -0.0574829839, -9.773361   , 0.00059428456, 0.005961042 , 0.000735418 , 0.202507749 , -0.0959282741, 0.3475799   , 0.008029991 , -0.0108707976, 0.462349653 , 4.41        , 3           , 11          , 0.0063247215, 0.00632460834
-0.08009304 , -0.07595989 , -9.791895   , -0.00171312748, 0.00255544647, -0.000473027671, 0.201968446 , -0.0961979255, 0.347445071 , 0.00801290851, -0.0108452067, 0.462344885 , 4.42        , 3           , 12          , 0.06731881  , 0
-0.115131751, -0.07686651 , -9.805326   , -0.004611434, -0.0014380035, 0.000596065 , 0.202103272 , -0.0959282741, 0.3476473   , 0.007966732 , -0.0108596338, 0.462350845 , 4.43        , 3           , 50          , 0           , 0
-0.143830463, -0.05106398 , -9.79129    , -0.00113022793, 0.004261464 , 0.00041393243, 0.2022381   , -0.09586086 , 0.347782135 , 0.00795538  , -0.0108170537, 0.462355375 , 4.44        , 3           , 11          , 0.0063247215, 0.00632460834
-0.135133743, -0.0805480257, -9.78251648 , 0.001111473 , 0.0008070754, -0.0004809349, 0.2022381   , -0.09613051 , 0.3476473   , 0.007966545 , -0.0108089447, 0.4623506   , 4.45        , 3           , 12          , 0.06731881  , 0
-0.129914254, -0.101797305, -9.781811   , 0.00255732657, 0.00251722126, -0.0010196548, 0.2022381   , -0.09613051 , 0.3476473   , 0.007992227 , -0.01078369 , 0.4623406   , 4.46        , 3           , 50          , 0           , 0
-0.106470495, -0.0611979924, -9.801453   , -0.00338924769, 0.0057174773, 0.000421092933, 0.202035859 , -0.09599569 , 0.347377658 , 0.007958285 , -0.0107265515, 0.462345362 , 4.47        , 3           , 11          , 0.0063247215, 0.00632460834
-0.108671769, -0.0615470372, -9.809155   , 0.00194087392, -0.00177312747, -0.0013718484, 0.202035859 , -0.0960631  , 0.3475799   , 0.00797784  , -0.0107441749, 0.462331533 , 4.48        , 3           , 12          , 0.06731881  , 0
-0.104315311, -0.07382844 , -9.802934   , 0.002272598 , 0.003648511 , 0.0009984742, 0.2022381   , -0.0959282741, 0.347849548 , 0.008000457 , -0.0107077705, 0.4623418   , 4.49        , 3           , 50          , 0           , 0
-0.118897989, -0.0770867541, -9.781876   , 0.000244515075, 0.00193471357, 0.00267834752, 0.2022381   , -0.0960631  , 0.347714722 , 0.007981792 , -0.0106856516, 0.46236825  , 4.5         , 3           , 11          , 0.00646134373, 0.0064612166
-0.118318595, -0.0998431  , -9.763162   , -0.00432933634, -0.00115350657, 0.000601875945, 0.2022381   , -0.0960631  , 0.347512484 , 0.007938434 , -0.0106972344, 0.462373972 , 4.51        , 3           , 12          , 0.068410486 , 0
-0.100411385, -0.0785421357, -9.787143   , -0.000908902264, -0.000896483834, 5.42821981E-05, 0.2022381   , -0.0960631  , 0.347512484 , 0.007929341 , -0.010706204, 0.462374449 , 4.52        , 3           , 50          , 0           , 0
-0.122118264, -0.09496972 , -9.793856   , -0.000623089261, -0.0006153538, 0.000346333138, 0.202035859 , -0.0960631  , 0.347445071 , 0.007923074 , -0.0107123842, 0.462378025 , 4.53        , 3           , 11          , 0.00646134373, 0.0064612166
-0.123952113, -0.06404178 , -9.816552   , -0.000547189848, 0.005975967 , 0.000442324381, 0.201968446 , -0.09586086 , 0.347782135 , 0.007917549 , -0.0106526613, 0.462383032 , 4.54        , 3           , 12          , 0.068410486 , 0
-0.08260902 , -0.0578469038, -9.796678   , -0.0003116955, 0.00139292958, -0.000195066765, 0.2022381   , -0.09599569 , 0.3476473   , 0.007914454 , -0.0106387185, 0.462381124 , 4.55        , 3           , 50          , 0           , 0
-0.11441803 , -0.08205689 , -9.784602   , -5.94361336E-05, -0.0009102718, 0.000631750445, 0.202170685 , -0.0960631  , 0.3475799   , 0.00791379251, -0.0106478687, 0.462387323 , 4.56        , 3           , 11          , 0.00646134373, 0.0064612166
-0.123310246, -0.07334837 , -9.790456   , 0.00310599222, 0.00108191313, -0.00132333545, 0.202170685 , -0.0960631  , 0.3475799   , 0.007944991 , -0.0106369453, 0.4623742   , 4.57        , 3           , 12          , 0.068410486 , 0
-0.0914997756, -0.0961236  , -9.794943   , 0.000476997637, -0.00406330265, 1.69403029E-05, 0.202103272 , -0.0959282741, 0.347377658 , 0.007949763 , -0.0106775761, 0.462373972 , 4.58        , 3           , 50          , 0           , 0
-0.09066257 , -0.09400271 , -9.783167   , -0.00379509456, -0.00515603647, -0.00117011089, 0.201901034 , -0.0959282741, 0.3475799   , 0.007911942 , -0.0107290419, 0.4623618   , 4.59        , 3           , 11          , 0.00646134373, 0.0064612166
-0.100456893, -0.0657029748, -9.764863   , -0.00433201343, -0.00144224311, 0.00145626476, 0.202035859 , -0.09599569 , 0.3476473   , 0.007892642 , -0.0107227415, 0.462377071 , 4.6         , 3           , 12          , 0.06950541  , 0
-0.118784927, -0.0635595843, -9.781718   , 0.00253800023, 0.00193247455, 0.0009751406, 0.202170685 , -0.09599569 , 0.3476473   , 0.007917917 , -0.0107034929, 0.462386847 , 4.61        , 3           , 50          , 0           , 0
-0.100353725, -0.06866092 , -9.783415   , -3.54246E-05, -3.47752939E-05, -0.000500314753, 0.202103272 , -0.09599569 , 0.3475799   , 0.00791761652, -0.0107038012, 0.46238184  , 4.62        , 3           , 11          , 0.006492577 , 0.006492479
-0.117901146, -0.082733795, -9.80271    , 0.00053456286, -0.000603474735, -0.00164989114, 0.202103272 , -0.09599569 , 0.3475799   , 0.007923139 , -0.0107097067, 0.4623654   , 4.63        , 3           , 12          , 0.06950541  , 0
-0.103268772, -0.09344687 , -9.78282452 , 0.00257210759, 0.004235346 , -0.000136127215, 0.202170685 , -0.09599569 , 0.347377658 , 0.007948869 , -0.0106673418, 0.4623642   , 4.64        , 3           , 50          , 0           , 0
-0.0998915061, -0.08066508 , -9.799809   , -0.00375487143, -0.00171924464, -0.0002614661, 0.202035859 , -0.0959282741, 0.347714722 , 0.00791135  , -0.0106845126, 0.462361574 , 4.65        , 3           , 11          , 0.006492577 , 0.006492479
-0.111745112, -0.07989846 , -9.777777   , 0.00335063646, -0.00292756362, -0.00137998129, 0.202170685 , -0.09613051 , 0.347714722 , 0.007945007 , -0.0107136769, 0.4623475   , 4.66        , 3           , 12          , 0.06950541  , 0
-0.11404705 , -0.08930433 , -9.781972   , 0.002835929 , 0.00194750156, -0.00102629419, 0.202035859 , -0.0960631  , 0.3476473   , 0.007973474 , -0.010694121, 0.462337255 , 4.67        , 3           , 50          , 0           , 0
-0.115256518, -0.07127085 , -9.78042    , -0.005701413, 0.00315747131, 0.00151447428, 0.202035859 , -0.0960631  , 0.3476473   , 0.007916295 , -0.0106626675, 0.462352753 , 4.68        , 3           , 11          , 0.006492577 , 0.006492479
-0.111260444, -0.09854526 , -9.805542   , -0.000577350962, 0.00198217714, -0.00104685489, 0.202170685 , -0.09613051 , 0.347377658 , 0.00791063253, -0.0106427623, 0.4623425   , 4.69        , 3           , 12          , 0.06950541  , 0
-0.127415   , -0.0956503  , -9.810173   , 0.006018575 , 0.005346808 , -0.0006709597, 0.202103272 , -0.09579345 , 0.347714722 , 0.008033173 , -0.01060971 , 0.462337255 , 4.7         , 3           , 50          , 0           , 0
-0.118977867, -0.09634989 , -9.793842   , 0.0005850696, 0.00254103774, -0.00131757744, 0.202305511 , -0.09586086 , 0.3475799   , 0.008039162 , -0.0105841942, 0.462324381 , 4.71        , 3           , 11          , 0.00662165  , 0.006621547
-0.105508685, -0.0920745656, -9.782829   , -0.000875356549, -0.0005994443, -0.00108588953, 0.202035859 , -0.0959282741, 0.3476473   , 0.008030523 , -0.0105901016, 0.4623134   , 4.72        , 3           , 12          , 0.07060329  , 0
-0.09760097 , -0.0588129126, -9.778759   , 0.000277530227, 0.0005378734, -0.0013485055, 0.202035859 , -0.0959282741, 0.3476473   , 0.00803344  , -0.0105846142, 0.462300062 , 4.73        , 3           , 50          , 0           , 0
-0.122312911, -0.0763238445, -9.808097   , -0.00175259612, -0.003162309, -0.00198708335, 0.202170685 , -0.09599569 , 0.347512484 , 0.008016129 , -0.010616078, 0.462280035 , 4.74        , 3           , 11          , 0.00662165  , 0.006621547
-0.127197519, -0.06104186 , -9.799383   , 0.00221443735, -0.00435163965, -0.00169362593, 0.202170685 , -0.09579345 , 0.347782135 , 0.008038457 , -0.0106594572, 0.46226263  , 4.75        , 3           , 12          , 0.07060329  , 0
-0.105786718, -0.07444662 , -9.786242   , 0.000523189257, -0.00233848649, -0.0005300356, 0.202305511 , -0.0959282741, 0.347714722 , 0.008043746 , -0.010682798, 0.462257147 , 4.76        , 3           , 50          , 0           , 0
-0.112950131, -0.07476706 , -9.792635   , -0.0037511182, -0.00230538 , 0.0005889195, 0.202440336 , -0.09599569 , 0.347782135 , 0.008006174 , -0.0107058985, 0.462262869 , 4.77        , 3           , 11          , 0.00662165  , 0.006621547
-0.115345232, -0.078528896, -9.77644    , -0.00119390432, -0.0028994258, 2.3664983E-05, 0.202440336 , -0.0959282741, 0.3476473   , 0.007994235 , -0.0107348915, 0.462262869 , 4.78        , 3           , 12          , 0.07060329  , 0
-0.108544976, -0.08830924 , -9.795009   , -0.00111003185, 0.00454907259, 0.000418340875, 0.202440336 , -0.0959282741, 0.3476473   , 0.007983086 , -0.0106894374, 0.4622674   , 4.79        , 3           , 50          , 0           , 0
-0.117414892, -0.0702188  , -9.79262352 , -0.004554839, -0.0005687896, -0.00110787246, 0.201901034 , -0.09599569 , 0.3475799   , 0.00800965  , -0.0107223252, 0.462257862 , 4.8         , 3           , 11          , 0.006698314 , 0.00669821445
-0.108729735, -0.06475177 , -9.804676   , 0.003139879 , 0.00163046678, 0.000688761531, 0.202035859 , -0.0959282741, 0.347512484 , 0.008040973 , -0.0107060745, 0.462264776 , 4.81        , 3           , 12          , 0.07170381  , 0
-0.07877445 , -0.09026513 , -9.804695   , 0.00168879877, -0.0003688177, 0.00150947191, 0.202103272 , -0.09586086 , 0.347512484 , 0.008057699 , -0.0107098836, 0.4622798   , 4.82        , 3           , 50          , 0           , 0
-0.11171741 , -0.07807549 , -9.779563   , 0.00229152129, 0.00108133443, -0.00104170979, 0.2022381   , -0.09599569 , 0.3476473   , 0.008080724 , -0.0106989862, 0.462269545 , 4.83        , 3           , 11          , 0.006698314 , 0.00669821445
-0.147287652, -0.0831089  , -9.786272   , -0.00029650022, -0.0003409118, 0.000638986065, 0.2022381   , -0.09599569 , 0.3476473   , 0.008077691 , -0.010702447, 0.462275743 , 4.84        , 3           , 12          , 0.07170381  , 0
-0.124924891, -0.05924816 , -9.800244   , -0.00199955166, -0.0011653949, -0.00138696271, 0.2022381   , -0.09599569 , 0.347512484 , 0.008057847 , -0.0107139871, 0.462261915 , 4.85        , 3           , 50          , 0           , 0
-0.1012384  , -0.0570553355, -9.771545   , 0.00111965346, -0.00120997825, 6.27044355E-05, 0.2022381   , -0.09586086 , 0.3476473   , 0.008069037 , -0.0107260915, 0.4622624   , 4.86        , 3           , 11          , 0.006698314 , 0.00669821445
-0.08365304 , -0.06829699 , -9.788677   , 0.00199937331, 0.00107398606, 0.000101232887, 0.202035859 , -0.09579345 , 0.347849548 , 0.008089019 , -0.01071536 , 0.462263584 , 4.87        , 3           , 12          , 0.07170381  , 0
-0.08676845 , -0.07400067 , -9.800968   , -0.000343518972, -0.00491849938, -0.0002862825, 0.202305511 , -0.0959282741, 0.347782135 , 0.008085619 , -0.01076452 , 0.462260246 , 4.88        , 3           , 50          , 0           , 0
-0.112113677, -0.07086675 , -9.77858    , 0.00167229888, -0.00180171337, 0.00148860423, 0.202372923 , -0.09599569 , 0.347445071 , 0.008102183 , -0.0107826581, 0.462275028 , 4.89        , 3           , 11          , 0.006698314 , 0.00669821445
-0.131704316, -0.06189964 , -9.799886   , 0.00257106661, 0.0013554215, -0.000177366717, 0.202372923 , -0.09599569 , 0.347445071 , 0.008118178 , -0.0107768485, 0.462273121 , 4.9         , 3           , 12          , 0.07280668  , 0
-0.122022651, -0.06188337 , -9.767274   , 0.00170784688, 0.000504353 , -0.0001950275, 0.202440336 , -0.0959282741, 0.347512484 , 0.008135276 , -0.01077179 , 0.4622712   , 4.91        , 3           , 50          , 0           , 0
-0.107531533, -0.07256442 , -9.792109   , 0.00256969361, 0.00107140187, -0.00046770426, 0.202035859 , -0.0959282741, 0.347445071 , 0.008161021 , -0.0107610384, 0.462266684 , 4.92        , 3           , 11          , 0.006628691 , 0.0066285897
-0.108829618, -0.06401448 , -9.789311   , 0.0042779725, 0.00218502362, 0.00127625419, 0.202103272 , -0.0960631  , 0.3475799   , 0.008203662 , -0.0107392929, 0.462279558 , 4.93        , 3           , 12          , 0.07280668  , 0
-0.116846494, -0.0575779937, -9.79428    , 2.3753033E-05, 0.00280920486, 0.0004004084, 0.2022381   , -0.09599569 , 0.347445071 , 0.008203854 , -0.0107112378, 0.46228385  , 4.94        , 3           , 50          , 0           , 0
-0.1066827  , -0.0757673  , -9.788524   , 0.000823454 , -0.00235021021, -0.000528067059, 0.2022381   , -0.09599569 , 0.347445071 , 0.008212147 , -0.0107346931, 0.462278366 , 4.95        , 3           , 11          , 0.006628691 , 0.0066285897
-0.100473724, -0.08264384 , -9.783127   , -3.64656153E-05, -0.00291469949, -0.0005415543, 0.201968446 , -0.09599569 , 0.347377658 , 0.008211845 , -0.0107637951, 0.462272644 , 4.96        , 3           , 12          , 0.07280668  , 0
-0.117494039, -0.07968782 , -9.792733   , -0.0009126202, -0.004065145, 0.0008674315, 0.202035859 , -0.09599569 , 0.3475799   , 0.008202627 , -0.0108045172, 0.462281    , 4.97        , 3           , 50          , 0           , 0
-0.0951760858, -0.09976721 , -9.788695   , -0.00206769933, -0.00605196226, -2.71288827E-05, 0.202035859 , -0.09586086 , 0.347512484 , 0.008181958 , -0.0108650336, 0.462280273 , 4.98        , 3           , 11          , 0.006628691 , 0.0066285897
-0.0880659744, -0.09463198 , -9.768696   , 0.0008314269, -0.00149303209, -0.0002293824, 0.2022381   , -0.09613051 , 0.3476473   , 0.008190299 , -0.0108799441, 0.4622779   , 4.99        , 3           , 12          , 0.07280668  , 0
-0.09940692 , -0.0601402745, -9.779695   , 0.00339917978, -9.794318E-05, 0.0015239293, 0.2022381   , -0.09613051 , 0.3476473   , 0.008235889 , -0.01086639 , 0.4622934   , 5           , 3           , 50          , 0           , 0
-0.0853616744, -0.06992043 , -9.80406952 , 0.00200752215, 0.00108585716, -0.0010434197, 0.202170685 , -0.0959282741, 0.3475799   , 0.008256078 , -0.0108554438, 0.462283134 , 5.01        , 3           , 11          , 0.00675856462, 0.00675844168
-0.102615356, -0.08779799 , -9.805338   , 0.00114126736, 0.0007951493, 0.000378086726, 0.202170685 , -0.0960631  , 0.3475799   , 0.008267447 , -0.0108475257, 0.462286949 , 5.02        , 3           , 12          , 0.07391167  , 0
-0.139661461, -0.08054754 , -9.778945   , 0.00316835847, 0.005055693 , 0.00245583151, 0.202103272 , -0.09579345 , 0.3476473   , 0.008298861 , -0.0107971719, 0.462311983 , 5.03        , 3           , 50          , 0           , 0
-0.104559079, -0.07687258 , -9.771353   , 0.0037050813, 0.0007742618, -0.000178820745, 0.202372923 , -0.0959282741, 0.3475799   , 0.008335931 , -0.0107894177, 0.4623103   , 5.04        , 3           , 11          , 0.00675856462, 0.00675844168
-0.09044157 , -0.0660659149, -9.781034   , 0.00168345892, -0.000374863157, 0.00236796727, 0.202372923 , -0.09599569 , 0.347377658 , 0.008352512 , -0.0107933618, 0.462333918 , 5.05        , 3           , 12          , 0.07391167  , 0
-0.09007461 , -0.08088681 , -9.787075   , -0.00253802561, 0.00226816954, 9.051625E-05, 0.202372923 , -0.09599569 , 0.347377658 , 0.008327119 , -0.0107706888, 0.4623351   , 5.06        , 3           , 50          , 0           , 0
-0.08272451 , -0.0731583461, -9.798662   , -0.0008368777, 0.00111475342, -0.00106055359, 0.202170685 , -0.0960631  , 0.3475799   , 0.008318863 , -0.0107594552, 0.462324619 , 5.07        , 3           , 11          , 0.00675856462, 0.00675844168
-0.112116121, -0.07265101 , -9.780407   , 0.00198331429, -0.000357276585, 8.03687653E-05, 0.202103272 , -0.0959282741, 0.3476473   , 0.008338688 , -0.0107630342, 0.462325335 , 5.08        , 3           , 12          , 0.07391167  , 0
