Acc X       , Acc Y       , Acc Z       , Gyro X      , Gyro Y      , Gyro Z      , Magn X      , Magn Y      , Magn Z      , Euler X     , Euler Y     , Euler Z     , Time        , Status      , LowRate X   , LowRate Y   , LowRate Z    
0.00476027839, 0.06745077  , -9.775457   , 0.00242114114, 0.0008024109, 9.168298E-05, 0.0880409852, 0.434407443 , 0.308547944 , -0.004479984, -0.00221397355, -1.3729564  , 0           , 3           , 11          , 0.0346410163, 0.0346410163
-0.00524234027, 0.0540340319, -9.777962   , 0.002846428 , 0.000514056941, -0.000196084424, 0.0880409852, 0.434272617 , 0.308952421 , -0.004451514, -0.00220884127, -1.37295818 , 0.01        , 3           , 12          , 0.0346410163, 0
0.00905461051, 0.0466166846, -9.770688   , -0.0005751014, -0.000167715509, -0.000227079, 0.0881084   , 0.434070379 , 0.308480531 , -0.00445726141, -0.00221052882, -1.37296057 , 0.02        , 3           , 50          , 0           , 0
-0.0209898371, 0.0484014079, -9.786755   , -0.00256067724, 9.20408638E-07, -0.0008093141, 0.0885128751, 0.4336659   , 0.3094917   , -0.00448285043, -0.002210556, -1.37296867 , 0.03        , 3           , 11          , 0.0346410163, 0.0346410163
-0.026942974, 0.0260425732, -9.799714   , -0.0005287577, 0.003280193 , -0.00117857067, 0.0885128751, 0.4336659   , 0.3094917   , -0.004488112, -0.00217780727, -1.37298059 , 0.04        , 3           , 12          , 0.0346410163, 0
-0.02253459 , 0.0240787845, -9.788404   , -0.0005353576, 0.00270703458, -0.00118691777, 0.08783875  , 0.434272617 , 0.308143467 , -0.00449343957, -0.00215079053, -1.37299263 , 0.05        , 3           , 50          , 0           , 0
-0.0180806033, 0.0324229226, -9.771103   , -0.000394378, 0.00284503982, -0.0007547283, 0.08844546  , 0.43386814  , 0.30868277  , -0.004497367, -0.00212237448, -1.37300026 , 0.06        , 3           , 11          , 0.0346410163, 0.0346410163
-0.02871299 , 0.0510331653, -9.773696   , 0.00277089467, 0.006389095 , 3.16983242E-05, 0.0882432237, 0.4342052   , 0.30915466  , -0.00446965825, -0.0020584825, -1.37300014 , 0.07        , 3           , 12          , 0.0346410163, 0
-0.0188882053, 0.045036763 , -9.769158   , 0.00304378453, 0.00538317766, 1.88043268E-05, 0.08797357  , 0.434070379 , 0.308143467 , -0.0044392203, -0.002004651, -1.37300014 , 0.08        , 3           , 50          , 0           , 0
-0.0374769  , 0.0409941673, -9.755824   , 0.00156850764, 0.000953089737, 0.0002317116, 0.08797357  , 0.434070379 , 0.308143467 , -0.00442354 , -0.00199510972, -1.37299788 , 0.09        , 3           , 11          , 0.0346410163, 0.0346410163
-0.0229551382, 0.0365919322, -9.777423   , 0.00253244443, -0.00192514586, 5.2874293E-05, 0.0885128751, 0.433800727 , 0.3095591   , -0.00437175 , -0.00223491783, -1.37299728 , 0.1         , 3           , 12          , 0.0346410163, 0
-0.0183945429, 0.0237329174, -9.801469   , 0.00195064186, -0.003206413, -0.0002554974, 0.0880409852, 0.43434003  , 0.30868277  , -0.00435223849, -0.00226699281, -1.37299979 , 0.11        , 3           , 50          , 0           , 0
0.000459253759, 0.03995178  , -9.773104   , -0.00147501857, -0.00375257456, 0.000574086967, 0.0881084   , 0.433935553 , 0.308480531 , -0.004367002, -0.00230449345, -1.37299383 , 0.12        , 3           , 11          , 0.0346410163, 0.0346410163
-0.0314496942, 0.0483319   , -9.771945   , 0.000277544139, 0.000382926373, 0.000931047543, 0.08837805  , 0.4341378   , 0.309087247 , -0.004364248, -0.002300623, -1.37298453 , 0.13        , 3           , 12          , 0.0346410163, 0
-0.0100048017, 0.022960756 , -9.778365   , 0.00413137  , 0.00163224293, 0.00111604133, 0.08783875  , 0.4342052   , 0.307873815 , -0.00432295958, -0.00228425232, -1.37297344 , 0.14        , 3           , 50          , 0           , 0
-0.0008038515, 0.0441039428, -9.780746   , 0.001982811 , 8.156858E-05, 0.0006509904, 0.08783875  , 0.4342052   , 0.307873815 , -0.00430314662, -0.00228340854, -1.37296689 , 0.15        , 3           , 11          , 0.0346410163, 0.0346410163
-0.03007846 , 0.04256481  , -9.781937   , -0.000408661959, 0.00197529374, -5.18555353E-05, 0.08831064  , 0.433935553 , 0.309019834 , -0.004307232, -0.002263658, -1.3729676  , 0.16        , 3           , 12          , 0.0346410163, 0
-0.0265996065, 0.0401192419, -9.767027   , -0.0008560852, 0.000258873479, 6.36151744E-05, 0.08817581  , 0.434272617 , 0.308885    , -0.004315793, -0.00226106658, -1.372967   , 0.17        , 3           , 50          , 0           , 0
-0.03193762 , 0.0438267663, -9.772002   , -0.00375617528, -0.004301336, 0.0004089507, 0.08817581  , 0.43386814  , 0.308413118 , -0.004353366, -0.00230406178, -1.37296259 , 0.18        , 3           , 11          , 0.0346410163, 0.0346410163
-0.0147472154, 0.0384604745, -9.789973   , -0.004762988, -0.00543497875, 0.000100095684, 0.08831064  , 0.4337333   , 0.309222043 , -0.00440099835, -0.00235840678, -1.37296128 , 0.19        , 3           , 12          , 0.0346410163, 0
-0.0276734475, 0.0193854216, -9.767277   , 0.0004142592, -0.00159833371, -0.000814259634, 0.08831064  , 0.4337333   , 0.309222043 , -0.00422398746, -0.002062695, -1.37296975 , 0.2         , 3           , 50          , 0           , 0
-0.02888817 , 0.0289533   , -9.775307   , 0.00158955925, 0.001403028 , -0.00119282992, 0.0881084   , 0.434070379 , 0.307873815 , -0.004208067, -0.00204871525, -1.37298167 , 0.21        , 3           , 11          , 0.03252475  , 0.03252475
-0.0300192665, 0.046661675 , -9.785502   , 0.00117183593, 0.00226582  , -0.00103979732, 0.08817581  , 0.433935553 , 0.309087247 , -0.004196327, -0.002026101, -1.37299216 , 0.22        , 3           , 12          , 0.0346698426, 0
-0.0428337  , 0.07207447  , -9.78984451 , 0.00317418855, 0.00338935  , -0.00072494545, 0.0881084   , 0.434272617 , 0.308952421 , -0.00416457048, -0.00199223845, -1.37299967 , 0.23        , 3           , 50          , 0           , 0
-0.0180154722, 0.0316323936, -9.781501   , 0.00430162763, 0.003222984 , 0.000567559269, 0.0882432237, 0.434002966 , 0.308076054 , -0.00412156526, -0.00195998466, -1.37299407 , 0.24        , 3           , 11          , 0.03252475  , 0.03252475
-0.0043931026, 0.0303556137, -9.799458   , 0.00230078073, 0.00280694384, 0.00126471522, 0.0882432237, 0.434002966 , 0.308076054 , -0.004098582, -0.00193186407, -1.37298155 , 0.25        , 3           , 12          , 0.0346698426, 0
-0.0196059942, 0.0310801379, -9.812689   , 0.00116921053, 0.00310892076, 0.0008327892, 0.0885128751, 0.433800727 , 0.309222043 , -0.004086905, -0.00190074136, -1.37297344 , 0.26        , 3           , 50          , 0           , 0
-0.0120446458, 0.0415545851, -9.7863     , -0.00169237575, 0.00156291144, 0.0006496188, 0.08790616  , 0.434272617 , 0.3083457   , -0.00410384126, -0.0018850856, -1.372967   , 0.27        , 3           , 11          , 0.03252475  , 0.03252475
-0.01801426 , 0.0325245261, -9.780587   , -0.00111166853, 0.0024194296, 0.00037940222, 0.0882432237, 0.43386814  , 0.308547944 , -0.004114965, -0.00186087575, -1.37296319 , 0.28        , 3           , 12          , 0.0346698426, 0
-0.0294946376, 0.0503327474, -9.791779   , 0.004580985 , 0.002366756 , -0.000158657916, 0.0880409852, 0.434002966 , 0.309222043 , -0.00406915136, -0.0018372148, -1.37296486 , 0.29        , 3           , 50          , 0           , 0
-0.02278711 , 0.06266704  , -9.769894   , 0.004253869 , 0.000765887846, 0.000245863252, 0.0880409852, 0.434002966 , 0.308008641 , -0.00436778646, -0.00220377953, -1.37296152 , 0.3         , 3           , 11          , 0.0259639267, 0.0259639267
-0.0261223074, 0.0299186837, -9.783401   , 0.00154082594, -6.767796E-05, 0.000360147416, 0.0880409852, 0.434002966 , 0.308008641 , -0.004352386, -0.00220444077, -1.37295806 , 0.31        , 3           , 12          , 0.0347559527, 0
-0.0170605164, 0.041500926 , -9.777312   , -0.0001735099, -0.00104824826, -0.000237068321, 0.08837805  , 0.433800727 , 0.309289455 , -0.004354117, -0.00221493351, -1.37296033 , 0.32        , 3           , 50          , 0           , 0
-0.0227535535, 0.0364555456, -9.806782   , -0.000865219452, 0.000395710929, -0.0006497302, 0.08797357  , 0.43434003  , 0.308615357 , -0.00436275452, -0.00221100543, -1.37296689 , 0.33        , 3           , 11          , 0.0259639267, 0.0259639267
-0.0249174871, 0.0472920462, -9.806226   , -0.000596183469, -0.00061532465, -9.029617E-05, 0.08797357  , 0.433935553 , 0.3083457   , -0.00436871359, -0.00221716217, -1.37296772 , 0.34        , 3           , 12          , 0.0347559527, 0
-0.0333055258, 0.03357414  , -9.78207    , 0.0003670314, -0.00236155023, 0.00175072567, 0.08858029  , 0.433935553 , 0.309087247 , -0.004365083, -0.002240701, -1.3729502  , 0.35        , 3           , 50          , 0           , 0
-0.0272422023, 0.0512052737, -9.790844   , 0.00437325425, -0.0003946712, 0.00166084594, 0.08858029  , 0.433935553 , 0.309087247 , -0.00432138843, -0.00224457518, -1.37293351 , 0.36        , 3           , 11          , 0.0259639267, 0.0259639267
-0.025498027, 0.03730345  , -9.79957    , 0.006110425 , 0.00174501329, 0.0008439358, 0.0880409852, 0.4342052   , 0.308076054 , -0.004260303, -0.00222708937, -1.37292516 , 0.37        , 3           , 12          , 0.0347559527, 0
-0.0277270824, 0.0489304736, -9.788616   , 0.00169940141, 0.00192797289, 0.001391793 , 0.08817581  , 0.4336659   , 0.309087247 , -0.00424333941, -0.00220775069, -1.37291133 , 0.38        , 3           , 50          , 0           , 0
-0.0250689741, 0.0564078279, -9.77314949 , 0.00155636249, 0.001363938 , 0.0005240972, 0.08831064  , 0.4341378   , 0.308885    , -0.00422778726, -0.00219408935, -1.37290609 , 0.39        , 3           , 11          , 0.0259639267, 0.0259639267
0.0103155077, 0.03622925  , -9.770346   , -0.000161745178, 0.000533740153, -0.00121567352, 0.08817581  , 0.434070379 , 0.308413118 , -0.004356143, -0.002219263, -1.372918   , 0.4         , 3           , 12          , 0.03489849  , 0
-0.05110151 , 0.0425159037, -9.802456   , -0.003439682, 0.000134542584, -0.000955474, 0.0885128751, 0.4337333   , 0.309222043 , -0.00439051865, -0.00221795961, -1.37292755 , 0.41        , 3           , 50          , 0           , 0
-0.0382032357, 0.0461652   , -9.774742   , -0.00160926045, -0.000332025316, 0.00105255074, 0.0885128751, 0.4337333   , 0.309222043 , -0.00440663425, -0.00222123368, -1.37291718 , 0.42        , 3           , 11          , 0.0215385277, 0.0215385277
-0.0365597121, 0.0232065581, -9.779962   , -4.786356E-05, -0.0007752275, 0.0007695502, 0.0880409852, 0.434070379 , 0.308008641 , -0.00440713 , -0.00222895155, -1.37290943 , 0.43        , 3           , 12          , 0.03489849  , 0
-0.0186388083, 0.06144356  , -9.785227   , 0.0008094545, -0.0013429774, -0.0008075587, 0.08837805  , 0.4336659   , 0.308480531 , -0.00439901743, -0.00224241661, -1.37291741 , 0.44        , 3           , 50          , 0           , 0
-0.02967499 , 0.0429343842, -9.774701   , 0.002221887 , -0.00179369317, -8.984207E-05, 0.08817581  , 0.434272617 , 0.308885    , -0.00437679654, -0.00226035737, -1.37291837 , 0.45        , 3           , 11          , 0.0215385277, 0.0215385277
-0.0125488257, 0.045927234 , -9.773154   , 0.00138560927, 0.0003540814, 0.00108097517, 0.0880409852, 0.4341378   , 0.307941228 , -0.00436296547, -0.00225677 , -1.37290752 , 0.46        , 3           , 12          , 0.03489849  , 0
-0.029287979, 0.03126013  , -9.779801   , 0.00111010578, 0.0012154287, 0.00123486458, 0.0880409852, 0.4341378   , 0.307941228 , -0.004351891, -0.00224456121, -1.37289524 , 0.47        , 3           , 50          , 0           , 0
-0.0187689271, 0.0354265124, -9.798176   , 0.00208020932, -0.00108603842, 0.00106439111, 0.0885128751, 0.433800727 , 0.309222043 , -0.004331113, -0.0022553755, -1.37288451 , 0.48        , 3           , 11          , 0.0215385277, 0.0215385277
-0.0219214689, 0.03945888  , -9.793189   , 0.00253615947, 0.00120609987, 0.000671103538, 0.08783875  , 0.434407443 , 0.308480531 , -0.00430576643, -0.0022432853, -1.37287784 , 0.49        , 3           , 12          , 0.03489849  , 0
-0.0169549938, 0.054126285 , -9.777166   , 0.00372868055, 0.00492154248, 0.0005891087, 0.0881084   , 0.4336659   , 0.308547944 , -0.00419303356, -0.00219271774, -1.37287223 , 0.5         , 3           , 50          , 0           , 0
-0.0107049514, 0.04731266  , -9.777639   , 0.001849567 , 0.00264257286, 0.0011169113, 0.0885128751, 0.434070379 , 0.308885    , -0.00417456171, -0.00216624537, -1.37286127 , 0.51        , 3           , 11          , 0.0208081435, 0.0208081529
-0.00860554 , 0.03771275  , -9.767342   , -4.576941E-05, -0.00121002272, 0.0013355955, 0.0880409852, 0.4341378   , 0.307739    , -0.004175049, -0.00217828969, -1.3728478  , 0.52        , 3           , 12          , 0.0350963473, 0
-0.0216033459, 0.0281242523, -9.787897   , -2.96673534E-05, -0.00104753673, -0.0008085476, 0.0880409852, 0.4341378   , 0.307739    , -0.00417532772, -0.00218879874, -1.3728559  , 0.53        , 3           , 50          , 0           , 0
-0.00464440323, 0.0264096577, -9.767887   , -0.00157015619, 0.00055222  , -0.00165350875, 0.08837805  , 0.433800727 , 0.309019834 , -0.004190993, -0.00218334538, -1.37287235 , 0.54        , 3           , 11          , 0.0208081435, 0.0208081529
-0.00679070875, 0.0386085548, -9.768217   , -0.001439221, 0.000394688017, -0.000223919036, 0.08797357  , 0.434272617 , 0.308615357 , -0.00420538 , -0.00217940821, -1.37287462 , 0.55        , 3           , 12          , 0.0350963473, 0
-0.04542271 , 0.04175274  , -9.778023   , -0.000750546169, -0.0004889104, 0.00162791007, 0.08817581  , 0.43386814  , 0.3083457   , -0.00421292055, -0.00218422827, -1.37285829 , 0.56        , 3           , 50          , 0           , 0
-0.02053145 , 0.04974537  , -9.786283   , -4.66002348E-05, -0.0007878327, 0.002200348 , 0.08831064  , 0.43386814  , 0.309289455 , -0.004213435, -0.002192014, -1.37283623 , 0.57        , 3           , 11          , 0.0208081435, 0.0208081529
-0.0187961347, 0.0362750962, -9.793197   , -0.000297065359, 0.00109445839, 0.000365696382, 0.08831064  , 0.43386814  , 0.309289455 , -0.00421641441, -0.00218105386, -1.37283254 , 0.58        , 3           , 12          , 0.0350963473, 0
-0.00516922772, 0.0452433452, -9.799293   , 0.000420634635, 0.0016603925, 0.000378327 , 0.08797357  , 0.434272617 , 0.307671577 , -0.00421221647, -0.00216443441, -1.37282884 , 0.59        , 3           , 50          , 0           , 0
-0.0237080883, 0.0430576168, -9.790906   , 0.00118162553, 5.48278767E-05, 0.000929962553, 0.0882432237, 0.433800727 , 0.308750182 , -0.00454195449, -0.000782529765, -1.3728193  , 0.6         , 3           , 11          , 0.0179664921, 0.0179665051
-0.0246678777, 0.04119409  , -9.784613   , 0.001747615 , 4.52093E-05 , 0.0013626354, 0.0881084   , 0.43434003  , 0.3088176   , -0.0045244894, -0.000782016, -1.37280571 , 0.61        , 3           , 12          , 0.035348177 , 0
-0.032446   , 0.0312779024, -9.778927   , 0.00261771167, 0.00132870616, 0.00110039255, 0.0881084   , 0.434002966 , 0.308008641 , -0.0044983197, -0.000768679, -1.37279475 , 0.62        , 3           , 50          , 0           , 0
-0.0264435336, 0.05282202  , -9.774106   , 0.0023801697, 0.004498044 , -0.000429314066, 0.08837805  , 0.4336659   , 0.309356868 , -0.004474515, -0.0007237185, -1.37279928 , 0.63        , 3           , 11          , 0.0179664921, 0.0179665051
-0.04013235 , 0.07427644  , -9.787084   , 0.00212047971, 0.006650277 , -0.000399725919, 0.08837805  , 0.4336659   , 0.309356868 , -0.00445330748, -0.0006572343, -1.37280345 , 0.64        , 3           , 12          , 0.035348177 , 0
0.00739808753, 0.03928633  , -9.8006     , 0.000106986481, 0.00480646035, -0.000295765785, 0.08797357  , 0.434272617 , 0.308143467 , -0.004452236, -0.00060918316, -1.37280667 , 0.65        , 3           , 50          , 0           , 0
-0.0113687515, 0.0340806246, -9.762891   , -0.00260908 , 0.003545585 , -0.000473905966, 0.08817581  , 0.4335985   , 0.308413118 , -0.00447832327, -0.0005737489, -1.37281156 , 0.66        , 3           , 11          , 0.0179664921, 0.0179665051
-0.0215571988, 0.05267729  , -9.764577   , -0.0023309628, 0.00282880734, -0.0007687903, 0.08817581  , 0.434070379 , 0.308885    , -0.00450162869, -0.0005454958, -1.3728193  , 0.67        , 3           , 12          , 0.035348177 , 0
-0.04490315 , 0.05787981  , -9.768345   , -0.0003616096, 0.00108654529, -0.0004956738, 0.08770392  , 0.434070379 , 0.307873815 , -0.004505242, -0.0005346525, -1.37282419 , 0.68        , 3           , 50          , 0           , 0
-0.0417844541, 0.03599025  , -9.790251   , -0.00107930927, 0.0005206111, -0.0005083043, 0.08770392  , 0.434070379 , 0.307873815 , -0.00451603252, -0.000529469457, -1.37282932 , 0.69        , 3           , 11          , 0.0179664921, 0.0179665051
-0.03422285 , 0.0166411176, -9.800342   , -0.00162071886, 0.00189932657, -0.000204966054, 0.08831064  , 0.4336659   , 0.30915466  , -0.00450646738, -0.0006251898, -1.37283134 , 0.7         , 3           , 12          , 0.0356524251, 0
-0.0420839265, 0.0286578182, -9.8210535  , 0.00151361257, 0.00300361938, 0.000975231349, 0.08790616  , 0.43434003  , 0.308413118 , -0.004491337, -0.000595110061, -1.37282181 , 0.71        , 3           , 50          , 0           , 0
-0.0169504359, 0.038998723 , -9.796311   , 0.00209212746, 0.00301063759, -0.000452161883, 0.08837805  , 0.4336659   , 0.3082783   , -0.004470413, -0.0005650238, -1.37282646 , 0.72        , 3           , 11          , 0.00722824968, 0.00722823059
-0.0197807029, 0.03704442  , -9.780099   , -0.0006123886, 0.00275278953, -0.0006156946, 0.08837805  , 0.43386814  , 0.308952421 , -0.00447653374, -0.000537523767, -1.37283254 , 0.73        , 3           , 12          , 0.0356524251, 0
-0.0191425346, 0.05691423  , -9.783026   , -0.002618463, 0.0020476107, 0.000363451778, 0.08837805  , 0.43386814  , 0.308952421 , -0.00450272067, -0.0005170314, -1.372829   , 0.74        , 3           , 50          , 0           , 0
-0.0251606368, 0.0446939655, -9.774188   , -0.00261722249, 0.00190816051, -6.788102E-05, 0.0877713338, 0.4341378   , 0.307739    , -0.00452889269, -0.000497953151, -1.37282968 , 0.75        , 3           , 11          , 0.00722824968, 0.00722823059
-0.0174777526, 0.06336696  , -9.755382   , 8.881125E-05, 0.001885828 , -0.0006239318, 0.08831064  , 0.433800727 , 0.309019834 , -0.00452800142, -0.000479123351, -1.372836   , 0.76        , 3           , 12          , 0.0356524251, 0
-0.03269545 , 0.0467239134, -9.78914    , -0.00021102083, -0.000107098276, -0.001799516, 0.08790616  , 0.434272617 , 0.3088176   , -0.004530103, -0.000480275863, -1.372854   , 0.77        , 3           , 50          , 0           , 0
-0.010677699, 0.0580376126, -9.76848    , -0.0009383553, -0.0006858301, -0.000381326448, 0.0880409852, 0.43386814  , 0.308143467 , -0.00453948462, -0.000487151352, -1.37285781 , 0.78        , 3           , 11          , 0.00722824968, 0.00722823059
-0.00128641073, 0.04583891  , -9.773956   , 0.00347319874, 0.0008250898, 0.00195749756, 0.0886477   , 0.4337333   , 0.309222043 , -0.004504762, -0.0004788117, -1.37283826 , 0.79        , 3           , 12          , 0.0356524251, 0
-0.0274635125, 0.0415185131, -9.770632   , 0.00233535538, 0.00055947114, 0.00123107689, 0.0886477   , 0.4337333   , 0.309222043 , -0.00448361365, -0.000469036546, -1.372826   , 0.8         , 3           , 50          , 0           , 0
-0.0119373463, 0.0439445972, -9.798918   , -0.00234593335, 0.000905247 , -8.07586548E-05, 0.0880409852, 0.434407443 , 0.307873815 , -0.00450707227, -0.000459987816, -1.37282658 , 0.81        , 3           , 11          , 0.00737687526, 0.00737683941
-0.029483417, 0.028538378 , -9.820036   , -0.00147157349, 0.00247660279, -0.000481910043, 0.08831064  , 0.4335985   , 0.308615357 , -0.0045217867, -0.000435244059, -1.37283158 , 0.82        , 3           , 12          , 0.0360073559, 0
-0.0290723778, 0.0413832925, -9.798655   , -0.00207373 , -0.000242679293, -0.0002388214, 0.0881084   , 0.4342052   , 0.308885    , -0.004542522, -0.000437681563, -1.372834   , 0.83        , 3           , 50          , 0           , 0
-0.03170281 , 0.0611014962, -9.784899   , -0.00249199616, -8.6097134E-05, -0.00124087872, 0.08831064  , 0.433800727 , 0.308076054 , -0.00456743641, -0.000438599149, -1.37284636 , 0.84        , 3           , 11          , 0.00737687526, 0.00737683941
-0.0288853459, 0.03563463  , -9.767552   , -0.001054946, 0.00118906086, -0.00121353089, 0.08831064  , 0.433800727 , 0.308076054 , -0.004577981, -0.000426764367, -1.37285852 , 0.85        , 3           , 12          , 0.0360073559, 0
-0.0143492324, 0.03481543  , -9.78685    , -0.00161626248, 0.00176927831, -0.00135169248, 0.08817581  , 0.4335985   , 0.309289455 , -0.004594138, -0.000409133732, -1.37287211 , 0.86        , 3           , 50          , 0           , 0
-0.0228912272, 0.0349092744, -9.788734   , -0.0020403096, 0.00191818189, -0.001495258, 0.08790616  , 0.4342052   , 0.308008641 , -0.004614535, -0.000390020665, -1.37288713 , 0.87        , 3           , 11          , 0.00737687526, 0.00737683941
-0.026841335, 0.04044252  , -9.796837   , -0.000363513565, -0.00011416812, -0.0005126183, 0.0881084   , 0.433800727 , 0.308480531 , -0.00461816741, -0.000391185982, -1.37289214 , 0.88        , 3           , 12          , 0.0360073559, 0
-0.0508256331, 0.0417997837, -9.778071   , 0.000337542471, -0.00041692963, 0.0004890657, 0.0885128751, 0.43386814  , 0.308885    , -0.0046147937, -0.000395332463, -1.37288725 , 0.89        , 3           , 50          , 0           , 0
-0.0435303934, 0.03475483  , -9.799766   , -0.000368015782, -0.000336307, 0.000629638729, 0.08797357  , 0.434272617 , 0.307739    , -0.004612855, -0.000478085625, -1.37288094 , 0.9         , 3           , 11          , 0.00780750671, 0.00780746
-0.0182851  , 0.046157226 , -9.789916   , -0.0006063887, 0.003255221 , -3.53154828E-05, 0.08797357  , 0.434272617 , 0.307739    , -0.00461891852, -0.000445535436, -1.37288141 , 0.91        , 3           , 12          , 0.03641109  , 0
-0.02373857 , 0.0461268574, -9.782741   , -0.00160784228, 0.00283418619, 9.550935E-05, 0.08871511  , 0.4335985   , 0.308952421 , -0.00463499734, -0.0004171892, -1.37288058 , 0.92        , 3           , 50          , 0           , 0
-0.031482894, 0.04249432  , -9.774272   , -0.00249512563, -2.42163351E-05, 0.000191715822, 0.0881084   , 0.43434003  , 0.308480531 , -0.00465995 , -0.00041742227, -1.37287855 , 0.93        , 3           , 11          , 0.00780750671, 0.00780746
-0.00634289673, 0.036820367 , -9.77004051 , -0.00106357946, 0.00110253319, 0.000789305 , 0.08831064  , 0.43386814  , 0.3082783   , -0.004670588, -0.000406360021, -1.3728708  , 0.94        , 3           , 12          , 0.03641109  , 0
-0.008919325, 0.038370803 , -9.786307   , 0.002513924 , 0.00264771725, 0.00026134876, 0.0885128751, 0.433800727 , 0.309087247 , -0.00464544958, -0.000379870879, -1.3728683  , 0.95        , 3           , 50          , 0           , 0
-0.0309806522, 0.0390089639, -9.786051   , 0.00321126985, 0.00177563669, 0.0008254397, 0.0885128751, 0.433800727 , 0.309087247 , -0.00461334037, -0.000362076331, -1.37286    , 0.96        , 3           , 11          , 0.00780750671, 0.00780746
-0.0260556843, 0.0371428542, -9.784221   , 0.00207886985, 0.002499804 , 0.00125826593, 0.0880409852, 0.434070379 , 0.307739    , -0.004592556, -0.00033702096, -1.37284756 , 0.97        , 3           , 12          , 0.03641109  , 0
-0.0235523563, 0.0190105271, -9.777632   , 0.00250471057, 0.00192998978, 0.000393997034, 0.08831064  , 0.43386814  , 0.30868277  , -0.00456751 , -0.000317703234, -1.37284374 , 0.98        , 3           , 50          , 0           , 0
-0.0117975269, 0.02209881  , -9.78065    , 0.00245534373, -0.00194522762, 0.00105306425, 0.08817581  , 0.4341378   , 0.3088176   , -0.00454296032, -0.000337107573, -1.37283313 , 0.99        , 3           , 11          , 0.00780750671, 0.00780746
-0.0355848446, 0.07030006  , -9.79838    , 0.00108083326, -0.00166438648, 0.00133473193, 0.08797357  , 0.43386814  , 0.3078064   , -0.0044821375, -0.000372728566, -1.37281954 , 1           , 3           , 12          , 0.0368616357, 0
-0.0291432124, 0.0426102   , -9.786896   , 0.0009808382, 0.000932907453, -0.0004886291, 0.08871511  , 0.4337333   , 0.309087247 , -0.004472327, -0.0003634214, -1.37282443 , 1.01        , 3           , 50          , 0           , 0
0.00149814039, 0.0397107676, -9.793424   , -0.0005639145, 0.00224480545, -0.00119468186, 0.08871511  , 0.4337333   , 0.309087247 , -0.004477962, -0.0003410268, -1.37283647 , 1.02        , 3           , 11          , 0.008393749 , 0.008393692
0.0135536222, 0.0394500867, -9.778861   , -0.00341574522, 0.00212273351, -0.000355410564, 0.08817581  , 0.434272617 , 0.307873815 , -0.00451211771, -0.000319815939, -1.37284017 , 1.03        , 3           , 12          , 0.0368616357, 0
-0.0160621554, 0.0554421246, -9.774431   , -0.00198887242, 0.00267888443, -5.2332518E-05, 0.08858029  , 0.4337333   , 0.308413118 , -0.00453200657, -0.000293029472, -1.37284088 , 1.04        , 3           , 50          , 0           , 0
-0.0281531233, 0.05742902  , -9.781748   , -0.000747805461, -0.0006310591, 5.046411E-05, 0.0882432237, 0.434002966 , 0.3088176   , -0.00453948462, -0.000299338019, -1.3728404  , 1.05        , 3           , 11          , 0.008393749 , 0.008393692
-0.053682033, 0.0502919219, -9.810521   , -0.000188548627, -0.00163730583, -0.0002468805, 0.0882432237, 0.4341378   , 0.307739    , -0.00454136962, -0.0003157223, -1.37284279 , 1.06        , 3           , 12          , 0.0368616357, 0
-0.03496449 , 0.0244595259, -9.813809   , 0.002121067 , 0.00163011835, 0.000387150358, 0.0882432237, 0.4341378   , 0.307739    , -0.00452016061, -0.000299403677, -1.372839   , 1.07        , 3           , 50          , 0           , 0
-0.0153736649, 0.0364139937, -9.766967   , 0.00226163724, 0.00148538384, 0.0003859203, 0.08817581  , 0.4337333   , 0.30915466  , -0.004497545, -0.000284532085, -1.37283516 , 1.08        , 3           , 11          , 0.008393749 , 0.008393692
-0.016890211, 0.06001226  , -9.779357   , 0.000403431157, 0.000362968829, -0.000214238942, 0.08790616  , 0.43434003  , 0.3083457   , -0.00449351035, -0.000280912034, -1.37283719 , 1.09        , 3           , 12          , 0.0368616357, 0
-0.0213857647, 0.048933655 , -9.793979   , 7.79694456E-05, 0.000187050115, 6.799396E-05, 0.08817581  , 0.4337333   , 0.308413118 , -0.00453264033, -0.000314166537, -1.37283659 , 1.1         , 3           , 50          , 0           , 0
-0.0301241744, 0.034482386 , -9.78519249 , 0.00250436855, 0.001161676 , 0.0005264112, 0.08844546  , 0.433935553 , 0.308750182 , -0.004507598, -0.0003025257, -1.37283134 , 1.11        , 3           , 11          , 0.009086409 , 0.009086358
-0.0165478047, 0.0433732159, -9.784061   , 0.00408569863, 0.00286141923, 0.0009901222, 0.0881084   , 0.434070379 , 0.307671577 , -0.004466743, -0.0002738675, -1.37282157 , 1.12        , 3           , 12          , 0.03735692  , 0
-0.0135632465, 0.0248392839, -9.782441   , 0.00236228132, 0.00158659113, 0.00124722486, 0.0881084   , 0.434070379 , 0.307671577 , -0.00444312347, -0.000257946318, -1.37280917 , 1.13        , 3           , 50          , 0           , 0
-0.00136278011, 0.0314776674, -9.780445   , 0.003381475 , 0.00330107147, 0.0007059349, 0.08837805  , 0.4337333   , 0.3088176   , -0.00440931134, -0.000224904157, -1.37280226 , 1.14        , 3           , 11          , 0.009086409 , 0.009086358
-0.0254119169, 0.05880177  , -9.785772   , 0.0037001553, 0.006024523 , 0.000318050821, 0.0880409852, 0.434272617 , 0.308615357 , -0.00437231036, -0.000164645491, -1.37279928 , 1.15        , 3           , 12          , 0.03735692  , 0
-0.008768352, 0.0519560352, -9.79157    , 0.00183259149, 0.00474858051, 0.000860461 , 0.08817581  , 0.43386814  , 0.30821088  , -0.00435398566, -0.000117122661, -1.37279093 , 1.16        , 3           , 50          , 0           , 0
-0.0172355417, 0.07219547  , -9.77967    , 0.000946958433, 0.00203346764, 0.0009587542, 0.08831064  , 0.433800727 , 0.30915466  , -0.00434451643, -9.674649E-05, -1.3727814  , 1.17        , 3           , 11          , 0.009086409 , 0.009086358
-0.0354407579, 0.0515767448, -9.776914   , -0.0004623069, 0.00234729215, -0.000476459274, 0.08831064  , 0.433800727 , 0.30915466  , -0.004349139, -7.329392E-05, -1.37278616 , 1.18        , 3           , 12          , 0.03735692  , 0
-0.0048039034, 0.0500058345, -9.781166   , -0.00144642964, 0.002936963 , -0.00118951919, 0.08783875  , 0.4342052   , 0.307604164 , -0.004363603, -4.39763535E-05, -1.3727982  , 1.19        , 3           , 50          , 0           , 0
-0.0291698184, 0.0439048558, -9.781461   , 2.84431735E-05, -0.002261698, 3.247062E-05, 0.0882432237, 0.433800727 , 0.30868277  , -0.00438664434, -8.052145E-05, -1.37279773 , 1.2         , 3           , 11          , 0.009858274 , 0.009858229
-0.0335177965, 0.0508576334, -9.795423   , -0.0005620311, -0.00355448364, 0.00101183692, 0.08797357  , 0.4341378   , 0.3088176   , -0.004392266, -0.000116021605, -1.37278748 , 1.21        , 3           , 12          , 0.037894804 , 0
-0.0191663653, 0.05331666  , -9.783971   , -0.0009643509, -0.00168354553, 0.0006071488, 0.0881084   , 0.4341378   , 0.307941228 , -0.00440191 , -0.000132830115, -1.37278128 , 1.22        , 3           , 50          , 0           , 0
-0.000881053566, 0.03374763  , -9.782222   , 0.0010685327, 0.00159700669, 9.481022E-05, 0.0881084   , 0.4341378   , 0.307941228 , -0.004391225, -0.00011685607, -1.37278044 , 1.23        , 3           , 11          , 0.009858274 , 0.009858229
-0.0293763746, 0.06075196  , -9.796174   , 0.00150770613, 0.0025969788, -3.109434E-05, 0.08837805  , 0.433800727 , 0.309087247 , -0.004376148, -9.08882357E-05, -1.37278092 , 1.24        , 3           , 12          , 0.037894804 , 0
-0.0325810872, 0.0408639535, -9.747651   , 0.0016481434, 0.0020287747, -0.0007539947, 0.08790616  , 0.434407443 , 0.307873815 , -0.00435966626, -7.063337E-05, -1.37278855 , 1.25        , 3           , 50          , 0           , 0
-0.012090547, 0.0494966879, -9.769946   , 0.0005216683, 0.00219642022, -0.00218958152, 0.08831064  , 0.4336659   , 0.3083457   , -0.004354448, -4.87645157E-05, -1.37281036 , 1.26        , 3           , 11          , 0.009858274 , 0.009858229
-0.0299825  , 0.03202857  , -9.808707   , 0.00178665423, 0.00145801075, -0.00119073107, 0.0882432237, 0.434070379 , 0.308885    , -0.004336582, -3.423635E-05, -1.3728224  , 1.27        , 3           , 12          , 0.037894804 , 0
-0.0315094739, 0.01841638  , -9.799845   , 0.00393410539, 0.003571605 , 0.00042732287, 0.08783875  , 0.434002966 , 0.307739    , -0.00429723971, 1.49803236E-06, -1.37281811 , 1.28        , 3           , 50          , 0           , 0
-0.0262531433, 0.0491074249, -9.806217   , 0.00138762221, 0.00460319826, 0.000140345728, 0.08783875  , 0.434002966 , 0.307739    , -0.004283364, 4.753517E-05, -1.372817   , 1.29        , 3           , 11          , 0.009858274 , 0.009858229
-0.00247792713, 0.05855829  , -9.781498   , -0.003823597, 0.0012982901, 0.000205785778, 0.08837805  , 0.43386814  , 0.309087247 , -0.004382506, -0.000168565428, -1.37281513 , 1.3         , 3           , 12          , 0.03847314  , 0
-0.0298207421, 0.02624119  , -9.773993   , -0.00424104324, 0.00202035229, 7.056751E-05, 0.0880409852, 0.43434003  , 0.308413118 , -0.004424916, -0.000148358988, -1.37281442 , 1.31        , 3           , 50          , 0           , 0
-0.0258538332, 0.04412902  , -9.804915   , 2.5002555E-05, 0.00225846819, 0.000672769966, 0.08790616  , 0.433800727 , 0.3082783   , -0.00442466652, -0.000125744613, -1.37280774 , 1.32        , 3           , 11          , 0.0106532266, 0.0106531847
-0.007452378, 0.0518910475, -9.78659    , 0.00241702888, 8.328265E-05, 0.000799114234, 0.08831064  , 0.43386814  , 0.308952421 , -0.00440049823, -0.000124876853, -1.37279975 , 1.33        , 3           , 12          , 0.03847314  , 0
-0.0173051376, 0.0489419177, -9.798006   , 0.0009933233, -0.0006097587, -0.0002214605, 0.08831064  , 0.43386814  , 0.308952421 , -0.00439056428, -0.000130984, -1.3728019  , 1.34        , 3           , 50          , 0           , 0
-0.0129149454, 0.05674321  , -9.77213    , -0.00256258622, -0.0008563784, -0.000676297466, 0.0881084   , 0.434002966 , 0.307469338 , -0.00441618962, -0.000139577081, -1.37280858 , 1.35        , 3           , 11          , 0.0106532266, 0.0106531847
-0.0326775163, 0.0233560428, -9.75508    , -0.00342897326, -0.0015705562, 2.353852E-05, 0.08844546  , 0.4336659   , 0.30868277  , -0.00445048 , -0.000155281741, -1.37280834 , 1.36        , 3           , 12          , 0.03847314  , 0
-0.013153621, 0.015870478 , -9.78751    , -0.002460664, -0.00345111312, 0.0008608995, 0.0880409852, 0.434407443 , 0.308547944 , -0.004475088, -0.000189753948, -1.37279963 , 1.37        , 3           , 50          , 0           , 0
-0.0230679773, 0.06204012  , -9.795198   , -0.00101316057, -0.00159767759, 0.000324266381, 0.0882432237, 0.43386814  , 0.308143467 , -0.00448521925, -0.000205715885, -1.3727963  , 1.38        , 3           , 11          , 0.0106532266, 0.0106531847
-0.04483026 , 0.05354011  , -9.784204   , 0.00187977566, 0.00267083384, 0.000547085248, 0.08844546  , 0.43386814  , 0.308952421 , -0.004466423, -0.000178983435, -1.37279093 , 1.39        , 3           , 12          , 0.03847314  , 0
-0.0224933587, 0.0334897339, -9.782875   , 0.006804703 , 0.001439663 , 0.0007047677, 0.08844546  , 0.43386814  , 0.308952421 , -0.004445845, -0.00037237443, -1.372784   , 1.4         , 3           , 50          , 0           , 0
-0.0301295482, 0.0282422826, -9.79204    , 0.009369071 , 0.00113731506, -0.000428641273, 0.0881084   , 0.4341378   , 0.307536751 , -0.004352152, -0.0003610202, -1.37278843 , 1.41        , 3           , 11          , 0.011164533 , 0.011164506
-0.012131054, 0.0383063033, -9.777756   , 0.002131532 , 0.00207841652, -0.00131830422, 0.08837805  , 0.4336659   , 0.3083457   , -0.00433083251, -0.000340293162, -1.37280166 , 1.42        , 3           , 12          , 0.03908977  , 0
-0.0147707779, 0.0419854671, -9.782254   , -0.00273090135, 0.000116367039, -0.000804318639, 0.08837805  , 0.43386814  , 0.308750182 , -0.004358138, -0.000339164282, -1.37280965 , 1.43        , 3           , 50          , 0           , 0
-0.03009114 , 0.03097191  , -9.794266   , -0.000447685627, 0.0010911579, -0.000203676114, 0.08817581  , 0.434002966 , 0.307941228 , -0.004362615, -0.0003282614, -1.37281168 , 1.44        , 3           , 11          , 0.011164533 , 0.011164506
-0.0180870723, 0.0230651833, -9.7816     , -0.00117624877, -0.000335793738, -8.574526E-05, 0.08817581  , 0.434002966 , 0.307941228 , -0.004374377, -0.000331623247, -1.37281251 , 1.45        , 3           , 12          , 0.03908977  , 0
0.007676245 , 0.0310064238, -9.785788   , 0.001087854 , -0.000938467565, 0.000635024859, 0.08844546  , 0.4336659   , 0.309019834 , -0.00436350051, -0.000340980128, -1.37280607 , 1.46        , 3           , 50          , 0           , 0
-0.008154955, 0.03103234  , -9.775544   , 0.0042521623, 0.002604308 , 0.00156453333, 0.08797357  , 0.434407443 , 0.308008641 , -0.00432098424, -0.000314869219, -1.37279046 , 1.47        , 3           , 11          , 0.011164533 , 0.011164506
-0.0239613075, 0.05805272  , -9.801125   , 0.004562183 , 0.004328572 , 0.0007327959, 0.0882432237, 0.433800727 , 0.308480531 , -0.00427536434, -0.000271552126, -1.3727833  , 1.48        , 3           , 12          , 0.03908977  , 0
-0.0255456436, 0.0416818671, -9.787326   , 0.001262531 , 0.00121966971, -0.000477473, 0.08831064  , 0.433935553 , 0.30868277  , -0.004262738, -0.000259375665, -1.37278807 , 1.49        , 3           , 50          , 0           , 0
-0.03450624 , 0.009975206 , -9.767447   , -0.0009024561, -0.0013238762, 4.59788243E-05, 0.08797357  , 0.434002966 , 0.307604164 , -0.00427150028, -0.0004266  , -1.37278759 , 1.5         , 3           , 11          , 0.0118885264, 0.0118884966
-0.0241470262, 0.044414252 , -9.79089451 , -3.40091465E-05, -0.000183668788, -0.000218350862, 0.08797357  , 0.434002966 , 0.307604164 , -0.00427183975, -0.00042844587, -1.37278974 , 1.51        , 3           , 12          , 0.0397425555, 0
0.0006396435, 0.0589236878, -9.776045   , -0.00274623325, -0.000451754837, 0.000762772339, 0.08844546  , 0.4337333   , 0.308750182 , -0.004299305, -0.000432930421, -1.37278211 , 1.52        , 3           , 50          , 0           , 0
0.00401011668, 0.0255978853, -9.78317451 , -0.0030341174, -0.000171244348, 0.00176680647, 0.0880409852, 0.43434003  , 0.308480531 , -0.00432965346, -0.0004345664, -1.37276447 , 1.53        , 3           , 11          , 0.0118885264, 0.0118884966
-0.0202636514, 0.0338823274, -9.779237   , -0.00190679985, -0.00174875022, 0.0006060496, 0.0881084   , 0.43386814  , 0.30821088  , -0.00434872461, -0.000452027336, -1.37275827 , 1.54        , 3           , 12          , 0.0397425555, 0
-0.0252145063, 0.0352636538, -9.777911   , -0.00205794442, -0.00359343318, -0.00128200115, 0.08837805  , 0.433800727 , 0.308885    , -0.004369298, -0.000488017133, -1.37277091 , 1.55        , 3           , 50          , 0           , 0
-0.0416681245, 0.0472967662, -9.793281   , -0.00132732117, -0.00174045225, -0.0009644257, 0.08837805  , 0.433800727 , 0.308885    , -0.00438256655, -0.000505463337, -1.37278032 , 1.56        , 3           , 11          , 0.0118885264, 0.0118884966
-0.0185980387, 0.07975649  , -9.768755   , -0.0002195498, -0.00320282276, 0.00102470838, 0.08790616  , 0.4341378   , 0.307671577 , -0.00438476726, -0.000537446351, -1.37277007 , 1.57        , 3           , 12          , 0.0397425555, 0
0.007268485 , 0.0528869741, -9.765213   , -0.0008006662, -0.00434208 , 0.000861505338, 0.0881084   , 0.43386814  , 0.30868277  , -0.004392779, -0.000580829044, -1.37276125 , 1.58        , 3           , 50          , 0           , 0
-0.0264854115, 0.0313914642, -9.794229   , -0.00258942833, -1.05333129E-05, -0.000660930644, 0.0880409852, 0.4342052   , 0.308750182 , -0.004418669, -0.000580963737, -1.37276781 , 1.59        , 3           , 11          , 0.0118885264, 0.0118884966
-0.009082427, 0.0274377745, -9.776047   , 0.000421297416, 0.00128348125, -0.00090817723, 0.0877713338, 0.434002966 , 0.3078064   , -0.004223237, -0.000902698142, -1.372777   , 1.6         , 3           , 12          , 0.04042941  , 0
-0.0208320487, 0.02124153  , -9.77758    , 0.00169371418, 0.0006960397, -0.000765731966, 0.0882432237, 0.4335985   , 0.309087247 , -0.004206293, -0.000895770034, -1.37278461 , 1.61        , 3           , 50          , 0           , 0
-0.0301610921, 0.0397674479, -9.773387   , -0.0007763598, 0.00173394929, -0.00183923193, 0.0882432237, 0.4335985   , 0.309087247 , -0.00421404 , -0.0008785083, -1.37280321 , 1.62        , 3           , 11          , 0.0124860713, 0.01248606
-0.03792895 , 0.0577136539, -9.800352   , 0.0009700342, -0.0005127779, -0.00100237608, 0.0880409852, 0.434272617 , 0.3078064   , -0.004204331, -0.00088367844, -1.37281311 , 1.63        , 3           , 12          , 0.04042941  , 0
-0.0297540631, 0.0196663216, -9.791683   , 0.000448388455, -0.000892180135, 0.00192258984, 0.08817581  , 0.433531076 , 0.3082783   , -0.004199864, -0.000892519, -1.37279391 , 1.64        , 3           , 50          , 0           , 0
0.00627751  , 0.0304995365, -9.779483   , -0.00288387574, -0.0004923245, 0.00104918226, 0.08831064  , 0.4341378   , 0.308750182 , -0.004228712, -0.000897398335, -1.37278342 , 1.65        , 3           , 11          , 0.0124860713, 0.01248606
-0.022701472, 0.0561211966, -9.790295   , -3.479704E-05, -0.000444456935, 0.0004950315, 0.0881084   , 0.434002966 , 0.3078064   , -0.004229065, -0.000901822, -1.37277842 , 1.66        , 3           , 12          , 0.04042941  , 0
0.00717124855, 0.0574377626, -9.810782   , 0.000209479185, 0.001499303 , -0.000763250049, 0.0881084   , 0.434002966 , 0.3078064   , -0.00422696257, -0.0008868611, -1.372786   , 1.67        , 3           , 50          , 0           , 0
-0.00558227859, 0.0470847562, -9.802437   , -0.00101342739, 0.00128129241, 0.0009433219, 0.0885128751, 0.4336659   , 0.30915466  , -0.004237106, -0.0008740084, -1.37277675 , 1.68        , 3           , 11          , 0.0124860713, 0.01248606
-0.0233020727, 0.04298595  , -9.784579   , -0.000470188534, -0.00115721021, 0.000553568534, 0.0877713338, 0.434272617 , 0.30821088  , -0.004241812, -0.000885557034, -1.37277114 , 1.69        , 3           , 12          , 0.04042941  , 0
-0.008583002, 0.05421722  , -9.750437   , 0.0007125835, 0.002153017 , -0.00125087542, 0.0882432237, 0.4336659   , 0.30821088  , -0.004243333, -0.0009496383, -1.37278378 , 1.7         , 3           , 50          , 0           , 0
-0.0344851874, 0.0184649881, -9.760122   , -8.95647245E-05, 0.0005118535, -0.00113650318, 0.08837805  , 0.433935553 , 0.308615357 , -0.00424421765, -0.0009445682, -1.3727951  , 1.71        , 3           , 11          , 0.0123994453, 0.0123994406
-0.0201514  , 0.0260418337, -9.805073   , -0.000225594253, 0.00080371683, -0.00156243227, 0.08837805  , 0.433935553 , 0.308615357 , -0.00424645934, -0.000936597, -1.37281072 , 1.72        , 3           , 12          , 0.0411482826, 0
-0.0210251268, 0.0341030769, -9.799115   , -0.00102017913, -0.00026300858, -0.00158279494, 0.0880409852, 0.4341378   , 0.307469338 , -0.00425664661, -0.000939294463, -1.37282658 , 1.73        , 3           , 50          , 0           , 0
-0.0229152869, 0.0357626975, -9.784207   , -0.000236601918, 0.0005068995, -0.0004219498, 0.08817581  , 0.4337333   , 0.308750182 , -0.004259008, -0.000934243435, -1.37283075 , 1.74        , 3           , 11          , 0.0123994453, 0.0123994406
-0.0166082866, 0.0521832556, -9.764538   , 0.0009298439, -0.00273643527, 0.000325330882, 0.08797357  , 0.43434003  , 0.308750182 , -0.00424971245, -0.0009615939, -1.37282741 , 1.75        , 3           , 12          , 0.0411482826, 0
-0.0180513319, 0.0284615383, -9.780182   , 0.0016665851, -0.000310936157, 0.000722794444, 0.0880409852, 0.433800727 , 0.308143467 , -0.00423305435, -0.0009646727, -1.37282026 , 1.76        , 3           , 50          , 0           , 0
-0.0221181512, 0.0177912153, -9.791183   , 0.00183307892, 0.00134248775, -3.93020964E-05, 0.08844546  , 0.433935553 , 0.308885    , -0.00421472266, -0.000951249734, -1.37282073 , 1.77        , 3           , 11          , 0.0123994453, 0.0123994406
-0.018880941, 0.038816005 , -9.777811   , 0.000112076887, -0.000422975718, -0.0010057  , 0.08844546  , 0.433935553 , 0.308885    , -0.0042135925, -0.0009555216, -1.37283063 , 1.78        , 3           , 12          , 0.0411482826, 0
-0.0196686387, 0.0452284776, -9.786327   , 0.00170516688, 0.00192732876, -0.00117646763, 0.08783875  , 0.434070379 , 0.307604164 , -0.00419652974, -0.000936298165, -1.37284255 , 1.79        , 3           , 50          , 0           , 0
0.000122552738, 0.0561544262, -9.769758   , -0.000141268116, 0.00375910033, -0.00137531664, 0.08831064  , 0.4337333   , 0.308413118 , -0.004227607, -0.000973722956, -1.3728565  , 1.8         , 3           , 11          , 0.01297325  , 0.0129732415
-0.0165453069, 0.0313584358, -9.799107   , 0.00196259166, 0.00249899039, 0.0009091084, 0.0880409852, 0.434070379 , 0.308750182 , -0.00420798967, -0.0009486949, -1.37284756 , 1.81        , 3           , 12          , 0.0418972   , 0
-0.0107709635, 0.0405345522, -9.776361   , -0.00116272166, -0.00313308369, 0.00116596709, 0.0882432237, 0.434002966 , 0.307739    , -0.004219628, -0.0009799764, -1.37283587 , 1.82        , 3           , 50          , 0           , 0
-0.03178888 , 0.0511767343, -9.784563   , -0.0039675883, 0.0001230269, 0.000838080363, 0.0882432237, 0.434002966 , 0.307739    , -0.00425931253, -0.0009787109, -1.37282729 , 1.83        , 3           , 11          , 0.01297325  , 0.0129732415
-0.0280065723, 0.0585437343, -9.801607   , -0.00128246192, -0.00105586008, 0.00140999153, 0.08837805  , 0.4336659   , 0.308885    , -0.00427215127, -0.0009892088, -1.37281311 , 1.84        , 3           , 12          , 0.0418972   , 0
-0.0236357227, 0.0614189319, -9.778949   , 0.00339244888, -0.00331492932, 0.0003328026, 0.08770392  , 0.43434003  , 0.308076054 , -0.00423823064, -0.00102234376, -1.37280965 , 1.85        , 3           , 50          , 0           , 0
-0.0179948136, 0.07865147  , -9.79225    , 0.005503939 , 0.000327603368, -0.000674677838, 0.08797357  , 0.4336659   , 0.30821088  , -0.00418318436, -0.00101909612, -1.37281632 , 1.86        , 3           , 11          , 0.01297325  , 0.0129732415
-0.0344243273, 0.0579783544, -9.785864   , 0.00258347369, 0.000421188422, 0.000167295322, 0.0886477   , 0.434070379 , 0.30868277  , -0.004157351, -0.00101487676, -1.37281466 , 1.87        , 3           , 12          , 0.0418972   , 0
-0.0319122821, 0.0300664343, -9.792487   , -0.0004280284, -0.00212128414, -0.0006036672, 0.0881084   , 0.434002966 , 0.307671577 , -0.0041616247, -0.00103611464, -1.37282062 , 1.88        , 3           , 50          , 0           , 0
-0.0410069525, 0.0313427076, -9.778101   , -0.0006395757, -0.00155235745, 0.000118804921, 0.0881084   , 0.434002966 , 0.307671577 , -0.00416802149, -0.001051633, -1.37281942 , 1.89        , 3           , 11          , 0.01297325  , 0.0129732415
-0.042715   , 0.05553794  , -9.762029   , -0.0012837972, 0.00221982971, 0.00117201486, 0.08858029  , 0.4335985   , 0.308952421 , -0.00413649 , -0.0011742569, -1.37280774 , 1.9         , 3           , 12          , 0.04267426  , 0
-0.0136030568, 0.03724206  , -9.76152    , 0.0006048731, 0.005287532 , 0.000584148453, 0.0882432237, 0.434272617 , 0.308413118 , -0.00413044775, -0.00112135778, -1.37280214 , 1.91        , 3           , 50          , 0           , 0
-0.0260351319, 0.0429610871, -9.780087   , -0.0004159644, 0.00293592759, 0.000257555977, 0.08817581  , 0.43386814  , 0.3082783   , -0.004134609, -0.001091988, -1.37279963 , 1.92        , 3           , 11          , 0.0134316105, 0.013431605
-0.03487484 , 0.0508597232, -9.794532   , -0.000838128151, -0.003216153, -0.000478185771, 0.0886477   , 0.433800727 , 0.308885    , -0.004142986, -0.00112416886, -1.37280416 , 1.93        , 3           , 12          , 0.04267426  , 0
-0.0313219875, 0.04719209  , -9.791832   , 0.0007120562, -0.00409754273, 0.000162586308, 0.0886477   , 0.433800727 , 0.308885    , -0.00413586758, -0.00116513728, -1.37280238 , 1.94        , 3           , 50          , 0           , 0
-0.0240568016, 0.0162606314, -9.773151   , 0.000626905239, 0.000283192319, -0.0007761979, 0.08797357  , 0.4341378   , 0.307604164 , -0.00412958954, -0.00116233714, -1.37281013 , 1.95        , 3           , 11          , 0.0134316105, 0.013431605
-0.0111626238, 0.04418927  , -9.780389   , 0.00233147969, 0.000333660137, -0.0003356282, 0.0882432237, 0.4336659   , 0.30868277  , -0.00410627 , -0.00115901453, -1.37281358 , 1.96        , 3           , 12          , 0.04267426  , 0
-0.0140562411, 0.0762165   , -9.77869    , -0.001115902, -0.0024283703, -0.000110716952, 0.0882432237, 0.434407443 , 0.308547944 , -0.004117429, -0.00118330284, -1.37281466 , 1.97        , 3           , 50          , 0           , 0
-0.009094354, 0.06906534  , -9.788664   , 8.20321948E-05, -0.00301956874, 0.000532086939, 0.08837805  , 0.43386814  , 0.307941228 , -0.00411661435, -0.00121347629, -1.37280917 , 1.98        , 3           , 11          , 0.0134316105, 0.013431605
-0.0133516928, 0.0273889787, -9.809963   , 0.000100398851, -0.00228968333, -0.000959840138, 0.08871511  , 0.4337333   , 0.309222043 , -0.00411559828, -0.00123641221, -1.37281871 , 1.99        , 3           , 12          , 0.04267426  , 0
-0.0156595744, 0.0482430756, -9.776319   , -0.002455986, -0.0029058943, -0.00198672176, 0.08871511  , 0.4337333   , 0.309222043 , -0.004019062, -0.00127694872, -1.3728385  , 2           , 3           , 50          , 0           , 0
-0.0102334712, 0.03977399  , -9.789917   , -0.00389147038, -0.00276799267, 0.0002245692, 0.0882432237, 0.4341378   , 0.3078064   , -0.00405797968, -0.00130461936, -1.37283611 , 2.01        , 3           , 11          , 0.0140317036, 0.0140317054
-0.02101355 , 0.0425783545, -9.790436   , -0.0017494444, -0.00157874217, 0.00104210828, 0.0882432237, 0.4337333   , 0.308413118 , -0.00407548854, -0.00132036454, -1.37282562 , 2.02        , 3           , 12          , 0.0434776433, 0
-0.004286548, 0.0598976463, -9.77878952 , -9.349431E-05, 5.439223E-05, 0.0008613351, 0.08844546  , 0.434002966 , 0.308480531 , -0.00407643477, -0.00131978514, -1.37281692 , 2.03        , 3           , 50          , 0           , 0
-0.0243375339, 0.0503543466, -9.756046   , 0.0004035287, -0.0007982443, -0.0005074662, 0.08831064  , 0.434002966 , 0.307671577 , -0.00407239329, -0.00132778857, -1.372822   , 2.04        , 3           , 11          , 0.0140317036, 0.0140317054
-0.0473204069, 0.04251056  , -9.763124   , 0.001793188 , 0.00241396553, -0.0006669983, 0.08831064  , 0.434002966 , 0.307671577 , -0.00405445229, -0.00130367617, -1.37282872 , 2.05        , 3           , 12          , 0.0434776433, 0
-0.02401642 , 0.0296765   , -9.762606   , 0.00155111018, 0.0008258698, 0.0008826643, 0.08871511  , 0.4337333   , 0.308952421 , -0.00403895276, -0.00129538181, -1.37282    , 2.06        , 3           , 50          , 0           , 0
-0.00268853456, 0.0497781672, -9.761725   , -0.000174359957, -0.00136882288, -0.000161534961, 0.0882432237, 0.434272617 , 0.308076054 , -0.00404069433, -0.00130907656, -1.37282157 , 2.07        , 3           , 11          , 0.0140317036, 0.0140317054
-0.00102105923, 0.071617946 , -9.780883   , 0.00192337646, 0.00140885357, -0.00060920784, 0.0881084   , 0.4336659   , 0.308076054 , -0.004021452, -0.00129501289, -1.37282777 , 2.08        , 3           , 12          , 0.0434776433, 0
-0.0191642661, 0.06177742  , -9.773935   , 0.0004277907, 0.00184429472, 0.000461172167, 0.0885128751, 0.433935553 , 0.30868277  , -0.00401718 , -0.00127655128, -1.37282312 , 2.09        , 3           , 50          , 0           , 0
-0.0260396581, 0.0327160656, -9.79195    , 0.000185510478, -0.00118972559, 0.00141803245, 0.08837805  , 0.434002966 , 0.307469338 , -0.00411436753, -0.00131780258, -1.37280881 , 2.1         , 3           , 11          , 0.0142594166, 0.0142594194
-0.003502585, 0.0276616979, -9.801287   , 0.00125278044, -0.00127028686, 0.00120879128, 0.08837805  , 0.434002966 , 0.307469338 , -0.00410185568, -0.00133045553, -1.37279665 , 2.11        , 3           , 12          , 0.044305604 , 0
-0.014309613, 0.0384372026, -9.788163   , 0.006886693 , 0.000246268843, 0.00155174918, 0.0886477   , 0.433800727 , 0.308547944 , -0.004033009, -0.00132792955, -1.37278128 , 2.12        , 3           , 50          , 0           , 0
-0.0295032412, 0.05788685  , -9.781303   , 0.00164608157, 0.00138655654, 0.0001764231, 0.08817581  , 0.434407443 , 0.308615357 , -0.00401655072, -0.001314057, -1.37277949 , 2.13        , 3           , 11          , 0.0142594166, 0.0142594194
-0.0241731349, 0.0483804643, -9.782267   , -7.781709E-05, 0.00011108863, 0.000505066768, 0.0882432237, 0.433935553 , 0.308076054 , -0.00401733629, -0.001312926, -1.37277448 , 2.14        , 3           , 12          , 0.044305604 , 0
-0.0257040821, 0.0568221323, -9.811092   , -0.00116515858, -0.00188093 , 0.000111721805, 0.08844546  , 0.43386814  , 0.308885    , -0.004028988, -0.00133173016, -1.37277317 , 2.15        , 3           , 50          , 0           , 0
-0.06777468 , 0.0599995   , -9.779372   , -0.00438367343, -0.00321351178, 0.000501867849, 0.08844546  , 0.43386814  , 0.308885    , -0.004072833, -0.001363845, -1.37276816 , 2.16        , 3           , 11          , 0.0142594166, 0.0142594194
-0.028746454, 0.0380730256, -9.784686   , -0.00334276445, 0.00121067255, 0.00143104664, 0.08790616  , 0.4342052   , 0.307536751 , -0.00410627946, -0.00135168014, -1.37275386 , 2.17        , 3           , 12          , 0.044305604 , 0
-0.006647432, 0.04194393  , -9.784891   , 0.000282610446, 0.0008194452, 0.00101842941, 0.08831064  , 0.433800727 , 0.3083457   , -0.004103468, -0.00134344352, -1.37274361 , 2.18        , 3           , 50          , 0           , 0
-0.005506184, 0.0108970962, -9.792465   , 0.000402772275, -0.001962709, -0.0005237669, 0.0882432237, 0.4342052   , 0.308547944 , -0.004099433, -0.0013630921, -1.37274885 , 2.19        , 3           , 11          , 0.0142594166, 0.0142594194
-0.0206488781, 0.03532123  , -9.786902   , 0.00143453293, -0.00283223158, -0.0005325092, 0.0885128751, 0.433935553 , 0.307873815 , -0.0036239326, -0.00126778625, -1.37275445 , 2.2         , 3           , 12          , 0.045156505 , 0
-0.020079758, 0.0461825952, -9.790836   , 0.002415079 , -0.00356775173, 0.000464627985, 0.0885128751, 0.433935553 , 0.307873815 , -0.00359978783, -0.00130344671, -1.37274957 , 2.21        , 3           , 50          , 0           , 0
-0.021279512, 0.0163532328, -9.783965   , 0.00176779635, -0.00378258317, 0.00117305259, 0.0886477   , 0.4337333   , 0.308952421 , -0.00358212576, -0.00134123035, -1.37273777 , 2.22        , 3           , 11          , 0.0148238931, 0.014823894
-0.02434279 , 0.0418887474, -9.76563    , 3.44635519E-05, -0.0003191741, 0.0004970163, 0.0880409852, 0.434002966 , 0.308008641 , -0.00358178769, -0.00134440453, -1.37273288 , 2.23        , 3           , 12          , 0.045156505 , 0
-0.026075555, 0.05491779  , -9.75962448 , -0.000861633744, 0.0014915748, -0.0006271237, 0.08817581  , 0.43386814  , 0.30821088  , -0.003590396, -0.00132951129, -1.37273908 , 2.24        , 3           , 50          , 0           , 0
-0.0340748876, 0.03956956  , -9.793752   , 0.00175445375, -0.000248230266, -0.00135172589, 0.0882432237, 0.43386814  , 0.308750182 , -0.00357283372, -0.00133204216, -1.37275267 , 2.25        , 3           , 11          , 0.0148238931, 0.014823894
-0.0214381814, 0.0359444879, -9.802259   , 0.00010420644, -0.00109775108, -0.000658688543, 0.0880409852, 0.4341378   , 0.307536751 , -0.00357178273, -0.00134304294, -1.37275922 , 2.26        , 3           , 12          , 0.045156505 , 0
-0.03718952 , 0.04366     , -9.794185   , -0.000134565722, -0.00289310259, 2.93518442E-05, 0.0880409852, 0.4341378   , 0.307536751 , -0.00357312849, -0.00137197273, -1.37275887 , 2.27        , 3           , 50          , 0           , 0
-0.0234067179, 0.03792921  , -9.775605   , -0.0007538647, -0.000883746, 0.00041241647, 0.08844546  , 0.4336659   , 0.3088176   , -0.003580673, -0.00138079538, -1.37275469 , 2.28        , 3           , 11          , 0.0148238931, 0.014823894
-0.00343798473, 0.049572207 , -9.783869   , -0.000424774858, -0.0038855616, -0.000845460861, 0.0880409852, 0.43434003  , 0.308143467 , -0.00358490925, -0.00141968089, -1.37276292 , 2.29        , 3           , 12          , 0.045156505 , 0
-0.01338038 , 0.0571690053, -9.769419   , -0.0049768677, -0.004455953, 0.000406115985, 0.0880409852, 0.43386814  , 0.30821088  , -0.00373869273, -0.00138923957, -1.37275863 , 2.3         , 3           , 50          , 0           , 0
-0.0340844765, 0.0417805426, -9.789661   , -0.002427921, -0.0001684725, -0.00109019084, 0.08837805  , 0.433800727 , 0.308750182 , -0.003762957, -0.00139096542, -1.37276947 , 2.31        , 3           , 11          , 0.0144446315, 0.014444638
-0.038453415, 0.06339064  , -9.782677   , 0.000835575338, -0.000776141242, -0.000935751945, 0.08837805  , 0.433800727 , 0.308750182 , -0.003754588, -0.00139876211, -1.37277889 , 2.32        , 3           , 12          , 0.04602877  , 0
-0.0121936761, 0.0270820558, -9.782402   , -0.001517931, -0.00118473021, -0.0006699837, 0.0881084   , 0.434070379 , 0.3073345   , -0.003769758, -0.00141063449, -1.37278557 , 2.33        , 3           , 50          , 0           , 0
-0.0284763314, 0.0262197517, -9.773076   , 0.00261943135, 0.0007659868, 0.0008864362, 0.0885128751, 0.433800727 , 0.308615357 , -0.00374357565, -0.0014029413, -1.37277675 , 2.34        , 3           , 11          , 0.0144446315, 0.014444638
-0.03171117 , 0.0207782649, -9.767749   , 0.002002481 , 0.00207297271, -0.000314835139, 0.0882432237, 0.434407443 , 0.308480531 , -0.0037235464, -0.00138222345, -1.37278008 , 2.35        , 3           , 12          , 0.04602877  , 0
-0.02454828 , 0.05027995  , -9.790831   , 0.00164767809, 0.00292416452, 0.00105482293, 0.08831064  , 0.433935553 , 0.30821088  , -0.00370708387, -0.0013529429, -1.37276959 , 2.36        , 3           , 50          , 0           , 0
-0.0224445965, 0.0438025   , -9.777336   , -0.0003340984, 0.00189851457, -0.0021921664, 0.0886477   , 0.433800727 , 0.308885    , -0.00371039542, -0.00133403915, -1.37279165 , 2.37        , 3           , 11          , 0.0144446315, 0.014444638
-0.00818781 , 0.0185182728, -9.7860775  , -0.00278525939, -0.00023778512, -0.0009502939, 0.0886477   , 0.433800727 , 0.308885    , -0.00373823545, -0.00133645255, -1.37280107 , 2.38        , 3           , 12          , 0.04602877  , 0
-0.003007803, 0.0464216247, -9.784805   , -0.00339188427, -0.00338629633, -0.0007850068, 0.0882432237, 0.4341378   , 0.307604164 , -0.00377214421, -0.00137034466, -1.37280881 , 2.39        , 3           , 50          , 0           , 0
-0.02014766 , 0.0518653244, -9.774059   , -0.00279942248, -0.00315118558, 0.00093917246, 0.0885128751, 0.43386814  , 0.308413118 , -0.00387472473, -0.0013202749, -1.372799   , 2.4         , 3           , 11          , 0.0147192581, 0.0147192748
-0.0204585586, 0.04540567  , -9.802141   , -0.00149282638, -0.00171785546, -0.000534610532, 0.08844546  , 0.4341378   , 0.308615357 , -0.00388964545, -0.00133747386, -1.37280428 , 2.41        , 3           , 12          , 0.04692093  , 0
-0.006766854, 0.01683353  , -9.79828    , -0.00260019978, 0.00101492519, -0.000358733581, 0.0882432237, 0.4341378   , 0.307873815 , -0.00391564332, -0.00132733851, -1.37280786 , 2.42        , 3           , 50          , 0           , 0
-0.01882263 , 0.035344258 , -9.790499   , -0.005294867, -0.00419289432, 5.00374954E-05, 0.0882432237, 0.4341378   , 0.307873815 , -0.00396859227, -0.00136926549, -1.37280715 , 2.43        , 3           , 11          , 0.0147192581, 0.0147192748
-0.0313047543, 0.04365742  , -9.798648   , -0.00212175446, -0.000215131789, 0.000413478352, 0.08837805  , 0.4336659   , 0.309087247 , -0.00398981571, -0.00137140043, -1.372803   , 2.44        , 3           , 12          , 0.04692093  , 0
-0.0105334036, 0.0413435325, -9.809776   , -0.0003920808, 0.00156184949, 9.21382743E-05, 0.08831064  , 0.434272617 , 0.3082783   , -0.00399373751, -0.00135577831, -1.37280226 , 2.45        , 3           , 50          , 0           , 0
-0.015556382, 0.0568586774, -9.780735   , 0.0010224171, 0.00104332855, 0.000379565521, 0.08831064  , 0.4337333   , 0.3082783   , -0.003983518, -0.0013453298, -1.37279844 , 2.46        , 3           , 11          , 0.0147192581, 0.0147192748
-0.0169860274, 0.04295042  , -9.786328   , -0.00282653118, 0.00050598057, 0.000705792569, 0.08871511  , 0.434002966 , 0.308750182 , -0.00401179353, -0.00134024152, -1.37279129 , 2.47        , 3           , 12          , 0.04692093  , 0
-0.0193703175, 0.037869744 , -9.773311   , -0.000419377844, -0.0005203286, 0.000562667148, 0.08817581  , 0.434070379 , 0.307671577 , -0.00401599426, -0.00134542189, -1.37278557 , 2.48        , 3           , 50          , 0           , 0
0.00188718375, 0.0502963252, -9.771616   , 0.00151365332, 0.0006768482, 0.000735052046, 0.08817581  , 0.434070379 , 0.307671577 , -0.00400086725, -0.00133862393, -1.37277842 , 2.49        , 3           , 11          , 0.0147192581, 0.0147192748
-0.0277066864, 0.0454006568, -9.795884   , 0.00166559115, -0.00202436466, 0.00162687746, 0.08858029  , 0.4337333   , 0.3088176   , -0.00403240277, -0.00129443256, -1.372762   , 2.5         , 3           , 12          , 0.0478315949, 0
-0.021955952, 0.04652821  , -9.779557   , -0.001505339, -4.848903E-05, 0.000634199 , 0.08831064  , 0.434272617 , 0.308480531 , -0.00404746458, -0.0012948917, -1.37275577 , 2.51        , 3           , 50          , 0           , 0
-0.0224536937, 0.0486850441, -9.770052   , -0.002600454, -0.00226248079, 0.00102467486, 0.0885128751, 0.433800727 , 0.308076054 , -0.004073482, -0.00131747487, -1.37274528 , 2.52        , 3           , 11          , 0.0149098272, 0.0149098346
-0.0255060587, 0.0337300822, -9.802774   , 0.00106404442, 0.000290766737, -0.00013211451, 0.08831064  , 0.4337333   , 0.3088176   , -0.00406284 , -0.00131457252, -1.37274671 , 2.53        , 3           , 12          , 0.0478315949, 0
-0.0293100718, 0.0492800325, -9.819794   , 0.0009882557, 0.000214725384, 0.0004387417, 0.08831064  , 0.4337333   , 0.3088176   , -0.00405296264, -0.00131240766, -1.37274241 , 2.54        , 3           , 50          , 0           , 0
-0.00137963519, 0.03990938  , -9.767701   , 0.0009951325, 0.0006471537, 0.00015883804, 0.08817581  , 0.4342052   , 0.307401925 , -0.00404301425, -0.00130592973, -1.37274086 , 2.55        , 3           , 11          , 0.0149098272, 0.0149098346
0.010486424 , 0.0551866367, -9.771933   , -0.000135407216, 0.0011621454, -5.53348473E-05, 0.08844546  , 0.4337333   , 0.30868277  , -0.004044367, -0.00129431067, -1.37274146 , 2.56        , 3           , 12          , 0.0478315949, 0
-0.03179104 , 0.05651502  , -9.777725   , -0.006402212, -0.00537208468, 0.0004552766, 0.08837805  , 0.43434003  , 0.308615357 , -0.004108395, -0.00134801236, -1.37273669 , 2.57        , 3           , 50          , 0           , 0
-0.03511156 , 0.04604583  , -9.766133   , -0.00149191311, -0.004852612, 0.0009224258, 0.08831064  , 0.43386814  , 0.307873815 , -0.004123328, -0.00139649957, -1.37272727 , 2.58        , 3           , 11          , 0.0149098272, 0.0149098346
-0.013458522, 0.0530431122, -9.763144   , 0.00360798626, -0.00116749573, -0.0002091026, 0.0885128751, 0.4336659   , 0.30868277  , -0.00408724463, -0.001408183, -1.3727293  , 2.59        , 3           , 12          , 0.0478315949, 0
0.00290560164, 0.0673842   , -9.76779652 , 0.001552961 , 0.000867664348, -0.001050773, 0.0885128751, 0.4336659   , 0.30868277  , -0.004117591, -0.00139853673, -1.37273967 , 2.6         , 3           , 50          , 0           , 0
-0.02298601 , 0.0347641073, -9.775187   , 0.0003398938, 0.0008038214, -0.000558311353, 0.08831064  , 0.43434003  , 0.307604164 , -0.004114184, -0.00139052176, -1.37274528 , 2.61        , 3           , 11          , 0.0153487762, 0.0153487744
-0.0346543677, 0.0211250558, -9.797583   , -0.00296623725, -0.00146709918, 0.00067633437, 0.08844546  , 0.433935553 , 0.308076054 , -0.00414385647, -0.001405165, -1.37273848 , 2.62        , 3           , 12          , 0.0487594567, 0
-0.0346918963, 0.0259640552, -9.786236   , 0.0004485598, -0.001781955, -2.26884258E-05, 0.08837805  , 0.434070379 , 0.308615357 , -0.00413937075, -0.00142298476, -1.3727386  , 2.63        , 3           , 50          , 0           , 0
-0.0112604145, 0.0164411869, -9.800133   , 0.000259088527, 8.617624E-05, -0.000354550546, 0.08817581  , 0.434070379 , 0.307536751 , -0.00413677469, -0.00142213772, -1.372742   , 2.64        , 3           , 11          , 0.0153487762, 0.0153487744
-0.0190507937, 0.0114027075, -9.786712   , -0.0003205163, -0.0008394268, -0.000371541333, 0.08817581  , 0.434070379 , 0.307536751 , -0.00413997425, -0.0014305471, -1.37274587 , 2.65        , 3           , 12          , 0.0487594567, 0
-0.0364692658, 0.03402829  , -9.779836   , 0.002468442 , 0.0009874854, 0.000530784251, 0.0886477   , 0.4337333   , 0.308885    , -0.004115298, -0.00142065086, -1.37274063 , 2.66        , 3           , 50          , 0           , 0
-0.0219471958, 0.04832215  , -9.778633   , 0.00102905638, -0.0005729721, 0.000356180855, 0.08817581  , 0.434407443 , 0.308008641 , -0.00410501147, -0.00142636534, -1.372737   , 2.67        , 3           , 11          , 0.0153487762, 0.0153487744
-0.03546531 , 0.0497586057, -9.775579   , -0.00340561545, -0.00260844151, 0.000585529138, 0.08831064  , 0.433800727 , 0.308076054 , -0.004139077, -0.00145242584, -1.37273109 , 2.68        , 3           , 12          , 0.0487594567, 0
-0.0263690464, 0.0542715155, -9.783122   , -0.002663087, -0.000669098459, -0.0007412949, 0.08837805  , 0.43386814  , 0.308615357 , -0.00416569645, -0.00145914743, -1.37273836 , 2.69        , 3           , 50          , 0           , 0
-0.0196456555, 0.05283096  , -9.780367   , -0.00164852408, -0.00100995775, -0.0008107003, 0.08837805  , 0.43386814  , 0.308615357 , -0.00429067155, -0.00156635465, -1.37274623 , 2.7         , 3           , 11          , 0.015832169 , 0.01583217
-0.03896319 , 0.06597418  , -9.770907   , 0.00320990523, 0.00200500758, 0.00112335884, 0.0880409852, 0.434070379 , 0.307401925 , -0.00425859028, -0.00154625624, -1.372735   , 2.71        , 3           , 12          , 0.04970329  , 0
-0.0134378569, 0.05663584  , -9.761745   , 0.00199760846, 0.0008134045, -0.0004755625, 0.08831064  , 0.433800727 , 0.308750182 , -0.004238606, -0.00153814256, -1.37273979 , 2.72        , 3           , 50          , 0           , 0
-0.0155306915, 0.0364218578, -9.809427   , -0.00239716424, -0.004015654, -0.000429559965, 0.0882432237, 0.43434003  , 0.308413118 , -0.00426257169, -0.00157831691, -1.37274384 , 2.73        , 3           , 11          , 0.015832169 , 0.01583217
-0.007525081, 0.04020621  , -9.79033852 , 0.00224698265, -0.001987471, -8.529516E-05, 0.08837805  , 0.433935553 , 0.308008641 , -0.00424010027, -0.00159819529, -1.37274468 , 2.74        , 3           , 12          , 0.04970329  , 0
-0.0312170871, 0.05937138  , -9.792142   , -0.000554982, -0.00383165968, 0.0009439861, 0.08878253  , 0.4337333   , 0.308750182 , -0.004245665, -0.00163647125, -1.372735   , 2.75        , 3           , 50          , 0           , 0
-0.03495965 , 0.05340064  , -9.779146   , 0.000874919933, -0.00334203523, 0.0006736929, 0.08878253  , 0.4337333   , 0.308750182 , -0.004236928, -0.001669863, -1.37272823 , 2.76        , 3           , 11          , 0.015832169 , 0.01583217
-0.0388128236, 0.035687    , -9.764481   , 0.004043768 , 0.0003478687, 0.00117604213, 0.0881084   , 0.4342052   , 0.307401925 , -0.00419650925, -0.00166633422, -1.37271643 , 2.77        , 3           , 12          , 0.04970329  , 0
-0.0006397478, 0.0169537459, -9.772476   , 0.00115239446, 0.00210272125, 0.00053965213, 0.0886477   , 0.43386814  , 0.3083457   , -0.00418499438, -0.00164528424, -1.37271106 , 2.78        , 3           , 50          , 0           , 0
-0.0134276915, 0.0432973877, -9.779516   , -0.00027096775, 0.00148068473, -0.000408338354, 0.08844546  , 0.4342052   , 0.308615357 , -0.00418769661, -0.00163049449, -1.37271523 , 2.79        , 3           , 11          , 0.015832169 , 0.01583217
-0.0212983657, 0.0575250536, -9.796137   , -0.0008190678, -0.00117508916, 0.00148170535, 0.08837805  , 0.434002966 , 0.3078064   , -0.00421149 , -0.00162544451, -1.37270045 , 2.8         , 3           , 12          , 0.05066194  , 0
-0.03195896 , 0.0716407746, -9.80013752 , 0.000753951 , -0.000897364342, 0.000708351668, 0.08837805  , 0.434002966 , 0.3078064   , -0.0042039617, -0.00163438777, -1.3726933  , 2.81        , 3           , 50          , 0           , 0
-0.0250174385, 0.0618283823, -9.773989   , 0.0002766676, 0.0009691773, 0.0008755632, 0.08844546  , 0.4335985   , 0.308885    , -0.004201209, -0.00162465917, -1.37268448 , 2.82        , 3           , 11          , 0.0159194786, 0.01591948
-0.0128891049, 0.0456544459, -9.789421   , -0.000937971345, -1.38902578E-05, -4.818196E-06, 0.0882432237, 0.43434003  , 0.307873815 , -0.00421058945, -0.0016247984, -1.37268448 , 2.83        , 3           , 12          , 0.05066194  , 0
-0.0137610491, 0.0434803367, -9.79623    , -0.0016493483, 0.0001340638, 0.00027914907, 0.0882432237, 0.4337333   , 0.308143467 , -0.00422708737, -0.00162344589, -1.37268162 , 2.84        , 3           , 50          , 0           , 0
-0.0309481751, 0.0466259643, -9.781446   , 0.000319655461, -0.001185368, 0.00134547683, 0.08844546  , 0.434002966 , 0.308480531 , -0.00422391249, -0.00163524249, -1.37266815 , 2.85        , 3           , 11          , 0.0159194786, 0.01591948
-0.03316287 , 0.0364634432, -9.7992     , 0.00446191477, -4.1870635E-06, 0.0008157307, 0.08837805  , 0.433935553 , 0.307469338 , -0.004179307, -0.00163524982, -1.37265992 , 2.86        , 3           , 12          , 0.05066194  , 0
-0.0299930442, 0.0404699631, -9.796866   , 0.0020240813, 0.00403960468, 0.000143757963, 0.08837805  , 0.433935553 , 0.307469338 , -0.00415906729, -0.00159484835, -1.37265861 , 2.87        , 3           , 50          , 0           , 0
-0.0179928653, 0.0343378335, -9.781468   , -0.002196429, 0.00157977745, -0.000490361, 0.08878253  , 0.433800727 , 0.3088176   , -0.00418102369, -0.00157907081, -1.37266362 , 2.88        , 3           , 11          , 0.0159194786, 0.01591948
-0.02093495 , 0.0378022566, -9.807654   , -0.0012877523, 0.0009850701, 0.000866139366, 0.08831064  , 0.434272617 , 0.30821088  , -0.004193914, -0.00156918366, -1.372655   , 2.89        , 3           , 12          , 0.05066194  , 0
-0.0228394158, 0.04745238  , -9.78091049 , 0.0006429737, 7.433175E-05, 0.000721945835, 0.0882432237, 0.4337333   , 0.308076054 , -0.00414059823, -0.00164649147, -1.37264788 , 2.9         , 3           , 50          , 0           , 0
-0.00574103929, 0.0624212921, -9.760705   , -0.00149651093, -0.0006882495, 0.000268372154, 0.08831064  , 0.433800727 , 0.308750182 , -0.00415556831, -0.00165336311, -1.37264514 , 2.91        , 3           , 11          , 0.016094394 , 0.0160944071
-0.0126199331, 0.0400315821, -9.77006149 , -0.000223479728, -0.000851581, 0.0010609465, 0.08831064  , 0.433800727 , 0.308750182 , -0.004157821, -0.00166183477, -1.37263453 , 2.92        , 3           , 12          , 0.05163434  , 0
-0.0222475715, 0.0153673235, -9.775403   , -0.000365964952, -0.001697076, -0.0003832508, 0.0881084   , 0.4342052   , 0.3073345   , -0.00416147476, -0.00167882175, -1.37263823 , 2.93        , 3           , 50          , 0           , 0
-0.008340949, 0.0536976755, -9.786125   , -0.00125436089, 0.0006177459, -0.00178625109, 0.0885128751, 0.4337333   , 0.308615357 , -0.00417398755, -0.00167271879, -1.37265611 , 2.94        , 3           , 11          , 0.016094394 , 0.0160944071
-0.006512491, 0.05995596  , -9.782422   , -0.00359597453, 0.001283189 , -0.00143329089, 0.08831064  , 0.43434003  , 0.308480531 , -0.00420992449, -0.00165994687, -1.37267053 , 2.95        , 3           , 12          , 0.05163434  , 0
-0.00715477 , 0.0463117436, -9.771294   , -0.0028471793, -0.00137945393, -0.00103793829, 0.08831064  , 0.433935553 , 0.307739    , -0.00423837826, -0.00167378515, -1.3726809  , 2.96        , 3           , 50          , 0           , 0
-0.0199581  , 0.0521556549, -9.801155   , -0.0006560415, -0.002266065, -0.000536393141, 0.08858029  , 0.433800727 , 0.309019834 , -0.00424493 , -0.00169646845, -1.372686   , 2.97        , 3           , 11          , 0.016094394 , 0.0160944071
-0.0233361069, 0.0411532968, -9.78189    , 0.00206105434, -0.00079217524, -0.000140499818, 0.08858029  , 0.433800727 , 0.309019834 , -0.00422431668, -0.00170439563, -1.37268734 , 2.98        , 3           , 12          , 0.05163434  , 0
-0.0215916149, 0.0459475778, -9.7678175  , 0.00297365151, -0.00117002835, 0.00100450777, 0.08817581  , 0.434272617 , 0.307604164 , -0.00419459771, -0.00171605335, -1.37267733 , 2.99        , 3           , 50          , 0           , 0
-0.0242050663, 0.0550085641, -9.769543   , -0.0008197821, -0.00334851583, -0.000409834523, 0.08858029  , 0.4337333   , 0.308413118 , -0.00422301563, -0.00176919 , -1.37268126 , 3           , 3           , 11          , 0.0155977989, 0.0155978054
0.001470698 , 0.04501035  , -9.782973   , 0.000270936667, -0.001845853, -0.00138307211, 0.08831064  , 0.434002966 , 0.30868277  , -0.00422028173, -0.00178770663, -1.372695   , 3.01        , 3           , 12          , 0.0526194759, 0
-0.00434578024, 0.0442272425, -9.78936    , -0.000427029678, -0.0009040475, -0.00173149665, 0.08817581  , 0.433935553 , 0.307536751 , -0.004224521, -0.00179681985, -1.37271237 , 3.02        , 3           , 50          , 0           , 0
-0.0160637964, 0.0380793959, -9.79541    , -0.00198334968, 0.0008863282, 0.000145230253, 0.08817581  , 0.433935553 , 0.307536751 , -0.00424435735, -0.00178795052, -1.37271082 , 3.03        , 3           , 11          , 0.0155977989, 0.0155978054
-0.0124102784, 0.05504212  , -9.782083   , 0.001696419 , -9.221733E-05, 0.00122705533, 0.08844546  , 0.433800727 , 0.308750182 , -0.004227415, -0.00178882072, -1.37269855 , 3.04        , 3           , 12          , 0.0526194759, 0
-0.0379849821, 0.05362164  , -9.797239   , -0.00120581267, 0.000307783 , -0.000144569058, 0.0880409852, 0.43434003  , 0.308076054 , -0.0042394707, -0.00178574887, -1.3727     , 3.05        , 3           , 50          , 0           , 0
-0.04218722 , 0.0592138469, -9.768757   , -0.00434716558, -0.000664737949, -3.49417533E-05, 0.08844546  , 0.4337333   , 0.308008641 , -0.00428294158, -0.00179239793, -1.37270033 , 3.06        , 3           , 11          , 0.0155977989, 0.0155978054
-0.0276297163, 0.0602079555, -9.788938   , -0.00170764141, 0.000166350845, 0.00020805074, 0.08844546  , 0.434002966 , 0.308750182 , -0.004300021, -0.001790725, -1.37269819 , 3.07        , 3           , 12          , 0.0526194759, 0
-0.009174367, 0.0520276949, -9.797896   , -0.00492966641, -0.00110034528, 0.00124310923, 0.0880409852, 0.4341378   , 0.307469338 , -0.00434934162, -0.0018016746, -1.37268579 , 3.08        , 3           , 50          , 0           , 0
-0.0327691063, 0.04126949  , -9.785138   , -0.00379947061, -0.00168634183, 0.00138469774, 0.0880409852, 0.4341378   , 0.307469338 , -0.00438736146, -0.00181847764, -1.37267184 , 3.09        , 3           , 11          , 0.0155977989, 0.0155978054
-0.0308479238, 0.0507857352, -9.790883   , -0.00338357175, -0.0026123377, 0.00237610145, 0.08844546  , 0.4335985   , 0.308885    , -0.004406182, -0.00198022882, -1.372648   , 3.1         , 3           , 12          , 0.0536164045, 0
0.000311665237, 0.06534674  , -9.785912   , 0.0007670751, -0.0007850739, 0.00171266333, 0.0881084   , 0.43434003  , 0.30821088  , -0.00439854525, -0.00198800443, -1.37263083 , 3.11        , 3           , 50          , 0           , 0
-0.0293281656, 0.0387658551, -9.76481    , -0.0006306965, -0.0047840965, 0.00171763613, 0.0880409852, 0.434002966 , 0.307941228 , -0.00440488756, -0.0020357687, -1.37261343 , 3.12        , 3           , 11          , 0.01592821  , 0.0159282163
-0.0265855268, 0.0365797468, -9.773392   , 0.000389665656, -0.00292696641, 0.00124997413, 0.08837805  , 0.4337333   , 0.3088176   , -0.004401017, -0.00206498336, -1.37260079 , 3.13        , 3           , 12          , 0.0536164045, 0
-0.0151757244, 0.0336012021, -9.799067   , -0.00105743844, 0.000606477435, 0.000433612528, 0.08837805  , 0.4337333   , 0.3088176   , -0.0044116  , -0.00205889973, -1.3725965  , 3.14        , 3           , 50          , 0           , 0
-0.04415527 , 0.0269239973, -9.784054   , 0.00100145151, 0.000298948435, 0.0004418611, 0.0882432237, 0.434002966 , 0.3073345   , -0.0044015944, -0.00205589063, -1.37259209 , 3.15        , 3           , 11          , 0.01592821  , 0.0159282163
-0.0236892011, 0.0568856858, -9.776745   , -0.00235811528, -0.000889538962, 0.000904778251, 0.0882432237, 0.4336659   , 0.3083457   , -0.004425194, -0.00206474564, -1.37258291 , 3.16        , 3           , 12          , 0.0536164045, 0
-0.0195876155, 0.04223664  , -9.801718   , -0.00121264183, -0.00138469425, -0.00109881989, 0.08831064  , 0.4341378   , 0.308547944 , -0.00443729758, -0.002078641, -1.37259376 , 3.17        , 3           , 50          , 0           , 0
-0.0378555134, 0.0241927151, -9.786737   , 0.00242310925, -0.0004217094, -0.0007046617, 0.08837805  , 0.43386814  , 0.3078064   , -0.00441305153, -0.0020828892, -1.37260091 , 3.18        , 3           , 11          , 0.01592821  , 0.0159282163
-0.0178759769, 0.0345168561, -9.798178   , -0.00138320634, -0.00219693757, 0.00175048632, 0.08837805  , 0.43386814  , 0.3078064   , -0.004426921, -0.002104781, -1.37258327 , 3.19        , 3           , 12          , 0.0536164045, 0
-0.0221079048, 0.0275998432, -9.780682   , -0.00420540944, -1.85899353E-05, 0.00118988252, 0.08858029  , 0.433800727 , 0.3088176   , -0.003917691, -0.00193396118, -1.372573   , 3.2         , 3           , 50          , 0           , 0
-0.0476069339, 0.0538935661, -9.772933   , -0.003252565, -0.00361286267, 0.00135833328, 0.0880409852, 0.4341378   , 0.307604164 , -0.003950244, -0.001970037, -1.37255931 , 3.21        , 3           , 11          , 0.0158221573, 0.01582216
-0.0131144589, 0.0283942148, -9.777879   , 0.0002765912, -0.0006257419, -7.921665E-05, 0.08844546  , 0.43386814  , 0.308076054 , -0.00394747639, -0.001976297, -1.37256    , 3.22        , 3           , 12          , 0.0546242557, 0
0.00395701639, 0.0259616934, -9.77504    , 0.00279487576, 0.0010812463, -0.00147000328, 0.08871511  , 0.434002966 , 0.308480531 , -0.00391949853, -0.00196554256, -1.37257469 , 3.23        , 3           , 50          , 0           , 0
-0.0118594524, 0.07789408  , -9.768714   , 0.00301213632, -0.00380820618, 0.000106203086, 0.08844546  , 0.434002966 , 0.307469338 , -0.00388937932, -0.00200362015, -1.37257349 , 3.24        , 3           , 11          , 0.0158221573, 0.01582216
-0.005245801, 0.07227923  , -9.755166   , 0.00251849717, -0.00393876061, -0.000757374, 0.08844546  , 0.434002966 , 0.307469338 , -0.003864179, -0.00204303651, -1.372581   , 3.25        , 3           , 12          , 0.0546242557, 0
-0.0327357948, 0.0448815674, -9.785547   , 0.0006775383, -0.00278069987, 3.513401E-05, 0.08884994  , 0.4337333   , 0.308952421 , -0.00385740469, -0.00207084185, -1.37258053 , 3.26        , 3           , 50          , 0           , 0
-0.04270119 , 0.04487589  , -9.777058   , 0.00118540681, -0.00129081425, 0.00113315834, 0.0882432237, 0.434272617 , 0.308008641 , -0.00384557457, -0.0020837062, -1.37256908 , 3.27        , 3           , 11          , 0.0158221573, 0.01582216
-0.0127047841, 0.0309989657, -9.768811   , 0.0006744313, -0.00193823932, 0.0019792614, 0.08831064  , 0.433935553 , 0.308008641 , -0.00383887161, -0.00210301275, -1.37254918 , 3.28        , 3           , 12          , 0.0546242557, 0
-0.0176821649, 0.0198758971, -9.778923   , 0.00146922655, -0.00122397882, 0.00135053822, 0.0886477   , 0.433800727 , 0.308615357 , -0.0038242084, -0.00211520027, -1.37253559 , 3.29        , 3           , 50          , 0           , 0
-0.0175942667, 0.0311388578, -9.777888   , 0.004208117 , 0.0006111668, 0.0017516237, 0.0886477   , 0.433800727 , 0.308615357 , -0.00373403216, -0.00210077548, -1.3725183  , 3.3         , 3           , 11          , 0.0102750435, 0.0102750519
-0.0251089819, 0.04788901  , -9.777764   , 0.00499178329, -0.000382529921, -0.000189879, 0.08797357  , 0.4341378   , 0.3071997   , -0.00368411047, -0.00210460788, -1.37252021 , 3.31        , 3           , 12          , 0.0556422025, 0
-0.0236420818, 0.04983572  , -9.792182   , 0.00177044456, -0.00150721625, 0.0009903483, 0.0886477   , 0.4337333   , 0.308750182 , -0.003666427, -0.00211964385, -1.37251019 , 3.32        , 3           , 50          , 0           , 0
-0.0300131012, 0.0373233035, -9.797807   , -0.00140639977, 3.751113E-05, 0.0001344916, 0.0885128751, 0.4341378   , 0.3082783   , -0.00368049415, -0.00211926387, -1.37250888 , 3.33        , 3           , 11          , 0.0102750435, 0.0102750519
-0.03755319 , 0.0562602431, -9.791332   , 0.000216412111, -0.00112478086, 5.61085035E-05, 0.08837805  , 0.433935553 , 0.307941228 , -0.00367833138, -0.00213050935, -1.37250829 , 3.34        , 3           , 12          , 0.0556422025, 0
-0.00444459729, 0.03650862  , -9.784481   , -0.00524323247, -0.0007659396, -0.00183276669, 0.08844546  , 0.4337333   , 0.308750182 , -0.00373072433, -0.00213823654, -1.37252653 , 3.35        , 3           , 50          , 0           , 0
-0.00254354253, 0.05667725  , -9.774295   , 0.00358483754, 0.00169809919, 0.00111955032, 0.08844546  , 0.4337333   , 0.308750182 , -0.00369489961, -0.00212121336, -1.37251544 , 3.36        , 3           , 11          , 0.0102750435, 0.0102750519
-0.0295401588, 0.06317191  , -9.769499   , 0.0009641049, -0.00371833867, 0.0007386686, 0.0881084   , 0.434070379 , 0.307401925 , -0.00368527416, -0.002158369, -1.37250781 , 3.37        , 3           , 12          , 0.0556422025, 0
-0.025101332, 0.0465653241, -9.78049    , -0.0024326744, -0.00225076731, 0.0007389755, 0.08837805  , 0.4336659   , 0.3083457   , -0.0037096173, -0.0021808492, -1.37250042 , 3.38        , 3           , 50          , 0           , 0
-0.007976774, 0.04376899  , -9.785785   , -0.00153342052, 0.000905732159, -0.00064079545, 0.08844546  , 0.434474856 , 0.308547944 , -0.00372493733, -0.00217181584, -1.37250686 , 3.39        , 3           , 11          , 0.0102750435, 0.0102750519
-0.0216456782, 0.05902202  , -9.809223   , -0.00131392141, -0.00225207675, 0.00189059321, 0.08844546  , 0.434002966 , 0.307604164 , -0.00376970321, -0.00213695574, -1.37248778 , 3.4         , 3           , 12          , 0.0566694774, 0
-0.0232869964, 0.04478957  , -9.784558   , -0.00186986569, -0.00194692076, 0.0004605199, 0.08844546  , 0.434002966 , 0.307604164 , -0.00378841185, -0.002156407, -1.37248313 , 3.41        , 3           , 50          , 0           , 0
-0.0113115311, 0.0274912436, -9.779228   , -0.0007574216, -0.002838693, 0.002744165 , 0.0885128751, 0.4336659   , 0.308750182 , -0.00379604567, -0.00218468951, -1.3724556  , 3.42        , 3           , 11          , 0.0105207674, 0.0105207963
-0.01941466 , 0.040027488 , -9.764252   , 0.00326929986, 2.001063E-06, 0.00109290378, 0.08797357  , 0.4341378   , 0.307873815 , -0.003763377, -0.00218462828, -1.37244463 , 3.43        , 3           , 12          , 0.0566694774, 0
-0.0196850486, 0.0447582155, -9.784527   , -0.000475173758, -0.00369108166, 0.00158870174, 0.0881084   , 0.4337333   , 0.308143467 , -0.00376816373, -0.002221479, -1.37242866 , 3.44        , 3           , 50          , 0           , 0
-0.0416746  , 0.0379390344, -9.803778   , 0.00354246655, -0.00114464562, 0.0007917589, 0.08844546  , 0.433935553 , 0.308547944 , -0.003732757, -0.0022328957, -1.37242055 , 3.45        , 3           , 11          , 0.0105207674, 0.0105207963
-0.0260385573, 0.035833694 , -9.7883     , 0.00186167238, 0.00144678541, 0.00139136834, 0.0881084   , 0.4341378   , 0.307469338 , -0.003714171, -0.00221837638, -1.37240684 , 3.46        , 3           , 12          , 0.0566694774, 0
-0.03772179 , 0.04131262  , -9.785184   , 0.003585655 , 0.00145248324, -0.0011738271, 0.0881084   , 0.4341378   , 0.307469338 , -0.003678288, -0.00220389478, -1.37241864 , 3.47        , 3           , 50          , 0           , 0
-0.0115277879, 0.04877483  , -9.787114   , 0.00668836  , -2.49958248E-05, 0.0002549724, 0.08844546  , 0.4336659   , 0.30868277  , -0.00361141027, -0.002204135, -1.372416   , 3.48        , 3           , 11          , 0.0105207674, 0.0105207963
-0.009368008, 0.0325903669, -9.793605   , -0.000117845615, 0.00148236984, -0.000337609439, 0.08797357  , 0.43434003  , 0.308143467 , -0.003612581, -0.00218932377, -1.37241948 , 3.49        , 3           , 12          , 0.0566694774, 0
-0.0153250489, 0.0373787135, -9.772827   , 0.00355260633, -0.00223035412, -0.001227965, 0.0880409852, 0.4336659   , 0.308143467 , -0.00354870013, -0.002089076, -1.37243187 , 3.5         , 3           , 50          , 0           , 0
-0.0123411026, 0.0618250631, -9.78381    , 0.00253089936, 0.00753001543, -0.00166524667, 0.0885128751, 0.433800727 , 0.308615357 , -0.00352335675, -0.00201383559, -1.37244868 , 3.51        , 3           , 11          , 0.0106766   , 0.0106766345
-0.01381776 , 0.0527412929, -9.776701   , -0.00377820688, 0.00329233962, -0.0014793803, 0.0885128751, 0.433800727 , 0.308615357 , -0.00356110861, -0.00198096456, -1.37246358 , 3.52        , 3           , 12          , 0.05770536  , 0
0.0118836649, 0.0476788431, -9.787815   , 0.00014371099, -0.0004966799, 0.00106582744, 0.08817581  , 0.434002966 , 0.307401925 , -0.00355969253, -0.00198589265, -1.37245286 , 3.53        , 3           , 50          , 0           , 0
-0.0103050759, 0.0312067829, -9.790017   , -0.00160472083, -0.00476779137, -0.000151712025, 0.0885128751, 0.4337333   , 0.308413118 , -0.003575737, -0.00203357544, -1.37245429 , 3.54        , 3           , 11          , 0.0106766   , 0.0106766345
-0.0267772712, 0.0481079221, -9.796748   , -0.000442488061, -0.002489276, 0.000174693836, 0.08844546  , 0.434272617 , 0.308547944 , -0.00358016533, -0.00205846177, -1.37245238 , 3.55        , 3           , 12          , 0.05770536  , 0
-0.00537295267, 0.0253454316, -9.794105   , 0.0018764853, 0.0009316758, -0.000333844626, 0.08831064  , 0.433935553 , 0.307671577 , -0.00356139336, -0.0020491567, -1.37245584 , 3.56        , 3           , 50          , 0           , 0
-0.0255793277, 0.0331727266, -9.792844   , 0.00359907118, 0.002628694 , 0.000273804966, 0.08858029  , 0.433800727 , 0.308885    , -0.00352540752, -0.00202286 , -1.37245309 , 3.57        , 3           , 11          , 0.0106766   , 0.0106766345
-0.02946571 , 0.05304785  , -9.792649   , 0.0009995115, -0.0007842494, 0.000208302008, 0.08858029  , 0.433800727 , 0.308885    , -0.00351541676, -0.002030695, -1.37245107 , 3.58        , 3           , 12          , 0.05770536  , 0
-0.03451577 , 0.0418134928, -9.792375   , 0.00417014351, 0.00347241363, 0.00143440824, 0.0880409852, 0.4342052   , 0.307536751 , -0.003473744, -0.00199592113, -1.37243676 , 3.59        , 3           , 50          , 0           , 0
-0.0138492817, 0.0388938561, -9.789057   , 0.0009911197, 0.00116701168, 0.00166827929, 0.08837805  , 0.4337333   , 0.308143467 , -0.003528306, -0.00210791477, -1.3724196  , 3.6         , 3           , 11          , 0.0104964152, 0.010496458
-0.00336345471, 0.06259524  , -9.77875    , 0.000673969043, -0.00282429019, -0.0003950117, 0.08831064  , 0.4342052   , 0.308547944 , -0.0035215586, -0.00213617133, -1.37242353 , 3.61        , 3           , 12          , 0.0587492   , 0
-0.0273733344, 0.0452176966, -9.779171   , 0.00243092747, 0.00202253927, 0.0005447108, 0.0881084   , 0.434002966 , 0.307469338 , -0.003497261, -0.00211592717, -1.37241817 , 3.62        , 3           , 50          , 0           , 0
-0.017106235, 0.0334185   , -9.780568   , 0.00413262937, 0.00058766274, -0.00118286035, 0.0881084   , 0.434002966 , 0.307469338 , -0.00345590943, -0.0021100915, -1.37243    , 3.63        , 3           , 11          , 0.0104964152, 0.010496458
0.0133056156, 0.05133724  , -9.793632   , -0.000216204615, -0.005686532, 0.000130440836, 0.08837805  , 0.43386814  , 0.308750182 , -0.00345807476, -0.00216695177, -1.37242842 , 3.64        , 3           , 12          , 0.0587492   , 0
0.00283950288, 0.037459    , -9.794792   , -0.00159109721, -0.00222289586, -0.0009726999, 0.0880409852, 0.4342052   , 0.307739    , -0.00347396429, -0.00218921434, -1.37243819 , 3.65        , 3           , 50          , 0           , 0
-0.01741964 , 0.0389736071, -9.793605   , -0.00272006518, -0.0007886795, 0.000185970363, 0.08817581  , 0.43386814  , 0.308076054 , -0.003501169, -0.00219709473, -1.37243617 , 3.66        , 3           , 11          , 0.0104964152, 0.010496458
-0.009667786, 0.0435079634, -9.802064   , -0.000428599073, 0.000902559259, 0.0007970468, 0.08858029  , 0.433935553 , 0.308480531 , -0.003505472, -0.002188041, -1.3724283  , 3.67        , 3           , 12          , 0.0587492   , 0
-0.009882541, 0.0293798875, -9.788226   , 0.00327022839, 0.000302073953, -0.000333682256, 0.08858029  , 0.433935553 , 0.308480531 , -0.003472763, -0.00218503224, -1.37243164 , 3.68        , 3           , 50          , 0           , 0
-0.009521255, 0.02656892  , -9.77877    , 0.00444069924, 0.004284708 , 0.001734749 , 0.08817581  , 0.434002966 , 0.307469338 , -0.00342839351, -0.002142126, -1.37241447 , 3.69        , 3           , 11          , 0.0104964152, 0.010496458
-0.0220922939, 0.0436485745, -9.763331   , -0.000167990569, -0.003362906, -0.00212547369, 0.08858029  , 0.4336659   , 0.308547944 , -0.00341068464, -0.002144056, -1.37243569 , 3.7         , 3           , 12          , 0.0598003455, 0
-0.0190026518, 0.06469576  , -9.793775   , -0.0007492514, -0.0039379634, -0.00127875549, 0.08817581  , 0.43434003  , 0.3082783   , -0.00341815036, -0.00218347879, -1.37244833 , 3.71        , 3           , 50          , 0           , 0
0.005106561 , 0.0490371436, -9.782894   , 0.00325957336, -0.0008388448, 0.000221960872, 0.08831064  , 0.4337333   , 0.308008641 , -0.00338555919, -0.00219185976, -1.37244618 , 3.72        , 3           , 11          , 0.0104153194, 0.0104153538
-0.0170279313, 0.04689244  , -9.775443   , 0.0023759997, -0.00312792812, 0.000755760469, 0.0886477   , 0.43386814  , 0.308750182 , -0.003361816, -0.00222311332, -1.37243843 , 3.73        , 3           , 12          , 0.0598003455, 0
-0.0242029931, 0.06994954  , -9.816799   , -0.000493980653, -0.00482618529, 0.00157207728, 0.0886477   , 0.43386814  , 0.308750182 , -0.00336679188, -0.0022713216, -1.37242246 , 3.74        , 3           , 50          , 0           , 0
-0.0172370728, 0.05260723  , -9.803384   , -0.00389129133, -0.005052494, -0.001314297, 0.08790616  , 0.4341378   , 0.307469338 , -0.00340567483, -0.00232189149, -1.37243533 , 3.75        , 3           , 11          , 0.0104153194, 0.0104153538
-0.0334990658, 0.05533767  , -9.792661   , 0.00328597357, 0.00145378849, 0.00025534915, 0.0885128751, 0.4336659   , 0.3083457   , -0.00337282079, -0.00230734469, -1.372433   , 3.76        , 3           , 12          , 0.0598003455, 0
-0.0157215912, 0.0374648869, -9.780508   , -0.00248368713, -0.00452193851, 0.00185042107, 0.08817581  , 0.4341378   , 0.308413118 , -0.00339770154, -0.002352501, -1.37241435 , 3.77        , 3           , 50          , 0           , 0
-0.000638350844, 0.0452476926, -9.803317   , -0.00070994033, 0.0006293867, 0.000791169 , 0.0882432237, 0.433800727 , 0.3078064   , -0.00340481941, -0.00234618038, -1.37240648 , 3.78        , 3           , 11          , 0.0104153194, 0.0104153538
-0.021261286, 0.06158805  , -9.796541   , -0.004162266, -0.00305634784, 0.00014402435, 0.0882432237, 0.433800727 , 0.3078064   , -0.003446445, -0.00237673847, -1.37240481 , 3.79        , 3           , 12          , 0.0598003455, 0
-0.0186846387, 0.0555866249, -9.785747   , -0.000651433831, -0.00195470313, 0.002473129 , 0.08858029  , 0.4336659   , 0.308750182 , -0.004025244, -0.002354583, -1.37237656 , 3.8         , 3           , 50          , 0           , 0
-0.0315284356, 0.0618137   , -9.809281   , 0.00337116816, 3.393198E-05, -4.914483E-05, 0.08790616  , 0.4342052   , 0.307671577 , -0.00399153074, -0.0023542454, -1.372377   , 3.81        , 3           , 11          , 0.0106233414, 0.0106233815
-0.0110129863, 0.0591078661, -9.783829   , 0.0027937612, -0.0005360066, 0.000225245356, 0.08831064  , 0.433463663 , 0.308008641 , -0.003963599, -0.00235959631, -1.37237465 , 3.82        , 3           , 12          , 0.0608582422, 0
-0.0258808937, 0.0543256663, -9.788538   , 0.00192613341, -0.00111073419, 0.001356414 , 0.08837805  , 0.4341378   , 0.308480531 , -0.00394437043, -0.00237065 , -1.37236118 , 3.83        , 3           , 50          , 0           , 0
-0.00392879732, 0.0521847829, -9.77481    , -2.423863E-05, 0.00178552279, 0.000241499656, 0.08817581  , 0.434002966 , 0.307469338 , -0.003944618, -0.00235278555, -1.3723588  , 3.84        , 3           , 11          , 0.0106233414, 0.0106233815
-0.0265675187, 0.0428392   , -9.768351   , 0.0004909992, -0.00139566278, 0.00277449377, 0.08817581  , 0.434002966 , 0.307469338 , -0.003939774, -0.00236663269, -1.372331   , 3.85        , 3           , 12          , 0.0608582422, 0
-0.0293021016, 0.0232260972, -9.787573   , 0.005405413 , 0.00458617369, 0.00146044546, 0.08871511  , 0.433800727 , 0.308615357 , -0.00388575369, -0.00232071429, -1.3723166  , 3.86        , 3           , 50          , 0           , 0
-0.016222192, 0.0213668514, -9.792894   , 0.00250105956, -0.00026189498, 0.00194468966, 0.08831064  , 0.4341378   , 0.30821088  , -0.00386078842, -0.002323258, -1.37229729 , 3.87        , 3           , 11          , 0.0106233414, 0.0106233815
-0.00656845234, 0.0420648977, -9.796181   , 0.00367292739, 0.002029418 , 0.0008402754, 0.08817581  , 0.433800727 , 0.308076054 , -0.00382407778, -0.00230293162, -1.37228882 , 3.88        , 3           , 12          , 0.0608582422, 0
-0.0402099378, 0.05902307  , -9.794487   , -0.00122469815, -0.003647923, 0.000155348942, 0.0886477   , 0.433800727 , 0.308615357 , -0.00383632886, -0.00233940431, -1.37228715 , 3.89        , 3           , 50          , 0           , 0
-0.015937347, 0.06142004  , -9.785202   , 0.00135280588, 0.00400595646, 0.000283655419, 0.0886477   , 0.433800727 , 0.308615357 , -0.00404980173, -0.00248238654, -1.37228239 , 3.9         , 3           , 11          , 0.009809349 , 0.009809388
-0.009748593, 0.04204879  , -9.792145   , 0.005622441 , 0.00340225128, -0.0011298107, 0.0881084   , 0.4342052   , 0.307536751 , -0.00399355 , -0.00244841 , -1.372294   , 3.91        , 3           , 12          , 0.0619223267, 0
-0.0246168785, 0.0323695168, -9.802781   , 0.000409279222, -0.003160092, 0.00131883286, 0.08831064  , 0.4336659   , 0.308615357 , -0.00398949 , -0.002479958, -1.3722806  , 3.92        , 3           , 50          , 0           , 0
-0.003495846, 0.04414198  , -9.782125   , 0.0007456993, 0.0008568051, 0.000520483765, 0.0880409852, 0.434407443 , 0.3083457   , -0.003982046, -0.00247136946, -1.37227535 , 3.93        , 3           , 11          , 0.009809349 , 0.009809388
-0.0150312167, 0.0313484855, -9.757536   , 0.0004626327, 0.00114371441, 0.000809107849, 0.08817581  , 0.4337333   , 0.307671577 , -0.00397743937, -0.0024599  , -1.37226737 , 3.94        , 3           , 12          , 0.0619223267, 0
-0.0121802036, 0.02309648  , -9.789225   , 0.00189858628, 0.00199412275, 0.000257867447, 0.08858029  , 0.433800727 , 0.308750182 , -0.00395845948, -0.00243994873, -1.37226486 , 3.95        , 3           , 50          , 0           , 0
-0.01531169 , 0.03561864  , -9.776913   , 0.00268067978, -0.00403526751, 0.000461527467, 0.08858029  , 0.433800727 , 0.308750182 , -0.003931664, -0.00248028222, -1.37226009 , 3.96        , 3           , 11          , 0.009809349 , 0.009809388
-0.03978668 , 0.05541674  , -9.794976   , 0.00245563942, 0.00112604653, 0.000534937659, 0.08797357  , 0.434070379 , 0.3073345   , -0.003907121, -0.00246900134, -1.37225485 , 3.97        , 3           , 12          , 0.0619223267, 0
-0.031260483, 0.0552987121, -9.790834   , 0.001913448 , 0.002296059 , -0.00145494309, 0.08858029  , 0.4335985   , 0.3082783   , -0.00388795021, -0.00244609755, -1.37226939 , 3.98        , 3           , 50          , 0           , 0
-0.0277579557, 0.04710266  , -9.786379   , -0.00183184457, -0.00196250365, -0.00182598422, 0.0885128751, 0.433935553 , 0.308480531 , -0.00390622416, -0.0024657934, -1.37228751 , 3.99        , 3           , 11          , 0.009809349 , 0.009809388
-0.0137809534, 0.0496817231, -9.785769   , -0.00473273871, -0.00397457741, 0.00156167906, 0.0881084   , 0.434070379 , 0.307536751 , -0.00398690766, -0.00251909043, -1.37227154 , 4           , 3           , 12          , 0.0629920959, 0
-0.009856839, 0.0458891951, -9.771775   , 0.0003965273, -0.002885393, 0.002181542 , 0.0881084   , 0.434070379 , 0.307536751 , -0.0039829975, -0.00254785735, -1.3722496  , 4.01        , 3           , 50          , 0           , 0
-0.00537043065, 0.0502767935, -9.764004   , 0.003287969 , -0.000312041433, -0.000339238148, 0.08844546  , 0.433800727 , 0.30868277  , -0.00395010924, -0.002550991, -1.372253   , 4.02        , 3           , 11          , 0.009588725 , 0.009588771
-0.01513305 , 0.03945331  , -9.798096   , -0.0009877114, -0.000562954752, 0.000489379454, 0.08817581  , 0.434272617 , 0.307604164 , -0.00395999849, -0.002556601, -1.37224793 , 4.03        , 3           , 12          , 0.0629920959, 0
-0.0250193477, 0.0373430848, -9.803631   , 0.00359909772, 0.00084930216, -0.00232397881, 0.08831064  , 0.4335985   , 0.308008641 , -0.003923948, -0.00254819961, -1.3722713  , 4.04        , 3           , 50          , 0           , 0
-0.0314712  , 0.04874409  , -9.768327   , -0.000140437347, -0.00142624206, -9.03290056E-05, 0.08858029  , 0.433935553 , 0.308413118 , -0.00392534956, -0.00256246515, -1.37227213 , 4.05        , 3           , 11          , 0.009588725 , 0.009588771
-0.0273553375, 0.05147715  , -9.77413    , -0.00158600288, -0.004264788, -0.00157145131, 0.0880409852, 0.433935553 , 0.3072671   , -0.00394117 , -0.00260517444, -1.37228775 , 4.06        , 3           , 12          , 0.0629920959, 0
-0.0290553682, 0.04229962  , -9.799997   , 0.000412208028, -0.00201797718, 0.00133557071, 0.0880409852, 0.433935553 , 0.3072671   , -0.003937083, -0.00262530148, -1.37227428 , 4.07        , 3           , 50          , 0           , 0
-0.0209802464, 0.0461904332, -9.790845   , -0.000147325976, -0.000871000462, 0.00192116608, 0.08858029  , 0.433800727 , 0.308615357 , -0.003938606, -0.00263393577, -1.37225509 , 4.08        , 3           , 11          , 0.009588725 , 0.009588771
0.00117895752, 0.05950132  , -9.788229   , 0.00331408018, 0.003108992 , 0.00171399233, 0.08837805  , 0.434070379 , 0.308076054 , -0.0039055103, -0.00260277861, -1.37223792 , 4.09        , 3           , 12          , 0.0629920959, 0
-0.0195234586, 0.07304913  , -9.773357   , 0.00380770117, -0.00171978562, 0.000215906184, 0.08837805  , 0.4337333   , 0.308076054 , -0.003962898, -0.002500355, -1.3722353  , 4.1         , 3           , 50          , 0           , 0
-0.0258397777, 0.065962106 , -9.78027248 , 7.780109E-05, -0.0039825323, 0.00101873581, 0.08844546  , 0.43386814  , 0.3082783   , -0.003962146, -0.00254013971, -1.37222493 , 4.11        , 3           , 11          , 0.009709521 , 0.00970957149
-0.0164691731, 0.0501706675, -9.787144   , 0.0007247956, 0.00147716841, -0.00118785223, 0.08844546  , 0.43386814  , 0.3082783   , -0.003954868, -0.002525415, -1.37223685 , 4.12        , 3           , 12          , 0.06406709  , 0
-0.0232898183, 0.038108252 , -9.792315   , 0.002720549 , 0.00202754023, -0.0008813476, 0.0880409852, 0.4341378   , 0.3072671   , -0.00392764 , -0.00250517437, -1.37224579 , 4.13        , 3           , 50          , 0           , 0
-0.0124696074, 0.0415972173, -9.789917   , 0.00183533668, -0.0013925028, -0.002081226, 0.08844546  , 0.433800727 , 0.3083457   , -0.00390923442, -0.00251918077, -1.37226653 , 4.14        , 3           , 11          , 0.009709521 , 0.00970957149
-0.0160624348, 0.04831958  , -9.783096   , 0.00182406383, -0.00253626 , -0.00238408428, 0.08837805  , 0.4342052   , 0.3083457   , -0.00389093417, -0.00254463684, -1.37229025 , 4.15        , 3           , 12          , 0.06406709  , 0
-0.02180963 , 0.0520939119, -9.793946   , -0.00243978971, -0.00192487624, -0.00182911 , 0.0885128751, 0.43386814  , 0.307536751 , -0.00391528569, -0.00256395619, -1.37230837 , 4.16        , 3           , 50          , 0           , 0
-0.0279591363, 0.0267635081, -9.782099   , 0.00123536051, -0.00227461569, 0.00105063058, 0.0885128751, 0.43386814  , 0.307536751 , -0.00390295917, -0.00258666161, -1.37229776 , 4.17        , 3           , 11          , 0.009709521 , 0.00970957149
-0.0361127853, 0.0572761   , -9.803052   , 0.00214037229, 0.002864902 , 0.00227555051, 0.08884994  , 0.4335985   , 0.30868277  , -0.00388161326, -0.00255792355, -1.37227511 , 4.18        , 3           , 12          , 0.06406709  , 0
-0.0231676269, 0.0583264157, -9.785304   , -0.003320086, -0.00195204082, 0.00217204588, 0.08797357  , 0.434272617 , 0.307536751 , -0.00391487032, -0.002577359, -1.37225342 , 4.19        , 3           , 50          , 0           , 0
-0.0222946871, 0.06584365  , -9.772112   , -0.000471685984, -0.001098546, -8.746622E-05, 0.0882432237, 0.4337333   , 0.307941228 , -0.00399188045, -0.002580933, -1.37225342 , 4.2         , 3           , 11          , 0.0097883   , 0.00978836
-0.0114179645, 0.07609621  , -9.769633   , -0.000466459052, -0.000809407269, -0.000369456684, 0.08844546  , 0.434002966 , 0.3083457   , -0.003996535, -0.00258904183, -1.37225711 , 4.21        , 3           , 12          , 0.06514685  , 0
-0.0062344945, 0.0423280075, -9.77901    , -0.00272547873, 0.000646605447, -0.000362296152, 0.08837805  , 0.434070379 , 0.307469338 , -0.00402378058, -0.00258259033, -1.37226081 , 4.22        , 3           , 50          , 0           , 0
-0.0250328258, 0.04132865  , -9.79681    , 0.00296551269, 0.00143831247, 0.000829148339, 0.08837805  , 0.434070379 , 0.307469338 , -0.00399414636, -0.00256817415, -1.3722527  , 4.23        , 3           , 11          , 0.0097883   , 0.00978836
-0.02165922 , 0.0333802737, -9.773383   , 0.0035277924, 0.0008593748, 0.000824228046, 0.0885128751, 0.4336659   , 0.3088176   , -0.00395888928, -0.00255954778, -1.37224436 , 4.24        , 3           , 12          , 0.06514685  , 0
-0.003118867, 0.0435807034, -9.772191   , 9.719411E-05, -0.00110432529, -8.403942E-05, 0.08837805  , 0.43434003  , 0.307739    , -0.003957915, -0.0025705942, -1.37224519 , 4.25        , 3           , 50          , 0           , 0
-0.0109857675, 0.058259286 , -9.788807   , -0.001898294, -0.000807756849, 0.00105279638, 0.08837805  , 0.4336659   , 0.308076054 , -0.00397692574, -0.00257862941, -1.37223458 , 4.26        , 3           , 11          , 0.0097883   , 0.00978836
-0.0322480276, 0.04003866  , -9.796891   , -0.00100426632, 0.002059604 , -4.498413E-05, 0.08837805  , 0.434002966 , 0.308615357 , -0.003986967, -0.00255803484, -1.372235   , 4.27        , 3           , 12          , 0.06514685  , 0
-0.0306803454, 0.04233647  , -9.760263   , -0.00789326 , -0.00246910914, 0.0012779379, 0.08837805  , 0.434002966 , 0.308615357 , -0.00406593224, -0.00258267438, -1.37222207 , 4.28        , 3           , 50          , 0           , 0
-0.003793849, 0.0267704688, -9.760197   , -0.0004859937, -0.00168194226, 0.00104884279, 0.0881084   , 0.434002966 , 0.307064861 , -0.00407081936, -0.00259945076, -1.37221158 , 4.29        , 3           , 11          , 0.0097883   , 0.00978836
-0.0170032661, 0.04648508  , -9.779512   , -0.001613052, -0.00165450491, 0.000183480544, 0.08837805  , 0.433800727 , 0.308615357 , -0.0040698736, -0.00258755265, -1.37220979 , 4.3         , 3           , 12          , 0.06623096  , 0
-0.0310166981, 0.05186264  , -9.765125   , 0.000383809325, -0.00166705379, -0.000663017738, 0.0882432237, 0.4341378   , 0.30821088  , -0.00406601746, -0.00260425033, -1.37221646 , 4.31        , 3           , 50          , 0           , 0
-0.0324078128, 0.03845852  , -9.775682   , 0.00297375722, -0.000242247959, -0.00262987753, 0.08844546  , 0.433935553 , 0.307671577 , -0.004036212, -0.00260677887, -1.37224269 , 4.32        , 3           , 11          , 0.009905177 , 0.009905248
-0.0133777568, 0.04292874  , -9.787199   , 0.00100741547, 0.00291499286, -0.0008789785, 0.0886477   , 0.4337333   , 0.308615357 , -0.00402611447, -0.00257766526, -1.37225151 , 4.33        , 3           , 12          , 0.06623096  , 0
-0.00295481086, 0.0482833162, -9.790204   , 0.000408836058, 0.000341559818, -0.0009199671, 0.0886477   , 0.4337333   , 0.308615357 , -0.004022002, -0.00257428619, -1.37226081 , 4.34        , 3           , 50          , 0           , 0
-0.0136758555, 0.04583648  , -9.805688   , 0.0027027824, 0.00175389822, -0.00117155607, 0.0881084   , 0.4342052   , 0.3071997   , -0.003994944, -0.002556794, -1.37227249 , 4.35        , 3           , 11          , 0.009905177 , 0.009905248
-0.0147040533, 0.0469841361, -9.78580952 , -0.00299565215, 0.00179889286, 0.000224996 , 0.08831064  , 0.43386814  , 0.308413118 , -0.004024906, -0.00253879675, -1.37227035 , 4.36        , 3           , 12          , 0.06623096  , 0
0.0020888932, 0.0414542258, -9.746422   , 0.004434715 , 0.004592114 , 2.51155725E-05, 0.0881084   , 0.43434003  , 0.308480531 , -0.00398055976, -0.0024928744, -1.37227023 , 4.37        , 3           , 50          , 0           , 0
-0.0104015674, 0.02749792  , -9.780575   , 0.004397861 , 0.00172120333, 0.000555708248, 0.08831064  , 0.433800727 , 0.307604164 , -0.003936594, -0.00247564027, -1.37226474 , 4.38        , 3           , 11          , 0.009905177 , 0.009905248
-0.002122471, 0.02146307  , -9.813089   , 0.000107342319, -0.0008069862, -0.0003660465, 0.08831064  , 0.433800727 , 0.307604164 , -0.003935511, -0.002483724, -1.37226832 , 4.39        , 3           , 12          , 0.06623096  , 0
-0.0199072827, 0.05935562  , -9.799717   , -0.0035822  , -0.001605696, -0.000400926336, 0.08858029  , 0.433800727 , 0.308615357 , -0.003907169, -0.002416595, -1.37227321 , 4.4         , 3           , 50          , 0           , 0
-0.0128653906, 0.05147751  , -9.785741   , 0.00100294757, 0.0006509414, -0.00148477976, 0.0880409852, 0.434272617 , 0.307671577 , -0.00389710371, -0.00241014385, -1.37228811 , 4.41        , 3           , 11          , 0.0101328064, 0.0101328669
-0.0110766627, 0.01291318  , -9.765843   , 0.000684400031, -0.00164904038, -0.000375225442, 0.08831064  , 0.4335985   , 0.307941228 , -0.003890251, -0.00242664851, -1.3722918  , 4.42        , 3           , 12          , 0.06731904  , 0
-0.0309541654, 0.0399398   , -9.788751   , -0.000713038142, -0.000472918473, -0.00208408223, 0.08837805  , 0.434002966 , 0.308480531 , -0.00389733049, -0.00243145879, -1.37231266 , 4.43        , 3           , 50          , 0           , 0
-0.0458384752, 0.0346873328, -9.791658   , 0.002405613 , -0.000236041844, -5.79133775E-05, 0.08817581  , 0.43386814  , 0.3071997   , -0.003873273, -0.00243382133, -1.37231338 , 4.44        , 3           , 11          , 0.0101328064, 0.0101328669
-0.0234613083, 0.03027833  , -9.777049   , 0.0004153524, 0.000349665235, 0.0007969319, 0.08817581  , 0.43386814  , 0.3071997   , -0.003869139, -0.00243029441, -1.37230539 , 4.45        , 3           , 12          , 0.06731904  , 0
-0.0106885489, 0.04778292  , -9.779439   , 0.00271893363, 0.001774801 , -0.0008854774, 0.08884994  , 0.4336659   , 0.308547944 , -0.00384192774, -0.00241258042, -1.37231421 , 4.46        , 3           , 50          , 0           , 0
-0.0328386165, 0.04116303  , -9.775203   , -0.003838024, -0.000436013535, -0.00267525762, 0.0882432237, 0.4341378   , 0.307941228 , -0.00388024352, -0.00241704355, -1.37234092 , 4.47        , 3           , 11          , 0.0101328064, 0.0101328669
-0.0290866867, 0.0493737869, -9.786818   , 0.00352053833, -0.00140671455, 0.001363066 , 0.08831064  , 0.4337333   , 0.307873815 , -0.003845072, -0.00243105786, -1.37232721 , 4.48        , 3           , 12          , 0.06731904  , 0
-0.004857313, 0.03167355  , -9.795832   , 0.002395713 , -0.00109577924, -7.04339764E-05, 0.08884994  , 0.4337333   , 0.3082783   , -0.00382111245, -0.00244201836, -1.3723278  , 4.49        , 3           , 50          , 0           , 0
-0.0269716326, 0.0304500144, -9.790178   , 0.00303060934, 0.00382994628, 0.00200706744, 0.08884994  , 0.4337333   , 0.3082783   , -0.0037058813, -0.00212230231, -1.37230945 , 4.5         , 3           , 11          , 0.0102337431, 0.0102338009
-0.02014771 , 0.0402917936, -9.788196   , 0.00444676355, 0.00296087959, 0.00143078552, 0.08817581  , 0.43386814  , 0.3072671   , -0.00366144348, -0.00209264061, -1.37229514 , 4.51        , 3           , 12          , 0.06841072  , 0
-0.03611335 , 0.0249772277, -9.777226   , 0.0009784915, -0.00243921066, 0.000186271791, 0.08844546  , 0.4337333   , 0.3082783   , -0.0036516625, -0.00211702636, -1.37229323 , 4.52        , 3           , 50          , 0           , 0
-0.0248932261, 0.0239338651, -9.77307    , -0.00159604172, -0.00384354033, -0.000136180446, 0.08831064  , 0.4342052   , 0.3082783   , -0.00366762048, -0.00215546624, -1.37229455 , 4.53        , 3           , 11          , 0.0102337431, 0.0102338009
0.00410524756, 0.0560126938, -9.759785   , -0.0009479617, 0.00302857975, -3.258884E-05, 0.08844546  , 0.4337333   , 0.307671577 , -0.003677099, -0.00212518172, -1.3722949  , 4.54        , 3           , 12          , 0.06841072  , 0
0.01144283  , 0.06149632  , -9.772303   , 0.004462179 , 0.00298135565, -0.0008585264, 0.08858029  , 0.433800727 , 0.308547944 , -0.00363245886, -0.00209540012, -1.37230372 , 4.55        , 3           , 50          , 0           , 0
-0.01629685 , 0.05399566  , -9.807424   , 0.00329746469, 0.000981741 , -0.000322266656, 0.08858029  , 0.433800727 , 0.308547944 , -0.0035994777, -0.00208559376, -1.37230682 , 4.56        , 3           , 11          , 0.0102337431, 0.0102338009
-0.0249775779, 0.06099915  , -9.780773   , 0.00217813184, 0.002428755 , -0.0005944166, 0.08797357  , 0.4342052   , 0.307401925 , -0.00357768359, -0.00206132769, -1.3723129  , 4.57        , 3           , 12          , 0.06841072  , 0
-0.0293868  , 0.06696787  , -9.787068   , -0.0004153814, -0.00012957002, -7.5070915E-05, 0.0882432237, 0.433800727 , 0.307941228 , -0.003581836, -0.00206262618, -1.37231362 , 4.58        , 3           , 50          , 0           , 0
-0.0278043542, 0.0523732   , -9.77322    , 0.002134967 , -0.00214371388, -0.00209201314, 0.08831064  , 0.4342052   , 0.308143467 , -0.003560443, -0.00208413787, -1.37233448 , 4.59        , 3           , 11          , 0.0102337431, 0.0102338009
-0.0265743248, 0.0401579551, -9.77064    , -0.0018617399, -0.00324317161, -0.00327728014, 0.08831064  , 0.433935553 , 0.3073345   , -0.00361253973, -0.00213087932, -1.37236655 , 4.6         , 3           , 12          , 0.0695056543, 0
-0.0161681287, 0.0517187528, -9.763636   , 0.00385206332, 0.0006829895, -3.67789762E-05, 0.08831064  , 0.433935553 , 0.3073345   , -0.003574018, -0.00212405063, -1.372367   , 4.61        , 3           , 50          , 0           , 0
-0.02015657 , 0.04072333  , -9.786383   , 0.003016905 , 0.00128017389, -0.00175055617, 0.08884994  , 0.4335985   , 0.308750182 , -0.00354381185, -0.002111311, -1.37238455 , 4.62        , 3           , 11          , 0.009733421 , 0.00973347
-0.0196776651, 0.0363119729, -9.795916   , -0.000131204215, 0.00128636451, 0.00109223661, 0.0881084   , 0.43434003  , 0.307739    , -0.00354514667, -0.00209840923, -1.37237358 , 4.63        , 3           , 12          , 0.0695056543, 0
-0.00644381158, 0.02064099  , -9.775197   , 0.000708915468, 0.000131378969, 0.00108068273, 0.08831064  , 0.433531076 , 0.307941228 , -0.00353808026, -0.00209705671, -1.37236285 , 4.64        , 3           , 50          , 0           , 0
0.00777654862, 0.04673973  , -9.781089   , 0.00183210277, -0.0013105158, 0.000780504546, 0.08871511  , 0.434070379 , 0.30821088  , -0.00351977581, -0.00211013481, -1.372355   , 4.65        , 3           , 11          , 0.009733421 , 0.00973347
-0.0304513145, 0.0369005129, -9.800074   , 0.00214816933, 0.00126836658, 0.0005336157, 0.08871511  , 0.434070379 , 0.30821088  , -0.003498305, -0.0020974318, -1.37234974 , 4.66        , 3           , 12          , 0.0695056543, 0
-0.0264075678, 0.05376739  , -9.778161   , 0.00271401438, 0.00182294811, 0.00197620969, 0.08837805  , 0.434002966 , 0.307401925 , -0.003471206, -0.00207913388, -1.37233    , 4.67        , 3           , 50          , 0           , 0
-0.02611643 , 0.0388303474, -9.773361   , -0.00271508284, -0.00125916267, 0.000180762217, 0.08871511  , 0.4335985   , 0.308750182 , -0.00349836051, -0.00209171884, -1.372328   , 4.68        , 3           , 11          , 0.009733421 , 0.00973347
-0.0127011668, 0.0221018121, -9.780207   , 0.00274318387, 0.00270828069, -0.00087291 , 0.0882432237, 0.4342052   , 0.30821088  , -0.00347091071, -0.00206466625, -1.37233686 , 4.69        , 3           , 12          , 0.0695056543, 0
-0.0324539952, 0.0392780751, -9.767994   , 0.000174806861, 0.00243508955, 0.0011105825, 0.0885128751, 0.43386814  , 0.307941228 , -0.00343750557, -0.00202023983, -1.37232614 , 4.7         , 3           , 50          , 0           , 0
-0.0150944935, 0.05153098  , -9.788921   , 0.0004633894, 0.00130891893, -0.00147987437, 0.08891735  , 0.4335985   , 0.3083457   , -0.003432842, -0.00200720178, -1.37234092 , 4.71        , 3           , 11          , 0.00990927  , 0.009909326
-0.020169938, 0.0424834043, -9.782298   , 0.00042569323, -0.0001521316, 0.00164706225, 0.08891735  , 0.4335985   , 0.3083457   , -0.003428618, -0.00200866652, -1.37232447 , 4.72        , 3           , 12          , 0.0706035346, 0
-0.0154044572, 0.0207871366, -9.781601   , -0.00125592 , 0.00187381962, 0.00137983239, 0.0882432237, 0.4341378   , 0.3072671   , -0.00344120478, -0.00198988128, -1.37231076 , 4.73        , 3           , 50          , 0           , 0
-0.003994804, 0.045406688 , -9.773533   , -0.00132577342, -0.00386288227, 0.00186868967, 0.08858029  , 0.433800727 , 0.3083457   , -0.00345449965, -0.00202844525, -1.37229192 , 4.74        , 3           , 11          , 0.00990927  , 0.009909326
-0.007448267, 0.04566547  , -9.794792   , 0.000389128283, -0.004151442, 0.000157812552, 0.08844546  , 0.4342052   , 0.3082783   , -0.003450612, -0.00206995453, -1.37229025 , 4.75        , 3           , 12          , 0.0706035346, 0
-0.016076168, 0.0451825969, -9.784939   , 0.00127792847, -0.00157322013, -0.0006579775, 0.0885128751, 0.43386814  , 0.307671577 , -0.00343781966, -0.00208570855, -1.37229681 , 4.76        , 3           , 50          , 0           , 0
-0.0079887975, 0.0441957   , -9.783522   , 0.00073352136, 0.0007226329, -0.000341852021, 0.0885128751, 0.43386814  , 0.307671577 , -0.00343047734, -0.00207849452, -1.3723     , 4.77        , 3           , 11          , 0.00990927  , 0.009909326
-0.03544697 , 0.04934157  , -9.778746   , 0.00214059441, -0.000440691336, -6.38151541E-05, 0.08891735  , 0.433800727 , 0.308480531 , -0.00340907 , -0.00208290271, -1.37230062 , 4.78        , 3           , 12          , 0.0706035346, 0
-0.03096281 , 0.03592036  , -9.79241    , -8.431767E-05, 0.00331819244, -0.00116792228, 0.08817581  , 0.434070379 , 0.307604164 , -0.00340988883, -0.002049761, -1.37231243 , 4.79        , 3           , 50          , 0           , 0
-0.03692533 , 0.036694102 , -9.775744   , -0.00302000064, -0.00186832 , 0.00274613849, 0.0885128751, 0.4336659   , 0.3078064   , -0.003459128, -0.00215007737, -1.37228429 , 4.8         , 3           , 11          , 0.0100439042, 0.0100439647
-0.0219878163, 0.03935726  , -9.783706   , -0.00100167829, -0.00100577436, 0.000195176617, 0.0885128751, 0.434002966 , 0.3082783   , -0.00346914958, -0.002160128, -1.37228227 , 4.81        , 3           , 12          , 0.07170405  , 0
-0.0146025652, 0.0520360246, -9.7943325  , 0.00352322683, -0.00249770167, 0.00163254316, 0.08831064  , 0.434070379 , 0.307401925 , -0.003433953, -0.0021850483, -1.37226593 , 4.82        , 3           , 50          , 0           , 0
-0.02509235 , 0.0439082757, -9.785037   , -0.00211934932, -0.000403140933, -0.0018064779, 0.08831064  , 0.434070379 , 0.307401925 , -0.00345510687, -0.00218914216, -1.37228394 , 4.83        , 3           , 11          , 0.0100439042, 0.0100439647
-0.0215113033, 0.04473518  , -9.78093    , -0.00329039758, -0.002128974, 0.000164775323, 0.08878253  , 0.4337333   , 0.308615357 , -0.00348801468, -0.00221042638, -1.37228227 , 4.84        , 3           , 12          , 0.07170405  , 0
-0.02895895 , 0.0598075241, -9.792567   , 0.00159183494, 0.00155255047, -0.000324169057, 0.08831064  , 0.434272617 , 0.307873815 , -0.00347208953, -0.00219491217, -1.37228537 , 4.85        , 3           , 50          , 0           , 0
-0.0209244415, 0.05473345  , -9.788487   , -0.000452863285, -0.00357796857, -0.00126977824, 0.08831064  , 0.433800727 , 0.307873815 , -0.00347659038, -0.00223073573, -1.372298   , 4.86        , 3           , 11          , 0.0100439042, 0.0100439647
-0.02660913 , 0.0285311788, -9.779808   , 0.00125156064, -0.0024694656, 0.0010465082, 0.08858029  , 0.433935553 , 0.3082783   , -0.00346409855, -0.00225539366, -1.37228751 , 4.87        , 3           , 12          , 0.07170405  , 0
-0.0336888246, 0.03412574  , -9.791101   , -0.00216253754, -0.00300026988, 0.0001591083, 0.08858029  , 0.433935553 , 0.3082783   , -0.00348572736, -0.00228539063, -1.37228572 , 4.88        , 3           , 50          , 0           , 0
-0.005563058, 0.0542363524, -9.796482   , -0.000732365064, -0.00215754 , 0.000466359867, 0.08817581  , 0.4341378   , 0.307064861 , -0.00349306269, -0.00230695 , -1.372281   , 4.89        , 3           , 11          , 0.0100439042, 0.0100439647
-0.0275406931, 0.04921597  , -9.815262   , 0.0029064808, 0.0004594544, 0.000527086435, 0.0886477   , 0.43386814  , 0.308480531 , -0.00381333148, -0.002005007, -1.37227261 , 4.9         , 3           , 12          , 0.07280695  , 0
-0.0165556129, 0.03534885  , -9.792736   , 0.00121277524, 0.000776169 , -0.00090984063, 0.0886477   , 0.434272617 , 0.308076054 , -0.0038011854, -0.00199728 , -1.37228167 , 4.91        , 3           , 50          , 0           , 0
-0.0306160487, 0.04555088  , -9.765646   , -0.00338145182, -0.0017747262, 0.00102833158, 0.0885128751, 0.434070379 , 0.307671577 , -0.00383502059, -0.00201498764, -1.3722713  , 4.92        , 3           , 11          , 0.009924436 , 0.00992449
-0.0365308523, 0.0397207066, -9.763961   , 0.000898900733, -0.000953214068, 0.000494225 , 0.0886477   , 0.4335985   , 0.308750182 , -0.003826042, -0.00202450063, -1.37226641 , 4.93        , 3           , 12          , 0.07280695  , 0
-0.0311404876, 0.025855273 , -9.778976   , -0.0007802313, 0.0007938367, -0.000635670149, 0.0886477   , 0.4335985   , 0.308750182 , -0.00383383152, -0.00201658718, -1.37227273 , 4.94        , 3           , 50          , 0           , 0
-0.01664408 , 0.0352133624, -9.78009    , 0.002293328 , -0.00354431523, 0.000179066163, 0.08797357  , 0.434272617 , 0.307469338 , -0.003810902, -0.00205202261, -1.37227082 , 4.95        , 3           , 11          , 0.009924436 , 0.00992449
-0.0178309288, 0.0559522733, -9.778508   , 0.0005935532, -0.00210687914, 0.00162047346, 0.08837805  , 0.4336659   , 0.30821088  , -0.00380500033, -0.00207303 , -1.37225449 , 4.96        , 3           , 12          , 0.07280695  , 0
-0.0258190334, 0.0557557978, -9.795748   , 0.000293721358, -0.00409980537, 0.00044488936, 0.08837805  , 0.4342052   , 0.308480531 , -0.003802073, -0.00211401028, -1.37224984 , 4.97        , 3           , 50          , 0           , 0
-0.00724891759, 0.06466641  , -9.800443   , -0.00511090364, -0.004891842, -0.00103100587, 0.0882432237, 0.43386814  , 0.307604164 , -0.00385316019, -0.00216296781, -1.37226    , 4.98        , 3           , 11          , 0.009924436 , 0.00992449
-0.0187112913, 0.0453077257, -9.794447   , 0.004338869 , 0.0001763438, -0.00147166813, 0.0882432237, 0.43386814  , 0.307604164 , -0.0038097396, -0.002161261, -1.37227464 , 4.99        , 3           , 12          , 0.07280695  , 0
-0.0152730606, 0.03389727  , -9.784611   , -0.0008486758, -0.00208943128, 0.00189825194, 0.08858029  , 0.4337333   , 0.308615357 , -0.00389106059, -0.00215970282, -1.37225461 , 5           , 3           , 50          , 0           , 0
-0.0116793234, 0.0463170744, -9.768173   , 0.00145820528, -0.0003777162, 0.000220016125, 0.0880409852, 0.4342052   , 0.307671577 , -0.00387648377, -0.00216347142, -1.37225246 , 5.01        , 3           , 11          , 0.009271394 , 0.009271439
-0.009378936, 0.0361347124, -9.787693   , 0.00284191361, -0.00439403439, -0.0009745025, 0.08831064  , 0.433800727 , 0.307941228 , -0.00384804327, -0.002207449, -1.37226212 , 5.02        , 3           , 12          , 0.07391194  , 0
-0.0326678976, 0.0391988344, -9.802325   , 0.00321957213, 0.00419277232, 1.09090324E-05, 0.08837805  , 0.433800727 , 0.308547944 , -0.00381584722, -0.002165521, -1.37226212 , 5.03        , 3           , 50          , 0           , 0
-0.03171682 , 0.05084196  , -9.795407   , 0.00146892434, 0.00104750111, 0.00109937589, 0.08831064  , 0.434070379 , 0.3072671   , -0.003801182, -0.0021550043, -1.37225115 , 5.04        , 3           , 11          , 0.009271394 , 0.009271439
