Acc X       , Acc Y       , Acc Z       , Gyro X      , Gyro Y      , Gyro Z      , Magn X      , Magn Y      , Magn Z      , Euler X     , Euler Y     , Euler Z     , Time        , Status      , LowRate X   , LowRate Y   , LowRate Z    
-0.114367105, -0.07708241 , -9.785899   , 0.0005528103, 0.0004347337, -0.00130686793, 0.202170685 , -0.09586086 , 0.346838355 , 0.008084981 , -0.0113128358, 0.461773157 , 0           , 3           , 11          , 0.0346410163, 0.0346410163
-0.101999253, -0.09981487 , -9.778821   , 0.00144243031, 0.00357843563, -0.00125581888, 0.202305511 , -0.09579345 , 0.346703529 , 0.008099544 , -0.011276952, 0.461761    , 0.01        , 3           , 12          , 0.0346410163, 0
-0.111521646, -0.07554999 , -9.804826   , -0.0024266676, 0.00174444285, -0.000161421718, 0.202372923 , -0.09599569 , 0.346838355 , 0.008075293 , -0.0112594934, 0.461759567 , 0.02        , 3           , 50          , 0           , 0
-0.08555919 , -0.0875831544, -9.797049   , -0.00285991584, 0.0001879489, -0.00190393021, 0.202372923 , -0.09599569 , 0.346838355 , 0.008046909 , -0.01125746 , 0.4617405   , 0.03        , 3           , 11          , 0.0346410163, 0.0346410163
-0.088644065, -0.08478254 , -9.803368   , -0.000258019048, 0.00388619164, -0.001691172, 0.202575162 , -0.0960631  , 0.3470406   , 0.008044517 , -0.011218464, 0.461724043 , 0.04        , 3           , 12          , 0.0346410163, 0
-0.112935334, -0.08008599 , -9.801279   , -0.0004178468, 0.00301766139, -0.0005598932, 0.2022381   , -0.09579345 , 0.347242832 , 0.0080403965, -0.0111882435, 0.461718559 , 0.05        , 3           , 50          , 0           , 0
-0.118810475, -0.070720844, -9.78677    , 0.000274272315, 0.00185644173, 0.0002861882, 0.202440336 , -0.0959282741, 0.347108    , 0.008043107 , -0.0111697027, 0.461721659 , 0.06        , 3           , 11          , 0.0346410163, 0.0346410163
-0.116378307, -0.06289601 , -9.80337    , 0.00242338539, 0.0031256557, 0.000174737565, 0.202305511 , -0.0959282741, 0.346905768 , 0.008067318 , -0.0111384625, 0.461723566 , 0.07        , 3           , 12          , 0.0346410163, 0
-0.0990296155, -0.06737802 , -9.777967   , 0.00301715988, 0.00470501976, -0.0008004551, 0.202305511 , -0.0959282741, 0.346905768 , 0.008097574 , -0.0110913487, 0.461715937 , 0.08        , 3           , 50          , 0           , 0
-0.101283617, -0.06246621 , -9.771608   , 0.000287472 , 0.00300275837, 0.000302882429, 0.202103272 , -0.09599569 , 0.346973181 , 0.008100413 , -0.0110613471, 0.461719275 , 0.09        , 3           , 11          , 0.0346410163, 0.0346410163
-0.104101636, -0.06929821 , -9.76313    , -0.000175154433, 0.000569382042, 0.000694122165, 0.202507749 , -0.09599569 , 0.347175419 , 0.007791445 , -0.0109303892, 0.461729527 , 0.1         , 3           , 12          , 0.0346410163, 0
-0.09047271 , -0.0750163  , -9.787463   , -3.56802047E-05, -1.01999831E-07, 0.000114303839, 0.2022381   , -0.0959282741, 0.346973181 , 0.00779107632, -0.0109303994, 0.461730719 , 0.11        , 3           , 50          , 0           , 0
-0.106806144, -0.07150501 , -9.765439   , -0.00318624661, -0.00169035082, 0.0003565793, 0.202440336 , -0.0959282741, 0.346905768 , 0.007759176 , -0.010947329, 0.461734056 , 0.12        , 3           , 11          , 0.0346410163, 0.0346410163
-0.11866688 , -0.09211571 , -9.76849651 , -0.000601669657, 9.516225E-06, -0.000318368955, 0.202440336 , -0.09599569 , 0.346905768 , 0.007753195 , -0.0109472089, 0.461730957 , 0.13        , 3           , 12          , 0.0346410163, 0
-0.133421272, -0.0922727361, -9.783992   , 0.00210477365, 0.000269923854, -0.000441000157, 0.202440336 , -0.09599569 , 0.346905768 , 0.007774292 , -0.0109444773, 0.461726427 , 0.14        , 3           , 50          , 0           , 0
-0.09700235 , -0.05636391 , -9.797244   , 0.000231163838, -0.00186063722, -0.00048343878, 0.202372923 , -0.09586086 , 0.346905768 , 0.007776657 , -0.0109630451, 0.461721659 , 0.15        , 3           , 11          , 0.0346410163, 0.0346410163
-0.132023036, -0.09443741 , -9.793489   , -0.00118374918, -0.001131021, -0.000338489917, 0.202170685 , -0.09579345 , 0.3470406   , 0.00776485726, -0.01097433 , 0.461718082 , 0.16        , 3           , 12          , 0.0346410163, 0
-0.131613016, -0.0985091552, -9.79263    , -0.00201356015, 0.001166442 , 0.0001190042, 0.202305511 , -0.09599569 , 0.347108    , 0.00774470763, -0.0109626735, 0.4617195   , 0.17        , 3           , 50          , 0           , 0
-0.117953755, -0.07969841 , -9.791384   , -0.00487212371, 4.774174E-05, 0.000228258141, 0.2022381   , -0.0959282741, 0.346973181 , 0.00769596128, -0.0109622134, 0.461721659 , 0.18        , 3           , 11          , 0.0346410163, 0.0346410163
-0.107448973, -0.0559680052, -9.783785   , -0.00560452929, -0.002371999, -0.0008130743, 0.2022381   , -0.0959282741, 0.346973181 , 0.00764000742, -0.010985869, 0.4617133   , 0.19        , 3           , 12          , 0.0346410163, 0
-0.101341784, -0.08659254 , -9.792665   , -0.00147430017, -0.0009720053, -0.00176874513, 0.202372923 , -0.09599569 , 0.346905768 , 0.00714585045, -0.0109944288, 0.461700916 , 0.2         , 3           , 50          , 0           , 0
-0.09468311 , -0.0642917454, -9.816738   , -0.00145451177, 0.00173513987, -1.21125595E-05, 0.202170685 , -0.09599569 , 0.347242832 , 0.00713130552, -0.0109770773, 0.461700916 , 0.21        , 3           , 11          , 0.0313904844, 0.03139047
-0.11114163 , -0.0738809258, -9.792608   , -0.003705559, 0.00404833071, 0.0002937325, 0.2022381   , -0.09599569 , 0.3470406   , 0.007094215 , -0.010936616, 0.461704016 , 0.22        , 3           , 12          , 0.0346698426, 0
-0.108694285, -0.08453174 , -9.768768   , 0.000412088062, 0.00300980266, -0.000411440677, 0.202507749 , -0.0959282741, 0.346973181 , 0.00709837768, -0.0109064905, 0.4617002   , 0.23        , 3           , 50          , 0           , 0
-0.124181643, -0.06127738 , -9.779935   , 0.00523766829, 0.00210094149, -0.000394833623, 0.202507749 , -0.0959282741, 0.346973181 , 0.00715079624, -0.0108854529, 0.4616964   , 0.24        , 3           , 11          , 0.0313904844, 0.03139047
-0.124931358, -0.06860588 , -9.810741   , 0.004959274 , 0.00295844954, 0.000188301565, 0.202103272 , -0.0959282741, 0.347108    , 0.00720036635, -0.0108558824, 0.461698532 , 0.25        , 3           , 12          , 0.0346698426, 0
-0.104804993, -0.09347081 , -9.821233   , 0.00224471348, 0.00240506418, 0.00102216925, 0.202035859 , -0.09599569 , 0.347175419 , 0.0072227004, -0.0108319055, 0.461708784 , 0.26        , 3           , 50          , 0           , 0
-0.123239964, -0.106874146, -9.776388   , -0.00175160938, 0.00129792257, 0.00112456968, 0.201968446 , -0.09579345 , 0.347175419 , 0.007205062 , -0.0108190076, 0.461720228 , 0.27        , 3           , 11          , 0.0313904844, 0.03139047
-0.10141065 , -0.07467937 , -9.768137   , -0.000322255772, 0.00157517265, 0.000564982241, 0.202372923 , -0.0959282741, 0.347175419 , 0.007201778 , -0.0108032981, 0.46172595  , 0.28        , 3           , 12          , 0.0346698426, 0
-0.09845217 , -0.07119332 , -9.801043   , 0.0028045245, 0.0011173574, 0.000148323219, 0.202170685 , -0.09613051 , 0.3470406   , 0.007229806 , -0.0107921362, 0.461727619 , 0.29        , 3           , 50          , 0           , 0
-0.1082882  , -0.09840244 , -9.779314   , 0.00307698082, -5.037231E-06, 0.000133125635, 0.202170685 , -0.09613051 , 0.3470406   , 0.0072801467, -0.0103604663, 0.4617288   , 0.3         , 3           , 11          , 0.0272555389, 0.0272554848
-0.102210514, -0.07718825 , -9.785789   , 0.0005241749, 0.000312667544, -0.0004504494, 0.202170685 , -0.0959282741, 0.3470406   , 0.00728543429, -0.0103573082, 0.461724281 , 0.31        , 3           , 12          , 0.0347559527, 0
-0.11065679 , -0.08317967 , -9.808971   , -0.00175010471, 0.000196334266, -0.00089548924, 0.202305511 , -0.09579345 , 0.3470406   , 0.00726802554, -0.0103552788, 0.461715221 , 0.32        , 3           , 50          , 0           , 0
-0.118426211, -0.07750288 , -9.78549    , -0.000901325257, 4.053654E-05, -0.000463189848, 0.202170685 , -0.09599569 , 0.347108    , 0.007259059 , -0.01035484 , 0.4617107   , 0.33        , 3           , 11          , 0.0272555389, 0.0272554848
-0.09664549 , -0.07164539 , -9.802386   , -0.0006188122, 3.508737E-05, -0.000175312525, 0.202440336 , -0.0960631  , 0.347108    , 0.00725289  , -0.0103544751, 0.461708784 , 0.34        , 3           , 12          , 0.0347559527, 0
-0.08493687 , -0.0793110952, -9.811852   , -0.00218474958, 0.000331160671, 0.0005348474, 0.202440336 , -0.0960631  , 0.347108    , 0.00723098638, -0.0103512025, 0.461714268 , 0.35        , 3           , 50          , 0           , 0
-0.117057145, -0.0779316649, -9.788644   , 0.000970212743, 0.00273273815, 0.000875333732, 0.202372923 , -0.0960631  , 0.346905768 , 0.007240596 , -0.01032394 , 0.461723328 , 0.36        , 3           , 11          , 0.0272555389, 0.0272554848
-0.101927273, -0.0863506  , -9.772793   , 0.00624171039, 0.0028328076, -0.000235537766, 0.202305511 , -0.09586086 , 0.347108    , 0.007303036 , -0.0102955941, 0.461721182 , 0.37        , 3           , 12          , 0.0347559527, 0
-0.1064138  , -0.0885127038, -9.777828   , 0.00150953711, -0.0004164535, -0.000168722385, 0.202305511 , -0.09586086 , 0.347310245 , 0.007318149 , -0.0102997459, 0.461719275 , 0.38        , 3           , 50          , 0           , 0
-0.119419932, -0.08342454 , -9.779244   , -0.0020645333, -0.00125158858, 0.00108507765, 0.202507749 , -0.09586086 , 0.347108    , 0.007297392 , -0.0103123412, 0.46173     , 0.39        , 3           , 11          , 0.0272555389, 0.0272554848
-0.117884547, -0.0613419339, -9.77897549 , -0.000468726241, 0.000434154936, 0.00111955171, 0.2022381   , -0.09599569 , 0.3470406   , 0.00738833938, -0.0104554761, 0.461740255 , 0.4         , 3           , 12          , 0.034898486 , 0
-0.105613232, -0.0993567854, -9.77659    , -0.00201443047, 0.000757103262, -0.00117501034, 0.2022381   , -0.09599569 , 0.3470406   , 0.007368319 , -0.0104478188, 0.461728573 , 0.41        , 3           , 50          , 0           , 0
-0.1327882  , -0.07152048 , -9.785102   , -0.001326298, -0.000832705, -0.0004782713, 0.202305511 , -0.09586086 , 0.347108    , 0.007355106 , -0.0104561094, 0.4617238   , 0.42        , 3           , 11          , 0.0178082343, 0.01780825
-0.1227987  , -0.0607946664, -9.783982   , 8.255761E-05, -0.00142926967, 0.000523522554, 0.2022381   , -0.0959282741, 0.347108    , 0.007355879 , -0.0104704387, 0.4617288   , 0.43        , 3           , 12          , 0.034898486 , 0
-0.106052756, -0.0868727  , -9.7629     , -0.00245154486, 0.000183160329, -0.00061359955, 0.202440336 , -0.09599569 , 0.347108    , 0.00733142765, -0.0104685631, 0.461722851 , 0.44        , 3           , 50          , 0           , 0
-0.116542637, -0.09277495 , -9.750868   , -0.001147369, 0.00260096067, 1.91375875E-06, 0.202440336 , -0.09586086 , 0.346905768 , 0.0073199505, -0.0104425559, 0.4617231   , 0.45        , 3           , 11          , 0.0178082343, 0.01780825
-0.125477478, -0.071864754, -9.800848   , 0.00100380415, 0.004296204 , 0.00032596942, 0.202440336 , -0.09586086 , 0.346905768 , 0.007329951 , -0.0103996173, 0.461726427 , 0.46        , 3           , 12          , 0.034898486 , 0
-0.08785328 , -0.0773911253, -9.778432   , -1.538945E-05, 0.0025817242, 0.0008672594, 0.202170685 , -0.09613051 , 0.347108    , 0.007329706 , -0.0103738643, 0.4617355   , 0.47        , 3           , 50          , 0           , 0
-0.09138266 , -0.0750229657, -9.786116   , 0.00107932638, -0.0005911638, 0.00182977808, 0.202035859 , -0.09586086 , 0.347242832 , 0.00734030968, -0.0103799077, 0.4617536   , 0.48        , 3           , 11          , 0.0178082343, 0.01780825
-0.14013207 , -0.102386378, -9.80269    , 0.00166787347, 0.0006990619, 0.00113657583, 0.202372923 , -0.0959282741, 0.347310245 , 0.00735687  , -0.010373001, 0.461765051 , 0.49        , 3           , 12          , 0.034898486 , 0
-0.131394118, -0.07903312 , -9.800532   , 0.00183470466, 0.00355529319, 0.000321763364, 0.202642575 , -0.0959282741, 0.347242832 , 0.008077387 , -0.01122919 , 0.461760759 , 0.5         , 3           , 50          , 0           , 0
-0.118984811, -0.0968056247, -9.793397   , -3.18957063E-05, 0.00228063  , 0.00072109123, 0.202642575 , -0.0959282741, 0.347242832 , 0.008076986 , -0.0112064425, 0.46176815  , 0.51        , 3           , 11          , 0.0172613245, 0.0172613338
-0.0977475941, -0.08307471 , -9.787171   , -0.00191471889, -0.0005676585, 0.000811300939, 0.202440336 , -0.0960631  , 0.3470406   , 0.00805775  , -0.011212185, 0.461776018 , 0.52        , 3           , 12          , 0.03509634  , 0
-0.106179714, -0.06945854 , -9.788446   , -0.0008919481, 0.00129267084, -1.40661768E-05, 0.202440336 , -0.09599569 , 0.347175419 , 0.008048829 , -0.0111992583, 0.461776018 , 0.53        , 3           , 50          , 0           , 0
-0.106327608, -0.0808134452, -9.7809     , -0.00215061079, 0.00274496875, -0.000716318842, 0.202642575 , -0.09586086 , 0.347175419 , 0.008027401 , -0.0111717517, 0.4617691   , 0.54        , 3           , 11          , 0.0172613245, 0.0172613338
-0.122441612, -0.08052716 , -9.794596   , -0.0008938751, 0.00129011134, 0.0002720977, 0.202305511 , -0.0961979255, 0.347242832 , 0.00801843  , -0.0111588733, 0.461771965 , 0.55        , 3           , 12          , 0.03509634  , 0
-0.117221244, -0.09420781 , -9.784768   , 0.001621535 , -0.00260471366, 0.000231175567, 0.202372923 , -0.09613051 , 0.3470406   , 0.008034624 , -0.0111849373, 0.4617741   , 0.56        , 3           , 50          , 0           , 0
-0.124052167, -0.09070629 , -9.769433   , -0.0005255067, -0.004435568, -0.0009534588, 0.202372923 , -0.09613051 , 0.3470406   , 0.00802947953, -0.0112292161, 0.461764336 , 0.57        , 3           , 11          , 0.0172613245, 0.0172613338
-0.100622877, -0.09489086 , -9.776493   , -0.00106427714, -0.0015678365, -0.0004859042, 0.202305511 , -0.0960631  , 0.347175419 , 0.008018894 , -0.0112448549, 0.461759329 , 0.58        , 3           , 12          , 0.03509634  , 0
-0.10188514 , -0.09474361 , -9.789151   , 0.000381841353, 0.0009892491, 0.0004187166, 0.2022381   , -0.0959282741, 0.347175419 , 0.008022665 , -0.0112349968, 0.46176362  , 0.59        , 3           , 50          , 0           , 0
-0.1192935  , -0.07165744 , -9.783172   , 0.00213309657, 0.00084936386, 0.0008554412, 0.2022381   , -0.09599569 , 0.347310245 , 0.008241622 , -0.0111276973, 0.461770058 , 0.6         , 3           , 11          , 0.0154059045, 0.0154059241
-0.123195164, -0.07450754 , -9.808537   , 0.000694818445, -0.00127401389, -0.000472165353, 0.202507749 , -0.0960631  , 0.347175419 , 0.00824862253, -0.0111403959, 0.461765051 , 0.61        , 3           , 12          , 0.0353481732, 0
-0.115257062, -0.08551597 , -9.797749   , -0.00173777144, -0.00253905822, -0.0005055102, 0.202507749 , -0.0960631  , 0.347175419 , 0.008231303 , -0.0111657428, 0.4617598   , 0.62        , 3           , 50          , 0           , 0
-0.114964359, -0.106237344, -9.800243   , 0.00213392754, 0.000427173654, -9.311202E-06, 0.202440336 , -0.0960631  , 0.347108    , 0.008252643 , -0.01116147 , 0.4617598   , 0.63        , 3           , 11          , 0.0154059045, 0.0154059241
-0.126963228, -0.07606599 , -9.786455   , 0.00402720459, 0.0038537397, -0.0006635018, 0.202305511 , -0.0959282741, 0.347377658 , 0.008292983 , -0.0111228777, 0.4617536   , 0.64        , 3           , 12          , 0.0353481732, 0
-0.100232922, -0.05868294 , -9.788719   , 0.000873060839, 0.002017642 , -0.000137149022, 0.202035859 , -0.09579345 , 0.347242832 , 0.00830172747, -0.0111026913, 0.461752176 , 0.65        , 3           , 50          , 0           , 0
-0.09118671 , -0.09500222 , -9.773697   , -0.003697225, 6.294111E-05, -0.0007661061, 0.202372923 , -0.0960631  , 0.347310245 , 0.008264841 , -0.0111019984, 0.461744547 , 0.66        , 3           , 11          , 0.0154059045, 0.0154059241
-0.108716525, -0.08234011 , -9.762871   , -0.0025514802, -7.910933E-05, -0.00219215942, 0.2022381   , -0.09599569 , 0.3470406   , 0.008239569 , -0.0111026084, 0.4617226   , 0.67        , 3           , 12          , 0.0353481732, 0
-0.0986999646, -0.08181094 , -9.778131   , 0.0014448429, 0.00102803227, -0.0022945595, 0.2022381   , -0.09599569 , 0.3470406   , 0.008254271 , -0.0110921394, 0.461699724 , 0.68        , 3           , 50          , 0           , 0
-0.116676807, -0.08293909 , -9.784634   , -0.0002685412, 0.00103641185, -0.0013032658, 0.202440336 , -0.0959282741, 0.347108    , 0.008251728 , -0.0110816685, 0.46168685  , 0.69        , 3           , 11          , 0.0154059045, 0.0154059241
-0.15286842 , -0.05904867 , -9.796434   , -0.000971800939, 0.001308294 , -0.00116019289, 0.202305511 , -0.09599569 , 0.347310245 , 0.008259594 , -0.011133939, 0.461675167 , 0.7         , 3           , 12          , 0.0356524177, 0
-0.112858139, -0.06972967 , -9.799803   , -0.000386421, 0.00273541058, -0.00113589829, 0.202507749 , -0.09599569 , 0.347242832 , 0.008255855 , -0.01110649 , 0.4616642   , 0.71        , 3           , 50          , 0           , 0
-0.101576552, -0.0742399544, -9.808785   , -0.00125486788, 0.00159520318, -0.0008715687, 0.2022381   , -0.0960631  , 0.347175419 , 0.00824340247, -0.0110904658, 0.461655378 , 0.72        , 3           , 11          , 0.0147726526, 0.0147726741
-0.119976088, -0.100943044, -9.785323   , -0.00142459548, -0.000133065012, 0.0002471894, 0.2022381   , -0.0960631  , 0.347175419 , 0.008229129 , -0.0110918172, 0.461657763 , 0.73        , 3           , 12          , 0.0356524177, 0
-0.116336055, -0.09156828 , -9.779309   , 0.000563039968, 0.000124328479, 0.0012649307, 0.202372923 , -0.09613051 , 0.347175419 , 0.008234618 , -0.0110906782, 0.461670637 , 0.74        , 3           , 50          , 0           , 0
-0.113786377, -0.08959859 , -9.754872   , 0.00414054329, 0.00166951248, 0.0007369746, 0.202507749 , -0.09599569 , 0.347445071 , 0.008275939 , -0.0110740438, 0.461678028 , 0.75        , 3           , 11          , 0.0147726526, 0.0147726741
-0.132878527, -0.08456771 , -9.787963   , 0.00413353369, 0.000813614344, 0.000295207923, 0.202440336 , -0.09599569 , 0.347512484 , 0.008317242 , -0.0110659339, 0.461681128 , 0.76        , 3           , 12          , 0.0356524177, 0
-0.117282838, -0.08851539 , -9.768894   , -0.000296181417, -0.00128582108, -0.000334979239, 0.202440336 , -0.09599569 , 0.347108    , 0.008314317 , -0.0110787628, 0.4616778   , 0.77        , 3           , 50          , 0           , 0
-0.111819237, -0.07645089 , -9.762833   , -0.00128030393, -0.0006961503, -0.00104803918, 0.202440336 , -0.09599569 , 0.347108    , 0.00830163  , -0.0110856369, 0.461667061 , 0.78        , 3           , 11          , 0.0147726526, 0.0147726741
-0.107137695, -0.08155741 , -9.794918   , 0.00171716732, 0.00112219574, 0.000570981763, 0.202372923 , -0.09613051 , 0.347175419 , 0.008318738 , -0.0110744629, 0.461673021 , 0.79        , 3           , 12          , 0.0356524177, 0
-0.113604605, -0.09733261 , -9.790644   , 0.0005911297, 0.00243138685, 0.00115512556, 0.202305511 , -0.0959282741, 0.347175419 , 0.008326458 , -0.0110151246, 0.4616847   , 0.8         , 3           , 50          , 0           , 0
-0.1027777  , -0.08893691 , -9.783219   , -0.00281512877, 0.00233429018, -0.000155260117, 0.202372923 , -0.0960631  , 0.347310245 , 0.008298321 , -0.0109917689, 0.461683273 , 0.81        , 3           , 11          , 0.0145958113, 0.0145958271
-0.1004521  , -0.08528152 , -9.78948    , -0.00181821617, 0.00260819658, 0.000141074313, 0.2022381   , -0.0960631  , 0.347377658 , 0.008280121 , -0.0109656984, 0.461684942 , 0.82        , 3           , 12          , 0.03600735  , 0
-0.106903404, -0.08500801 , -9.767855   , -0.002701513, 0.0001783832, 0.000386623055, 0.202709988 , -0.09599569 , 0.347175419 , 0.008253064 , -0.0109639466, 0.461688757 , 0.83        , 3           , 50          , 0           , 0
-0.09905006 , -0.07542175 , -9.784837   , -0.00227553956, 3.203877E-05, 0.000244024413, 0.202709988 , -0.09599569 , 0.347175419 , 0.008230279 , -0.0109636458, 0.46169138  , 0.84        , 3           , 11          , 0.0145958113, 0.0145958271
-0.113889493, -0.06858686 , -9.779473   , -0.002112689, 0.00132787845, -0.0005948301, 0.202372923 , -0.09579345 , 0.347242832 , 0.008209217 , -0.0109503195, 0.461685419 , 0.85        , 3           , 12          , 0.03600735  , 0
-0.124027923, -0.07063812 , -9.748423   , -0.00282034441, 0.00105748174, -0.00160486111, 0.202440336 , -0.09613051 , 0.347445071 , 0.00818119  , -0.0109396148, 0.461669445 , 0.86        , 3           , 50          , 0           , 0
-0.09242699 , -0.06722303 , -9.755773   , 0.0001643486, 0.00102458126, -0.00130070641, 0.202575162 , -0.0959282741, 0.347310245 , 0.008182974 , -0.0109292623, 0.46165657  , 0.87        , 3           , 11          , 0.0145958113, 0.0145958271
-0.08907089 , -0.0607055463, -9.777348   , 0.0009940147, -0.000708681648, -0.000748279446, 0.202507749 , -0.09613051 , 0.347310245 , 0.00819299649, -0.0109362863, 0.461648941 , 0.88        , 3           , 12          , 0.03600735  , 0
-0.113033354, -0.0664369538, -9.770407   , 0.0005723048, -0.0002744784, -0.000744589255, 0.202507749 , -0.09613051 , 0.347310245 , 0.008198802 , -0.01093897 , 0.46164155  , 0.89        , 3           , 50          , 0           , 0
-0.118467666, -0.08246283 , -9.785547   , -0.00154752564, 0.00274505932, -0.000427175168, 0.202642575 , -0.09586086 , 0.347242832 , 0.008139522 , -0.0109312059, 0.461637974 , 0.9         , 3           , 11          , 0.0130355842, 0.0130355908
-0.102623343, -0.07979782 , -9.794405   , -0.00222562579, 0.005618075 , -0.0003897233, 0.202575162 , -0.0960631  , 0.347512484 , 0.008117302 , -0.010874995, 0.461634636 , 0.91        , 3           , 12          , 0.0364110842, 0
-0.09366409 , -0.09018416 , -9.800315   , -0.00169057667, 0.00316869421, 0.0004367204, 0.202305511 , -0.0959282741, 0.347512484 , 0.008100348 , -0.010843345, 0.461639166 , 0.92        , 3           , 50          , 0           , 0
-0.129290432, -0.08551057 , -9.787038   , -0.002875644, -0.0002689357, 0.00152444036, 0.202305511 , -0.0960631  , 0.347175419 , 0.008071427 , -0.0108461566, 0.461654425 , 0.93        , 3           , 11          , 0.0130355842, 0.0130355908
-0.112678751, -0.07415465 , -9.765976   , -0.003708743, 0.000754278 , 0.0002461697, 0.202575162 , -0.09613051 , 0.347377658 , 0.008034311 , -0.0108386353, 0.4616568   , 0.94        , 3           , 12          , 0.0364110842, 0
-0.0942112356, -0.0734135658, -9.765798   , -0.00138866156, 0.00361231  , -0.00141537189, 0.202575162 , -0.09613051 , 0.347377658 , 0.008020574 , -0.0108024012, 0.461642981 , 0.95        , 3           , 50          , 0           , 0
-0.120809831, -0.09593653 , -9.788887   , -0.0009989999, 0.001301265 , 0.000127711886, 0.202507749 , -0.0959282741, 0.347310245 , 0.00801057  , -0.0107893972, 0.4616444   , 0.96        , 3           , 11          , 0.0130355842, 0.0130355908
-0.10626138 , -0.07848633 , -9.787648   , -0.00303340075, -0.001699107, 0.0013596341, 0.202507749 , -0.09599569 , 0.347377658 , 0.00798009  , -0.0108065  , 0.461658    , 0.97        , 3           , 12          , 0.0364110842, 0
-0.09725893 , -0.0803490058, -9.789392   , -0.0008802893, -0.000988974, -0.000334065553, 0.202575162 , -0.0959282741, 0.347445071 , 0.007971326 , -0.0108163608, 0.461654425 , 0.98        , 3           , 50          , 0           , 0
-0.1251984  , -0.08637507 , -9.793785   , 0.00110995967, -0.000587011164, 0.000542680558, 0.202642575 , -0.0960631  , 0.347310245 , 0.007982367 , -0.0108222747, 0.4616599   , 0.99        , 3           , 11          , 0.0130355842, 0.0130355908
-0.133023173, -0.09814327 , -9.783604   , 0.00117609731, -0.000640788348, 0.002405434 , 0.202642575 , -0.0960631  , 0.347310245 , 0.008151859 , -0.0111989714, 0.461682081 , 1           , 3           , 12          , 0.036861632 , 0
-0.133158922, -0.05715049 , -9.779066   , 0.001195355 , 0.00037247673, 0.00127538526, 0.202507749 , -0.0959282741, 0.347310245 , 0.008163669 , -0.0111953514, 0.461694956 , 1.01        , 3           , 50          , 0           , 0
-0.107896216, -0.06530729 , -9.795641   , 5.56799932E-05, -0.0006061943, -0.000176895788, 0.202372923 , -0.0960631  , 0.347512484 , 0.008164247 , -0.0112013984, 0.461693048 , 1.02        , 3           , 11          , 0.013366323 , 0.0133663369
-0.109797336, -0.0716768652, -9.788958   , -0.00207582535, -0.00100543257, -0.0011975806, 0.202372923 , -0.0959282741, 0.347310245 , 0.008143623 , -0.0112113543, 0.461681128 , 1.03        , 3           , 12          , 0.036861632 , 0
-0.110338017, -0.08249469 , -9.789087   , -0.0008032765, -0.00116940378, -0.000333465, 0.202372923 , -0.09586086 , 0.347445071 , 0.008135628 , -0.011223021, 0.461677551 , 1.04        , 3           , 50          , 0           , 0
-0.116200559, -0.08468373 , -9.790522   , -0.000954444753, -0.00103874668, 0.00124166708, 0.202372923 , -0.09586086 , 0.347445071 , 0.008125947 , -0.0112335086, 0.461689949 , 1.05        , 3           , 11          , 0.013366323 , 0.0133663369
-0.09948063 , -0.07716823 , -9.789828   , -0.00134054164, 0.00240581715, 0.00114609743, 0.202440336 , -0.0960631  , 0.347242832 , 0.008112409 , -0.0112095438, 0.461701632 , 1.06        , 3           , 12          , 0.036861632 , 0
-0.106270604, -0.07137829 , -9.777628   , 0.0009360862, 0.00181978  , 6.80139465E-06, 0.202507749 , -0.09586086 , 0.3475799   , 0.008121767 , -0.0111913467, 0.46170187  , 1.07        , 3           , 50          , 0           , 0
-0.107628584, -0.06514578 , -9.768987   , -0.000505636446, -2.59768967E-05, -0.0003150575, 0.202440336 , -0.0960631  , 0.347445071 , 0.008116747 , -0.01119158 , 0.461698771 , 1.08        , 3           , 11          , 0.013366323 , 0.0133663369
-0.100059308, -0.07424508 , -9.767668   , 0.00192763982, 0.00138107734, -0.000136543982, 0.2022381   , -0.09599569 , 0.3475799   , 0.008136036 , -0.01117776 , 0.46169734  , 1.09        , 3           , 12          , 0.036861632 , 0
-0.0850694  , -0.0701662749, -9.781485   , 0.00363009167, 0.00152315141, -0.00041036433, 0.202507749 , -0.0960631  , 0.347445071 , 0.008157781 , -0.0111369947, 0.461693525 , 1.1         , 3           , 50          , 0           , 0
-0.0994536355, -0.07356582 , -9.789336   , 0.00119859772, 0.0006828568, 0.000134879228, 0.202507749 , -0.0960631  , 0.347445071 , 0.008169753 , -0.0111301793, 0.461694956 , 1.11        , 3           , 11          , 0.0126138385, 0.0126138572
-0.126057148, -0.0742847249, -9.785071   , 0.0026323474, 0.00167143554, 0.000158053575, 0.202575162 , -0.0959282741, 0.347377658 , 0.008196054 , -0.0111134779, 0.461696625 , 1.12        , 3           , 12          , 0.0373569168, 0
-0.109388389, -0.06729268 , -9.777611   , 0.0032085136, 0.00238082465, 0.000314996258, 0.202305511 , -0.0959282741, 0.347445071 , 0.008228103 , -0.0110896947, 0.461699963 , 1.13        , 3           , 50          , 0           , 0
-0.103068657, -0.09002441 , -9.807627   , 0.003384974 , 0.005105721 , -7.374438E-05, 0.202507749 , -0.0960631  , 0.347445071 , 0.008261955 , -0.0110386321, 0.461699724 , 1.14        , 3           , 11          , 0.0126138385, 0.0126138572
-0.08793052 , -0.09932097 , -9.794044   , 0.002108439 , 0.00484110368, -0.00108720234, 0.202844813 , -0.09599569 , 0.347310245 , 0.008283156 , -0.0109901354, 0.461689234 , 1.15        , 3           , 12          , 0.0373569168, 0
-0.106989354, -0.09715824 , -9.770254   , 7.981885E-05, 0.00184841047, -0.000713772257, 0.202844813 , -0.09599569 , 0.347310245 , 0.00828403048, -0.01097159 , 0.46168232  , 1.16        , 3           , 50          , 0           , 0
-0.132011563, -0.08373664 , -9.782073   , -0.000801141141, -0.000296103652, -0.000320967927, 0.202575162 , -0.09599569 , 0.347242832 , 0.008276054 , -0.0109745264, 0.461678982 , 1.17        , 3           , 11          , 0.0126138385, 0.0126138572
-0.140979648, -0.0867178  , -9.791224   , -0.00262497412, 0.00173129269, -0.000589054252, 0.202372923 , -0.0959282741, 0.347377658 , 0.008249867 , -0.0109571628, 0.46167326  , 1.18        , 3           , 12          , 0.0373569168, 0
-0.109972194, -0.0750606358, -9.767768   , -0.00388020463, 0.00389363966, -0.000565463037, 0.2022381   , -0.0959282741, 0.347512484 , 0.008211124 , -0.0109181814, 0.461667776 , 1.19        , 3           , 50          , 0           , 0
-0.0933116153, -0.0809900239, -9.774911   , -0.0022257925, 0.000426575221, -3.279524E-05, 0.202372923 , -0.09599569 , 0.347512484 , 0.00817319751, -0.010924018, 0.461667776 , 1.2         , 3           , 11          , 0.0130950864, 0.0130951
-0.09007507 , -0.07198483 , -9.776132   , -0.000239806672, 0.000540679146, 0.0009828593, 0.202575162 , -0.0961979255, 0.347242832 , 0.00817069  , -0.0109186918, 0.4616778   , 1.21        , 3           , 12          , 0.037894804 , 0
-0.09276028 , -0.080839105, -9.789358   , 0.000201980016, 0.001685221 , 0.0007159595, 0.202575162 , -0.0961979255, 0.347242832 , 0.00817263  , -0.0109018991, 0.461684942 , 1.22        , 3           , 50          , 0           , 0
-0.102734931, -0.0853103  , -9.784985   , 8.06676762E-05, 0.00284322049, -0.000412859081, 0.202305511 , -0.09599569 , 0.347445071 , 0.008173481 , -0.0108734341, 0.461681128 , 1.23        , 3           , 11          , 0.0130950864, 0.0130951
-0.120284945, -0.0851428956, -9.786499   , -0.000631251256, 0.00228496478, -0.00128398149, 0.202305511 , -0.09599569 , 0.347445071 , 0.008167304 , -0.0108504817, 0.4616685   , 1.24        , 3           , 12          , 0.037894804 , 0
-0.115240261, -0.08014865 , -9.793621   , -0.000362070772, 0.000709729036, -0.00173446862, 0.2022381   , -0.09599569 , 0.3475799   , 0.00816387  , -0.0108432453, 0.4616511   , 1.25        , 3           , 50          , 0           , 0
-0.109783716, -0.06631439 , -9.784378   , -4.61483833E-05, 0.00385281164, -0.0009714364, 0.202372923 , -0.09613051 , 0.3475799   , 0.008163511 , -0.0108046373, 0.4616418   , 1.26        , 3           , 11          , 0.0130950864, 0.0130951
-0.107670195, -0.07945381 , -9.780445   , 0.00310125086, 0.00567995152, -0.0004962151, 0.202372923 , -0.09613051 , 0.3475799   , 0.008194571 , -0.0107478  , 0.461637259 , 1.27        , 3           , 12          , 0.037894804 , 0
-0.126266062, -0.0795011446, -9.761194   , 0.005361234 , 0.004225218 , -0.000646457658, 0.202642575 , -0.09613051 , 0.347310245 , 0.008248249 , -0.0107054934, 0.46163106  , 1.28        , 3           , 50          , 0           , 0
-0.110377371, -0.07899389 , -9.779109   , 0.0014893905, 0.00182318606, -0.000132735528, 0.202170685 , -0.09599569 , 0.347512484 , 0.008263155 , -0.0106872488, 0.461629868 , 1.29        , 3           , 11          , 0.0130950864, 0.0130951
-0.11219947 , -0.07366895 , -9.769579   , -0.0033694997, -0.000285526185, -0.00119453878, 0.202507749 , -0.0959282741, 0.347512484 , 0.008220184 , -0.0107203657, 0.461618185 , 1.3         , 3           , 12          , 0.03847314  , 0
-0.107356712, -0.08723441 , -9.77014351 , -0.00177757256, 0.00142829388, -0.00230473 , 0.202642575 , -0.0959282741, 0.347310245 , 0.008202653 , -0.0107058957, 0.461595058 , 1.31        , 3           , 50          , 0           , 0
-0.117852613, -0.06797002 , -9.791698   , 0.00135813246, 0.00281660631, -0.000834195, 0.202642575 , -0.0959282741, 0.347310245 , 0.00821632147, -0.0106776617, 0.461586952 , 1.32        , 3           , 11          , 0.0136261024, 0.0136261173
-0.1265717  , -0.07749521 , -9.779693   , -0.000514658168, 0.0012515249, -9.794525E-06, 0.202642575 , -0.09599569 , 0.347377658 , 0.008211176 , -0.0106651476, 0.461586952 , 1.33        , 3           , 12          , 0.03847314  , 0
-0.1097253  , -0.0900654048, -9.756646   , -0.003942511, -0.000144135862, -0.000337386969, 0.202507749 , -0.09599569 , 0.347377658 , 0.008171785 , -0.0106665595, 0.4615836   , 1.34        , 3           , 50          , 0           , 0
-0.110029377, -0.09384382 , -9.782439   , -0.00494465046, -0.00070718053, -0.0003517309, 0.202575162 , -0.09586086 , 0.347512484 , 0.008122376 , -0.0106736021, 0.461580038 , 1.35        , 3           , 11          , 0.0136261024, 0.0136261173
-0.111291945, -0.07544656 , -9.772753   , -0.00296319416, -0.00172787555, -0.00064050837, 0.202575162 , -0.0961979255, 0.3476473   , 0.008092813 , -0.0106908288, 0.4615736   , 1.36        , 3           , 12          , 0.03847314  , 0
-0.119277   , -0.07341268 , -9.787709   , -0.00297474372, -0.00273090252, -0.000655115757, 0.2027774   , -0.0960631  , 0.3475799   , 0.008063139 , -0.010718083, 0.4615667   , 1.37        , 3           , 50          , 0           , 0
-0.106582657, -0.06715654 , -9.792488   , -0.00280048721, 0.0001321645, -0.000469441875, 0.2027774   , -0.0960631  , 0.3475799   , 0.008035184 , -0.010716727, 0.461562157 , 1.38        , 3           , 11          , 0.0136261024, 0.0136261173
-0.09416167 , -0.07867928 , -9.779408   , -0.000211237377, 0.0024026304, -0.000849879056, 0.202507749 , -0.0960631  , 0.347445071 , 0.00803316  , -0.0106926346, 0.4615538   , 1.39        , 3           , 12          , 0.03847314  , 0
-0.110307842, -0.0673138946, -9.774909   , 0.0010563354, 0.00155954075, -0.0004257182, 0.202372923 , -0.0960631  , 0.3475799   , 0.008044422 , -0.0106192976, 0.46154952  , 1.4         , 3           , 50          , 0           , 0
-0.1164155  , -0.08278728 , -9.757074   , 0.00121904176, 0.00341958087, -0.000254651532, 0.202642575 , -0.0959282741, 0.347512484 , 0.008056636 , -0.0105850827, 0.461547375 , 1.41        , 3           , 11          , 0.0140545   , 0.0140545182
-0.1423647  , -0.0702886656, -9.766205   , -6.574369E-05, 0.00243851566, -0.00127854326, 0.202440336 , -0.09613051 , 0.347714722 , 0.008056113 , -0.0105605964, 0.461534739 , 1.42        , 3           , 12          , 0.0390897654, 0
-0.126763776, -0.0592905581, -9.794843   , 0.0003232436, -0.00100220949, -0.00161221984, 0.202440336 , -0.09613051 , 0.347714722 , 0.008059517 , -0.0105704851, 0.461518526 , 1.43        , 3           , 50          , 0           , 0
-0.0873307139, -0.070607245, -9.780608   , 0.00304411515, 0.0012527341, -0.0004178981, 0.202440336 , -0.0959282741, 0.347512484 , 0.00809     , -0.0105579263, 0.461514473 , 1.44        , 3           , 11          , 0.0140545   , 0.0140545182
-0.08736379 , -0.07867034 , -9.785669   , 0.002878651 , -0.000187675148, 0.00056195166, 0.202507749 , -0.0960631  , 0.347512484 , 0.008118727 , -0.0105598485, 0.461519957 , 1.45        , 3           , 12          , 0.0390897654, 0
-0.08791719 , -0.0757084638, -9.76712    , 0.00188572472, -3.299192E-05, 0.0004149596, 0.202440336 , -0.09599569 , 0.347714722 , 0.008137541 , -0.0105602127, 0.461524248 , 1.46        , 3           , 50          , 0           , 0
-0.1072158  , -0.0741097555, -9.77450752 , 0.00150692614, 0.00313907047, -0.00125868572, 0.202440336 , -0.09613051 , 0.3475799   , 0.00815274  , -0.0105287228, 0.46151185  , 1.47        , 3           , 11          , 0.0140545   , 0.0140545182
-0.0990127549, -0.07580974 , -9.790712   , -4.498038E-05, 0.00415927  , -0.00139658409, 0.202305511 , -0.0959282741, 0.3476473   , 0.008152435 , -0.0104870163, 0.46149826  , 1.48        , 3           , 12          , 0.0390897654, 0
-0.09025912 , -0.09363315 , -9.775931   , -0.00190498051, 0.00345776533, -0.0009889089, 0.202305511 , -0.0959282741, 0.3476473   , 0.008133485 , -0.01045236 , 0.4614885   , 1.49        , 3           , 50          , 0           , 0
-0.0931502953, -0.05982165 , -9.772406   , -0.001599713, 0.00148732308, -0.00144638 , 0.202305511 , -0.0961979255, 0.347782135 , 0.008188505 , -0.0103774853, 0.461473465 , 1.5         , 3           , 11          , 0.0144838579, 0.0144838812
-0.116963431, -0.06933059 , -9.791706   , -3.983328E-05, 0.00132430135, -0.0010097971, 0.202170685 , -0.09599569 , 0.347714722 , 0.008188213 , -0.01036416 , 0.461463451 , 1.51        , 3           , 12          , 0.0397425555, 0
-0.124532245, -0.05755975 , -9.789833   , -0.003039653, 0.000208325844, -0.00104448188, 0.202507749 , -0.09586086 , 0.347782135 , 0.008157924 , -0.0103619909, 0.4614532   , 1.52        , 3           , 50          , 0           , 0
-0.09271738 , -0.07943801 , -9.793858   , -0.00531819556, -0.000195866378, -0.00135061319, 0.202507749 , -0.0960631  , 0.3476473   , 0.008104882 , -0.0103638442, 0.4614396   , 1.53        , 3           , 11          , 0.0144838579, 0.0144838812
-0.08028458 , -0.08693646 , -9.77757    , -0.004067916, -0.002788082, -0.00138046476, 0.202507749 , -0.0960631  , 0.3476473   , 0.008064347 , -0.01039161 , 0.461425543 , 1.54        , 3           , 12          , 0.0397425555, 0
-0.108408079, -0.07118449 , -9.793907   , -0.00464189 , -0.0026479715, -0.000380230776, 0.202440336 , -0.0960631  , 0.347445071 , 0.008017972 , -0.0104180574, 0.4614215   , 1.55        , 3           , 50          , 0           , 0
-0.103428558, -0.07697327 , -9.80476952 , -0.001771512, 0.000320695457, 0.0009684631, 0.202372923 , -0.09586086 , 0.347714722 , 0.008000155 , -0.01041493 , 0.461431265 , 1.56        , 3           , 11          , 0.0144838579, 0.0144838812
-0.08985359 , -0.0963763744, -9.772799   , -0.000520268455, -0.00227024034, 0.0007955296, 0.202305511 , -0.0960631  , 0.3476473   , 0.00799487252, -0.0104376944, 0.461439133 , 1.57        , 3           , 12          , 0.0397425555, 0
-0.06589053 , -0.09019888 , -9.779283   , -0.00138953421, -0.00397592736, 0.000193020271, 0.202709988 , -0.0959282741, 0.347782135 , 0.00798096  , -0.0104774684, 0.461440563 , 1.58        , 3           , 50          , 0           , 0
-0.106582783, -0.06493106 , -9.789753   , -0.0007930137, -0.00182852382, -0.00020149746, 0.202709988 , -0.0959282741, 0.347782135 , 0.007973053 , -0.0104957363, 0.461438417 , 1.59        , 3           , 11          , 0.0144838579, 0.0144838812
-0.121879153, -0.06299898 , -9.78942    , -0.000156595168, -0.000282601075, -0.0007453172, 0.202440336 , -0.0961979255, 0.3475799   , 0.007802645 , -0.0105477432, 0.4614327   , 1.6         , 3           , 12          , 0.0404294059, 0
-0.121836588, -0.09834772 , -9.773565   , 0.000135817783, 0.0005716873, -0.000444919133, 0.202305511 , -0.0959282741, 0.3476473   , 0.00780404964, -0.0105419913, 0.4614284   , 1.61        , 3           , 50          , 0           , 0
-0.09061839 , -0.0685624  , -9.75848    , 0.000122064062, -0.0002931692, 0.000114888317, 0.202372923 , -0.0960631  , 0.347849548 , 0.00780525943, -0.0105449315, 0.4614296   , 1.62        , 3           , 11          , 0.0149693815, 0.0149694039
-0.10678041 , -0.0803682953, -9.779996   , 0.0018192135, -0.0008875045, 0.000546067662, 0.202575162 , -0.09586086 , 0.347714722 , 0.007823395 , -0.0105538489, 0.461434841 , 1.63        , 3           , 12          , 0.0404294059, 0
-0.115836866, -0.0972839743, -9.793373   , 0.00424108468, -0.00104767736, -0.000299947278, 0.202507749 , -0.09613051 , 0.3475799   , 0.007865839 , -0.0105643  , 0.461431742 , 1.64        , 3           , 50          , 0           , 0
-0.118345827, -0.0555681847, -9.77033    , 0.0006904022, -0.00100515829, -0.00103677472, 0.202507749 , -0.09613051 , 0.3475799   , 0.0078728525, -0.010574271, 0.461421251 , 1.65        , 3           , 11          , 0.0149693815, 0.0149694039
-0.0974702761, -0.08734969 , -9.76734352 , -0.00299782748, -0.000390595524, -0.001479948, 0.202440336 , -0.0960631  , 0.347512484 , 0.00784303  , -0.0105780605, 0.461406469 , 1.66        , 3           , 12          , 0.0404294059, 0
-0.08748971 , -0.087765865, -9.778549   , -0.000862600631, -0.000409708126, -0.00175326155, 0.202170685 , -0.09599569 , 0.3475799   , 0.007834591 , -0.0105820205, 0.461388826 , 1.67        , 3           , 50          , 0           , 0
-0.125066221, -0.06347083 , -9.784938   , -0.000862468034, 1.37617462E-05, -0.00103159121, 0.202372923 , -0.0960631  , 0.347782135 , 0.007826075 , -0.0105818026, 0.461378574 , 1.68        , 3           , 11          , 0.0149693815, 0.0149694039
-0.136946544, -0.09613017 , -9.799877   , -0.000172685439, -0.001432757, -0.000332765252, 0.202305511 , -0.0960631  , 0.347782135 , 0.007824386 , -0.0105961058, 0.461375237 , 1.69        , 3           , 12          , 0.0404294059, 0
-0.118046023, -0.09185835 , -9.792879   , 0.002084237 , -0.000840164837, 0.000127574633, 0.202305511 , -0.0960631  , 0.347782135 , 0.008547883 , -0.0118000638, 0.461368322 , 1.7         , 3           , 50          , 0           , 0
-0.106934644, -0.09173288 , -9.771546   , 0.00383928022, 0.00301643484, -0.0003781303, 0.202575162 , -0.09599569 , 0.3475799   , 0.008586315 , -0.0117698675, 0.461364746 , 1.71        , 3           , 11          , 0.0148263983, 0.0148264123
-0.10398452 , -0.07357016 , -9.785312   , 0.00254128315, 0.00187672267, 0.000312875258, 0.202372923 , -0.0960631  , 0.347714722 , 0.00861169  , -0.0117511284, 0.461368084 , 1.72        , 3           , 12          , 0.04114828  , 0
-0.100533791, -0.0943093151, -9.788682   , 0.00052999414, -0.000105264546, -0.000157579241, 0.2022381   , -0.0960631  , 0.347782135 , 0.008617008 , -0.0117521659, 0.461366415 , 1.73        , 3           , 50          , 0           , 0
-0.08618747 , -0.09096785 , -9.775413   , 9.563804E-05, -0.001098838, -0.0007470847, 0.202440336 , -0.09599569 , 0.347714722 , 0.008618055 , -0.0117630893, 0.4613588   , 1.74        , 3           , 11          , 0.0148263983, 0.0148264123
-0.124841556, -0.07628398 , -9.76792    , -0.00198787544, -0.002023348, 0.0008008312, 0.2022381   , -0.09599569 , 0.3476473   , 0.008598082 , -0.0117833922, 0.461366653 , 1.75        , 3           , 12          , 0.04114828  , 0
-0.1315432  , -0.0797066242, -9.779764   , 0.002094281 , -0.0005446274, -0.000869825948, 0.2022381   , -0.09599569 , 0.3476473   , 0.008619128 , -0.0117887622, 0.46135807  , 1.76        , 3           , 50          , 0           , 0
-0.105303042, -0.0730639547, -9.789383   , 0.003486488 , 0.00260041631, -0.00153118838, 0.202372923 , -0.0959282741, 0.347714722 , 0.00865417  , -0.0117626274, 0.4613428   , 1.77        , 3           , 11          , 0.0148263983, 0.0148264123
-0.0889276043, -0.100796483, -9.781875   , 0.00234377827, 0.002182106 , -0.00154430221, 0.202372923 , -0.09613051 , 0.347782135 , 0.008677788 , -0.0117406743, 0.461327553 , 1.78        , 3           , 12          , 0.04114828  , 0
-0.111232087, -0.08470266 , -9.792734   , -0.000129806242, 0.00328590139, -0.00197288976, 0.202575162 , -0.09613051 , 0.347714722 , 0.008676719 , -0.0117076458, 0.461308241 , 1.79        , 3           , 50          , 0           , 0
-0.10702759 , -0.07248606 , -9.799782   , 0.0008364867, 0.00185636245, -0.000414058159, 0.2027774   , -0.09613051 , 0.347714722 , 0.008681293 , -0.0116400234, 0.4613042   , 1.8         , 3           , 11          , 0.0126178376, 0.0126178479
-0.08096988 , -0.05632993 , -9.77135    , 0.003539148 , 0.00182955072, -0.0004693219, 0.2027774   , -0.09613051 , 0.347714722 , 0.008716738 , -0.0116216885, 0.461299658 , 1.81        , 3           , 12          , 0.0418971963, 0
-0.124082714, -0.09921057 , -9.775403   , 0.00123557309, -8.942E-05  , 0.0003472916, 0.202305511 , -0.0960631  , 0.347714722 , 0.008729055 , -0.0116226152, 0.461303234 , 1.82        , 3           , 50          , 0           , 0
-0.119392753, -0.0958466753, -9.798358   , -0.00252431468, 0.000313490164, -0.000385603984, 0.202507749 , -0.0959282741, 0.3476473   , 0.008703855 , -0.0116194459, 0.461299419 , 1.83        , 3           , 11          , 0.0126178376, 0.0126178479
-0.126610979, -0.0877934545, -9.786588   , -0.00114983157, -0.00343288574, 0.0002841171, 0.202440336 , -0.0960631  , 0.347916961 , 0.008692326 , -0.0116537968, 0.4613018   , 1.84        , 3           , 12          , 0.0418971963, 0
-0.10963212 , -0.0957094356, -9.777038   , 0.00263164425, -0.00204339647, 0.000900015351, 0.202642575 , -0.0959282741, 0.3476473   , 0.00871854  , -0.0116743091, 0.461310625 , 1.85        , 3           , 50          , 0           , 0
-0.122408643, -0.0702385753, -9.786798   , 0.00261306879, 0.00169565249, -0.000476977322, 0.202642575 , -0.0959282741, 0.3476473   , 0.008744725 , -0.0116573106, 0.4613061   , 1.86        , 3           , 11          , 0.0126178376, 0.0126178479
-0.124510512, -0.06242294 , -9.79892349 , 0.00182969018, 0.00156094937, -0.000555316859, 0.202642575 , -0.09633275 , 0.347782135 , 0.008763084 , -0.0116416523, 0.4613006   , 1.87        , 3           , 12          , 0.0418971963, 0
-0.08157164 , -0.08415636 , -9.78342152 , 0.00100814  , -0.0005292792, 0.00169902528, 0.202575162 , -0.0960631  , 0.3476473   , 0.008772966 , -0.011647095, 0.461317539 , 1.88        , 3           , 50          , 0           , 0
-0.118014932, -0.09448153 , -9.800588   , 0.0007924795, -0.00130624638, 0.000684689 , 0.202507749 , -0.0959282741, 0.347916961 , 0.008780816 , -0.0116602164, 0.461324215 , 1.89        , 3           , 11          , 0.0126178376, 0.0126178479
-0.1239581  , -0.08878169 , -9.780703   , -0.000786867458, -0.000759823655, -0.000105046529, 0.202709988 , -0.09599569 , 0.347916961 , 0.008979846 , -0.01175936 , 0.461320639 , 1.9         , 3           , 12          , 0.04267426  , 0
-0.116250224, -0.07719253 , -9.774175   , 0.000170020154, 0.00139036682, -0.00121283252, 0.202575162 , -0.0960631  , 0.347512484 , 0.008981688 , -0.0117453467, 0.461308718 , 1.91        , 3           , 50          , 0           , 0
-0.09903015 , -0.08162314 , -9.795297   , 0.00128007331, -0.0009861097, -0.00116886967, 0.202575162 , -0.0960631  , 0.347512484 , 0.008994627 , -0.0117551032, 0.461297035 , 1.92        , 3           , 11          , 0.0123808971, 0.0123809027
-0.0932905  , -0.0862992853, -9.784456   , -0.000241846021, -0.00263156672, 0.000228957317, 0.202440336 , -0.09599569 , 0.3475799   , 0.008992183 , -0.0117814383, 0.461298943 , 1.93        , 3           , 12          , 0.04267426  , 0
-0.108919986, -0.08863526 , -9.806309   , -0.00061802665, -0.00392523967, 0.00106652663, 0.202507749 , -0.09599569 , 0.347849548 , 0.008985882 , -0.0118207876, 0.4613092   , 1.94        , 3           , 50          , 0           , 0
-0.09876972 , -0.07098617 , -9.820015   , -0.00156771019, 2.5977215E-05, 0.00104637491, 0.202507749 , -0.09599569 , 0.347916961 , 0.00897008  , -0.0118206209, 0.461319685 , 1.95        , 3           , 11          , 0.0123808971, 0.0123809027
-0.108771764, -0.102010593, -9.778909   , -0.000227477722, -0.00134260044, 0.000319279265, 0.202575162 , -0.09599569 , 0.347714722 , 0.008967769 , -0.0118340738, 0.461322784 , 1.96        , 3           , 12          , 0.04267426  , 0
-0.100545928, -0.09165712 , -9.783682   , 0.000329232134, -0.0022816814, 0.000523765 , 0.202575162 , -0.09599569 , 0.347714722 , 0.008971001 , -0.0118569359, 0.4613278   , 1.97        , 3           , 50          , 0           , 0
-0.125531346, -0.0812950656, -9.80457    , 0.00161567319, -0.0016511617, 0.000683947757, 0.202372923 , -0.0960631  , 0.347849548 , 0.008987078 , -0.0118735088, 0.461334467 , 1.98        , 3           , 11          , 0.0123808971, 0.0123809027
-0.118441567, -0.0864290446, -9.794175   , -0.00304499664, 0.0009795689, 0.000263992522, 0.202507749 , -0.0959282741, 0.347916961 , 0.008956597 , -0.0118637383, 0.461337328 , 1.99        , 3           , 12          , 0.04267426  , 0
-0.1027617  , -0.06799114 , -9.759941   , -0.002196907, 0.0006771703, -0.00116555847, 0.202440336 , -0.0959282741, 0.347916961 , 0.008913952 , -0.011892776, 0.461325884 , 2           , 3           , 50          , 0           , 0
-0.100886554, -0.08525342 , -9.791741   , -0.00266337139, -0.002898815, -0.0014349207, 0.202642575 , -0.09599569 , 0.347849548 , 0.008887492 , -0.0119216358, 0.46131134  , 2.01        , 3           , 11          , 0.0114129884, 0.0114129959
-0.0974249244, -0.1095369  , -9.80102348 , -0.00162052573, -0.00357621047, 0.0009945082, 0.202575162 , -0.09599569 , 0.347782135 , 0.008871171 , -0.0119574852, 0.461320877 , 2.02        , 3           , 12          , 0.04347764  , 0
-0.108192436, -0.09291414 , -9.786477   , 0.00104259234, -0.00172609731, -0.000536417, 0.202575162 , -0.09599569 , 0.347782135 , 0.008881664 , -0.0119746951, 0.4613154   , 2.03        , 3           , 50          , 0           , 0
-0.102622248, -0.0766802  , -9.790755   , -0.00122494809, -0.00133963721, -0.0011172354, 0.202642575 , -0.0960631  , 0.347849548 , 0.00886955  , -0.0119879916, 0.4613042   , 2.04        , 3           , 11          , 0.0114129884, 0.0114129959
-0.120143235, -0.0760231838, -9.795877   , 0.00270542526, -0.000154369525, -0.00186288985, 0.202372923 , -0.09599569 , 0.347849548 , 0.008896828 , -0.01198937 , 0.461285353 , 2.05        , 3           , 12          , 0.04347764  , 0
-0.106652223, -0.0788365453, -9.796689   , 0.00201583537, 0.00242118863, -0.000613414333, 0.202575162 , -0.09599569 , 0.347714722 , 0.008917057 , -0.0119651044, 0.461279631 , 2.06        , 3           , 50          , 0           , 0
-0.08960796 , -0.08042049 , -9.788872   , 0.0007701843, -0.0007195409, -0.000595064135, 0.2027774   , -0.09599569 , 0.3475799   , 0.008924831 , -0.0119722458, 0.461273432 , 2.07        , 3           , 11          , 0.0114129884, 0.0114129959
-0.103532359, -0.08603493 , -9.800809   , -0.0004373067, -0.0009170752, -0.00117780408, 0.2027774   , -0.09599569 , 0.3475799   , 0.0089206   , -0.0119813122, 0.461261749 , 2.08        , 3           , 12          , 0.04347764  , 0
-0.119880378, -0.08165572 , -9.775614   , 0.000481679861, -0.00036930514, 0.0006246365, 0.202642575 , -0.0961979255, 0.347782135 , 0.008925343 , -0.01198506 , 0.461267948 , 2.09        , 3           , 50          , 0           , 0
-0.129186854, -0.07199792 , -9.785525   , 0.00172979222, -0.00161622337, 0.00190249493, 0.202305511 , -0.09599569 , 0.347849548 , 0.008925796 , -0.0120094344, 0.461287022 , 2.1         , 3           , 11          , 0.0110790161, 0.011079018
-0.123052485, -0.07809846 , -9.768374   , 0.00332246674, 0.0009451763, 0.00216410332, 0.202642575 , -0.0959282741, 0.347984374 , 0.00895876  , -0.012000178, 0.461308718 , 2.11        , 3           , 12          , 0.044305604 , 0
-0.11919149 , -0.09578678 , -9.762219   , 0.007821173 , 0.00191229  , 0.00113258173, 0.202440336 , -0.0960631  , 0.347849548 , 0.00903683249, -0.0119811557, 0.461320162 , 2.12        , 3           , 50          , 0           , 0
-0.07798635 , -0.0917805359, -9.790252   , 0.00299449638, 0.00239640125, 0.000537386339, 0.202440336 , -0.0960631  , 0.347849548 , 0.009066711 , -0.0119572412, 0.461325884 , 2.13        , 3           , 11          , 0.0110790161, 0.011079018
-0.11999841 , -0.096525915, -9.77669048 , 5.92590877E-05, 0.000424445054, -1.017773E-05, 0.202575162 , -0.09599569 , 0.347782135 , 0.009067304 , -0.0119529972, 0.461325884 , 2.14        , 3           , 12          , 0.044305604 , 0
-0.1096027  , -0.09032275 , -9.774716   , -5.00834176E-05, -0.00223592762, 0.00109544478, 0.202170685 , -0.0960631  , 0.347849548 , 0.009066674 , -0.0119754532, 0.4613366   , 2.15        , 3           , 50          , 0           , 0
-0.1126382  , -0.0767633  , -9.775039   , -0.00108543958, -0.004818464, 0.00255424739, 0.202440336 , -0.0959282741, 0.347916961 , 0.009055519 , -0.012023868, 0.461361647 , 2.16        , 3           , 11          , 0.0110790161, 0.011079018
-0.115265936, -0.08508441 , -9.795937   , 0.000560124 , 0.0005645975, -0.00021971541, 0.202575162 , -0.0960631  , 0.347849548 , 0.00906114653, -0.0120182028, 0.4613595   , 2.17        , 3           , 12          , 0.044305604 , 0
-0.116689235, -0.09898298 , -9.802435   , -0.0005436568, -0.00215474679, 0.0005927026, 0.202575162 , -0.09599569 , 0.347714722 , 0.00905564  , -0.012039803, 0.461365223 , 2.18        , 3           , 50          , 0           , 0
-0.111531585, -0.06666252 , -9.792529   , -0.00260192063, -0.002410778, -0.00049700815, 0.202575162 , -0.09599569 , 0.347714722 , 0.009029683 , -0.0120638646, 0.461359978 , 2.19        , 3           , 11          , 0.0110790161, 0.011079018
-0.114632726, -0.06655765 , -9.799783   , -0.00474890973, -0.00322083267, 0.0008389963, 0.202372923 , -0.0960631  , 0.347916961 , 0.008730398 , -0.01201968 , 0.461371183 , 2.2         , 3           , 12          , 0.0451564975, 0
-0.110814638, -0.0856471  , -9.789127   , 0.0007614263, -0.00111367682, -0.000599080231, 0.202372923 , -0.09599569 , 0.347916961 , 0.008738084 , -0.0120307617, 0.461365223 , 2.21        , 3           , 50          , 0           , 0
-0.0986151546, -0.0843518451, -9.793517   , -0.00130089652, -0.00151619711, -0.00133317255, 0.202507749 , -0.0957260355, 0.347984374 , 0.008725238 , -0.0120458072, 0.461351633 , 2.22        , 3           , 11          , 0.0115403552, 0.0115403561
-0.115524851, -0.069652915, -9.804795   , -0.003729566, -0.0025643874, -0.0015780105, 0.202440336 , -0.09613051 , 0.347782135 , 0.008688134 , -0.0120713124, 0.461335659 , 2.23        , 3           , 12          , 0.0451564975, 0
-0.108826011, -0.07291162 , -9.800707   , -0.00279847556, -0.00129505061, -0.000337463833, 0.202440336 , -0.09613051 , 0.347782135 , 0.008660192 , -0.0120842345, 0.461332321 , 2.24        , 3           , 50          , 0           , 0
-0.101961672, -0.09308031 , -9.776033   , -0.00193484558, -0.000161242075, 0.000113616523, 0.202372923 , -0.0960631  , 0.3475799   , 0.00864082947, -0.0120858541, 0.4613335   , 2.25        , 3           , 11          , 0.0115403552, 0.0115403561
-0.106390245, -0.0920377  , -9.785546   , -0.00201070728, 4.48164828E-05, 0.00118943339, 0.202507749 , -0.09599569 , 0.347782135 , 0.008620579 , -0.0120855086, 0.4613452   , 2.26        , 3           , 12          , 0.0451564975, 0
-0.109461024, -0.09277658 , -9.79823    , 0.00110212038, -0.00191306008, 0.0002500763, 0.202035859 , -0.0960631  , 0.347849548 , 0.008631572 , -0.0121046593, 0.46134758  , 2.27        , 3           , 50          , 0           , 0
-0.10480801 , -0.08412759 , -9.80938148 , -0.0003858246, -0.001679116, -0.000185034893, 0.202305511 , -0.0961979255, 0.347782135 , 0.008627737 , -0.0121214343, 0.461345673 , 2.28        , 3           , 11          , 0.0115403552, 0.0115403561
-0.118917309, -0.08201284 , -9.785095   , -0.001251309, -0.003097584, -0.0008549119, 0.202305511 , -0.0960631  , 0.3476473   , 0.008615332 , -0.0121523356, 0.461336851 , 2.29        , 3           , 12          , 0.0451564975, 0
-0.12846677 , -0.09097767 , -9.782577   , -0.00339078554, -0.00279315771, -0.000434260321, 0.202305511 , -0.0960631  , 0.3476473   , 0.008569152 , -0.0121802045, 0.46133256  , 2.3         , 3           , 50          , 0           , 0
-0.128883466, -0.0918126553, -9.788462   , -0.00364058139, 0.000712648151, 0.000473644119, 0.202305511 , -0.09586086 , 0.347782135 , 0.008532687 , -0.012173119, 0.461337328 , 2.31        , 3           , 11          , 0.0114811091, 0.0114810979
-0.09544644 , -0.08346296 , -9.794833   , -0.002842691, 0.00157211779, -0.000367615459, 0.2022381   , -0.0959282741, 0.347849548 , 0.008504304 , -0.0121573675, 0.461333752 , 2.32        , 3           , 12          , 0.04602877  , 0
-0.12424016 , -0.07872719 , -9.792784   , -0.00158175849, 0.000193384389, 0.000121057565, 0.202372923 , -0.09586086 , 0.347714722 , 0.008488471 , -0.0121554434, 0.461334944 , 2.33        , 3           , 50          , 0           , 0
-0.122606732, -0.0767738447, -9.766097   , 0.00133780448, 0.00080408965, 0.0006487973, 0.202372923 , -0.0960631  , 0.347782135 , 0.00850177  , -0.0121474583, 0.461341381 , 2.34        , 3           , 11          , 0.0114811091, 0.0114810979
-0.101346336, -0.07146497 , -9.77351952 , 0.002408513 , 0.0009397426, 0.000299604348, 0.202372923 , -0.0960631  , 0.347782135 , 0.008525817 , -0.0121380892, 0.461344719 , 2.35        , 3           , 12          , 0.04602877  , 0
-0.08707304 , -0.05507808 , -9.798944   , 0.0024640807, 1.239141E-06, 0.00100187853, 0.202372923 , -0.09599569 , 0.347714722 , 0.008550336 , -0.0121381609, 0.4613545   , 2.36        , 3           , 50          , 0           , 0
-0.102401957, -0.0903903  , -9.77419949 , 0.001409131 , -4.29327E-05, -0.000865656, 0.202305511 , -0.09599569 , 0.347782135 , 0.008564532 , -0.0121385138, 0.4613459   , 2.37        , 3           , 11          , 0.0114811091, 0.0114810979
-0.118921585, -0.0851353  , -9.788292   , -0.001730777, -0.001013534, -0.0009706517, 0.202642575 , -0.09599569 , 0.347916961 , 0.008547341 , -0.0121485638, 0.461336136 , 2.38        , 3           , 12          , 0.04602877  , 0
-0.09943023 , -0.08643885 , -9.808454   , 0.0005220465, -0.00226613018, 0.000313056 , 0.202372923 , -0.0959282741, 0.347714722 , 0.008552528 , -0.0121712517, 0.461339    , 2.39        , 3           , 50          , 0           , 0
-0.1085925  , -0.09772985 , -9.799636   , 0.00159897807, -0.00142626185, 0.00154639152, 0.202372923 , -0.0959282741, 0.347714722 , 0.008586284 , -0.01204513 , 0.461354017 , 2.4         , 3           , 11          , 0.0117953029, 0.0117952945
-0.1176435  , -0.08525837 , -9.777893   , 0.00181513815, -0.00213015964, -0.000108200271, 0.202642575 , -0.0961979255, 0.3476473   , 0.008604451 , -0.0120664211, 0.461352825 , 2.41        , 3           , 12          , 0.04692093  , 0
-0.0990019441, -0.0771286041, -9.793889   , 2.3413555E-05, 0.00247964845, -0.000696429866, 0.202507749 , -0.09599569 , 0.347714722 , 0.008604768 , -0.012041566, 0.4613459   , 2.42        , 3           , 50          , 0           , 0
-0.0855570957, -0.07912241 , -9.787013   , -0.00381838158, 0.00223399862, -0.000938357261, 0.202440336 , -0.09599569 , 0.347916961 , 0.008566694 , -0.0120191472, 0.461336851 , 2.43        , 3           , 11          , 0.0117953029, 0.0117952945
-0.111188687, -0.0806300044, -9.794042   , -0.00318883942, 0.00115538447, -0.00123631663, 0.202305511 , -0.09586086 , 0.3480518   , 0.008534953 , -0.0120074879, 0.461324453 , 2.44        , 3           , 12          , 0.04692093  , 0
-0.1011772  , -0.06764483 , -9.793348   , -0.000909537368, 0.00141948648, -0.001289977, 0.202575162 , -0.0961979255, 0.3476473   , 0.00852601  , -0.0119931847, 0.461311817 , 2.45        , 3           , 50          , 0           , 0
-0.104846805, -0.06638171 , -9.782075   , 0.0002983088, 0.000700356 , -0.002366244, 0.202575162 , -0.0961979255, 0.3476473   , 0.00852927752, -0.011985979, 0.4612882   , 2.46        , 3           , 11          , 0.0117953029, 0.0117952945
-0.108868174, -0.0760921538, -9.798485   , -0.00163595693, -0.0008512053, -0.00297309179, 0.202507749 , -0.0960631  , 0.3476473   , 0.00851327553, -0.011994238, 0.4612584   , 2.47        , 3           , 12          , 0.04692093  , 0
-0.0898724049, -0.0805771351, -9.815978   , 0.000404006481, -0.00111332454, -3.06187758E-05, 0.202440336 , -0.0960631  , 0.347849548 , 0.008517319 , -0.0120053673, 0.461257935 , 2.48        , 3           , 50          , 0           , 0
-0.101483233, -0.0885897  , -9.774621   , 0.000433102337, -0.004062361, 0.0011432278, 0.202507749 , -0.09586086 , 0.347849548 , 0.008521518 , -0.0120460866, 0.46126914  , 2.49        , 3           , 11          , 0.0117953029, 0.0117952945
-0.07720966 , -0.08084962 , -9.758951   , 0.00251523126, -0.00354752061, 0.0003756557, 0.202372923 , -0.09613051 , 0.347916961 , 0.008563986 , -0.0120282276, 0.46127224  , 2.5         , 3           , 12          , 0.04783159  , 0
-0.1214397  , -0.0616840571, -9.786238   , 0.00269608153, 0.0003825399, 0.00143547263, 0.202372923 , -0.09613051 , 0.347916961 , 0.008590774 , -0.0120245256, 0.461286783 , 2.51        , 3           , 50          , 0           , 0
-0.12557371 , -0.0684510544, -9.782742   , -0.0002948625, -0.0005805479, 0.0003297595, 0.202844813 , -0.0961979255, 0.347714722 , 0.008587785 , -0.01203036 , 0.461289883 , 2.52        , 3           , 11          , 0.0120009584, 0.0120009547
-0.103617556, -0.08839107 , -9.791351   , 0.0002903853, 0.0004230988, -0.0003676164, 0.202575162 , -0.0960631  , 0.347782135 , 0.008590733 , -0.0120260976, 0.4612863   , 2.53        , 3           , 12          , 0.04783159  , 0
-0.122990161, -0.08557029 , -9.78653    , 0.0009966074, -0.000296093931, -0.000874553865, 0.202372923 , -0.0959282741, 0.347714722 , 0.008600805 , -0.0120289838, 0.461277485 , 2.54        , 3           , 50          , 0           , 0
-0.115834974, -0.10974481 , -9.808874   , -0.00108669454, -0.00157306879, 2.42762781E-05, 0.202642575 , -0.09613051 , 0.347849548 , 0.00858993549, -0.0120447148, 0.461277485 , 2.55        , 3           , 11          , 0.0120009584, 0.0120009547
-0.114945479, -0.09240928 , -9.786081   , 0.000380542158, 0.00178810651, -0.0008481506, 0.202440336 , -0.09613051 , 0.347714722 , 0.008593842 , -0.0120267626, 0.46126914  , 2.56        , 3           , 12          , 0.04783159  , 0
-0.107694976, -0.07682095 , -9.77364    , -0.00388590316, -0.00383688835, -9.735852E-05, 0.202440336 , -0.09613051 , 0.347714722 , 0.008554999 , -0.012065121, 0.4612677   , 2.57        , 3           , 50          , 0           , 0
-0.117801659, -0.09484834 , -9.766714   , 2.8645718E-05, -0.002954837, 0.00101287954, 0.202372923 , -0.09613051 , 0.347849548 , 0.008555165 , -0.0120947557, 0.461277723 , 2.58        , 3           , 11          , 0.0120009584, 0.0120009547
-0.116670981, -0.08560098 , -9.788729   , 0.00190865051, -0.0003924872, 0.0008469555, 0.202575162 , -0.09586086 , 0.347916961 , 0.008574148 , -0.012098751, 0.461286068 , 2.59        , 3           , 12          , 0.04783159  , 0
-0.0877631  , -0.0736919343, -9.786971   , 0.0019271418, -8.760409E-05, -0.000365217362, 0.202507749 , -0.0960631  , 0.347849548 , 0.008607557 , -0.0120846452, 0.461282253 , 2.6         , 3           , 50          , 0           , 0
-0.109459996, -0.07585992 , -9.77771    , 0.000167835082, -0.00423206249, 0.000279396016, 0.202709988 , -0.0960631  , 0.3476473   , 0.00860920548, -0.0121269878, 0.461284637 , 2.61        , 3           , 11          , 0.0124343093, 0.01243431
-0.114995077, -0.09871711 , -9.786607   , 1.64017874E-05, -0.00494834548, 0.000411187473, 0.202709988 , -0.0960631  , 0.3476473   , 0.008609325 , -0.0121765053, 0.461288452 , 2.62        , 3           , 12          , 0.04875945  , 0
-0.0955564454, -0.09475978 , -9.792706   , 0.0006323727, -0.0006586371, 0.000834922364, 0.202575162 , -0.0960631  , 0.3476473   , 0.008615546 , -0.0121831624, 0.4612968   , 2.63        , 3           , 50          , 0           , 0
-0.107593849, -0.06509257 , -9.773954   , -0.0017737454, 8.68518E-05 , 0.0003300053, 0.202372923 , -0.0959282741, 0.347714722 , 0.008597769 , -0.0121823223, 0.4612999   , 2.64        , 3           , 11          , 0.0124343093, 0.01243431
-0.115335755, -0.07851439 , -9.777795   , -8.524336E-05, -0.00249434169, -0.00141426013, 0.202440336 , -0.09599569 , 0.347849548 , 0.00859709  , -0.012207143, 0.4612856   , 2.65        , 3           , 12          , 0.04875945  , 0
-0.123767793, -0.07869726 , -9.795942   , 0.000370562542, 0.000361996732, -0.0007976268, 0.202575162 , -0.0960631  , 0.3476473   , 0.008600892 , -0.0122034522, 0.461277723 , 2.66        , 3           , 50          , 0           , 0
-0.0938025862, -0.0877255052, -9.777251   , 0.00104995747, -0.001451064, 0.000826015137, 0.202575162 , -0.0960631  , 0.3476473   , 0.008611292 , -0.0122180339, 0.46128583  , 2.67        , 3           , 11          , 0.0124343093, 0.01243431
-0.09489086 , -0.0548169836, -9.775075   , -0.0001834515, -0.00394059159, 0.000138345771, 0.202372923 , -0.0960631  , 0.3476473   , 0.008609446 , -0.01225745 , 0.461286783 , 2.68        , 3           , 12          , 0.04875945  , 0
-0.101181693, -0.06631629 , -9.791074   , -0.00108691363, -0.00206907582, 0.000231446262, 0.202440336 , -0.09613051 , 0.347782135 , 0.008598549 , -0.0122781591, 0.461288929 , 2.69        , 3           , 50          , 0           , 0
-0.113730133, -0.101531088, -9.777594   , -0.001969801, -0.00225661369, 0.00100978976, 0.202507749 , -0.0959282741, 0.347916961 , 0.0083880825, -0.0120977191, 0.461301327 , 2.7         , 3           , 11          , 0.01252567  , 0.0125256656
-0.106826089, -0.07687718 , -9.769115   , 0.0021311196, 0.001222402 , 1.22164465E-05, 0.202440336 , -0.0960631  , 0.347782135 , 0.00840939  , -0.0120854974, 0.461301565 , 2.71        , 3           , 12          , 0.04970328  , 0
-0.112044148, -0.0707603  , -9.788515   , 0.00165706954, 0.0031637873, -0.000177233625, 0.202440336 , -0.0960631  , 0.3476473   , 0.008425979 , -0.0120538445, 0.461300135 , 2.72        , 3           , 50          , 0           , 0
-0.126234338, -0.08167826 , -9.768445   , -0.00243895524, -0.00108476437, -0.00126582652, 0.202440336 , -0.0960631  , 0.3476473   , 0.008401744 , -0.0120645845, 0.46128726  , 2.73        , 3           , 11          , 0.01252567  , 0.0125256656
-0.141990989, -0.0940018743, -9.784091   , 0.0006689711, -0.00177927 , 0.0007467784, 0.202575162 , -0.0960631  , 0.3476473   , 0.008408345 , -0.0120824408, 0.461294651 , 2.74        , 3           , 12          , 0.04970328  , 0
-0.140063852, -0.0893730149, -9.796666   , -0.000303037377, -0.005572171, 0.00125823857, 0.202170685 , -0.0959282741, 0.3476473   , 0.008405169 , -0.0121382652, 0.4613068   , 2.75        , 3           , 50          , 0           , 0
-0.1361168  , -0.09713659 , -9.790848   , -0.000850184762, -0.00433819229, 0.00012789329, 0.202305511 , -0.0960631  , 0.347782135 , 0.008396656 , -0.0121816555, 0.461307764 , 2.76        , 3           , 11          , 0.01252567  , 0.0125256656
-0.09606135 , -0.0886077061, -9.777282   , -0.000117707059, -0.002200552, 0.000664265361, 0.202642575 , -0.0960631  , 0.347782135 , 0.008395401 , -0.0122037157, 0.4613142   , 2.77        , 3           , 12          , 0.04970328  , 0
-0.09215826 , -0.08931649 , -9.756476   , -0.000319758256, -0.001548463, 0.000100042693, 0.202642575 , -0.0960631  , 0.347782135 , 0.008392193 , -0.012219212, 0.461315155 , 2.78        , 3           , 50          , 0           , 0
-0.106468976, -0.08503611 , -9.765593   , 0.00104873441, -0.000833583, -0.00124066381, 0.202642575 , -0.09599569 , 0.3476473   , 0.008402832 , -0.01222744 , 0.461302519 , 2.79        , 3           , 11          , 0.01252567  , 0.0125256656
-0.123296887, -0.07510845 , -9.79454    , 0.00174949423, -0.000632126, 0.0011989614, 0.202372923 , -0.09579345 , 0.347849548 , 0.008427765 , -0.0122008594, 0.46131444  , 2.8         , 3           , 12          , 0.0506619327, 0
-0.113295473, -0.06258384 , -9.79295    , 0.000145043246, 0.00175388635, 0.0006512131, 0.202642575 , -0.09586086 , 0.347782135 , 0.008429134 , -0.0121833757, 0.461320877 , 2.81        , 3           , 50          , 0           , 0
-0.119662344, -0.06974829 , -9.792639   , 0.00127956935, 0.00166748359, 0.00101472822, 0.202575162 , -0.0960631  , 0.347714722 , 0.008441804 , -0.0121667869, 0.461331129 , 2.82        , 3           , 11          , 0.0124500562, 0.0124500412
-0.12042433 , -0.09025286 , -9.772557   , 0.0007800774, 0.00181135081, 0.00151460362, 0.202709988 , -0.09599569 , 0.3475799   , 0.00844941847, -0.0121488  , 0.4613464   , 2.83        , 3           , 12          , 0.0506619327, 0
-0.0954758152, -0.07727609 , -9.783018   , 0.000828851946, -0.0008293506, 0.0002602298, 0.202709988 , -0.09599569 , 0.3475799   , 0.008457676 , -0.0121571142, 0.461349    , 2.84        , 3           , 50          , 0           , 0
-0.119850785, -0.09229357 , -9.792901   , -9.723373E-05, -0.000469414023, 0.00111837022, 0.202372923 , -0.0960631  , 0.3476473   , 0.008456567 , -0.0121619031, 0.461360216 , 2.85        , 3           , 11          , 0.0124500562, 0.0124500412
-0.110958181, -0.09610503 , -9.781119   , 0.00190869614, 0.0007999648, 0.001149145 , 0.202507749 , -0.09586086 , 0.347916961 , 0.008475513 , -0.0121540008, 0.46137166  , 2.86        , 3           , 12          , 0.0506619327, 0
-0.115201928, -0.107046321, -9.76682949 , 0.0027599344, 0.00645707641, 0.000663956 , 0.202575162 , -0.0960631  , 0.347714722 , 0.008503026 , -0.012089489, 0.4613788   , 2.87        , 3           , 50          , 0           , 0
-0.126552045, -0.09081914 , -9.798817   , 0.000344763743, 0.0003226629, 0.000202384472, 0.202575162 , -0.0960631  , 0.3476473   , 0.008506449 , -0.01208628 , 0.461380959 , 2.88        , 3           , 11          , 0.0124500562, 0.0124500412
-0.112002648, -0.07959937 , -9.805329   , -0.00151990331, -0.00144327572, -0.0005502472, 0.202575162 , -0.0960631  , 0.3476473   , 0.008491319 , -0.012100664, 0.461375237 , 2.89        , 3           , 12          , 0.0506619327, 0
-0.106933296, -0.07501248 , -9.816523   , 0.00195840257, -8.695959E-05, -8.024952E-05, 0.202440336 , -0.09613051 , 0.347714722 , 0.008469535 , -0.0120263221, 0.461375    , 2.9         , 3           , 50          , 0           , 0
-0.0869832039, -0.0881287456, -9.78713    , 0.00322518242, -0.00124627934, -8.923338E-05, 0.202507749 , -0.09599569 , 0.3476473   , 0.008501798 , -0.0120387748, 0.461374044 , 2.91        , 3           , 11          , 0.0128948074, 0.0128947888
-0.1048152  , -0.0917059  , -9.817599   , 0.00344787049, -0.00109491881, -0.00123051764, 0.202642575 , -0.09586086 , 0.347714722 , 0.008536426 , -0.01204962 , 0.461361647 , 2.92        , 3           , 12          , 0.05163433  , 0
-0.107333742, -0.09120547 , -9.778318   , 0.00264474656, -0.00174969214, 0.0007585282, 0.202709988 , -0.0959282741, 0.3475799   , 0.008562785 , -0.0120671811, 0.461369038 , 2.93        , 3           , 50          , 0           , 0
-0.103285536, -0.0872406662, -9.772816   , 0.000450923428, -0.000725550461, 0.0009029387, 0.202709988 , -0.0959282741, 0.3475799   , 0.008567185 , -0.0120745134, 0.4613781   , 2.94        , 3           , 11          , 0.0128948074, 0.0128947888
-0.111985177, -0.0875850245, -9.817617   , -0.00166483514, -4.56376947E-05, -0.0006028825, 0.202507749 , -0.09626534 , 0.347445071 , 0.008550609 , -0.0120749185, 0.4613719   , 2.95        , 3           , 12          , 0.05163433  , 0
-0.112930685, -0.0720664561, -9.792152   , 0.000835154962, 0.000649365247, -0.00100670243, 0.202709988 , -0.0959282741, 0.3476473   , 0.008559084 , -0.01206834 , 0.461361885 , 2.96        , 3           , 50          , 0           , 0
-0.1044755  , -0.0803056359, -9.787653   , 0.00141023123, 0.000440169475, -0.002294144, 0.202575162 , -0.0959282741, 0.3476473   , 0.008573461 , -0.0120637408, 0.461339    , 2.97        , 3           , 11          , 0.0128948074, 0.0128947888
-0.1216799  , -0.0851988941, -9.780189   , 0.00167031342, 5.218098E-05, 0.000707074767, 0.202575162 , -0.09599569 , 0.3476473   , 0.00859008  , -0.01206328 , 0.461346149 , 2.98        , 3           , 12          , 0.05163433  , 0
-0.124559261, -0.0727357  , -9.804462   , 0.002698781 , 0.00318995956, 0.00125976757, 0.202642575 , -0.09579345 , 0.3476473   , 0.00861691  , -0.0120314918, 0.461359024 , 2.99        , 3           , 50          , 0           , 0
-0.129080057, -0.07227946 , -9.801337   , 0.0003449559, 0.00188790332, 0.00122841971, 0.202642575 , -0.09579345 , 0.3476473   , 0.008476973 , -0.0120930141, 0.461373568 , 3           , 3           , 11          , 0.0127378935, 0.0127378795
-0.115911715, -0.09205698 , -9.77615    , -0.000530079065, -0.0008131324, -0.0002471891, 0.202507749 , -0.09613051 , 0.3475799   , 0.008471701 , -0.012101125, 0.461370945 , 3.01        , 3           , 12          , 0.05261947  , 0
-0.09545089 , -0.07056089 , -9.778422   , -9.220657E-05, -0.0003792796, -0.00116839155, 0.2022381   , -0.09586086 , 0.347714722 , 0.008470921 , -0.0121048167, 0.461359262 , 3.02        , 3           , 50          , 0           , 0
-0.115100831, -0.06346514 , -9.793427   , -0.0005875796, 0.0006166465, 0.000202496274, 0.202642575 , -0.0960631  , 0.347916961 , 0.00846502  , -0.0120986672, 0.4613614   , 3.03        , 3           , 11          , 0.0127378935, 0.0127378795
-0.107615493, -0.07402841 , -9.781737   , 0.00283717783, 0.001867098 , 0.0007426249, 0.202575162 , -0.09626534 , 0.347849548 , 0.00849330053, -0.0120800612, 0.461369038 , 3.04        , 3           , 12          , 0.05261947  , 0
-0.116563112, -0.06896585 , -9.78401852 , 0.00167508924, -0.000975617149, -0.000593702134, 0.202575162 , -0.09626534 , 0.347849548 , 0.008510123 , -0.0120897656, 0.461363077 , 3.05        , 3           , 50          , 0           , 0
-0.112621643, -0.066945   , -9.76544    , -0.00272713671, 0.000136165327, 0.000253883074, 0.202575162 , -0.0960631  , 0.347512484 , 0.008482822 , -0.0120884273, 0.461365461 , 3.06        , 3           , 11          , 0.0127378935, 0.0127378795
-0.105228543, -0.07161445 , -9.798399   , -0.00263045169, 0.00235643168, 0.000286656345, 0.202440336 , -0.09599569 , 0.347849548 , 0.008456481 , -0.0120648872, 0.461368561 , 3.07        , 3           , 12          , 0.05261947  , 0
-0.109407648, -0.08601783 , -9.7977     , -0.003963508, -0.00207510171, 0.0005004203, 0.202305511 , -0.0959282741, 0.347916961 , 0.008416788 , -0.01208568 , 0.461373329 , 3.08        , 3           , 50          , 0           , 0
-0.104299054, -0.08918645 , -9.758845   , -0.001546322, -0.00181820348, 0.00109148561, 0.202642575 , -0.09599569 , 0.347714722 , 0.008401194 , -0.0121039525, 0.461384058 , 3.09        , 3           , 11          , 0.0127378935, 0.0127378795
-0.112247519, -0.0857611448, -9.777399   , -0.00266732252, -0.00156883546, -5.70885641E-05, 0.202440336 , -0.09613051 , 0.347714722 , 0.008389801 , -0.0120902956, 0.461383343 , 3.1         , 3           , 12          , 0.0536163934, 0
-0.114829421, -0.08822531 , -9.797777   , 0.00132597785, -0.000889003, -0.0004519132, 0.202440336 , -0.09613051 , 0.347714722 , 0.008403117 , -0.0120991478, 0.4613788   , 3.11        , 3           , 50          , 0           , 0
-0.100630894, -0.09846424 , -9.779696   , 0.002220287 , -0.00277267653, 0.000814265339, 0.202507749 , -0.0960631  , 0.347714722 , 0.008425224 , -0.0121269422, 0.461386681 , 3.12        , 3           , 11          , 0.0125041129, 0.0125040906
-0.121540844, -0.07341245 , -9.785923   , 0.00330157648, -0.0011414414, 0.00148855743, 0.202507749 , -0.09599569 , 0.347714722 , 0.008458058 , -0.0121384859, 0.461401463 , 3.13        , 3           , 12          , 0.0536163934, 0
-0.109560251, -0.08001967 , -9.768272   , -0.000505833537, 0.0007750503, -0.0001528884, 0.202642575 , -0.09599569 , 0.347782135 , 0.00845302  , -0.01213072 , 0.461400032 , 3.14        , 3           , 50          , 0           , 0
-0.123926759, -0.08428231 , -9.779747   , -0.00044798982, -0.00058372377, -0.000529989367, 0.202575162 , -0.0960631  , 0.3476473   , 0.008448603 , -0.0121365115, 0.461394548 , 3.15        , 3           , 11          , 0.0125041129, 0.0125040906
-0.122814916, -0.07728947 , -9.801788   , -0.00123708288, -0.0005143706, 0.0006109983, 0.202575162 , -0.0960631  , 0.3476473   , 0.008436158 , -0.0121417083, 0.461400747 , 3.16        , 3           , 12          , 0.0536163934, 0
-0.110091664, -0.0683182254, -9.807441   , 0.0010962087, -0.00161416142, 0.000752565 , 0.202507749 , -0.0960631  , 0.347512484 , 0.008447031 , -0.0121579133, 0.461408138 , 3.17        , 3           , 50          , 0           , 0
-0.115279958, -0.06997135 , -9.775437   , 0.00289156637, -0.000762246142, -0.0003688617, 0.202507749 , -0.09599569 , 0.347714722 , 0.008475992 , -0.0121655045, 0.461404324 , 3.18        , 3           , 11          , 0.0125041129, 0.0125040906
-0.139978424, -0.05452174 , -9.766453   , 0.00144928345, -0.00183270813, 0.000751576561, 0.202575162 , -0.0959282741, 0.347714722 , 0.008490395 , -0.0121838944, 0.4614117   , 3.19        , 3           , 12          , 0.0536163934, 0
-0.119800016, -0.07129456 , -9.77459049 , -0.00469914358, -0.00271185534, -0.000943605148, 0.202575162 , -0.09613051 , 0.3476473   , 0.008363864 , -0.0122697633, 0.46140337  , 3.2         , 3           , 50          , 0           , 0
-0.103423737, -0.08497827 , -9.81525    , -0.00295000314, -0.00439054333, 0.0004739257, 0.202575162 , -0.09613051 , 0.3476473   , 0.008334309 , -0.0123137068, 0.461407661 , 3.21        , 3           , 11          , 0.0129271867, 0.0129271708
-0.106137305, -0.07072899 , -9.79614    , -0.000443075172, -0.002557542, 0.00101683289, 0.202507749 , -0.09586086 , 0.3475799   , 0.008329757 , -0.0123393685, 0.461417675 , 3.22        , 3           , 12          , 0.05462425  , 0
-0.118231475, -0.098374255, -9.773985   , 0.00132242183, 0.00187733537, -5.28530363E-05, 0.202440336 , -0.0959282741, 0.347512484 , 0.008342985 , -0.01232059 , 0.461417437 , 3.23        , 3           , 50          , 0           , 0
-0.118200615, -0.09654644 , -9.776222   , 0.0025862453, 0.000502441137, 6.57397E-06 , 0.202507749 , -0.09579345 , 0.347782135 , 0.008368846 , -0.0123155657, 0.461417437 , 3.24        , 3           , 11          , 0.0129271867, 0.0129271708
-0.09192802 , -0.09386031 , -9.795372   , 0.001981752 , -0.00250214082, 0.000102407081, 0.202642575 , -0.09599569 , 0.347714722 , 0.008388653 , -0.012340595, 0.461418152 , 3.25        , 3           , 12          , 0.05462425  , 0
-0.09917667 , -0.108110443, -9.806444   , -0.000210709986, -0.00020630924, 0.002268747 , 0.202709988 , -0.09613051 , 0.3475799   , 0.008386266 , -0.0123428479, 0.4614408   , 3.26        , 3           , 50          , 0           , 0
-0.10768643 , -0.0959486  , -9.798252   , 0.000221670518, -0.0009085349, 0.000186193938, 0.202709988 , -0.09613051 , 0.3475799   , 0.008388461 , -0.0123519478, 0.4614427   , 3.27        , 3           , 11          , 0.0129271867, 0.0129271708
-0.106582828, -0.0765045956, -9.803889   , 0.00273039821, 9.720861E-06, -0.00114452885, 0.202507749 , -0.0959282741, 0.347512484 , 0.008415907 , -0.0123517551, 0.461431265 , 3.28        , 3           , 12          , 0.05462425  , 0
-0.108806789, -0.06576003 , -9.794751   , 0.00387673941, 0.001773285 , 0.0006769342, 0.202642575 , -0.0959282741, 0.347782135 , 0.008454589 , -0.01233408 , 0.461438179 , 3.29        , 3           , 50          , 0           , 0
-0.125740364, -0.08428599 , -9.777957   , 0.00450184476, 0.00143677834, 0.00110566546, 0.2027774   , -0.0959282741, 0.347849548 , 0.008131932 , -0.0120609505, 0.4614544   , 3.3         , 3           , 11          , 0.0133023392, 0.013302315
-0.123035669, -0.09810371 , -9.795256   , 4.962667E-05, 0.00335337245, 0.000175774461, 0.202642575 , -0.09613051 , 0.3476473   , 0.008132403 , -0.0120274322, 0.461456537 , 3.31        , 3           , 12          , 0.055642195 , 0
-0.103625089, -0.08929288 , -9.791362   , 0.0003827634, 0.0014857162, 0.0002938702, 0.202642575 , -0.09613051 , 0.3476473   , 0.008136193 , -0.0120125972, 0.4614594   , 3.32        , 3           , 50          , 0           , 0
-0.10220179 , -0.08696784 , -9.799001   , -0.00131163385, 0.002154256 , -0.0004224297, 0.202507749 , -0.0959282741, 0.3475799   , 0.008123126 , -0.0119910212, 0.461455584 , 3.33        , 3           , 11          , 0.0133023392, 0.013302315
-0.08389047 , -0.09670404 , -9.789007   , -0.00126396678, 7.647464E-05, -0.0005238005, 0.202575162 , -0.0959282741, 0.347916961 , 0.008110547 , -0.0119902119, 0.461450338 , 3.34        , 3           , 12          , 0.055642195 , 0
-0.0812621638, -0.09951041 , -9.781788   , -0.00118466758, 8.66301E-05 , -0.00173956912, 0.202372923 , -0.0959282741, 0.3476473   , 0.008098911 , -0.0119892051, 0.4614327   , 3.35        , 3           , 50          , 0           , 0
-0.10866794 , -0.09294894 , -9.782868   , 0.001484501 , -0.00181894284, -3.343588E-05, 0.202709988 , -0.09613051 , 0.3476473   , 0.008113761 , -0.0120073929, 0.461432219 , 3.36        , 3           , 11          , 0.0133023392, 0.013302315
-0.102451414, -0.0873501152, -9.763323   , 8.182392E-05, 5.571019E-05, 0.000271289144, 0.202709988 , -0.09599569 , 0.3476473   , 0.00811454747, -0.0120068574, 0.46143508  , 3.37        , 3           , 12          , 0.055642195 , 0
-0.111180164, -0.0743850544, -9.787646   , -0.003681707, 0.000101036334, -0.000538364344, 0.202709988 , -0.09599569 , 0.3476473   , 0.008077794 , -0.0120058041, 0.4614296   , 3.38        , 3           , 50          , 0           , 0
-0.119944341, -0.0915465951, -9.77843952 , 0.0006696122, 0.0014860261, -6.212139E-05, 0.202440336 , -0.09626534 , 0.347714722 , 0.00808449648, -0.0119909393, 0.461429119 , 3.39        , 3           , 11          , 0.0133023392, 0.013302315
-0.09706415 , -0.08964684 , -9.763753   , 7.656472E-05, -0.00160472828, 0.00117709849, 0.202575162 , -0.0960631  , 0.347782135 , 0.00813566148, -0.01201793 , 0.4614401   , 3.4         , 3           , 12          , 0.0566694662, 0
-0.09775093 , -0.06705501 , -9.767111   , -0.00220857817, -0.0025820788, 0.00086262  , 0.202642575 , -0.09613051 , 0.347714722 , 0.00811347552, -0.01204382 , 0.461448431 , 3.41        , 3           , 50          , 0           , 0
-0.10884919 , -0.06448957 , -9.787059   , 0.000487417128, -0.00339378323, 0.000438174 , 0.202507749 , -0.0960631  , 0.347512484 , 0.008118301 , -0.0120777907, 0.461452484 , 3.42        , 3           , 11          , 0.0123136174, 0.0123135885
-0.115303569, -0.07801992 , -9.781853   , 0.003081683 , -0.000481713883, 0.000424832251, 0.202507749 , -0.0960631  , 0.347512484 , 0.008149064 , -0.01208264 , 0.461456776 , 3.43        , 3           , 12          , 0.0566694662, 0
-0.123040684, -0.074074164, -9.765167   , 0.0037665884, -0.00264020124, 0.000612437259, 0.202440336 , -0.0959282741, 0.347512484 , 0.008186659 , -0.0121090906, 0.461462736 , 3.44        , 3           , 50          , 0           , 0
-0.09944339 , -0.06375718 , -9.778833   , 0.0025638307, -0.00156156719, 0.00155083917, 0.202440336 , -0.09599569 , 0.347782135 , 0.008212112 , -0.0121248318, 0.461478233 , 3.45        , 3           , 11          , 0.0123136174, 0.0123135885
-0.08647068 , -0.07023193 , -9.774272   , 0.002157536 , -0.00110688771, -0.0007347827, 0.202507749 , -0.0959282741, 0.347782135 , 0.008233775 , -0.012135841, 0.4614706   , 3.46        , 3           , 12          , 0.0566694662, 0
-0.09286348 , -0.08945471 , -9.784941   , 0.00303369085, 4.35576258E-05, -0.00214376836, 0.202507749 , -0.0959282741, 0.347782135 , 0.008264373 , -0.0121352291, 0.461449385 , 3.47        , 3           , 50          , 0           , 0
-0.1154186  , -0.102233328, -9.794782   , 0.00591906346, 0.00373763079, -0.00178621453, 0.202507749 , -0.0959282741, 0.347782135 , 0.008323777 , -0.0120977061, 0.461431742 , 3.48        , 3           , 11          , 0.0123136174, 0.0123135885
-0.147700757, -0.0928410441, -9.803553   , -0.000665425265, 0.00177244283, 0.00100680266, 0.202642575 , -0.09613051 , 0.3475799   , 0.008317    , -0.012080065, 0.461441755 , 3.49        , 3           , 12          , 0.0566694662, 0
-0.120573305, -0.09315185 , -9.754523   , -0.0017549186, 0.0007887801, 0.000415625662, 0.202170685 , -0.0960631  , 0.347714722 , 0.008440597 , -0.0124377171, 0.461444378 , 3.5         , 3           , 50          , 0           , 0
-0.07130365 , -0.08838693 , -9.775696   , 0.001705403 , 0.00335635245, -0.002101728, 0.202305511 , -0.0961979255, 0.3476473   , 0.008457909 , -0.01240398 , 0.461423635 , 3.51        , 3           , 11          , 0.0125615541, 0.0125615308
-0.09584971 , -0.06291094 , -9.776532   , 0.001934828 , -0.000105962834, 0.000139215175, 0.2022381   , -0.09613051 , 0.347849548 , 0.00847724  , -0.01240505 , 0.461425066 , 3.52        , 3           , 12          , 0.0577053539, 0
-0.116497569, -0.0532857664, -9.774353   , 0.0007552526, -0.002407514, 0.00238828524, 0.202372923 , -0.09613051 , 0.347714722 , 0.008484498 , -0.0124293268, 0.461448669 , 3.53        , 3           , 50          , 0           , 0
-0.08969438 , -0.08366875 , -9.780329   , 0.00161490741, -0.00268996414, 0.000958432 , 0.202372923 , -0.09613051 , 0.347714722 , 0.00850053  , -0.0124563053, 0.461457968 , 3.54        , 3           , 11          , 0.0125615541, 0.0125615308
-0.09557636 , -0.08855841 , -9.782245   , -0.00262006512, -6.484792E-05, 0.0006841289, 0.202372923 , -0.09599569 , 0.347782135 , 0.008474247 , -0.0124570131, 0.461464882 , 3.55        , 3           , 12          , 0.0577053539, 0
-0.11019028 , -0.09854159 , -9.764879   , 0.00194528187, 0.000472314481, -0.000424765778, 0.202507749 , -0.09599569 , 0.3476473   , 0.00849375  , -0.0124522541, 0.461460829 , 3.56        , 3           , 50          , 0           , 0
-0.130191073, -0.09485078 , -9.798446   , 0.00166936871, 0.001050922 , -0.0007042961, 0.202305511 , -0.09613051 , 0.347714722 , 0.00851053  , -0.0124416845, 0.461453676 , 3.57        , 3           , 11          , 0.0125615541, 0.0125615308
-0.126900762, -0.07418978 , -9.793208   , 0.00168119557, 0.00191321888, -0.0009779397, 0.2022381   , -0.0961979255, 0.3476473   , 0.008527462 , -0.0124224694, 0.461444139 , 3.58        , 3           , 12          , 0.0577053539, 0
-0.131131589, -0.07798917 , -9.772061   , 0.00591973355, 0.0004216217, 0.0007438778, 0.2022381   , -0.0961979255, 0.3476473   , 0.008586565 , -0.0124183157, 0.461451769 , 3.59        , 3           , 50          , 0           , 0
-0.110335581, -0.08071042 , -9.78726    , 0.0007897935, 0.000175967754, 0.000709057844, 0.202507749 , -0.09599569 , 0.347714722 , 0.008576434 , -0.0124462126, 0.46145916  , 3.6         , 3           , 11          , 0.0122369314, 0.0122368988
-0.11077901 , -0.07802526 , -9.784973   , 0.0010855064, 0.00131683517, 0.00101362937, 0.202709988 , -0.09586086 , 0.3476473   , 0.00858716  , -0.0124331322, 0.4614694   , 3.61        , 3           , 12          , 0.058749184 , 0
-0.1243317  , -0.0926665738, -9.796559   , 0.00190912688, -0.001271046, 0.0009812078, 0.202507749 , -0.09599569 , 0.347782135 , 0.008606131 , -0.0124459267, 0.461478949 , 3.62        , 3           , 50          , 0           , 0
-0.115485623, -0.08898198 , -9.768883   , -0.0006255175, -0.00036482577, -0.00131100416, 0.202575162 , -0.0959282741, 0.347782135 , 0.00860004  , -0.012449461, 0.461465836 , 3.63        , 3           , 11          , 0.0122369314, 0.0122368988
-0.110805735, -0.0745051056, -9.776803   , -0.002402565, -0.00580273 , -0.000255925755, 0.202709988 , -0.09599569 , 0.347512484 , 0.008576052 , -0.0125074647, 0.461462736 , 3.64        , 3           , 12          , 0.058749184 , 0
-0.09577621 , -0.06680455 , -9.791933   , -0.004904498, -0.000902318337, -0.000486560224, 0.202709988 , -0.09599569 , 0.347512484 , 0.00852707  , -0.0125164455, 0.461457968 , 3.65        , 3           , 50          , 0           , 0
-0.101445824, -0.0912032  , -9.783234   , -0.002636951, -0.00178261334, -0.000771537656, 0.202305511 , -0.09586086 , 0.347714722 , 0.0085008   , -0.0125342049, 0.4614501   , 3.66        , 3           , 11          , 0.0122369314, 0.0122368988
-0.134316161, -0.0904758  , -9.782623   , 0.00164752128, -0.000109042165, -0.0004346315, 0.202372923 , -0.09586086 , 0.347714722 , 0.008517329 , -0.012535261, 0.46144557  , 3.67        , 3           , 12          , 0.058749184 , 0
-0.100742251, -0.06500137 , -9.787892   , 0.00278913532, -0.000115481613, -0.0010001061, 0.202440336 , -0.09599569 , 0.347782135 , 0.00854534749, -0.0125363292, 0.461435556 , 3.68        , 3           , 50          , 0           , 0
-0.08900992 , -0.06684401 , -9.793678   , 0.0002726291, 0.00335459388, -0.001537772, 0.202305511 , -0.0960631  , 0.347512484 , 0.008548262 , -0.0125026545, 0.461420536 , 3.69        , 3           , 11          , 0.0122369314, 0.0122368988
-0.127638638, -0.06592048 , -9.80667    , -0.00303114415, -0.00274744281, -0.00021797778, 0.202305511 , -0.0960631  , 0.347512484 , 0.008263848 , -0.0120265409, 0.4614215   , 3.7         , 3           , 12          , 0.0598003343, 0
-0.119690672, -0.0720173344, -9.79131    , -0.00728288246, -0.002402162, -0.00195648917, 0.202372923 , -0.09599569 , 0.3476473   , 0.008191257 , -0.0120504005, 0.4614017   , 3.71        , 3           , 50          , 0           , 0
-0.128981   , -0.07549205 , -9.754396   , -0.000202978583, -0.00336229475, 0.00122162909, 0.202372923 , -0.0960631  , 0.347714722 , 0.008189083 , -0.0120841227, 0.46141386  , 3.72        , 3           , 11          , 0.0125213563, 0.012521321
-0.1153207  , -0.07671076 , -9.777773   , 0.00181642792, -0.00108732935, 0.0009808473, 0.202372923 , -0.0959282741, 0.347782135 , 0.008207129 , -0.012095077, 0.4614234   , 3.73        , 3           , 12          , 0.0598003343, 0
-0.124179758, -0.07373822 , -9.795436   , 0.000650894945, -0.00365242339, 0.000650267757, 0.202372923 , -0.0960631  , 0.3476473   , 0.008213564 , -0.0121316519, 0.4614296   , 3.74        , 3           , 50          , 0           , 0
-0.134154558, -0.08755745 , -9.802463   , -0.00156219082, 0.0009687573, -0.0007274829, 0.202372923 , -0.0960631  , 0.3476473   , 0.008198028 , -0.0121219056, 0.461422443 , 3.75        , 3           , 11          , 0.0125213563, 0.012521321
-0.103551544, -0.08161296 , -9.792628   , 0.00242464221, 0.0014989014, -0.000408984284, 0.202372923 , -0.09599569 , 0.347512484 , 0.008222324 , -0.0121068833, 0.4614184   , 3.76        , 3           , 12          , 0.0598003343, 0
-0.10661149 , -0.072097145, -9.794353   , 0.000967515458, -0.00135500159, -0.000173122578, 0.202305511 , -0.09613051 , 0.3476473   , 0.008232019 , -0.0121204183, 0.461416721 , 3.77        , 3           , 50          , 0           , 0
-0.115804635, -0.08521597 , -9.783296   , 0.00102802285, 0.00324050314, -0.00125100184, 0.202305511 , -0.09586086 , 0.347782135 , 0.008242448 , -0.01208791 , 0.461404324 , 3.78        , 3           , 11          , 0.0125213563, 0.012521321
-0.116764523, -0.08485401 , -9.774267   , -0.0035441895, 0.00128324248, -0.00159379514, 0.202507749 , -0.0960631  , 0.347714722 , 0.008207197 , -0.0120749455, 0.4613886   , 3.79        , 3           , 12          , 0.0598003343, 0
-0.108344577, -0.09581795 , -9.767993   , -0.00303447666, -0.00332173775, 5.97572543E-05, 0.202507749 , -0.09599569 , 0.3475799   , 0.008191452 , -0.0121041657, 0.4613886   , 3.8         , 3           , 50          , 0           , 0
-0.1058955  , -0.08485131 , -9.783201   , 8.749816E-05, -0.00477362145, -0.001373083, 0.202507749 , -0.09599569 , 0.3475799   , 0.008192499 , -0.012151788, 0.461374521 , 3.81        , 3           , 11          , 0.0119976029, 0.011997574
-0.101816654, -0.07460771 , -9.774463   , -0.00332166255, -0.00388688687, -0.0005226312, 0.202507749 , -0.0960631  , 0.347714722 , 0.008159351 , -0.012190612, 0.461369038 , 3.82        , 3           , 12          , 0.0608582236, 0
-0.147714838, -0.089301534, -9.797188   , -0.0010301969, -0.00219564862, 8.844515E-05, 0.2022381   , -0.09599569 , 0.347714722 , 0.008149039 , -0.0122125773, 0.461369753 , 3.83        , 3           , 50          , 0           , 0
-0.09500667 , -0.0888245255, -9.799859   , 0.00122908817, -0.00280472147, 0.00152462535, 0.202575162 , -0.09599569 , 0.347714722 , 0.008161145 , -0.012240747, 0.461384773 , 3.84        , 3           , 11          , 0.0119976029, 0.011997574
-0.113082759, -0.0887693241, -9.790539   , -0.00418020971, -0.004167357, -0.000245780917, 0.202844813 , -0.0960631  , 0.3476473   , 0.008119377 , -0.0122823985, 0.4613819   , 3.85        , 3           , 12          , 0.0608582236, 0
-0.127065539, -0.07711296 , -9.772918   , 0.009284723 , 0.00372616574, -0.000620720442, 0.202844813 , -0.0960631  , 0.3476473   , 0.008212298 , -0.0122450879, 0.461375952 , 3.86        , 3           , 50          , 0           , 0
-0.122957215, -0.0752817243, -9.77873    , 0.00352936983, -0.00166616484, -0.00016195749, 0.202575162 , -0.0960631  , 0.3475799   , 0.008247615 , -0.0122617343, 0.461374283 , 3.87        , 3           , 11          , 0.0119976029, 0.011997574
-0.08964382 , -0.0835913345, -9.787553   , 0.00270107621, 0.0003511177, -0.000424046972, 0.202440336 , -0.09599569 , 0.347714722 , 0.008274675 , -0.0122581879, 0.46137023  , 3.88        , 3           , 12          , 0.0608582236, 0
-0.113060817, -0.07271092 , -9.774094   , -0.0013707364, -0.007064604, 1.57816867E-05, 0.202709988 , -0.0959282741, 0.347849548 , 0.008260974 , -0.0123288324, 0.461369753 , 3.89        , 3           , 50          , 0           , 0
-0.127872139, -0.08452859 , -9.795595   , 0.00186652679, 0.00294479146, -0.000105404732, 0.202642575 , -0.09613051 , 0.347782135 , 0.00825368147, -0.0122752944, 0.461369276 , 3.9         , 3           , 11          , 0.012245032 , 0.012245005
-0.114801981, -0.09352489 , -9.808227   , 0.00301967887, 0.004929049 , 0.00107531971, 0.202642575 , -0.0960631  , 0.3476473   , 0.008283742 , -0.0122260964, 0.461380482 , 3.91        , 3           , 12          , 0.0619223081, 0
-0.112234637, -0.0901927948, -9.784677   , 0.00100716052, 0.00209884183, -0.000695393537, 0.202642575 , -0.0960631  , 0.3476473   , 0.008293895 , -0.0122050485, 0.461373568 , 3.92        , 3           , 50          , 0           , 0
-0.105618767, -0.07151859 , -9.806984   , 0.004663642 , -0.00250863261, -0.00245688 , 0.202507749 , -0.0960631  , 0.3476473   , 0.008340833 , -0.0122299315, 0.461348772 , 3.93        , 3           , 11          , 0.012245032 , 0.012245005
-0.09364626 , -0.06790016 , -9.775665   , -0.001595169, 9.319907E-05, 0.00212161127, 0.202709988 , -0.09586086 , 0.347782135 , 0.008324622 , -0.0122291762, 0.46137023  , 3.94        , 3           , 12          , 0.0619223081, 0
-0.09317097 , -0.0634143949, -9.773803   , 0.00356931286, 0.00292233471, 0.0004772037, 0.202507749 , -0.09599569 , 0.347849548 , 0.008360255 , -0.0121999932, 0.461375237 , 3.95        , 3           , 50          , 0           , 0
-0.0990648642, -0.07010282 , -9.776194   , 0.00129297364, 0.00237997179, -0.0004033426, 0.202440336 , -0.0960631  , 0.3476473   , 0.008373231 , -0.01217616 , 0.461371422 , 3.96        , 3           , 11          , 0.012245032 , 0.012245005
-0.0906854644, -0.1038307  , -9.79186249 , -0.002154967, 0.000393236 , 0.001263866 , 0.202440336 , -0.0960631  , 0.3476473   , 0.008351529 , -0.0121723339, 0.461384058 , 3.97        , 3           , 12          , 0.0619223081, 0
-0.112940289, -0.06985548 , -9.788062   , -0.00184769288, 0.00154946046, -0.000148546533, 0.202575162 , -0.09613051 , 0.3475799   , 0.008333068 , -0.0121568283, 0.461382627 , 3.98        , 3           , 50          , 0           , 0
-0.115178213, -0.0577969067, -9.775295   , -0.005018902, -0.0004504028, 0.0026650317, 0.202305511 , -0.0960631  , 0.3475799   , 0.008282556 , -0.0121615538, 0.46140933  , 3.99        , 3           , 11          , 0.012245032 , 0.012245005
-0.112079188, -0.0779360756, -9.79221249 , -0.004731382, 0.0007204632, 0.000108314343, 0.202507749 , -0.09599569 , 0.347782135 , 0.008153964 , -0.0121413395, 0.4614117   , 4           , 3           , 12          , 0.06299208  , 0
-0.113083318, -0.07764185 , -9.77686    , -0.00304290326, 0.000114610077, 0.00182723161, 0.202372923 , -0.09599569 , 0.347714722 , 0.008123314 , -0.0121403411, 0.461429834 , 4.01        , 3           , 50          , 0           , 0
-0.0879583061, -0.0873449147, -9.775387   , -0.00102405029, 0.00267103571, 0.00216295128, 0.202372923 , -0.09599569 , 0.347714722 , 0.008112809 , -0.0121138077, 0.461451769 , 4.02        , 3           , 11          , 0.012481221 , 0.0124811772
-0.07072727 , -0.08374633 , -9.788284   , -0.004959987, 0.004748259 , -0.00126578938, 0.202440336 , -0.0960631  , 0.3475799   , 0.008063357 , -0.0120662246, 0.4614396   , 4.03        , 3           , 12          , 0.06299208  , 0
-0.0957297161, -0.09235437 , -9.764675   , 0.00131089229, 0.005831004 , -0.00121140061, 0.202170685 , -0.09599569 , 0.347782135 , 0.008076605 , -0.01200782 , 0.461427927 , 4.04        , 3           , 50          , 0           , 0
-0.100981228, -0.08762406 , -9.78093    , 0.000375338685, -0.0004778666, 0.000122461322, 0.202440336 , -0.0960631  , 0.3476473   , 0.008080345 , -0.0120126074, 0.461429119 , 4.05        , 3           , 11          , 0.012481221 , 0.0124811772
-0.105709329, -0.080114834, -9.804375   , -0.002172794, 0.000410436973, -0.000166602651, 0.201968446 , -0.09586086 , 0.347849548 , 0.008058637 , -0.0120084891, 0.46142745  , 4.06        , 3           , 12          , 0.06299208  , 0
-0.105557047, -0.0859167352, -9.768304   , 0.00693203136, 0.0008860083, 0.000468901068, 0.202170685 , -0.09599569 , 0.347782135 , 0.0081279   , -0.0119996667, 0.461432219 , 4.07        , 3           , 50          , 0           , 0
-0.125926584, -0.100596   , -9.77092    , 0.00292154471, -0.00136872963, 0.0006976893, 0.202170685 , -0.09599569 , 0.347782135 , 0.00815703347, -0.0120134111, 0.461439133 , 4.08        , 3           , 11          , 0.012481221 , 0.0124811772
-0.09595145 , -0.07508538 , -9.776673   , 0.00436655572, 0.00175127632, 0.00275531341, 0.202035859 , -0.09599569 , 0.347714722 , 0.008200367 , -0.0119961239, 0.4614668   , 4.09        , 3           , 12          , 0.06299208  , 0
-0.106774323, -0.07590763 , -9.775427   , 0.0018070722, 0.00124892639, 0.000728255662, 0.202305511 , -0.09586086 , 0.347916961 , 0.008198887 , -0.0119020883, 0.461474419 , 4.1         , 3           , 50          , 0           , 0
-0.120574743, -0.07153923 , -9.793119   , -0.00109068118, -0.003025984, 0.00122084667, 0.202440336 , -0.0959282741, 0.347916961 , 0.008187837 , -0.0119324466, 0.46148634  , 4.11        , 3           , 11          , 0.0126929609, 0.0126929227
-0.09860839 , -0.09324416 , -9.805364   , -0.0009864316, 0.0038851893, -0.00239912071, 0.202305511 , -0.0961979255, 0.347714722 , 0.008178254 , -0.0118934  , 0.461462736 , 4.12        , 3           , 12          , 0.06406708  , 0
-0.08609547 , -0.08593045 , -9.78258    , 0.00409386447, 0.00236956635, 0.001044821 , 0.202305511 , -0.0961979255, 0.347714722 , 0.008219067 , -0.011869791, 0.461473465 , 4.13        , 3           , 50          , 0           , 0
-0.104537949, -0.08218183 , -9.780899   , 0.00325184129, 0.00154665252, -0.00212064385, 0.2022381   , -0.09586086 , 0.3475799   , 0.008251835 , -0.0118541494, 0.461452246 , 4.14        , 3           , 11          , 0.0126929609, 0.0126929227
-0.105508223, -0.089403   , -9.779636   , 0.001787561 , -0.00159894861, -0.0013166276, 0.202372923 , -0.0960631  , 0.347512484 , 0.008269868 , -0.0118700285, 0.4614389   , 4.15        , 3           , 12          , 0.06406708  , 0
-0.102935992, -0.0644486  , -9.795586   , -0.00133357116, -0.00155692454, -0.002480131, 0.2022381   , -0.09599569 , 0.347849548 , 0.00825682748, -0.0118853934, 0.4614141   , 4.16        , 3           , 50          , 0           , 0
-0.128642559, -0.07007724 , -9.796791   , 0.00376047939, -0.00220769132, 0.000404003047, 0.202372923 , -0.09613051 , 0.347714722 , 0.008294389 , -0.011907503, 0.4614179   , 4.17        , 3           , 11          , 0.0126929609, 0.0126929227
-0.101359531, -0.08572942 , -9.78904152 , -0.0007944144, -0.00216657622, 0.0009489168, 0.202507749 , -0.0961979255, 0.3475799   , 0.008286332 , -0.0119292485, 0.4614272   , 4.18        , 3           , 12          , 0.06406708  , 0
-0.09111243 , -0.08910173 , -9.777244   , -0.00447341846, -0.00182195625, -0.00135849579, 0.202507749 , -0.0961979255, 0.3475799   , 0.008241763 , -0.0119473543, 0.461413622 , 4.19        , 3           , 50          , 0           , 0
-0.09642393 , -0.07288983 , -9.770781   , 0.0009895659, 0.00245262776, -0.0009776138, 0.202170685 , -0.09613051 , 0.3475799   , 0.008286192 , -0.0118188709, 0.46140337  , 4.2         , 3           , 11          , 0.0128763225, 0.0128762946
-0.0917157  , -0.0561439171, -9.780029   , -0.000963552331, 0.00478084572, -0.00267320336, 0.202103272 , -0.09599569 , 0.347916961 , 0.008276867 , -0.0117708435, 0.461377144 , 4.21        , 3           , 12          , 0.06514683  , 0
-0.107519507, -0.07299112 , -9.794372   , 0.000683399034, 0.0007334829, -0.0007182044, 0.202440336 , -0.09599569 , 0.347849548 , 0.008283785 , -0.0117634488, 0.46137     , 4.22        , 3           , 50          , 0           , 0
-0.111822158, -0.08090673 , -9.767852   , 0.00292893057, -0.000740446441, 0.00127778307, 0.2022381   , -0.09613051 , 0.347512484 , 0.008312923 , -0.01177096 , 0.461382627 , 4.23        , 3           , 11          , 0.0128763225, 0.0128762946
-0.1117116  , -0.08073737 , -9.783659   , 0.004967318 , 0.0026885143, 0.000195203262, 0.2022381   , -0.09613051 , 0.347512484 , 0.008362572 , -0.0117440913, 0.461384773 , 4.24        , 3           , 12          , 0.06514683  , 0
-0.128272772, -0.07821682 , -9.79507351 , 8.2892715E-05, -0.00184250984, -0.000473029, 0.2022381   , -0.09613051 , 0.3476473   , 0.008363457 , -0.0117624756, 0.46138     , 4.25        , 3           , 50          , 0           , 0
-0.135975227, -0.0604188032, -9.766482   , -0.0010402943, -0.000400614954, -0.000172850909, 0.202305511 , -0.09599569 , 0.347714722 , 0.008353075 , -0.01176647 , 0.461378336 , 4.26        , 3           , 11          , 0.0128763225, 0.0128762946
-0.112443045, -0.04931129 , -9.7697525  , 9.195006E-05, 0.000427087769, 0.00213583536, 0.202372923 , -0.0959282741, 0.347782135 , 0.008353744 , -0.0117623769, 0.4613998   , 4.27        , 3           , 12          , 0.06514683  , 0
-0.09892625 , -0.07478697 , -9.801991   , -0.003074828, -0.00382445613, 0.000337400968, 0.202305511 , -0.09599569 , 0.347782135 , 0.008322961 , -0.0118006486, 0.461402655 , 4.28        , 3           , 50          , 0           , 0
-0.1036765  , -0.08536536 , -9.779121   , -0.00106532115, -0.00240922859, 8.409837E-05, 0.202305511 , -0.09599569 , 0.347782135 , 0.0083123   , -0.0118247466, 0.46140337  , 4.29        , 3           , 11          , 0.0128763225, 0.0128762946
-0.107933231, -0.101223081, -9.768955   , -0.00134700025, -0.00182896247, 0.00152132427, 0.202372923 , -0.09579345 , 0.3475799   , 0.008317163 , -0.01178882 , 0.461418152 , 4.3         , 3           , 12          , 0.0662309453, 0
-0.130162761, -0.09258173 , -9.799774   , -0.000225186188, -0.00355487643, 0.0009308087, 0.202035859 , -0.09613051 , 0.347782135 , 0.008314804 , -0.0118244458, 0.4614272   , 4.31        , 3           , 50          , 0           , 0
-0.09545648 , -0.07234999 , -9.77979851 , -0.0009910451, 0.00306046964, -0.00069532427, 0.202103272 , -0.09613051 , 0.347714722 , 0.008304974 , -0.0117937848, 0.4614203   , 4.32        , 3           , 11          , 0.0130369607, 0.0130369291
-0.08479601 , -0.08424021 , -9.773063   , -0.00464613037, 0.005976625 , -0.002106683, 0.202170685 , -0.09599569 , 0.347849548 , 0.008258753 , -0.0117338477, 0.4613998   , 4.33        , 3           , 12          , 0.0662309453, 0
-0.114759989, -0.07431982 , -9.79084    , 0.00185858156, 0.00332071213, -0.0009601809, 0.202440336 , -0.0960631  , 0.3476473   , 0.008277449 , -0.0117005622, 0.461390734 , 4.34        , 3           , 50          , 0           , 0
-0.120702274, -0.0864239559, -9.792841   , 0.00440148776, 0.00214326987, -0.00038912642, 0.202440336 , -0.0960631  , 0.3476473   , 0.008321508 , -0.0116791008, 0.461386919 , 4.35        , 3           , 11          , 0.0130369607, 0.0130369291
-0.07518558 , -0.08141388 , -9.791912   , -0.00331743737, -0.00149912026, -0.00106197211, 0.202170685 , -0.09613051 , 0.347849548 , 0.008288459 , -0.011694001, 0.4613762   , 4.36        , 3           , 12          , 0.0662309453, 0
-0.118476495, -0.07045772 , -9.7696     , 0.007247261 , 0.00239839312, -8.16549E-05, 0.202372923 , -0.09599569 , 0.347782135 , 0.008360938 , -0.011670012, 0.461375475 , 4.37        , 3           , 50          , 0           , 0
-0.145846158, -0.0789754242, -9.794341   , 0.00150566094, -0.00212908071, -0.000182699325, 0.202170685 , -0.0960631  , 0.347849548 , 0.008376018 , -0.0116912853, 0.461373568 , 4.38        , 3           , 11          , 0.0130369607, 0.0130369291
-0.09864055 , -0.082165055, -9.7871685  , 0.002095714 , -0.000131365348, 0.000136106217, 0.202507749 , -0.09613051 , 0.3476473   , 0.008396959 , -0.01169261 , 0.461375    , 4.39        , 3           , 12          , 0.0662309453, 0
-0.09951865 , -0.0750008  , -9.781673   , -0.0016086502, -0.0006298565, 0.000105169442, 0.202507749 , -0.09613051 , 0.3476473   , 0.008380711 , -0.011577433, 0.461375952 , 4.4         , 3           , 50          , 0           , 0
-0.114988878, -0.09648194 , -9.784774   , 0.00354482373, 0.00190246163, -0.000398755627, 0.2022381   , -0.0959282741, 0.3476473   , 0.008416205 , -0.0115583753, 0.461372137 , 4.41        , 3           , 11          , 0.0131551474, 0.0131551176
-0.111557834, -0.07204435 , -9.795301   , 0.001241796 , 0.00019586565, 0.000707152 , 0.202305511 , -0.09599569 , 0.3480518   , 0.008428541 , -0.0115564754, 0.461379051 , 4.42        , 3           , 12          , 0.0673190355, 0
-0.125711322, -0.0837963745, -9.781564   , -0.00273650931, 0.0002414394, 0.000110836474, 0.202103272 , -0.09579345 , 0.347714722 , 0.008401161 , -0.0115540735, 0.461380243 , 4.43        , 3           , 50          , 0           , 0
-0.124052182, -0.09070629 , -9.769433   , -0.000438443851, 0.00250583654, 0.0007302599, 0.202305511 , -0.0960631  , 0.347984374 , 0.008396688 , -0.011529075, 0.461387634 , 4.44        , 3           , 11          , 0.0131551474, 0.0131551176
-0.0978519842, -0.0810089  , -9.769531   , 0.00181864924, 0.00104726432, 0.00100926345, 0.2022381   , -0.09613051 , 0.347782135 , 0.008414759 , -0.0115186879, 0.4613979   , 4.45        , 3           , 12          , 0.0673190355, 0
-0.100366555, -0.0780283138, -9.793009   , 0.003536586 , 0.000198343856, -0.002140781, 0.2022381   , -0.09613051 , 0.347782135 , 0.008450373 , -0.0115165235, 0.461376429 , 4.46        , 3           , 50          , 0           , 0
-0.10269963 , -0.07101196 , -9.772623   , -0.00130414462, 0.00193366851, 0.00157526473, 0.202170685 , -0.09613051 , 0.347714722 , 0.008437148 , -0.0114973215, 0.4613924   , 4.47        , 3           , 11          , 0.0131551474, 0.0131551176
-0.099184975, -0.08186023 , -9.773168   , 0.00179940334, -0.000953670766, 0.000407720654, 0.202170685 , -0.09586086 , 0.347916961 , 0.008455096 , -0.0115068927, 0.461396456 , 4.48        , 3           , 12          , 0.0673190355, 0
-0.100932725, -0.0844338462, -9.784054   , 0.00206623529, -0.00182653568, 0.0015415696, 0.202035859 , -0.09599569 , 0.347714722 , 0.008475582 , -0.01152529 , 0.4614117   , 4.49        , 3           , 50          , 0           , 0
-0.07997599 , -0.06643278 , -9.797204   , 0.001870583 , 0.00452023465, -0.0003716908, 0.202305511 , -0.0960631  , 0.3476473   , 0.008503386 , -0.0114088468, 0.461408377 , 4.5         , 3           , 11          , 0.0130483368, 0.0130483108
-0.114706613, -0.06756107 , -9.79031    , 0.004725702 , 0.00591655541, 0.000524802832, 0.202305511 , -0.0960631  , 0.3476473   , 0.008550578 , -0.0113497283, 0.4614141   , 4.51        , 3           , 12          , 0.06841071  , 0
-0.128032491, -0.07498125 , -9.760706   , -0.00129455631, 0.00139964919, -0.000436447, 0.202170685 , -0.0960631  , 0.347512484 , 0.008537678 , -0.0113356933, 0.4614098   , 4.52        , 3           , 50          , 0           , 0
-0.104486525, -0.0745357946, -9.779004   , 0.000632716 , -0.00350266183, 0.0006492527, 0.202170685 , -0.09599569 , 0.347782135 , 0.008543937 , -0.0113707734, 0.461416    , 4.53        , 3           , 11          , 0.0130483368, 0.0130483108
-0.114395052, -0.07445439 , -9.778642   , 0.000161197415, 0.00396953244, -0.0009626463, 0.202103272 , -0.0959282741, 0.347984374 , 0.008545654 , -0.0113309957, 0.4614067   , 4.54        , 3           , 12          , 0.06841071  , 0
-0.106265046, -0.08116274 , -9.790389   , 0.0004024491, 0.0013695138, 0.0010046534, 0.202305511 , -0.0960631  , 0.347849548 , 0.008549563 , -0.0113173882, 0.461416721 , 4.55        , 3           , 50          , 0           , 0
-0.11651    , -0.0577561148, -9.778018   , 0.00327683752, 0.00279143  , -0.0009604931, 0.202305511 , -0.0960631  , 0.347849548 , 0.008582437 , -0.0112893926, 0.461407423 , 4.56        , 3           , 11          , 0.0130483368, 0.0130483108
-0.108119234, -0.07855776 , -9.779536   , 0.00237813662, -0.0006465295, -0.0001572236, 0.202170685 , -0.0960631  , 0.347782135 , 0.008606238 , -0.0112958429, 0.461405754 , 4.57        , 3           , 12          , 0.06841071  , 0
-0.105062366, -0.0903039  , -9.780094   , -0.00105026993, -0.00176073029, 9.168554E-05, 0.2022381   , -0.0959282741, 0.347714722 , 0.008595727 , -0.01131346 , 0.461406469 , 4.58        , 3           , 50          , 0           , 0
-0.102844082, -0.100612074, -9.787871   , 0.0006541775, -0.00262756762, -0.00105521083, 0.202170685 , -0.09599569 , 0.347849548 , 0.008602389 , -0.011339643, 0.461395741 , 4.59        , 3           , 11          , 0.0130483368, 0.0130483108
-0.107269548, -0.08576555 , -9.780966   , 0.003854769 , 0.0013542393, 0.00102451106, 0.202372923 , -0.0960631  , 0.347984374 , 0.008775018 , -0.01125949 , 0.4614041   , 4.6         , 3           , 12          , 0.0695056543, 0
-0.134093821, -0.06387236 , -9.782315   , 0.0033040503, 0.00194853381, -0.000687552732, 0.2022381   , -0.09599569 , 0.347849548 , 0.008808135 , -0.0112399459, 0.4613974   , 4.61        , 3           , 50          , 0           , 0
-0.09284641 , -0.07696484 , -9.77215    , -0.000648409536, 0.00456820149, -0.0006739785, 0.2022381   , -0.09599569 , 0.347849548 , 0.008801722 , -0.0111942058, 0.461390972 , 4.62        , 3           , 11          , 0.0130466111, 0.013046585
-0.09380856 , -0.09441167 , -9.784556   , -0.0007135899, -0.0005979022, 0.000109389941, 0.202170685 , -0.09613051 , 0.3476473   , 0.008794574 , -0.0112001933, 0.461392164 , 4.63        , 3           , 12          , 0.0695056543, 0
-0.09147346 , -0.07916821 , -9.778034   , 0.00274314336, 0.00281149149, -0.0003922949, 0.202170685 , -0.0959282741, 0.347849548 , 0.008822046 , -0.011172046, 0.46138835  , 4.64        , 3           , 50          , 0           , 0
-0.103664577, -0.08356658 , -9.778649   , 0.003527983 , -0.00264986046, 0.00039204015, 0.202103272 , -0.0960631  , 0.347916961 , 0.008857286 , -0.0111985775, 0.461392164 , 4.65        , 3           , 11          , 0.0130466111, 0.013046585
-0.127620861, -0.0986363739, -9.784012   , 0.002122283 , -0.00120251626, 0.000404340855, 0.2022381   , -0.0960631  , 0.347849548 , 0.008878464 , -0.011210639, 0.461395979 , 4.66        , 3           , 12          , 0.0695056543, 0
-0.117268264, -0.0893833339, -9.772066   , 0.00215364434, 0.0005323157, -0.00128760189, 0.2022381   , -0.0960631  , 0.347849548 , 0.008900144 , -0.011205201, 0.4613831   , 4.67        , 3           , 50          , 0           , 0
-0.123124935, -0.08266072 , -9.763458   , -0.00355495512, -0.00112936681, -0.00134691107, 0.2022381   , -0.0960631  , 0.3475799   , 0.008864745 , -0.011216376, 0.461369753 , 4.68        , 3           , 11          , 0.0130466111, 0.013046585
-0.120340981, -0.0892349258, -9.783385   , 0.00390014914, 0.00480086775, 0.0002161014, 0.202170685 , -0.0960631  , 0.347714722 , 0.008903718 , -0.0111683877, 0.461372137 , 4.69        , 3           , 12          , 0.0695056543, 0
-0.112605542, -0.08517084 , -9.790041   , 0.00158736529, 0.00193000888, 0.00130543381, 0.201968446 , -0.09586086 , 0.347849548 , 0.008931562 , -0.0112123471, 0.46138525  , 4.7         , 3           , 50          , 0           , 0
-0.107358783, -0.09569517 , -9.780178   , -0.000106628286, 0.00337512372, 0.00188834919, 0.202170685 , -0.09599569 , 0.347916961 , 0.008930281 , -0.0111787654, 0.461404562 , 4.71        , 3           , 11          , 0.0128879128, 0.01288789
-0.112809442, -0.08904421 , -9.765245   , 0.00066667283, -0.00407692464, 0.0009264855, 0.202103272 , -0.09613051 , 0.3475799   , 0.00893684849, -0.0112196151, 0.461413383 , 4.72        , 3           , 12          , 0.07060354  , 0
-0.106800079, -0.0786179  , -9.775007   , 0.003278613 , -8.314483E-05, 0.000141843484, 0.202103272 , -0.09613051 , 0.3475799   , 0.008969618 , -0.0112204589, 0.4614148   , 4.73        , 3           , 50          , 0           , 0
-0.09105928 , -0.0778920054, -9.77124    , 0.00102152  , 0.00137542747, -0.000137160023, 0.201968446 , -0.0960631  , 0.347782135 , 0.00897984952, -0.011206693, 0.461413622 , 4.74        , 3           , 11          , 0.0128879128, 0.01288789
-0.116127118, -0.0747783259, -9.789051   , 0.000108800945, -0.00377432816, -0.0002174238, 0.201901034 , -0.09599569 , 0.347916961 , 0.008980964 , -0.0112444144, 0.461411    , 4.75        , 3           , 12          , 0.07060354  , 0
-0.112915508, -0.0724883452, -9.794867   , -0.000496667461, -0.00579252047, 0.00175308273, 0.2022381   , -0.0960631  , 0.347984374 , 0.008975806 , -0.0113024935, 0.461427927 , 4.76        , 3           , 50          , 0           , 0
-0.112731174, -0.08714382 , -9.774257   , -0.0012630804, 0.00110428664, 0.0007034513, 0.202170685 , -0.0960631  , 0.347849548 , 0.008963093 , -0.011291516, 0.46143508  , 4.77        , 3           , 11          , 0.0128879128, 0.01288789
-0.124356359, -0.0922592059, -9.79249    , 0.005000934 , 0.0007669335, -0.0006938476, 0.202170685 , -0.0960631  , 0.347849548 , 0.009013182 , -0.0112837842, 0.461428165 , 4.78        , 3           , 12          , 0.07060354  , 0
-0.103756323, -0.0930549651, -9.776953   , -0.00010689348, 0.0025281834, 0.000445008569, 0.2022381   , -0.09613051 , 0.347782135 , 0.00901206  , -0.0112585425, 0.461432934 , 4.79        , 3           , 50          , 0           , 0
-0.100214362, -0.08160473 , -9.754203   , -0.004692322, -0.00170446082, -0.0010759579, 0.202170685 , -0.0960631  , 0.3476473   , 0.008984978 , -0.0112502417, 0.461421728 , 4.8         , 3           , 11          , 0.0128886374, 0.0128886141
-0.115843751, -0.08616617 , -9.77879    , 0.000115650386, -0.003483297, 7.27847655E-05, 0.2022381   , -0.09586086 , 0.347916961 , 0.00898613  , -0.0112850787, 0.4614222   , 4.81        , 3           , 12          , 0.0717040747, 0
-0.09530496 , -0.06989223 , -9.79874    , 0.00189681654, 0.002806666 , -0.000111281122, 0.202305511 , -0.09613051 , 0.347714722 , 0.009005109 , -0.0112570021, 0.461421251 , 4.82        , 3           , 50          , 0           , 0
-0.07837093 , -0.07832203 , -9.783325   , -0.00124960754, -6.863557E-06, -0.002461176, 0.202305511 , -0.09613051 , 0.347714722 , 0.008992891 , -0.0112568485, 0.4613967   , 4.83        , 3           , 11          , 0.0128886374, 0.0128886141
-0.104656495, -0.0562972762, -9.797315   , -0.002127158, 0.0005340113, 0.002120655 , 0.202305511 , -0.0960631  , 0.3476473   , 0.00897138  , -0.011251702, 0.4614179   , 4.84        , 3           , 12          , 0.0717040747, 0
-0.108172491, -0.0875419751, -9.782802   , 0.0010434963, 0.002815335 , -0.000116421317, 0.202170685 , -0.0959282741, 0.347849548 , 0.008981826 , -0.0112235369, 0.46141696  , 4.85        , 3           , 50          , 0           , 0
-0.109095164, -0.110715121, -9.80792    , -0.00180776848, 0.001424133 , -0.00158524292, 0.202372923 , -0.09613051 , 0.347849548 , 0.008963925 , -0.0112091545, 0.461401224 , 4.86        , 3           , 11          , 0.0128886374, 0.0128886141
-0.0844251662, -0.100835681, -9.781833   , 0.00130869041, 0.000811510137, -0.0007162507, 0.202305511 , -0.09613051 , 0.347984374 , 0.008977089 , -0.0112009756, 0.4613943   , 4.87        , 3           , 12          , 0.0717040747, 0
-0.120051757, -0.09171112 , -9.763083   , -0.00243963674, -0.00288669183, 0.0003518753, 0.202305511 , -0.09613051 , 0.3476473   , 0.008952657 , -0.0112298718, 0.461397648 , 4.88        , 3           , 50          , 0           , 0
-0.135072887, -0.08446102 , -9.796112   , -0.000151470638, -0.001482032, 0.000958778255, 0.202305511 , -0.09613051 , 0.3476473   , 0.008951035 , -0.0112447776, 0.461406946 , 4.89        , 3           , 11          , 0.0128886374, 0.0128886141
-0.131037816, -0.08318712 , -9.791994   , 0.00210791081, -0.00115680031, -0.000161242511, 0.202305511 , -0.09599569 , 0.3475799   , 0.008859958 , -0.0121222055, 0.461408138 , 4.9         , 3           , 12          , 0.07280697  , 0
-0.113940589, -0.08290939 , -9.789576   , -0.000161562872, -0.0002790649, 0.000409899 , 0.201968446 , -0.0960631  , 0.347714722 , 0.008858293 , -0.012125032, 0.4614122   , 4.91        , 3           , 50          , 0           , 0
-0.125554651, -0.07064753 , -9.788187   , -0.0007351159, -0.0008438844, 0.0001119611, 0.201968446 , -0.0959282741, 0.347782135 , 0.008850928 , -0.012133481, 0.461413145 , 4.92        , 3           , 11          , 0.0129949208, 0.0129948929
-0.100212067, -0.0711147338, -9.806931   , 0.00239950465, -0.000867991766, -0.0007276836, 0.202440336 , -0.09613051 , 0.347782135 , 0.008875013 , -0.0121420957, 0.461406    , 4.93        , 3           , 12          , 0.07280697  , 0
-0.08439916 , -0.10257642 , -9.787725   , -0.000140943885, 0.00200588978, 0.00130177918, 0.202440336 , -0.09613051 , 0.347782135 , 0.008873444 , -0.0121221514, 0.4614191   , 4.94        , 3           , 50          , 0           , 0
-0.108650714, -0.0964835957, -9.789684   , 0.001527204 , -0.002013318, 0.00010897412, 0.202372923 , -0.0961979255, 0.347714722 , 0.008888705 , -0.0121422932, 0.461419821 , 4.95        , 3           , 11          , 0.0129949208, 0.0129948929
-0.138961509, -0.08239469 , -9.817353   , -0.00242496748, -0.000522050948, -0.00189729384, 0.2022381   , -0.09599569 , 0.347849548 , 0.008864687 , -0.0121473474, 0.461401    , 4.96        , 3           , 12          , 0.07280697  , 0
-0.125701353, -0.0811103  , -9.779726   , 0.00126559834, -0.000851314166, -0.00130686513, 0.202035859 , -0.09613051 , 0.347849548 , 0.008877503 , -0.0121557415, 0.461387873 , 4.97        , 3           , 50          , 0           , 0
-0.1306823  , -0.0717626661, -9.764307   , -0.000458094932, -0.001985412, -0.0007615117, 0.202305511 , -0.09599569 , 0.347849548 , 0.008873015 , -0.0121755274, 0.46138     , 4.98        , 3           , 11          , 0.0129949208, 0.0129948929
-0.139435723, -0.0583902672, -9.784559   , 0.00298242737, -0.00113731448, -0.00330390665, 0.202305511 , -0.0960631  , 0.347714722 , 0.008903242 , -0.0121866064, 0.461346865 , 4.99        , 3           , 12          , 0.07280697  , 0
-0.11521288 , -0.0716491938, -9.787199   , -0.0004951192, -0.00144893117, 0.0006783461, 0.202305511 , -0.0960631  , 0.347714722 , 0.008770524 , -0.0122908736, 0.4613557   , 5           , 3           , 50          , 0           , 0
-0.111890368, -0.0939200744, -9.773875   , 0.00125745486, 0.00169889943, -0.0006962847, 0.202103272 , -0.09599569 , 0.3475799   , 0.008783182 , -0.0122738257, 0.461348772 , 5.01        , 3           , 11          , 0.0108474158, 0.01084737
-0.102680609, -0.08478199 , -9.792204   , 0.003798434 , 0.000518897548, 0.0001609337, 0.202035859 , -0.0959282741, 0.347714722 , 0.008821145 , -0.0122686531, 0.461350441 , 5.02        , 3           , 12          , 0.07391198  , 0
-0.119717166, -0.07294817 , -9.78861    , 0.00412138924, 0.002542538 , -0.00209745043, 0.201968446 , -0.0959282741, 0.347782135 , 0.008862614 , -0.01224304 , 0.4613297   , 5.03        , 3           , 50          , 0           , 0
-0.101904653, -0.08364518 , -9.772761   , 0.00183760794, 0.00283687725, -0.000389999826, 0.202305511 , -0.09613051 , 0.347714722 , 0.008881033 , -0.0122146374, 0.461326122 , 5.04        , 3           , 11          , 0.0108474158, 0.01084737
-0.09323174 , -0.09867302 , -9.808086   , -0.000779559137, -0.00144604163, 0.0006766327, 0.202305511 , -0.09613051 , 0.347714722 , 0.008873158 , -0.01222916 , 0.4613328   , 5.05        , 3           , 12          , 0.07391198  , 0
-0.126186877, -0.0954047  , -9.792091   , -0.000210125276, -0.00173328107, 0.0001035579, 0.202035859 , -0.0959282741, 0.3476473   , 0.008871048 , -0.0122465026, 0.461333752 , 5.06        , 3           , 50          , 0           , 0
-0.08460553 , -0.06480772 , -9.776902   , -0.00131707778, 0.000294569676, -0.00101873709, 0.201968446 , -0.0959282741, 0.347782135 , 0.008858001 , -0.0122434665, 0.4613235   , 5.07        , 3           , 11          , 0.0108474158, 0.01084737
-0.101616122, -0.06628817 , -9.793337   , 0.00121978216, -0.00173749111, -0.00103253126, 0.2022381   , -0.0959282741, 0.347916961 , 0.008870327 , -0.012260749, 0.461313    , 5.08        , 3           , 12          , 0.07391198  , 0
-0.117447704, -0.07115932 , -9.78902149 , 0.003522256 , 0.00025056515, -0.00156193727, 0.202440336 , -0.0960631  , 0.347849548 , 0.008905741 , -0.012258105, 0.4612975   , 5.09        , 3           , 50          , 0           , 0
