Acc X       , Acc Y       , Acc Z       , Gyro X      , Gyro Y      , Gyro Z      , Magn X      , Magn Y      , Magn Z      , Euler X     , Euler Y     , Euler Z     , Time        , Status      , LowRate X   , LowRate Y   , LowRate Z    
-0.008324921, 0.0492708758, -9.793856   , -0.00395574234, -0.00139116345, 0.000242356735, 0.08871511  , 0.43386814  , 0.308750182 , -0.004595316, -0.00224723178, -1.37124372 , 0           , 3           , 11          , 0.0346410163, 0.0346410163
-0.0133045213, 0.03191255  , -9.811266   , 0.00206974265, 0.00341488118, 0.0009216161, 0.08858029  , 0.433800727 , 0.309222043 , -0.00457463833, -0.00221304083, -1.37123477 , 0.01        , 3           , 12          , 0.0346410163, 0
-0.001185202, 0.0437682569, -9.791142   , 0.00378463278, 0.00411399128, 0.0009423303, 0.0882432237, 0.434407443 , 0.30821088  , -0.004536812, -0.00217185845, -1.37122548 , 0.02        , 3           , 50          , 0           , 0
-0.0268496666, 0.0551191829, -9.777697   , 0.0007731419, 0.0005838488, -0.00156022364, 0.0885128751, 0.4335985   , 0.3082783   , -0.004529047, -0.00216609053, -1.37124109 , 0.03        , 3           , 11          , 0.0346410163, 0.0346410163
-0.0148986746, 0.0222036727, -9.787904   , -0.0006617039, -0.000829479832, -0.00216198619, 0.0885128751, 0.4335985   , 0.3082783   , -0.004535618, -0.00217448315, -1.37126267 , 0.04        , 3           , 12          , 0.0346410163, 0
-0.0246989056, 0.030018216 , -9.793776   , 0.000900500163, 0.000280467677, 0.000153443674, 0.08878253  , 0.4342052   , 0.308885    , -0.004526616, -0.002171672, -1.371261   , 0.05        , 3           , 50          , 0           , 0
-0.0159850027, 0.0542248972, -9.787092   , 0.00218129926, 0.0008329441, 0.00102799293, 0.08831064  , 0.4342052   , 0.307941228 , -0.004504825, -0.00216329563, -1.37125087 , 0.06        , 3           , 11          , 0.0346410163, 0.0346410163
-0.0390866473, 0.0332903266, -9.792967   , 0.0007600631, 0.000848672062, 0.000876344 , 0.08884994  , 0.433800727 , 0.309222043 , -0.004497243, -0.00215476961, -1.371242   , 0.07        , 3           , 12          , 0.0346410163, 0
-0.0158642251, 0.0526293442, -9.806533   , -0.000208246216, 0.002729229 , 3.89831257E-05, 0.08858029  , 0.434407443 , 0.3082783   , -0.004499327, -0.00212747627, -1.37124181 , 0.08        , 3           , 50          , 0           , 0
-0.0312162489, 0.05536645  , -9.797157   , -0.000201778879, 0.00287891761, -0.0006743401, 0.08858029  , 0.434407443 , 0.3082783   , -0.00450133067, -0.00209871773, -1.37124872 , 0.09        , 3           , 11          , 0.0346410163, 0.0346410163
-0.0307837389, 0.05622563  , -9.79352951 , -0.00139298814, -0.000420211378, -0.0005861388, 0.08858029  , 0.433935553 , 0.308076054 , -0.00540337246, -0.002942878, -1.371252   , 0.1         , 3           , 12          , 0.0346410163, 0
-0.0161862914, 0.036111258 , -9.780076   , -0.0016995644, -0.00242209574, -0.0007601489, 0.08878253  , 0.434002966 , 0.309087247 , -0.00542034628, -0.00296713924, -1.37125945 , 0.11        , 3           , 50          , 0           , 0
-0.00127960555, 0.0485201441, -9.771666   , -0.00256058061, -0.003411335, -0.00135222438, 0.08837805  , 0.4342052   , 0.307739    , -0.005445912, -0.00300132646, -1.37127268 , 0.12        , 3           , 11          , 0.0346410163, 0.0346410163
-0.0300934128, 0.03853569  , -9.784694   , -0.00167288783, -0.0002701927, -0.00101501134, 0.0886477   , 0.433800727 , 0.308885    , -0.00546261 , -0.003004083, -1.37128282 , 0.13        , 3           , 12          , 0.0346410163, 0
0.01195215  , 0.06781476  , -9.77312851 , 0.0003414246, 0.00213910383, -0.0002521326, 0.0886477   , 0.434070379 , 0.308547944 , -0.00545918848, -0.002982706, -1.37128556 , 0.14        , 3           , 50          , 0           , 0
-0.000598415732, 0.06756556  , -9.781828   , -0.001112402, -0.00042822017, -1.209736E-05, 0.0886477   , 0.434070379 , 0.308547944 , -0.00547031173, -0.002986989, -1.37128568 , 0.15        , 3           , 11          , 0.0346410163, 0.0346410163
-0.0192874577, 0.0362161137, -9.787331   , -0.000105866005, 0.000846153533, 0.0005850085, 0.08837805  , 0.4341378   , 0.3083457   , -0.005471388, -0.00297849579, -1.37127984 , 0.16        , 3           , 12          , 0.0346410163, 0
-0.01834757 , 0.04428103  , -9.783164   , -0.00124389143, 1.07720552E-05, -0.00086518575, 0.08871511  , 0.433935553 , 0.309019834 , -0.00548380148, -0.00297843572, -1.37128842 , 0.17        , 3           , 50          , 0           , 0
-0.0162412636, 0.0235633161, -9.787449   , -0.00366547354, -0.0009574553, -0.002039013, 0.08844546  , 0.434474856 , 0.308076054 , -0.00552039547, -0.0029881224, -1.3713088  , 0.18        , 3           , 11          , 0.0346410163, 0.0346410163
-0.032536786, 0.027132649 , -9.770845   , -0.000960691832, 0.000147332641, -0.0004321395, 0.08878253  , 0.4335985   , 0.308547944 , -0.00552999 , -0.0029866728, -1.3713131  , 0.19        , 3           , 12          , 0.0346410163, 0
-0.0402799323, 0.05624506  , -9.787744   , 0.00388364657, 0.00023500016, 0.000171364358, 0.08878253  , 0.4335985   , 0.308547944 , -0.00536524737, -0.00300001469, -1.37131178 , 0.2         , 3           , 50          , 0           , 0
-0.0319238156, 0.0331647024, -9.78703    , 0.002894297 , 0.0005355323, -0.000259705, 0.08858029  , 0.4341378   , 0.3088176   , -0.00533629628, -0.002994673, -1.37131441 , 0.21        , 3           , 11          , 0.0165409464, 0.01654093
-0.030492885, 0.034166038 , -9.797394   , -0.000687458145, -0.00228518085, -0.00132443185, 0.08817581  , 0.434070379 , 0.308008641 , -0.00534313172, -0.0030175955, -1.3713274  , 0.22        , 3           , 12          , 0.0346698426, 0
-0.02510023 , 0.049682945 , -9.776839   , 0.00257906131, -0.00246554031, -0.000877568556, 0.08878253  , 0.43386814  , 0.309289455 , -0.00531731639, -0.00304229744, -1.371336   , 0.23        , 3           , 50          , 0           , 0
-0.00728318049, 0.06728475  , -9.792282   , 0.00457878876, -0.000498909852, 0.00130986993, 0.08858029  , 0.43434003  , 0.308143467 , -0.005271568, -0.00304721738, -1.37132287 , 0.24        , 3           , 11          , 0.0165409464, 0.01654093
-0.019163698, 0.0506499335, -9.787615   , 0.000630869356, 0.00226788619, 0.000896285055, 0.08858029  , 0.43434003  , 0.308143467 , -0.005265287, -0.00302449148, -1.37131393 , 0.25        , 3           , 12          , 0.0346698426, 0
0.00682961941, 0.04044457  , -9.782074   , -0.00134260277, 0.003158089 , -0.000247844146, 0.0885128751, 0.4337333   , 0.308143467 , -0.00527870469, -0.0029929243, -1.37131655 , 0.26        , 3           , 50          , 0           , 0
0.001874337 , 0.0727817342, -9.807492   , -0.0007937997, 0.00157356483, 1.87922415E-05, 0.0885128751, 0.434070379 , 0.309019834 , -0.00528664235, -0.00297718751, -1.37131643 , 0.27        , 3           , 11          , 0.0165409464, 0.01654093
-0.0362156034, 0.0535575636, -9.792707   , 0.0015056507, 0.00313431188, -0.0008030382, 0.0881084   , 0.434272617 , 0.307941228 , -0.005271562, -0.00294588716, -1.37132466 , 0.28        , 3           , 12          , 0.0346698426, 0
-0.0220233984, 0.0433089659, -9.773724   , 0.00433025043, 0.00138594094, -0.0008109454, 0.08871511  , 0.4336659   , 0.3088176   , -0.00522823539, -0.00293207075, -1.37133288 , 0.29        , 3           , 50          , 0           , 0
-0.0183694549, 0.0397961624, -9.785474   , 0.00329697924, -0.00176120992, 0.000281814777, 0.08844546  , 0.434272617 , 0.308413118 , -0.00515565 , -0.00291592628, -1.37133    , 0.3         , 3           , 11          , 0.0162439011, 0.0162438843
-0.0376948  , 0.0449150279, -9.78469    , 2.28964382E-05, -0.00215528859, -3.0313573E-05, 0.08844546  , 0.434272617 , 0.308413118 , -0.005155421, -0.00293747988, -1.37133014 , 0.31        , 3           , 12          , 0.0347559527, 0
-0.03130205 , 0.0525642447, -9.788156   , -0.00309810322, -0.00168979482, -0.000472146639, 0.08858029  , 0.433800727 , 0.308143467 , -0.005186388, -0.002954402, -1.37133491 , 0.32        , 3           , 50          , 0           , 0
-0.0229642782, 0.0299009215, -9.784276   , -0.002652053, -0.000257394247, -0.000877955, 0.08871511  , 0.433935553 , 0.309019834 , -0.005212883, -0.00295702252, -1.37134373 , 0.33        , 3           , 11          , 0.0162439011, 0.0162438843
-0.02981206 , 0.04183417  , -9.756196   , -8.10969141E-05, 0.00100108632, -0.000271425524, 0.08837805  , 0.4342052   , 0.307739    , -0.005213687, -0.0029470257, -1.37134635 , 0.34        , 3           , 12          , 0.0347559527, 0
-0.0137980757, 0.0509908944, -9.78169    , -8.220468E-05, 0.00156400655, 0.0008815776, 0.0885128751, 0.4335985   , 0.308750182 , -0.005214534, -0.00293133967, -1.37133765 , 0.35        , 3           , 50          , 0           , 0
-0.002500074, 0.046950873 , -9.792473   , 0.00105651887, 0.00155372766, 0.0007453492, 0.0885128751, 0.4335985   , 0.308750182 , -0.00520399027, -0.00291576376, -1.37133014 , 0.36        , 3           , 11          , 0.0162439011, 0.0162438843
-0.0307593439, 0.0486957245, -9.806263   , 0.00175180542, 0.000255617779, 0.000873933837, 0.08858029  , 0.434070379 , 0.308480531 , -0.00518649723, -0.002913162, -1.37132156 , 0.37        , 3           , 12          , 0.0347559527, 0
-0.0111341849, 0.0442328267, -9.784453   , 0.000457662 , -0.000878975261, 0.0009926114, 0.08837805  , 0.434070379 , 0.307873815 , -0.00518195 , -0.002921901, -1.37131143 , 0.38        , 3           , 50          , 0           , 0
-0.0211925  , 0.02004758  , -9.792052   , 0.000764105644, 0.000699439435, 0.000444951234, 0.08871511  , 0.433800727 , 0.309222043 , -0.005174322, -0.0029148825, -1.3713069  , 0.39        , 3           , 11          , 0.0162439011, 0.0162438843
-0.03780043 , 0.0345151648, -9.782101   , 0.00146772526, 0.002444922 , -9.908973E-05, 0.0882432237, 0.43434003  , 0.307873815 , -0.00466662133, -0.00277209026, -1.37130928 , 0.4         , 3           , 12          , 0.034898486 , 0
-0.0377960131, 0.04698568  , -9.767502   , 0.00072568527, 1.23840437E-05, 0.000290397729, 0.0886477   , 0.4337333   , 0.308143467 , -0.004659373, -0.00277195335, -1.37130642 , 0.41        , 3           , 50          , 0           , 0
-0.0181075539, 0.040394038 , -9.75746    , 0.000117205513, -0.003420786, 0.000236888489, 0.0886477   , 0.4337333   , 0.308143467 , -0.00465820776, -0.00280614942, -1.3713038  , 0.42        , 3           , 11          , 0.0160330255, 0.016033018
-0.04658933 , 0.0496137738, -9.795107   , 0.000563798 , -0.00128217565, 0.0009861703, 0.0885128751, 0.434070379 , 0.30868277  , -0.004652598, -0.002818925, -1.371294   , 0.43        , 3           , 12          , 0.034898486 , 0
-0.02546734 , 0.0551558062, -9.782201   , 0.001437737 , 0.0009941098, 0.00188319071, 0.08797357  , 0.434002966 , 0.307873815 , -0.00463827327, -0.00280889682, -1.37127531 , 0.44        , 3           , 50          , 0           , 0
-0.000534689054, 0.0384810865, -9.761386   , -0.0005707947, -0.00140750827, 0.000261819776, 0.08878253  , 0.43386814  , 0.309019834 , -0.00464398833, -0.0028229598, -1.37127256 , 0.45        , 3           , 11          , 0.0160330255, 0.016033018
-0.007362923, 0.0573696569, -9.79285    , -0.00255376939, -0.000106633161, 0.001270181 , 0.08844546  , 0.4342052   , 0.3083457   , -0.00466956245, -0.00282396725, -1.37125993 , 0.46        , 3           , 12          , 0.034898486 , 0
-0.005734198, 0.0397299454, -9.789425   , -0.0004147003, 0.000867043 , 0.002156131 , 0.08844546  , 0.4342052   , 0.3083457   , -0.00467377 , -0.00281519559, -1.37123823 , 0.47        , 3           , 50          , 0           , 0
-0.0219302215, 0.037664935 , -9.794114   , 0.00026052157, -0.0029974815, 0.0008163335, 0.08831064  , 0.4336659   , 0.308076054 , -0.00467118854, -0.00284513179, -1.37123    , 0.48        , 3           , 11          , 0.0160330255, 0.016033018
-0.0128639806, 0.0363451019, -9.804435   , -0.0004562147, -0.00356213585, 0.000660621037, 0.0886477   , 0.433935553 , 0.308952421 , -0.00467577 , -0.00288072252, -1.37122321 , 0.49        , 3           , 12          , 0.034898486 , 0
-0.01720212 , 0.0301557053, -9.77067    , -0.00096228905, -0.00232942542, 0.00081724074, 0.08817581  , 0.43434003  , 0.307739    , -0.0045137303, -0.002625984, -1.37121534 , 0.5         , 3           , 50          , 0           , 0
-0.009011896, 0.0444608964, -9.76546    , -0.00239589461, -0.003882204, -0.000215854743, 0.08884994  , 0.433800727 , 0.308750182 , -0.00453768345, -0.0026648154, -1.37121737 , 0.51        , 3           , 11          , 0.0150025794, 0.0150025822
-0.0251654666, 0.0526989773, -9.763707   , -0.00238833134, -0.003307766, -0.00035058966, 0.08858029  , 0.434407443 , 0.308547944 , -0.00456155837, -0.00269790879, -1.37122071 , 0.52        , 3           , 12          , 0.0350963436, 0
-0.0233041253, 0.0460987426, -9.780478   , -0.00162593718, 0.000562786765, -0.00129153754, 0.08858029  , 0.434407443 , 0.308547944 , -0.004577783, -0.00269233971, -1.3712337  , 0.53        , 3           , 50          , 0           , 0
-0.02454512 , 0.0502847768, -9.791282   , -0.001331453, 0.0008554345, -0.00228722463, 0.08837805  , 0.434070379 , 0.307941228 , -0.00459103566, -0.00268389052, -1.37125659 , 0.54        , 3           , 11          , 0.0150025794, 0.0150025822
-0.0137745133, 0.0474659055, -9.789409   , -0.0006224244, 0.0014098509, -0.0009868559, 0.0886477   , 0.433935553 , 0.308952421 , -0.00459723361, -0.00266983686, -1.37126637 , 0.55        , 3           , 12          , 0.0350963436, 0
-0.0298857372, 0.0428599827, -9.80948448 , -0.000762175245, 0.002120065 , -0.000118786855, 0.08831064  , 0.4342052   , 0.307873815 , -0.00460485136, -0.00264864159, -1.37126756 , 0.56        , 3           , 50          , 0           , 0
-0.007055951, 0.0540303662, -9.776173   , -0.0006343956, 0.0011117541, 0.000296708517, 0.08858029  , 0.4337333   , 0.3083457   , -0.004611203, -0.00263751042, -1.37126458 , 0.57        , 3           , 11          , 0.0150025794, 0.0150025822
-0.024687551, 0.042944476 , -9.779625   , -0.00106187491, 0.0005506087, -0.000572700636, 0.08858029  , 0.4337333   , 0.3083457   , -0.004621806, -0.00263203052, -1.37127042 , 0.58        , 3           , 12          , 0.0350963436, 0
-0.02680216 , 0.0529662669, -9.787207   , 0.000340248254, -0.00104258431, -0.000300924032, 0.0886477   , 0.4342052   , 0.308480531 , -0.00461839652, -0.00264247018, -1.37127328 , 0.59        , 3           , 50          , 0           , 0
-0.0298758373, 0.0593451038, -9.790774   , 0.000340374041, 0.0008199262, -0.000559909, 0.08844546  , 0.434272617 , 0.307873815 , -0.004678649, -0.002641999, -1.37127876 , 0.6         , 3           , 11          , 0.0139716221, 0.0139716305
-0.0250364784, 0.0386522524, -9.799552   , -0.002493849, 0.00156783  , -0.0008527732, 0.08891735  , 0.43386814  , 0.309289455 , -0.00470356457, -0.00262636086, -1.37128735 , 0.61        , 3           , 12          , 0.0353481732, 0
-0.008037297, 0.0410054848, -9.780397   , -0.00324248918, -0.00143786636, -0.000471632753, 0.08837805  , 0.43434003  , 0.308076054 , -0.00473597739, -0.00264076213, -1.371292   , 0.62        , 3           , 50          , 0           , 0
-0.0125648994, 0.0387804769, -9.77956    , -0.002234026, -0.000160933458, -0.000160690935, 0.08871511  , 0.4336659   , 0.308076054 , -0.0047583133, -0.002642379, -1.37129366 , 0.63        , 3           , 11          , 0.0139716221, 0.0139716305
-0.0314501971, 0.0456603356, -9.775138   , -0.00151274935, 0.0005508499, -0.0004321376, 0.08871511  , 0.4336659   , 0.308076054 , -0.004773429, -0.00263689086, -1.371298   , 0.64        , 3           , 12          , 0.0353481732, 0
-0.016607767, 0.0294822324, -9.792353   , -0.00137520244, -2.11936822E-05, -0.000725791964, 0.0885128751, 0.4342052   , 0.308750182 , -0.004787162, -0.00263713766, -1.37130523 , 0.65        , 3           , 50          , 0           , 0
-0.01375602 , 0.0563969277, -9.781175   , -0.00209139637, 0.000120361634, 0.000273585349, 0.0882432237, 0.434272617 , 0.307873815 , -0.00480808271, -0.00263592 , -1.37130237 , 0.66        , 3           , 11          , 0.0139716221, 0.0139716305
-0.02157125 , 0.0308442079, -9.789221   , -0.00477954559, 0.0008719394, -0.0005907501, 0.08878253  , 0.43386814  , 0.309356868 , -0.004855863, -0.00262722932, -1.37130821 , 0.67        , 3           , 12          , 0.0353481732, 0
-0.0108236484, 0.02042284  , -9.793307   , -0.00346037559, 0.00401514675, -0.000966376858, 0.08837805  , 0.434272617 , 0.308413118 , -0.00489044 , -0.00258712564, -1.37131822 , 0.68        , 3           , 50          , 0           , 0
-0.0110435169, 0.0506035648, -9.789799   , -0.0006338605, 0.003257005 , 0.0004711432, 0.08837805  , 0.434272617 , 0.308413118 , -0.004896791, -0.002554533, -1.37131357 , 0.69        , 3           , 11          , 0.0139716221, 0.0139716305
-0.027814215, 0.04746163  , -9.777794   , -0.000253023667, 0.0005870435, 0.0008636431, 0.08858029  , 0.43386814  , 0.308143467 , -0.00492656976, -0.00240591657, -1.37130487 , 0.7         , 3           , 12          , 0.0356524177, 0
-0.03138347 , 0.05065901  , -9.778693   , 0.0003267315, 0.0004546116, -0.0009950829, 0.0886477   , 0.43386814  , 0.309019834 , -0.00492327753, -0.00240141945, -1.37131488 , 0.71        , 3           , 50          , 0           , 0
-0.0159720313, 0.04756777  , -9.797106   , 0.0009387879, 0.004033631 , -0.001225651, 0.08844546  , 0.4342052   , 0.307671577 , -0.00491386 , -0.002361144, -1.37132728 , 0.72        , 3           , 11          , 0.0138524184, 0.0138524221
-0.005590424, 0.0457368828, -9.802904   , 0.0008154043, 0.00575327175, -0.00105838443, 0.08858029  , 0.433800727 , 0.308615357 , -0.004905681, -0.002303664, -1.37133813 , 0.73        , 3           , 12          , 0.0356524177, 0
-0.00519837625, 0.0469792336, -9.79295    , -0.000807319, 0.00103548914, -0.000564343354, 0.08858029  , 0.433800727 , 0.308615357 , -0.00491374126, -0.00229333737, -1.37134385 , 0.74        , 3           , 50          , 0           , 0
-0.02030289 , 0.03515763  , -9.771995   , -0.0007082873, -0.00156308478, 0.0014020995, 0.08837805  , 0.4342052   , 0.308547944 , -0.00492085656, -0.00230889884, -1.37132978 , 0.75        , 3           , 11          , 0.0138524184, 0.0138524221
-0.0280106831, 0.06476932  , -9.793406   , -0.00114319706, -0.00227519823, 0.00138909568, 0.0885128751, 0.433935553 , 0.308143467 , -0.004932321, -0.00233158167, -1.37131572 , 0.76        , 3           , 12          , 0.0356524177, 0
-0.0157593433, 0.04675487  , -9.763688   , -0.00214726431, -0.00284080231, 0.00166091567, 0.08871511  , 0.4337333   , 0.30915466  , -0.004953833, -0.00235990714, -1.371299   , 0.77        , 3           , 50          , 0           , 0
-0.008755945, 0.05642638  , -9.787905   , 0.000577328668, -0.00100420939, 0.00156123878, 0.08831064  , 0.434272617 , 0.307941228 , -0.00494809635, -0.0023698716, -1.37128329 , 0.78        , 3           , 11          , 0.0138524184, 0.0138524221
-0.00503028743, 0.0592552945, -9.802292   , 0.00187601254, 0.000277512445, 0.001015402 , 0.0885128751, 0.4336659   , 0.3082783   , -0.00492936047, -0.002367046, -1.37127316 , 0.79        , 3           , 12          , 0.0356524177, 0
-0.00607481226, 0.0461336449, -9.797484   , 0.00205616164, 0.001347155 , -0.000113690978, 0.0885128751, 0.4336659   , 0.3082783   , -0.00516502745, -0.00192778592, -1.37127388 , 0.8         , 3           , 50          , 0           , 0
-0.01837554 , 0.0353355035, -9.790043   , 0.000360938982, 0.00194404973, -0.000831034267, 0.08831064  , 0.4341378   , 0.308615357 , -0.00516140228, -0.00190838822, -1.37128222 , 0.81        , 3           , 11          , 0.0136752874, 0.0136752725
-0.0209325869, 0.05338557  , -9.788955   , -0.003638275, 0.000833068858, -0.000299387932, 0.08797357  , 0.4342052   , 0.3078064   , -0.00519777834, -0.00190007337, -1.3712852  , 0.82        , 3           , 12          , 0.0360073522, 0
-0.0304035041, 0.0534437038, -9.786783   , -0.00506514776, 0.000276918145, -0.000602466, 0.0885128751, 0.4337333   , 0.309289455 , -0.005248419, -0.0018973354, -1.37129128 , 0.83        , 3           , 50          , 0           , 0
-0.0455000624, 0.0220483728, -9.790897   , -0.00120485411, 0.001675923 , -0.00113079557, 0.08837805  , 0.43434003  , 0.30821088  , -0.00526044657, -0.00188063586, -1.3713026  , 0.84        , 3           , 11          , 0.0136752874, 0.0136752725
-0.0135005554, 0.0222644918, -9.794665   , 0.00263604941, 0.001638193 , -0.00125074666, 0.08837805  , 0.43434003  , 0.30821088  , -0.00523406174, -0.00186431967, -1.37131512 , 0.85        , 3           , 12          , 0.0360073522, 0
-0.017889034, 0.0180269033, -9.816437   , 0.001202709 , 0.0009323538, -0.000840501569, 0.0886477   , 0.4336659   , 0.308008641 , -0.005222019, -0.00185504009, -1.3713237  , 0.86        , 3           , 50          , 0           , 0
-0.0365838073, 0.0124864429, -9.789571   , 0.00035708517, 0.00193893048, -0.000258706277, 0.08858029  , 0.4341378   , 0.3088176   , -0.005218443, -0.00183566438, -1.37132645 , 0.87        , 3           , 11          , 0.0136752874, 0.0136752725
-0.007496377, 0.04737232  , -9.78574    , 0.0019076186, 0.000634711236, -0.000411145535, 0.08817581  , 0.434272617 , 0.307604164 , -0.00519935926, -0.00182933907, -1.3713305  , 0.88        , 3           , 12          , 0.0360073522, 0
-0.0287894029, 0.0250983778, -9.794322   , 0.002047225 , 0.00048869726, -0.000269293669, 0.0886477   , 0.43386814  , 0.308952421 , -0.00517888227, -0.0018244657, -1.37133324 , 0.89        , 3           , 50          , 0           , 0
-0.0137637071, 0.04614706  , -9.792586   , 0.0007237054, 0.00285149342, -0.000387306238, 0.08844546  , 0.4341378   , 0.308480531 , -0.004768677, -0.00196768553, -1.371338   , 0.9         , 3           , 11          , 0.0125614526, 0.0125614377
-0.0285874568, 0.05523164  , -9.786745   , 0.00116343261, 0.00357000576, -0.00108971237, 0.08844546  , 0.4341378   , 0.308480531 , -0.00475702062, -0.00193203823, -1.3713491  , 0.91        , 3           , 12          , 0.03641109  , 0
-0.011194706, 0.0414693169, -9.779065   , -0.0005742918, 0.00171178149, 0.000303699373, 0.08844546  , 0.434002966 , 0.308076054 , -0.00476276968, -0.0019149062, -1.37134624 , 0.92        , 3           , 50          , 0           , 0
-0.004571922, 0.08597185  , -9.770812   , 0.00123702816, -0.00131992146, 0.0007002604, 0.08871511  , 0.433935553 , 0.30915466  , -0.00475041242, -0.00192807172, -1.37133908 , 0.93        , 3           , 11          , 0.0125614526, 0.0125614377
-0.0115263015, 0.05678952  , -9.777536   , 0.00393948471, -0.001488103, 0.000428286847, 0.08844546  , 0.434474856 , 0.307739    , -0.004711027, -0.00194293249, -1.37133467 , 0.94        , 3           , 12          , 0.03641109  , 0
-0.008825876, 0.0398493223, -9.798033   , 0.00311903213, 0.0009628874, -0.000256788277, 0.08871511  , 0.4337333   , 0.308480531 , -0.004679831, -0.00193331554, -1.37133729 , 0.95        , 3           , 50          , 0           , 0
-0.017843   , 0.0448054373, -9.79038048 , 0.00183313864, 0.0005447422, -0.000127676918, 0.08871511  , 0.4337333   , 0.308480531 , -0.004661497, -0.00192787452, -1.37133873 , 0.96        , 3           , 11          , 0.0125614526, 0.0125614377
-0.0160591137, 0.0576724671, -9.772148   , -0.000172381522, -0.0004418967, 0.0002749679, 0.08858029  , 0.434272617 , 0.308480531 , -0.004663226, -0.0019322806, -1.371336   , 0.97        , 3           , 12          , 0.03641109  , 0
-0.012598536, 0.0418448858, -9.770944   , 0.00153425825, -0.000459234434, 0.000285248243, 0.08837805  , 0.434070379 , 0.308008641 , -0.00464789 , -0.00193686027, -1.371333   , 0.98        , 3           , 50          , 0           , 0
0.0110964188, 0.0451893173, -9.807274   , -4.41923476E-05, -0.001167468, 0.00112388271, 0.08884994  , 0.43386814  , 0.30915466  , -0.00464835437, -0.00194848259, -1.37132168 , 0.99        , 3           , 11          , 0.0125614526, 0.0125614377
-0.0318248868, 0.03865783  , -9.794645   , -0.00115748262, 0.0008636707, 0.00100183568, 0.08831064  , 0.4341378   , 0.307941228 , -0.004656328, -0.00166566577, -1.37131166 , 1           , 3           , 12          , 0.0368616357, 0
-0.03071656 , 0.0523223281, -9.808027   , 0.003412128 , 0.00168869214, -0.000245967472, 0.0885128751, 0.4337333   , 0.308076054 , -0.00462220144, -0.00164878974, -1.37131417 , 1.01        , 3           , 50          , 0           , 0
-0.0331539139, 0.0591789857, -9.772739   , 0.001555849 , 0.0005688367, -0.00113229069, 0.0885128751, 0.4337333   , 0.308076054 , -0.004606624, -0.00164315384, -1.37132549 , 1.02        , 3           , 11          , 0.0121517051, 0.0121516958
-0.0152682513, 0.05126485  , -9.764085   , -0.001417438, 0.00216896436, -0.0004119169, 0.08858029  , 0.434070379 , 0.30868277  , -0.004620791, -0.00162148254, -1.37132967 , 1.03        , 3           , 12          , 0.0368616357, 0
-0.0137152784, 0.01970996  , -9.766692   , -0.000695342256, 0.00344622764, 0.000183475437, 0.08837805  , 0.4341378   , 0.307604164 , -0.00462774746, -0.00158701267, -1.371328   , 1.04        , 3           , 50          , 0           , 0
-0.0210663117, 0.0362656638, -9.790508   , -0.00114578858, 0.00130249793, 6.52182734E-06, 0.08871511  , 0.4337333   , 0.309087247 , -0.004639206, -0.00157398731, -1.371328   , 1.05        , 3           , 11          , 0.0121517051, 0.0121516958
-0.0367483646, 0.0485386178, -9.786897   , -0.00131922553, -0.0009950892, 0.0006876869, 0.0885128751, 0.434407443 , 0.3083457   , -0.00465240842, -0.001583906, -1.371321   , 1.06        , 3           , 12          , 0.0368616357, 0
-0.0516519435, 0.0245610178, -9.809896   , 0.000516157364, -0.00201945822, 0.0009703807, 0.0885128751, 0.434407443 , 0.3083457   , -0.00464726239, -0.0016040554, -1.37131119 , 1.07        , 3           , 50          , 0           , 0
-0.007907873, 0.0434293821, -9.796177   , -0.000163171353, 5.33764251E-06, -0.0002924262, 0.08831064  , 0.4337333   , 0.308008641 , -0.004648889, -0.00160401524, -1.37131417 , 1.08        , 3           , 11          , 0.0121517051, 0.0121516958
0.00054166  , 0.0472001359, -9.776181   , -0.000142552337, 0.00229029241, 0.0005994541, 0.0886477   , 0.434070379 , 0.308750182 , -0.004650324, -0.00158108491, -1.37130833 , 1.09        , 3           , 12          , 0.0368616357, 0
-0.00887581147, 0.0402179733, -9.790351   , 0.000283029221, 0.00246452633, 0.000461201853, 0.0881084   , 0.434272617 , 0.307671577 , -0.004653701, -0.00149931933, -1.3713038  , 1.1         , 3           , 50          , 0           , 0
-0.03041309 , 0.05565468  , -9.782692   , -0.000291487318, 0.00189842668, 0.000306345959, 0.08878253  , 0.43386814  , 0.308885    , -0.00465662032, -0.00148032082, -1.3713007  , 1.11        , 3           , 11          , 0.0122552626, 0.0122552644
-0.0151445828, 0.0425515845, -9.792641   , 0.000966898457, 0.000586858951, 0.00129684946, 0.08844546  , 0.4341378   , 0.30868277  , -0.00464697 , -0.00147439213, -1.37128782 , 1.12        , 3           , 12          , 0.03735692  , 0
-0.0110582467, 0.04212346  , -9.798028   , 0.00109330507, -0.000705471844, 0.00142200734, 0.08844546  , 0.4341378   , 0.30868277  , -0.00463605858, -0.00148138055, -1.37127364 , 1.13        , 3           , 50          , 0           , 0
-0.0111386087, 0.03176231  , -9.799051   , 0.00284092966, 0.00201249029, 4.11162546E-05, 0.08844546  , 0.434002966 , 0.307941228 , -0.00460764952, -0.00146125373, -1.37127328 , 1.14        , 3           , 11          , 0.0122552626, 0.0122552644
-0.008797016, 0.056363482 , -9.782034   , 0.00243352726, 0.00303009013, -0.00109150272, 0.08858029  , 0.43386814  , 0.30915466  , -0.00458329776, -0.00143100356, -1.37128437 , 1.15        , 3           , 12          , 0.03735692  , 0
-0.00616255 , 0.0442187265, -9.787118   , 0.00082673796, 0.00101433322, 0.001731499 , 0.0882432237, 0.43434003  , 0.307941228 , -0.00457505463, -0.00142078078, -1.37126708 , 1.16        , 3           , 50          , 0           , 0
-0.008978397, 0.03204845  , -9.785478   , 0.000242731316, -0.00012876367, 0.001997542 , 0.08878253  , 0.4335985   , 0.3082783   , -0.004572656, -0.001421977, -1.371247   , 1.17        , 3           , 11          , 0.0122552626, 0.0122552644
-0.0184382312, 0.0379102752, -9.777819   , -0.00157944 , 0.00105425215, -4.887397E-08, 0.08878253  , 0.4335985   , 0.3082783   , -0.00458845 , -0.0014114338, -1.371247   , 1.18        , 3           , 12          , 0.03735692  , 0
-0.0325576141, 0.0576182269, -9.795788   , -0.00242024683, 0.00206722785, -0.000133663692, 0.08858029  , 0.434272617 , 0.308615357 , -0.00461265026, -0.001390768, -1.37124848 , 1.19        , 3           , 50          , 0           , 0
-0.0363392681, 0.06227083  , -9.76415    , -7.668196E-05, -0.0011021886, 0.00112683757, 0.0882432237, 0.434070379 , 0.308008641 , -0.004900303, -0.00183858 , -1.37123656 , 1.2         , 3           , 11          , 0.0127641829, 0.0127641819
-0.0205572173, 0.0470350944, -9.785863   , 0.000202531126, -0.0013942169, 0.00141054159, 0.08884994  , 0.43386814  , 0.30915466  , -0.004898304, -0.00185245322, -1.37122238 , 1.21        , 3           , 12          , 0.0378948078, 0
0.005617176 , 0.0424486622, -9.799677   , -0.00036386805, -0.00166733831, 0.0005444491, 0.08844546  , 0.434272617 , 0.308143467 , -0.00490195258, -0.00186909945, -1.37121677 , 1.22        , 3           , 50          , 0           , 0
-0.0100346282, 0.0561033636, -9.798759   , 0.000214779255, -0.00123684993, -0.000161273812, 0.08844546  , 0.434272617 , 0.308143467 , -0.00489980262, -0.00188147579, -1.37121844 , 1.23        , 3           , 11          , 0.0127641829, 0.0127641819
-0.0304328576, 0.03425798  , -9.805976   , -0.001199303, -0.0009294237, -0.0008810773, 0.08871511  , 0.4336659   , 0.308143467 , -0.004911779, -0.00189081312, -1.37122726 , 1.24        , 3           , 12          , 0.0378948078, 0
0.000909838767, 0.03327137  , -9.781307   , -0.00204024231, -0.000339918, -0.00173636235, 0.08858029  , 0.434070379 , 0.308750182 , -0.00493214838, -0.001894298, -1.37124443 , 1.25        , 3           , 50          , 0           , 0
-0.01539715 , 0.0261399411, -9.776119   , -0.00188028207, 0.0009520825, -0.00214597071, 0.08844546  , 0.434272617 , 0.307469338 , -0.00495091127, -0.00188488327, -1.371266   , 1.26        , 3           , 11          , 0.0127641829, 0.0127641819
-0.038223464, 0.0336704925, -9.787083   , -0.00102985266, 0.000939574558, -0.00171158463, 0.08878253  , 0.433800727 , 0.309019834 , -0.00496117771, -0.00187557249, -1.371283   , 1.27        , 3           , 12          , 0.0378948078, 0
-0.0233728867, 0.0188402589, -9.80383    , 0.00214325986, 0.00491733756, -0.00134814391, 0.08831064  , 0.4342052   , 0.3083457   , -0.004939719, -0.00182646664, -1.37129688 , 1.28        , 3           , 50          , 0           , 0
-0.0213539675, 0.0264772773, -9.760812   , 0.00243745558, 0.006338385 , -0.0003239888, 0.08831064  , 0.4342052   , 0.3083457   , -0.004915338, -0.00176309887, -1.37130034 , 1.29        , 3           , 11          , 0.0127641829, 0.0127641819
-0.0179584138, 0.05264109  , -9.764092   , -0.00185306 , 0.00207517971, -0.000126209314, 0.08844546  , 0.433800727 , 0.307941228 , -0.00488960044, -0.00175088632, -1.37130177 , 1.3         , 3           , 12          , 0.0384731479, 0
-0.0020618625, 0.04737366  , -9.790206   , -0.004997292, 0.000111149304, -0.00131892739, 0.08858029  , 0.434070379 , 0.309019834 , -0.00493955053, -0.00174983975, -1.37131488 , 1.31        , 3           , 50          , 0           , 0
-0.006180713, 0.0286112335, -9.803559   , -0.003140459, 0.000949544657, -0.0010091057, 0.08831064  , 0.4342052   , 0.307671577 , -0.004970938, -0.00174039451, -1.371325   , 1.32        , 3           , 11          , 0.0119309584, 0.0119309574
-0.0372906141, 0.043505162 , -9.779734   , 0.000289453368, 0.002771235 , -0.000246007054, 0.08858029  , 0.4337333   , 0.308413118 , -0.00496803876, -0.00171269465, -1.37132764 , 1.33        , 3           , 12          , 0.0384731479, 0
-0.0351937041, 0.0459200069, -9.754392   , -0.0012869261, 0.00150136091, -0.0007034576, 0.08858029  , 0.4337333   , 0.308413118 , -0.004980896, -0.00169771619, -1.37133467 , 1.34        , 3           , 50          , 0           , 0
-0.0260430016, 0.0487357639, -9.771892   , -0.00100276328, 0.00163920131, -0.0004134935, 0.08858029  , 0.434002966 , 0.308413118 , -0.00499091623, -0.0016813447, -1.37133884 , 1.35        , 3           , 11          , 0.0119309584, 0.0119309574
0.0007971544, 0.0680676   , -9.787682   , 0.00128540269, 0.003043861 , 0.000193409418, 0.08831064  , 0.434272617 , 0.308076054 , -0.004978065, -0.00165089709, -1.371337   , 1.36        , 3           , 12          , 0.0384731479, 0
-0.02817855 , 0.04804226  , -9.789534   , -0.00029620374, 0.00148484833, 1.79492981E-05, 0.0886477   , 0.4336659   , 0.30915466  , -0.004981028, -0.00163604773, -1.37133694 , 1.37        , 3           , 50          , 0           , 0
-0.002777759, 0.0398485661, -9.760939   , -0.0004415794, 0.0006355141, -0.000997002, 0.0882432237, 0.43434003  , 0.307941228 , -0.004985427, -0.00162974244, -1.371347   , 1.38        , 3           , 11          , 0.0119309584, 0.0119309574
0.0141432341, 0.0265023541, -9.749645   , -0.000286436232, 0.001921116 , -0.000691200432, 0.0886477   , 0.4337333   , 0.3082783   , -0.00498828059, -0.00161056581, -1.37135386 , 1.39        , 3           , 12          , 0.0384731479, 0
-0.00753672933, 0.0455299839, -9.782146   , -0.00124754058, 0.00324734184, 3.710724E-05, 0.0886477   , 0.4337333   , 0.3082783   , -0.00496154372, -0.00152521045, -1.37135363 , 1.4         , 3           , 50          , 0           , 0
-0.007997014, 0.0566468574, -9.7671175  , -0.00168575009, 0.002248649 , 1.9929781E-05, 0.08858029  , 0.4342052   , 0.30868277  , -0.004978401, -0.00150272332, -1.37135351 , 1.41        , 3           , 11          , 0.01256321  , 0.0125632072
-0.0291401725, 0.044840537 , -9.784612   , -0.00383032323, 0.00112656434, -0.000295778766, 0.08837805  , 0.4342052   , 0.307671577 , -0.0050167  , -0.00149147259, -1.37135649 , 1.42        , 3           , 12          , 0.0390897729, 0
-0.0233272836, 0.0291481949, -9.797838   , -0.00185244356, -3.997966E-05, -0.000300479151, 0.0886477   , 0.433800727 , 0.309087247 , -0.00503522 , -0.00149188726, -1.37135947 , 1.43        , 3           , 50          , 0           , 0
0.00235416368, 0.0440861844, -9.78162    , 0.00142864871, 0.00120999722, 0.000453415763, 0.08837805  , 0.4342052   , 0.30821088  , -0.00502094 , -0.00147976493, -1.37135494 , 1.44        , 3           , 11          , 0.01256321  , 0.0125632072
-0.0121344421, 0.04275246  , -9.771832   , -0.0009839967, 0.00110022782, -0.000564808957, 0.08837805  , 0.4342052   , 0.30821088  , -0.00503077125, -0.0014687907, -1.37136066 , 1.45        , 3           , 12          , 0.0390897729, 0
-0.020550292, 0.04749084  , -9.786309   , 5.075981E-06, 0.0009404256, 0.000154511145, 0.0882432237, 0.43386814  , 0.308076054 , -0.005030723, -0.00145937887, -1.37135911 , 1.46        , 3           , 50          , 0           , 0
-0.02100685 , 0.0474850833, -9.78541    , 0.00100391591, 0.00121689111, 0.000164681667, 0.0885128751, 0.433935553 , 0.3088176   , -0.00502068643, -0.00144720194, -1.37135756 , 1.47        , 3           , 11          , 0.01256321  , 0.0125632072
-0.0278473422, 0.0278250035, -9.796991   , -0.001973346, 0.00140075979, -0.0009958782, 0.08844546  , 0.434272617 , 0.307671577 , -0.005040405, -0.00143324421, -1.37136757 , 1.48        , 3           , 12          , 0.0390897729, 0
-0.0201441646, 0.04519368  , -9.782719   , -0.004385317, 0.00242067012, -0.000137342722, 0.08858029  , 0.43386814  , 0.308750182 , -0.005084256, -0.00140904472, -1.371369   , 1.49        , 3           , 50          , 0           , 0
-0.02923339 , 0.0389110148, -9.77835751 , -0.00492802355, 0.00269941264, -0.0011383103, 0.0882432237, 0.434272617 , 0.3083457   , -0.005107284, -0.00141882314, -1.37138045 , 1.5         , 3           , 11          , 0.0132559892, 0.0132559678
-0.0140622156, 0.0261039827, -9.773849   , -0.00250340672, 0.00310727931, -0.00140365 , 0.0882432237, 0.434272617 , 0.3083457   , -0.005132298, -0.00138782256, -1.37139475 , 1.51        , 3           , 12          , 0.0397425629, 0
-0.02340667 , 0.04950276  , -9.761469   , -0.000408477645, 0.000494876935, -0.00014062332, 0.08797357  , 0.433935553 , 0.307941228 , -0.00513638044, -0.001382881, -1.37139606 , 1.52        , 3           , 50          , 0           , 0
-0.0388431847, 0.05458451  , -9.802204   , -0.000448354374, -0.002803343, 9.754506E-05, 0.0885128751, 0.433800727 , 0.30915466  , -0.005140866, -0.001410909, -1.371395   , 1.53        , 3           , 11          , 0.0132559892, 0.0132559678
-0.0467233434, 0.0507439077, -9.774317   , -0.00128324784, -0.001359219, -0.000172891479, 0.08817581  , 0.4342052   , 0.308008641 , -0.005153696, -0.00142450992, -1.37139666 , 1.54        , 3           , 12          , 0.0397425629, 0
-0.0189222489, 0.0432041027, -9.766469   , 0.00116213213, 0.000769402366, -0.0005562721, 0.08858029  , 0.4337333   , 0.3083457   , -0.005142067, -0.00141684478, -1.37140226 , 1.55        , 3           , 50          , 0           , 0
-0.0283038579, 0.039392788 , -9.781958   , 1.77726179E-05, 0.000207802543, -0.0005714728, 0.08858029  , 0.4337333   , 0.3083457   , -0.00514188129, -0.001414796, -1.371408   , 1.56        , 3           , 11          , 0.0132559892, 0.0132559678
-0.0217793677, 0.0534756631, -9.79664    , -0.004263677, -0.00103845936, -0.0006159546, 0.0882432237, 0.4342052   , 0.308480531 , -0.00518450839, -0.00142521225, -1.371414   , 1.57        , 3           , 12          , 0.0397425629, 0
-0.009313641, 0.04469224  , -9.78669    , -0.00185474136, -0.001498009, -3.53230025E-05, 0.0880409852, 0.4341378   , 0.3078064   , -0.00520305568, -0.0014401935, -1.3714143  , 1.58        , 3           , 50          , 0           , 0
-0.02073872 , 0.06837191  , -9.7987175  , -0.000127614752, 0.000346138084, 0.000145167345, 0.08884994  , 0.433800727 , 0.30915466  , -0.005204334, -0.00143672468, -1.37141287 , 1.59        , 3           , 11          , 0.0132559892, 0.0132559678
-0.0197845288, 0.06844632  , -9.806387   , -0.00207779417, -1.04900209E-05, 0.000282097782, 0.08844546  , 0.4341378   , 0.308143467 , -0.006806826, -0.00204310566, -1.37140739 , 1.6         , 3           , 12          , 0.0404294133, 0
-0.0458215252, 0.0494027063, -9.77613    , -0.00365637755, -0.00114219345, 0.000399062 , 0.08858029  , 0.4335985   , 0.308076054 , -0.006843399, -0.0020544997, -1.37140322 , 1.61        , 3           , 50          , 0           , 0
-0.0110674165, 0.0608050376, -9.773872   , -0.002211897, 0.00028393275, -0.000429995358, 0.08858029  , 0.4335985   , 0.308076054 , -0.006865509, -0.00205169059, -1.37140775 , 1.62        , 3           , 11          , 0.0137002189, 0.0137001844
-0.025756795, 0.0620829873, -9.797029   , 0.0013179559, -0.001691076, 6.403774E-05, 0.08858029  , 0.4341378   , 0.30868277  , -0.006852331, -0.00206859736, -1.371407   , 1.63        , 3           , 12          , 0.0404294133, 0
-0.0148154292, 0.0254471172, -9.795997   , 0.004895315 , 0.0004183081, 0.000546002644, 0.08844546  , 0.434272617 , 0.307671577 , -0.00680338964, -0.00206437684, -1.37140155 , 1.64        , 3           , 50          , 0           , 0
-0.0107660145, 0.03030405  , -9.789579   , 0.00371629512, 0.0019517662, -0.001299434, 0.08891735  , 0.433935553 , 0.309019834 , -0.0067661996, -0.00204494759, -1.37141466 , 1.65        , 3           , 11          , 0.0137002189, 0.0137001844
-0.0232849456, 0.0416767821, -9.788659   , 0.00249751355, 0.00209197984, 0.000412354624, 0.0885128751, 0.434272617 , 0.3082783   , -0.00674123224, -0.00202400051, -1.37141061 , 1.66        , 3           , 12          , 0.0404294133, 0
-0.015733391, 0.0334406048, -9.783716   , -0.004052579, 0.00130126334, 7.426195E-05, 0.0885128751, 0.434272617 , 0.3082783   , -0.00678175967, -0.002010983, -1.37141    , 1.67        , 3           , 50          , 0           , 0
-0.009339353, 0.0281829312, -9.803142   , -0.00255994359, 0.000156412993, -0.00179350306, 0.08831064  , 0.433800727 , 0.3078064   , -0.006807322, -0.00200954056, -1.37142789 , 1.68        , 3           , 11          , 0.0137002189, 0.0137001844
-0.0149088111, 0.0535958968, -9.813289   , -8.58892963E-05, 4.092745E-05, 0.000295134931, 0.0886477   , 0.43386814  , 0.308952421 , -0.00680818735, -0.00200911122, -1.37142491 , 1.69        , 3           , 12          , 0.0404294133, 0
-0.0120616611, 0.04063825  , -9.784955   , -0.00327293249, 0.000787395169, 0.000930166 , 0.0881084   , 0.4342052   , 0.307536751 , -0.0068288655, -0.00199678377, -1.37141562 , 1.7         , 3           , 50          , 0           , 0
-0.0364075936, 0.05148297  , -9.767438   , -0.00234863488, 0.000354533957, 0.000214064232, 0.08844546  , 0.4337333   , 0.308615357 , -0.006852357, -0.00199322449, -1.37141359 , 1.71        , 3           , 11          , 0.00480199326, 0.00480196439
-0.0340900235, 0.0515649877, -9.7769     , 0.00177655765, 0.0013719491, 0.0019715433, 0.08844546  , 0.4337333   , 0.308615357 , -0.00683463039, -0.00197937037, -1.37139392 , 1.72        , 3           , 12          , 0.0411482863, 0
-0.0206902884, 0.0419348069, -9.772824   , 0.00290215923, -0.0005605813, 0.0004478645, 0.0885128751, 0.4341378   , 0.3083457   , -0.00680561736, -0.00198494527, -1.37138939 , 1.73        , 3           , 50          , 0           , 0
-0.0250371955, 0.0404316857, -9.797272   , 0.00120714155, 0.0001776836, -5.27691154E-05, 0.08831064  , 0.4341378   , 0.307941228 , -0.006793545, -0.00198317249, -1.37139    , 1.74        , 3           , 11          , 0.00480199326, 0.00480196439
-0.008022219, 0.0428091176, -9.780376   , -0.000207904261, 0.0004838299, -0.0006294906, 0.08871511  , 0.4337333   , 0.309019834 , -0.006795611, -0.00197837758, -1.3713963  , 1.75        , 3           , 12          , 0.0411482863, 0
-0.0169079974, 0.0493018068, -9.789868   , -0.0009165409, 0.0016936583, 0.0011009475, 0.08817581  , 0.43434003  , 0.307873815 , -0.006804798, -0.00196136651, -1.37138534 , 1.76        , 3           , 50          , 0           , 0
-0.019249266, 0.04339674  , -9.784086   , 0.00127157371, 0.000379737932, 0.00131006842, 0.08858029  , 0.433463663 , 0.308143467 , -0.006792109, -0.00195747963, -1.37137234 , 1.77        , 3           , 11          , 0.00480199326, 0.00480196439
-0.0159756783, 0.0448913649, -9.799849   , 0.0003932828, 0.00369566772, 0.000136298491, 0.08858029  , 0.433463663 , 0.308143467 , -0.006788178, -0.00192051474, -1.37137115 , 1.78        , 3           , 12          , 0.0411482863, 0
-0.017381683, 0.0506052226, -9.784889   , 0.00113320292, 0.00499660661, -0.001915326, 0.08858029  , 0.4341378   , 0.30868277  , -0.006776809, -0.00187067979, -1.37139082 , 1.79        , 3           , 50          , 0           , 0
-0.0115314014, 0.05767197  , -9.77572    , -0.000174147121, 0.00220412482, -0.000604468456, 0.08831064  , 0.434070379 , 0.307739    , -0.006761577, -0.00184768287, -1.37139678 , 1.8         , 3           , 11          , 0.00511909369, 0.005119078
-0.0130439075, 0.04541735  , -9.767293   , 0.00393475639, 0.00143617915, 0.000483056938, 0.08871511  , 0.4336659   , 0.309222043 , -0.00672223745, -0.00183328881, -1.371392   , 1.81        , 3           , 12          , 0.0418972038, 0
-0.03182306 , 0.0399960354, -9.793276   , 0.0016558097, 0.000255412073, -0.0011222898, 0.08844546  , 0.4342052   , 0.308143467 , -0.00670565851, -0.00183081033, -1.37140334 , 1.82        , 3           , 50          , 0           , 0
-0.05125659 , 0.03515625  , -9.788992   , -0.00108950806, 0.00349544431, 0.000267235882, 0.08844546  , 0.4342052   , 0.308143467 , -0.006716558, -0.00179583789, -1.37140083 , 1.83        , 3           , 11          , 0.00511909369, 0.005119078
-0.0175048243, 0.03661746  , -9.784148   , -0.0005363032, 0.00212841365, 0.0002508384, 0.08837805  , 0.433800727 , 0.308143467 , -0.00672192639, -0.00177453761, -1.37139845 , 1.84        , 3           , 12          , 0.0418972038, 0
-0.005745953, 0.0472792163, -9.778496   , -0.000867568655, -0.00131724472, 0.00127215765, 0.0885128751, 0.433935553 , 0.308750182 , -0.00673062447, -0.00178762409, -1.37138557 , 1.85        , 3           , 50          , 0           , 0
0.017349029 , 0.0314542353, -9.751365   , -0.000441523182, -0.00174568931, 0.00062459847, 0.08817581  , 0.4341378   , 0.307401925 , -0.006735051, -0.00180503889, -1.37137926 , 1.86        , 3           , 11          , 0.00511909369, 0.005119078
-0.00777022541, 0.0269218739, -9.771071   , -0.000650794362, -0.00159703312, 0.0002676951, 0.0885128751, 0.4336659   , 0.3088176   , -0.00674156426, -0.0018209907, -1.37137651 , 1.87        , 3           , 12          , 0.0418972038, 0
-0.0320139229, 0.015666483 , -9.795363   , -0.001199459, -8.2874E-05 , -0.000143066645, 0.08831064  , 0.43434003  , 0.3082783   , -0.0067535555, -0.00182182889, -1.371378   , 1.88        , 3           , 50          , 0           , 0
-0.0269753579, 0.0415726565, -9.776048   , -0.0009167352, -0.000440788164, -0.000504275144, 0.08831064  , 0.43434003  , 0.3082783   , -0.006762714, -0.0018262713, -1.371383   , 1.89        , 3           , 11          , 0.00511909369, 0.005119078
-0.0389755964, 0.06150384  , -9.774573   , -0.00479328725, 0.0003931469, -0.00187571335, 0.08844546  , 0.433800727 , 0.307941228 , -0.0067915353, -0.00182955794, -1.37140167 , 1.9         , 3           , 12          , 0.0426742658, 0
-0.0255453065, 0.0350053832, -9.795533   , -0.0014414282, 0.00157139637, -0.00119397452, 0.08844546  , 0.434002966 , 0.309019834 , -0.006805927, -0.00181392522, -1.37141359 , 1.91        , 3           , 50          , 0           , 0
-0.0111556929, 0.04464502  , -9.780835   , 0.002057872 , 0.0035311752, 7.242631E-05, 0.08797357  , 0.43434003  , 0.307671577 , -0.006785349, -0.00177860935, -1.371413   , 1.92        , 3           , 11          , 0.0055119344, 0.00551191671
-0.0123485327, 0.05869776  , -9.786555   , 0.00249312515, 0.004314293 , 0.00015801462, 0.08878253  , 0.433800727 , 0.308413118 , -0.00676042 , -0.0017354564, -1.37141168 , 1.93        , 3           , 12          , 0.0426742658, 0
-0.00983621553, 0.03790838  , -9.784514   , -0.00230995333, 0.00120712409, 0.000441111362, 0.08878253  , 0.433800727 , 0.308413118 , -0.006783527, -0.00172335526, -1.37140739 , 1.94        , 3           , 50          , 0           , 0
0.003812965 , 0.0562585481, -9.782371   , -0.00236179377, 0.00123344164, -0.002420957, 0.08844546  , 0.4342052   , 0.308413118 , -0.00680710375, -0.00171118614, -1.37143171 , 1.95        , 3           , 11          , 0.0055119344, 0.00551191671
0.0009048414, 0.07535468  , -9.794373   , 0.002159884 , -0.0008271649, -0.0014927244, 0.08817581  , 0.4341378   , 0.3078064   , -0.00678547937, -0.0017195585, -1.37144649 , 1.96        , 3           , 12          , 0.0426742658, 0
-0.008012129, 0.0432697   , -9.781274   , 0.00291305268, 0.00331333117, -0.0005694326, 0.08831064  , 0.4337333   , 0.309222043 , -0.006756338, -0.00168646441, -1.37145233 , 1.97        , 3           , 50          , 0           , 0
-0.0152745023, 0.0374561176, -9.780052   , 0.000313017284, -0.0005940877, -0.00142919016, 0.0882432237, 0.4342052   , 0.3078064   , -0.006753184, -0.00169250218, -1.37146664 , 1.98        , 3           , 11          , 0.0055119344, 0.00551191671
0.00595113263, 0.04271178  , -9.782507   , -0.00284257112, -0.00243210536, -0.00068821467, 0.08837805  , 0.433800727 , 0.308143467 , -0.006781599, -0.0017168693, -1.37147355 , 1.99        , 3           , 12          , 0.0426742658, 0
-0.01643867 , 0.0471014269, -9.79531    , -0.00442470331, 0.000609167735, 0.0003475002, 0.08837805  , 0.433800727 , 0.308143467 , -0.00679589855, -0.00168192165, -1.37146986 , 2           , 3           , 50          , 0           , 0
-0.0262093246, 0.0696506947, -9.78746    , -0.00644692266, -0.00244557159, -0.000353228068, 0.0882432237, 0.434002966 , 0.3088176   , -0.0068603633, -0.00170640124, -1.37147319 , 2.01        , 3           , 11          , 0.005974653 , 0.005974645
-0.0346381441, 0.03761985  , -9.779778   , -0.00549684 , -0.00100990955, -0.00168607081, 0.0880409852, 0.4342052   , 0.307536751 , -0.00691530248, -0.00171661621, -1.37148988 , 2.02        , 3           , 12          , 0.043477647 , 0
-0.0291975737, 0.0305083245, -9.793812   , -0.00155946822, 0.0020189262, -0.00025836713, 0.08858029  , 0.4337333   , 0.308885    , -0.00693089375, -0.00169644516, -1.37149262 , 2.03        , 3           , 50          , 0           , 0
-0.0313676745, 0.0506831966, -9.7809515  , 7.287997E-06, 0.00228833267, -0.000101687991, 0.08837805  , 0.4342052   , 0.308143467 , -0.00693081832, -0.00167356909, -1.37149358 , 2.04        , 3           , 11          , 0.005974653 , 0.005974645
-0.0373123921, 0.0367947966, -9.7847805  , 0.0001389214, 0.0012851404, -0.000258520682, 0.08837805  , 0.4342052   , 0.308143467 , -0.00692942459, -0.0016607357, -1.37149632 , 2.05        , 3           , 12          , 0.043477647 , 0
-0.0280522984, 0.0504613034, -9.804863   , -0.000707798346, 0.00186696765, -0.0002553138, 0.0885128751, 0.4336659   , 0.3078064   , -0.00693649845, -0.00164208421, -1.37149906 , 2.06        , 3           , 50          , 0           , 0
-0.0211384855, 0.03882594  , -9.776929   , -0.0048237117, 0.00177901518, -0.00178460579, 0.08858029  , 0.434070379 , 0.308750182 , -0.006984706, -0.00162441842, -1.371517   , 2.07        , 3           , 11          , 0.005974653 , 0.005974645
-0.0226184074, 0.0319628231, -9.766633   , 0.0005170235, 0.00307520782, -0.0005164584, 0.08817581  , 0.4342052   , 0.307671577 , -0.006979527, -0.00159370317, -1.37152231 , 2.08        , 3           , 12          , 0.043477647 , 0
-0.0115757231, 0.0344571322, -9.797668   , 0.00140664761, 0.00160860515, 0.00218680082, 0.0885128751, 0.433800727 , 0.308480531 , -0.00696549471, -0.0015774651, -1.37150061 , 2.09        , 3           , 50          , 0           , 0
-0.0117761735, 0.05576492  , -9.807815   , -0.000322165666, -0.0006850569, 0.00221088552, 0.08817581  , 0.4341378   , 0.3083457   , -0.006448378, -0.00152442127, -1.3714782  , 2.1         , 3           , 11          , 0.00646854332, 0.006468522
-0.0220616329, 0.06798115  , -9.80325    , 0.00366088678, 0.00367433787, -0.0009212539, 0.08817581  , 0.4341378   , 0.3083457   , -0.006411755, -0.00148773764, -1.37148762 , 2.11        , 3           , 12          , 0.04430561  , 0
-0.02213551 , 0.0669777244, -9.793777   , 0.00470209448, 0.001865983 , -0.000225503172, 0.08844546  , 0.434002966 , 0.307941228 , -0.00636473065, -0.001469093, -1.37149    , 2.12        , 3           , 50          , 0           , 0
-0.0229798872, 0.013852194 , -9.801625   , -0.000328903261, 0.00292861927, -0.00117134175, 0.0886477   , 0.433935553 , 0.309289455 , -0.00636800239, -0.00143988151, -1.37150192 , 2.13        , 3           , 11          , 0.00646854332, 0.006468522
-0.0107921716, 0.0226967148, -9.795088   , -0.00198025256, 0.00214818353, -0.000191096828, 0.08817581  , 0.43434003  , 0.3078064   , -0.00638780138, -0.0014184122, -1.37150383 , 2.14        , 3           , 12          , 0.04430561  , 0
-0.005208241, 0.0420676544, -9.7975235  , -0.000285234331, 0.00140991877, 0.000309536728, 0.0886477   , 0.4336659   , 0.3082783   , -0.006390658, -0.00140429335, -1.37150085 , 2.15        , 3           , 50          , 0           , 0
-0.0331572741, 0.03825256  , -9.797824   , 0.0002514768, -0.0018838424, -0.000593524135, 0.0886477   , 0.4336659   , 0.3082783   , -0.006388135, -0.00142316916, -1.37150681 , 2.16        , 3           , 11          , 0.00646854332, 0.006468522
-0.0108853448, 0.0283407457, -9.774697   , 0.0002579382, -0.001240319, -0.0004410517, 0.08844546  , 0.434272617 , 0.308480531 , -0.00638554944, -0.0014356  , -1.371511   , 2.17        , 3           , 12          , 0.04430561  , 0
-0.011667721, 0.0294197612, -9.790502   , -0.00145379617, -0.00108864985, 0.000552328769, 0.08837805  , 0.434002966 , 0.307941228 , -0.00640009576, -0.00144645129, -1.3715055  , 2.18        , 3           , 50          , 0           , 0
-0.0137564056, 0.0514998622, -9.787104   , -0.00307516241, 7.55617657E-05, 0.00041608882, 0.08871511  , 0.433800727 , 0.309087247 , -0.00643085362, -0.00144566922, -1.37150133 , 2.19        , 3           , 11          , 0.00646854332, 0.006468522
-0.0326768756, 0.0418558829, -9.797777   , -0.00232212828, 0.00136946875, -0.000777061738, 0.0885128751, 0.4341378   , 0.307941228 , -0.00643060636, -0.00143121975, -1.37150931 , 2.2         , 3           , 12          , 0.045156505 , 0
-0.0148132211, 0.0316823721, -9.788697   , 0.0001319997, -0.00138279633, -0.000300931046, 0.0885128751, 0.4341378   , 0.307941228 , -0.006429282, -0.00144506688, -1.371512   , 2.21        , 3           , 50          , 0           , 0
-0.02918932 , 0.0296307039, -9.79608    , -0.0015190664, -0.00279779686, -0.0004747327, 0.08858029  , 0.4336659   , 0.307873815 , -0.006444466, -0.00147307443, -1.3715167  , 2.22        , 3           , 11          , 0.006486232 , 0.00648618676
-0.01183643 , 0.0601239763, -9.793761   , -0.000744086748, 0.00179496245, -0.00204911572, 0.08831064  , 0.434002966 , 0.308547944 , -0.00645187637, -0.00145525741, -1.37153721 , 2.23        , 3           , 12          , 0.045156505 , 0
-0.0113925058, 0.06011037  , -9.792854   , -0.0008916116, 0.00228320365, -0.0003972257, 0.0881084   , 0.4342052   , 0.307401925 , -0.00646078633, -0.00143245142, -1.37154126 , 2.24        , 3           , 50          , 0           , 0
-0.034285   , 0.0334610157, -9.770788   , -0.000684333558, 0.00192025292, -0.000114993534, 0.08858029  , 0.4337333   , 0.3088176   , -0.006467628, -0.00141325686, -1.37154257 , 2.25        , 3           , 11          , 0.006486232 , 0.00648618676
-0.040863134, 0.04892319  , -9.777445   , -0.001850631, -1.09162556E-05, 0.000780014438, 0.08844546  , 0.4342052   , 0.3083457   , -0.00648614625, -0.0014133153, -1.37153459 , 2.26        , 3           , 12          , 0.045156505 , 0
-0.0346171372, 0.0345361   , -9.786589   , -0.0012305734, -0.00216036267, 3.715812E-05, 0.08844546  , 0.4342052   , 0.3083457   , -0.006498452, -0.0014349157, -1.37153411 , 2.27        , 3           , 50          , 0           , 0
-0.009501491, 0.0479656048, -9.755487   , -0.001097717, -0.00182150025, 0.00204638  , 0.0881084   , 0.433935553 , 0.307873815 , -0.00650945865, -0.00145299709, -1.37151349 , 2.28        , 3           , 11          , 0.006486232 , 0.00648618676
-0.0271623  , 0.0270420574, -9.766732   , -0.00264968374, -0.0015068705, 0.0006818507, 0.0885128751, 0.434002966 , 0.309019834 , -0.00653596548, -0.00146802154, -1.37150669 , 2.29        , 3           , 12          , 0.045156505 , 0
-0.0368052348, 0.04845152  , -9.778768   , -0.00418818276, -0.00255638151, -0.00134648115, 0.0880409852, 0.434272617 , 0.307536751 , -0.006545754, -0.00150485255, -1.37152    , 2.3         , 3           , 50          , 0           , 0
-0.039849408, 0.0464179851, -9.796888   , -0.00027012956, -0.00124638085, -1.53597739E-05, 0.08871511  , 0.433463663 , 0.308480531 , -0.00654845545, -0.00151731691, -1.37152016 , 2.31        , 3           , 11          , 0.00697019463, 0.006970153
-0.04312449 , 0.0369086564, -9.790704   , -0.0005435674, -0.000452838955, -0.000291759963, 0.08871511  , 0.433463663 , 0.308480531 , -0.006553886, -0.00152186432, -1.371523   , 2.32        , 3           , 12          , 0.04602877  , 0
-0.0327689536, 0.0506175347, -9.773738   , -0.00217242469, -0.000145165322, -0.0007982255, 0.08831064  , 0.434272617 , 0.3082783   , -0.006575598, -0.00152336841, -1.371531   , 2.33        , 3           , 50          , 0           , 0
-0.0331162661, 0.0521145   , -9.786823   , -0.001242768, 0.000134582049, -0.00107464741, 0.08844546  , 0.434002966 , 0.3078064   , -0.00658800872, -0.0015220932, -1.37154186 , 2.34        , 3           , 11          , 0.00697019463, 0.006970153
-0.016602397, 0.0357223339, -9.785505   , 0.00285758683, 0.00488272775, 0.000235872154, 0.08878253  , 0.433800727 , 0.309019834 , -0.00655943528, -0.00147325115, -1.37153959 , 2.35        , 3           , 12          , 0.04602877  , 0
-0.03918641 , 0.03180213  , -9.780337   , 0.00212337519, 0.00387156778, 0.00193396537, 0.08817581  , 0.4342052   , 0.308076054 , -0.0065382286, -0.00143440883, -1.37152052 , 2.36        , 3           , 50          , 0           , 0
-0.0207451936, 0.0590141751, -9.809215   , 0.00147122669, 0.00195709756, 0.000399577868, 0.0885128751, 0.4336659   , 0.308008641 , -0.006523522, -0.00141481217, -1.37151659 , 2.37        , 3           , 11          , 0.00697019463, 0.006970153
-0.029530881, 0.04226483  , -9.796389   , 0.0005731521, -0.00204442232, 0.000121385143, 0.0885128751, 0.4336659   , 0.308008641 , -0.006517793, -0.001435248, -1.37151539 , 2.38        , 3           , 12          , 0.04602877  , 0
-0.03552288 , 0.0695047   , -9.808326   , -0.000138086078, -0.00196683314, 0.000261227047, 0.08844546  , 0.434002966 , 0.308615357 , -0.00651917746, -0.00145489909, -1.37151265 , 2.39        , 3           , 50          , 0           , 0
-0.03620407 , 0.0504592843, -9.798162   , 0.000792869367, -0.0005201373, -0.000141012977, 0.08837805  , 0.4342052   , 0.307873815 , -0.006529783, -0.001530947, -1.37151444 , 2.4         , 3           , 11          , 0.00751223369, 0.00751218526
-0.0223217253, 0.0506677   , -9.786739   , 0.00395360729, 0.00238295365, 0.000206777084, 0.08871511  , 0.433935553 , 0.308952421 , -0.00649025 , -0.00150710449, -1.37151253 , 2.41        , 3           , 12          , 0.04692093  , 0
-0.0219080653, 0.0492723547, -9.783139   , 0.002116773 , 0.00389923784, 0.00100450206, 0.08831064  , 0.434272617 , 0.30821088  , -0.006469096, -0.00146804738, -1.37150264 , 2.42        , 3           , 50          , 0           , 0
-0.0370351225, 0.06437262  , -9.791235   , -0.0007206174, 0.00478403224, 0.00142913486, 0.08831064  , 0.434272617 , 0.30821088  , -0.00647632359, -0.001420116, -1.37148869 , 2.43        , 3           , 11          , 0.00751223369, 0.00751218526
-0.02021881 , 0.03439614  , -9.785102   , -0.000298558036, 0.0039269994, 0.0006322333, 0.08831064  , 0.4337333   , 0.3078064   , -0.006479317, -0.00138080586, -1.37148261 , 2.44        , 3           , 12          , 0.04692093  , 0
-0.02305019 , 0.0293242019, -9.772539   , 0.00281756883, 0.00225570146, -0.00030295027, 0.0885128751, 0.434070379 , 0.308750182 , -0.006451137, -0.00135826832, -1.37148571 , 2.45        , 3           , 50          , 0           , 0
-0.0268090181, 0.0387114845, -9.803632   , 0.00244221929, 0.0005398388, -0.000330133247, 0.08831064  , 0.4341378   , 0.307536751 , -0.006426711, -0.00135289179, -1.371489   , 2.46        , 3           , 11          , 0.00751223369, 0.00751218526
-0.0138112493, 0.0367264263, -9.797211   , -0.00354490639, -0.00068780547, -0.0005279774, 0.08884994  , 0.4337333   , 0.30868277  , -0.006462152, -0.00135980337, -1.37149429 , 2.47        , 3           , 12          , 0.04692093  , 0
-0.01791815 , 0.0313363262, -9.795957   , -0.0009387308, -0.002299678, 0.000466491125, 0.08831064  , 0.434272617 , 0.308547944 , -0.006471546, -0.00138276955, -1.37148952 , 2.48        , 3           , 50          , 0           , 0
-0.03049228 , 0.0346121043, -9.796938   , 0.00226851087, -0.00211085333, -0.000226513075, 0.08831064  , 0.434272617 , 0.308547944 , -0.006448858, -0.00140389171, -1.37149155 , 2.49        , 3           , 11          , 0.00751223369, 0.00751218526
-0.0247134026, 0.0540332459, -9.762332   , 0.00295085227, -0.000148568011, 0.00030576525, 0.0881084   , 0.433935553 , 0.307671577 , -0.00598472636, -0.00166002312, -1.37149012 , 2.5         , 3           , 12          , 0.0478315949, 0
-0.0142011214, 0.0670919344, -9.768861   , 0.00269832159, 0.00180152874, -0.00109859672, 0.08837805  , 0.434002966 , 0.309087247 , -0.00595772546, -0.00164207316, -1.37150109 , 2.51        , 3           , 50          , 0           , 0
-0.0424822345, 0.0324991122, -9.758678   , 6.924502E-05, 0.002042552 , -0.00103977462, 0.08837805  , 0.4341378   , 0.307739    , -0.00595701532, -0.00162170967, -1.37151158 , 2.52        , 3           , 11          , 0.007970202 , 0.007970157
-0.02411557 , 0.02863437  , -9.74952    , 0.001112994 , 0.0006608667, 1.99414335E-05, 0.08878253  , 0.4335985   , 0.3083457   , -0.005945886, -0.00161509984, -1.37151146 , 2.53        , 3           , 12          , 0.0478315949, 0
-0.0192431174, 0.0340583548, -9.796389   , 2.77066429E-05, -0.000411287416, 0.000927898451, 0.08878253  , 0.4335985   , 0.3083457   , -0.005945624, -0.00161915785, -1.37150216 , 2.54        , 3           , 50          , 0           , 0
-0.0359247364, 0.0314979777, -9.796573   , -9.01612948E-05, 0.000469091377, -0.00120666763, 0.0885128751, 0.4342052   , 0.308547944 , -0.00594650535, -0.0016145386, -1.3715142  , 2.55        , 3           , 11          , 0.007970202 , 0.007970157
-0.02797635 , 0.0483519472, -9.818438   , 0.003897502 , 0.0005770452, -0.00175292115, 0.08817581  , 0.434070379 , 0.3078064   , -0.005907502, -0.0016088722, -1.37153172 , 2.56        , 3           , 12          , 0.0478315949, 0
-0.0140366508, 0.05131901  , -9.811952   , -0.00126518426, -0.00267300056, -0.0011163482, 0.0885128751, 0.4336659   , 0.30915466  , -0.005920136, -0.00163566752, -1.37154281 , 2.57        , 3           , 50          , 0           , 0
0.0112484228, 0.0322648659, -9.779869   , -0.00254393532, -0.00181177771, 0.000176200178, 0.08817581  , 0.434272617 , 0.308076054 , -0.00594557868, -0.00165377464, -1.3715409  , 2.58        , 3           , 11          , 0.007970202 , 0.007970157
-0.0229479186, 0.01879764  , -9.800213   , -0.0016363489, -0.00332506979, 8.831668E-05, 0.0886477   , 0.4335985   , 0.308076054 , -0.005961944, -0.00168701948, -1.37153983 , 2.59        , 3           , 12          , 0.0478315949, 0
-0.0416471139, 0.04421301  , -9.800091   , -0.00138501287, -4.2595686E-05, -0.00129753957, 0.0886477   , 0.4335985   , 0.308076054 , -0.00503600575, -0.00183962728, -1.37155378 , 2.6         , 3           , 50          , 0           , 0
-0.02142006 , 0.0399784446, -9.799954   , 0.000326571026, 0.0008637703, -0.000415203045, 0.0885128751, 0.434070379 , 0.308750182 , -0.005032732, -0.00183101033, -1.371558   , 2.61        , 3           , 11          , 0.007903242 , 0.007903211
-0.0327264778, 0.0355480425, -9.798304   , 9.632561E-05, -0.000355863216, -4.97960173E-06, 0.0881084   , 0.4342052   , 0.307604164 , -0.005031769, -0.00183456915, -1.371558   , 2.62        , 3           , 12          , 0.04875945  , 0
-0.0201940313, 0.0317632854, -9.791908   , 0.00217068568, 0.0005564888, -0.000193616535, 0.08878253  , 0.4337333   , 0.308885    , -0.005010059, -0.00182901428, -1.37156    , 2.63        , 3           , 50          , 0           , 0
-0.01741331 , 0.03898329  , -9.794509   , -0.000484037766, -0.001141376, 0.000337821373, 0.08844546  , 0.4342052   , 0.308143467 , -0.005014906, -0.00184041122, -1.37155652 , 2.64        , 3           , 11          , 0.007903242 , 0.007903211
-0.0243415032, 0.02898184  , -9.781589   , -0.00161684165, -0.00119378371, -0.0005285675, 0.08844546  , 0.4342052   , 0.308143467 , -0.005031065, -0.00185237557, -1.37156165 , 2.65        , 3           , 12          , 0.04875945  , 0
-0.006111352, 0.05631576  , -9.779751   , -0.000336314028, -0.0009944122, -0.000231563114, 0.08837805  , 0.433800727 , 0.307873815 , -0.005034424, -0.00186233106, -1.371564   , 2.66        , 3           , 50          , 0           , 0
0.00100708753, 0.0467743427, -9.778892   , 0.000926738547, -0.00124154624, 0.00191924721, 0.08844546  , 0.433800727 , 0.309019834 , -0.005025192, -0.00187464966, -1.37154472 , 2.67        , 3           , 11          , 0.007903242 , 0.007903211
-0.0193911735, 0.05030154  , -9.755098   , 0.00165043585, -0.00151423353, -0.000441495882, 0.0881084   , 0.4342052   , 0.307604164 , -0.00500868028, -0.00188981427, -1.371549   , 2.68        , 3           , 12          , 0.04875945  , 0
-0.0222256389, 0.0314257368, -9.758957   , 0.0005299405, -0.0007037044, -0.0016530694, 0.08858029  , 0.4335985   , 0.308413118 , -0.00500334939, -0.00189693377, -1.37156558 , 2.69        , 3           , 50          , 0           , 0
-0.0184353031, 0.0423661172, -9.772799   , 0.00162551354, 0.00149756309, -0.000827372249, 0.08858029  , 0.4335985   , 0.308413118 , -0.004973592, -0.0018848771, -1.37157381 , 2.7         , 3           , 11          , 0.007418373 , 0.00741836661
-0.0340759531, 0.048025474 , -9.783265   , 0.0012346158, -0.0006622459, 0.000713086454, 0.08831064  , 0.434272617 , 0.308615357 , -0.00496125873, -0.00189146376, -1.37156665 , 2.71        , 3           , 12          , 0.0497032739, 0
-0.0101609882, 0.0124834627, -9.76855    , -0.000513013569, 0.00123009656, -0.0005582324, 0.0882432237, 0.434070379 , 0.308008641 , -0.00496637775, -0.00187919056, -1.37157226 , 2.72        , 3           , 50          , 0           , 0
-0.0205190778, 0.0426421724, -9.796754   , -0.000154645022, 0.00151242386, -0.000480376, 0.08858029  , 0.434002966 , 0.309087247 , -0.004967916, -0.00186409045, -1.37157714 , 2.73        , 3           , 11          , 0.007418373 , 0.00741836661
-0.03421338 , 0.01665563  , -9.801697   , -0.00011117509, -0.0006414814, -8.200314E-05, 0.0880409852, 0.4341378   , 0.307671577 , -0.004969026, -0.00187050865, -1.37157786 , 2.74        , 3           , 12          , 0.0497032739, 0
-0.009849574, 0.03966845  , -9.780429   , -0.00019308216, -0.00129004137, 0.000408965076, 0.0886477   , 0.4336659   , 0.308480531 , -0.00497096451, -0.00188338861, -1.37157357 , 2.75        , 3           , 50          , 0           , 0
-0.0176139548, 0.0328892469, -9.7729     , 0.00323222345, 0.000172785018, 0.00123838789, 0.0886477   , 0.4336659   , 0.308480531 , -0.00493866531, -0.00188159954, -1.37156129 , 2.76        , 3           , 11          , 0.007418373 , 0.00741836661
-0.02506502 , 0.0408342   , -9.792751   , 0.005055564 , 0.00324888877, -0.000208398938, 0.08844546  , 0.434002966 , 0.308547944 , -0.004888106, -0.00184912118, -1.37156343 , 2.77        , 3           , 12          , 0.0497032739, 0
-0.0217873566, 0.0614758432, -9.78570652 , -0.0005148019, 0.00115717237, -0.000416193652, 0.08817581  , 0.4342052   , 0.3078064   , -0.004893246, -0.00183756975, -1.37156773 , 2.78        , 3           , 50          , 0           , 0
-0.0253718384, 0.0535215363, -9.798028   , -0.00351599464, -0.000242823153, -0.000741216, 0.08844546  , 0.4337333   , 0.308952421 , -0.00492839236, -0.001840034, -1.37157512 , 2.79        , 3           , 11          , 0.007418373 , 0.00741836661
-0.0183452778, 0.0367172435, -9.792736   , -0.00164772337, -0.00247890153, 0.000384222774, 0.08837805  , 0.434272617 , 0.3083457   , -0.005093668, -0.00207360019, -1.371572   , 2.8         , 3           , 12          , 0.0506619252, 0
-0.000163959339, 0.0241110921, -9.767421   , -0.001084607, -0.003973864, -0.00135124545, 0.08837805  , 0.434272617 , 0.3083457   , -0.005104486, -0.00211340771, -1.37158537 , 2.81        , 3           , 50          , 0           , 0
-0.0153118409, 0.02627058  , -9.788312   , 0.000575113 , -0.00106584071, 0.000132205241, 0.08858029  , 0.4337333   , 0.308076054 , -0.005098738, -0.00212405925, -1.371584   , 2.82        , 3           , 11          , 0.007892025 , 0.00789202
0.00427916925, 0.0222005211, -9.761078   , -0.0020737634, -0.002544292, 0.000165986261, 0.0886477   , 0.434272617 , 0.30868277  , -0.00511947926, -0.0021494932, -1.37158227 , 2.83        , 3           , 12          , 0.0506619252, 0
0.00384207815, 0.04294912  , -9.80285    , -0.004408633, -0.00186989061, -0.000482627831, 0.0882432237, 0.4342052   , 0.307536751 , -0.005163555, -0.002168217, -1.371587   , 2.84        , 3           , 50          , 0           , 0
0.005047149 , 0.049391266 , -9.773857   , 0.0002538254, -0.00442769658, -0.0002047112, 0.08858029  , 0.433800727 , 0.30868277  , -0.00516101439, -0.00221250416, -1.37158883 , 2.85        , 3           , 11          , 0.007892025 , 0.00789202
-0.003610799, 0.0430756547, -9.766781   , 0.002185201 , -0.00287997443, 0.0008313826, 0.08837805  , 0.434070379 , 0.308413118 , -0.00513918046, -0.0022412613, -1.37158048 , 2.86        , 3           , 12          , 0.0506619252, 0
-0.0182802342, 0.04972577  , -9.78626251 , 0.00059662963, 0.0010086589, 0.000520168338, 0.08837805  , 0.434070379 , 0.308413118 , -0.005133226, -0.00223114761, -1.37157512 , 2.87        , 3           , 50          , 0           , 0
-0.016473921, 0.0443766378, -9.793535   , -0.00104220025, 0.0007386951, 0.0005061428, 0.08831064  , 0.434070379 , 0.307873815 , -0.00514365966, -0.00222373474, -1.37157011 , 2.88        , 3           , 11          , 0.007892025 , 0.00789202
0.0113016842, 0.04124911  , -9.776603   , -0.00119872263, -0.0003370915, 0.0007757994, 0.0885128751, 0.43386814  , 0.309087247 , -0.00515566347, -0.00222706515, -1.37156236 , 2.89        , 3           , 12          , 0.0506619252, 0
-0.0026647402, 0.0418021977, -9.774918   , -0.001974592, -0.0003051518, 0.0008428078, 0.08831064  , 0.43434003  , 0.307739    , -0.00516383769, -0.002188208, -1.37155366 , 2.9         , 3           , 50          , 0           , 0
-0.04098321 , 0.0552195422, -9.817575   , 0.0009541176, 0.0008115462, 0.000877064245, 0.0886477   , 0.4335985   , 0.3083457   , -0.00515431631, -0.002180047, -1.37154484 , 2.91        , 3           , 11          , 0.00713871  , 0.007138701
-0.028703779, 0.04392513  , -9.783715   , 0.00266529783, 0.0009413373, 0.000460185373, 0.0886477   , 0.4335985   , 0.3083457   , -0.005127673, -0.00217061 , -1.37154031 , 2.92        , 3           , 12          , 0.05163431  , 0
-0.0107314494, 0.04638181  , -9.774939   , 0.003927062 , -0.0008595862, 8.410604E-05, 0.08837805  , 0.4341378   , 0.308413118 , -0.00508840475, -0.00217920169, -1.37153947 , 2.93        , 3           , 50          , 0           , 0
-0.01322002 , 0.04762166  , -9.804307   , -0.00190801662, -0.000946837943, 0.000404599676, 0.08831064  , 0.434002966 , 0.3078064   , -0.00510749361, -0.002188649, -1.3715353  , 2.94        , 3           , 11          , 0.00713871  , 0.007138701
-0.00563721173, 0.04611037  , -9.795673   , -0.00270850887, -0.002938547, -0.0003447369, 0.0886477   , 0.43386814  , 0.309222043 , -0.005134571, -0.00221805181, -1.37153876 , 2.95        , 3           , 12          , 0.05163431  , 0
-0.0178779382, 0.06077674  , -9.765805   , 0.00029386353, -0.00238357182, -0.0016776782, 0.08837805  , 0.4342052   , 0.307941228 , -0.005131595, -0.00224197353, -1.37155533 , 2.96        , 3           , 50          , 0           , 0
-0.0297781415, 0.0458923355, -9.756149   , 0.001155987 , -0.001957253, -0.00223860587, 0.08844546  , 0.4337333   , 0.307941228 , -0.00511998544, -0.002261661, -1.37157762 , 2.97        , 3           , 11          , 0.00713871  , 0.007138701
-0.0362817645, 0.0374314077, -9.802831   , -0.00248253345, -0.00151293725, 0.000249743724, 0.08844546  , 0.4337333   , 0.307941228 , -0.005144817, -0.00227677682, -1.37157512 , 2.98        , 3           , 12          , 0.05163431  , 0
-0.00528490357, 0.0459564477, -9.78167    , 0.0021326635, 0.00290008285, -0.00158975914, 0.08871511  , 0.4341378   , 0.308615357 , -0.00512345461, -0.00224785786, -1.37159109 , 2.99        , 3           , 50          , 0           , 0
-0.00526632741, 0.04108842  , -9.790308   , 0.00533279171, 0.00323194871, -0.00034895385, 0.0882432237, 0.4341378   , 0.307671577 , -0.005062603, -0.00218538125, -1.37159467 , 3           , 3           , 11          , 0.007534429 , 0.007534425
-0.0175676048, 0.0594715253, -9.812342   , 0.004256801 , 0.00160775217, -0.001810197, 0.0886477   , 0.433800727 , 0.308952421 , -0.00501999538, -0.002169395, -1.37161279 , 3.01        , 3           , 12          , 0.05261945  , 0
-0.0285493135, 0.0508387163, -9.797636   , 0.0003540736, 0.00208183262, -0.002328283, 0.0882432237, 0.4341378   , 0.308076054 , -0.005016404, -0.002148694, -1.37163627 , 3.02        , 3           , 50          , 0           , 0
-0.0192978438, 0.05400557  , -9.76409    , -0.00317040365, -0.0008285244, -0.00146201765, 0.0882432237, 0.4341378   , 0.308076054 , -0.005048077, -0.00215705275, -1.37165093 , 3.03        , 3           , 11          , 0.007534429 , 0.007534425
-0.0102865286, 0.0517113432, -9.767647   , -0.00293513155, -0.004071426, 0.0002812686, 0.08831064  , 0.43386814  , 0.307941228 , -0.00507743424, -0.00219775224, -1.371648   , 3.04        , 3           , 12          , 0.05261945  , 0
-0.0193017982, 0.0326330662, -9.789631   , -0.00275853835, -0.00092306 , 0.0006141981, 0.0885128751, 0.433935553 , 0.308952421 , -0.005105034, -0.00220695185, -1.37164187 , 3.05        , 3           , 50          , 0           , 0
0.0103272647, 0.02867998  , -9.781273   , -0.003221177, 0.002091718 , 0.0005834808, 0.08837805  , 0.43434003  , 0.307739    , -0.005137258, -0.002186005, -1.37163591 , 3.06        , 3           , 11          , 0.007534429 , 0.007534425
-0.0150061492, 0.05389196  , -9.798832   , -0.00251131761, 0.002223944 , 0.00101909717, 0.0885128751, 0.4337333   , 0.308615357 , -0.005162393, -0.00216371263, -1.3716259  , 3.07        , 3           , 12          , 0.05261945  , 0
-0.0268203933, 0.0511578   , -9.786777   , -0.00737725 , -0.0006598896, 0.000446403661, 0.08844546  , 0.43434003  , 0.308615357 , -0.00523617538, -0.00217028824, -1.37162137 , 3.08        , 3           , 50          , 0           , 0
-0.02697075 , 0.0380186327, -9.781057   , -0.00333676487, -0.00205847854, 2.17492143E-05, 0.08844546  , 0.43434003  , 0.308615357 , -0.00526954327, -0.00219087233, -1.37162113 , 3.09        , 3           , 11          , 0.007534429 , 0.007534425
-0.0467713922, 0.0386517122, -9.782135   , 0.001171454 , -0.0005386597, 0.000643952633, 0.08837805  , 0.433935553 , 0.307873815 , -0.005231976, -0.00220682425, -1.37161458 , 3.1         , 3           , 12          , 0.0536163747, 0
-0.026579747, 0.0223443136, -9.791624   , 0.00224347529, -0.000824557035, -0.000641533639, 0.08884994  , 0.43386814  , 0.309222043 , -0.00520952838, -0.00221510325, -1.37162089 , 3.11        , 3           , 50          , 0           , 0
0.00575643033, 0.03173037  , -9.76773    , -0.000279753585, -0.00345524913, -0.000122803045, 0.08817581  , 0.434272617 , 0.307739    , -0.00521232234, -0.00224966137, -1.371622   , 3.12        , 3           , 11          , 0.007911488 , 0.00791148748
-0.0132676316, 0.05200007  , -9.792062   , -0.00199829182, -0.00401810836, 0.0006455206, 0.08858029  , 0.4337333   , 0.30821088  , -0.00523232063, -0.00228980812, -1.37161529 , 3.13        , 3           , 12          , 0.0536163747, 0
-0.0376556255, 0.05743876  , -9.77506    , 0.0028935757, -0.000323786284, -0.00127424381, 0.08858029  , 0.4337333   , 0.30821088  , -0.00520335464, -0.00229311222, -1.371628   , 3.14        , 3           , 50          , 0           , 0
-0.0241416562, 0.0506543443, -9.784046   , -6.677665E-05, 0.00157571817, -0.00198051636, 0.08831064  , 0.4342052   , 0.308413118 , -0.005203977, -0.002277458, -1.371648   , 3.15        , 3           , 11          , 0.007911488 , 0.00791148748
-0.02062124 , 0.05094324  , -9.771815   , 3.74878255E-05, -0.00122755207, -0.00116185972, 0.0882432237, 0.434070379 , 0.307873815 , -0.00520357536, -0.002289794, -1.37165952 , 3.16        , 3           , 12          , 0.0536163747, 0
0.00182544068, 0.0466406941, -9.767142   , -0.000923325948, -0.00310076145, 0.00102321489, 0.08858029  , 0.43386814  , 0.308952421 , -0.005212833, -0.002320748, -1.37164915 , 3.17        , 3           , 50          , 0           , 0
-0.0323131569, 0.04082918  , -9.786494   , 8.954478E-05, -0.00210016966, 0.000185327 , 0.08831064  , 0.4342052   , 0.308143467 , -0.005211943, -0.00234173913, -1.37164712 , 3.18        , 3           , 11          , 0.007911488 , 0.00791148748
-0.000617709, 0.0307866558, -9.758765   , -0.0006606234, 0.000278453575, -0.0005003632, 0.08831064  , 0.4342052   , 0.308143467 , -0.00521853659, -0.002338981, -1.37165213 , 3.19        , 3           , 12          , 0.0536163747, 0
-0.009950263, 0.0190380812, -9.791057   , 0.0008571775, 0.0011401932, -0.00119420514, 0.08831064  , 0.4336659   , 0.307873815 , -0.005191093, -0.0023068618, -1.371664   , 3.2         , 3           , 50          , 0           , 0
-0.0446282849, 0.0148744388, -9.795489   , 0.00142950646, -0.003753511, 0.000455683767, 0.0885128751, 0.433935553 , 0.30868277  , -0.005176809, -0.002344373, -1.3716594  , 3.21        , 3           , 11          , 0.008283256 , 0.008283222
-0.0250785612, 0.0151924519, -9.756912   , -0.00306589319, -0.00492788 , 0.0006255833, 0.0881084   , 0.4342052   , 0.3078064   , -0.005207483, -0.00239361869, -1.37165284 , 3.22        , 3           , 12          , 0.0546242222, 0
-0.03240382 , 0.0344584435, -9.781148   , 0.000387955573, -0.00201616134, -0.0003126513, 0.0886477   , 0.4336659   , 0.3088176   , -0.005203596, -0.00241379626, -1.371656   , 3.23        , 3           , 50          , 0           , 0
-0.0172022134, 0.0504349619, -9.811087   , 0.00311165722, -0.0004629483, -0.000774206652, 0.0885128751, 0.434272617 , 0.3082783   , -0.005172461, -0.00241846545, -1.37166357 , 3.24        , 3           , 11          , 0.008283256 , 0.008283222
-0.00280335173, 0.0645401   , -9.79227352 , 0.00366080366, -0.00197646744, -0.00043498585, 0.0885128751, 0.434272617 , 0.3082783   , -0.005135843, -0.00243825233, -1.37166786 , 3.25        , 3           , 12          , 0.0546242222, 0
-0.0232807957, 0.0470247455, -9.782725   , -0.00225920486, -0.00313958852, 8.405172E-05, 0.0882432237, 0.433800727 , 0.307941228 , -0.00515843742, -0.00246964465, -1.37166691 , 3.26        , 3           , 50          , 0           , 0
-0.0313642845, 0.046237044 , -9.786875   , -0.000197978283, -0.003161818, 0.000239555811, 0.08858029  , 0.43386814  , 0.30915466  , -0.005160424, -0.00250124955, -1.3716644  , 3.27        , 3           , 11          , 0.008283256 , 0.008283222
-0.01780786 , 0.0497557223, -9.789419   , 0.0005351919, -0.00137600244, 5.53008758E-05, 0.0882432237, 0.4341378   , 0.307604164 , -0.005155074, -0.00251500658, -1.37166369 , 3.28        , 3           , 12          , 0.0546242222, 0
-0.00157606055, 0.06879063  , -9.769176   , -0.00136738108, -0.000134056972, -0.000439314, 0.0885128751, 0.4336659   , 0.3083457   , -0.00516873645, -0.00251636957, -1.371668   , 3.29        , 3           , 50          , 0           , 0
-0.0127593679, 0.06677443  , -9.782401   , 0.001260281 , 7.89904952E-05, -0.00142177986, 0.0885128751, 0.4336659   , 0.3083457   , -0.00518149929, -0.00248371135, -1.37168193 , 3.3         , 3           , 11          , 0.008694644 , 0.008694624
-0.02898703 , 0.0530874766, -9.796711   , 0.00167792046, 0.000485968281, 0.000661739556, 0.08817581  , 0.4342052   , 0.3083457   , -0.00516473642, -0.00247881771, -1.37167537 , 3.31        , 3           , 12          , 0.05564217  , 0
-0.0243318621, 0.038344413 , -9.771544   , 0.0003854214, -1.1500254E-05, 0.00164829951, 0.08837805  , 0.433935553 , 0.3078064   , -0.005160924, -0.00247884775, -1.37165892 , 3.32        , 3           , 50          , 0           , 0
-0.0247182734, 0.0504647158, -9.765986   , -0.00425534835, -0.00252903928, -6.25478642E-05, 0.08858029  , 0.43386814  , 0.309087247 , -0.00520347571, -0.00250414084, -1.3716594  , 3.33        , 3           , 11          , 0.008694644 , 0.008694624
-0.0375412367, 0.0696325749, -9.776724   , -0.00268666469, -0.002257073, -0.000192032647, 0.0881084   , 0.4341378   , 0.307873815 , -0.005230338, -0.00252672168, -1.37166119 , 3.34        , 3           , 12          , 0.05564217  , 0
-0.0339460373, 0.0531209372, -9.795853   , -0.00186767359, 0.000887991162, -0.00021295296, 0.0885128751, 0.4337333   , 0.308076054 , -0.005249008, -0.00251785223, -1.37166333 , 3.35        , 3           , 50          , 0           , 0
-0.0104093365, 0.0310471058, -9.775114   , 0.00174015423, 0.00033235806, 0.00173319632, 0.0885128751, 0.4337333   , 0.308076054 , -0.00523165055, -0.002514438, -1.37164617 , 3.36        , 3           , 11          , 0.008694644 , 0.008694624
-0.0310782548, 0.0321824625, -9.780259   , 0.0006013104, -0.001068503, -0.0005838371, 0.0885128751, 0.434070379 , 0.308480531 , -0.00522562349, -0.002525154, -1.37165189 , 3.37        , 3           , 12          , 0.05564217  , 0
-0.0295423437, 0.0315640643, -9.807805   , -0.0011251301, -0.00277064019, -0.0006191587, 0.08837805  , 0.4342052   , 0.307739    , -0.005236859, -0.002552892, -1.37165785 , 3.38        , 3           , 50          , 0           , 0
-0.0398119539, 0.05537803  , -9.791365   , 2.16878761E-05, -0.0005126011, 0.00199655932, 0.08871511  , 0.433800727 , 0.309087247 , -0.00523669366, -0.00255791377, -1.37163782 , 3.39        , 3           , 11          , 0.008694644 , 0.008694624
-0.0335553661, 0.0441230871, -9.798211   , -0.004854438, -0.00421150029, -9.019773E-05, 0.0882432237, 0.4342052   , 0.308143467 , -0.00530877849, -0.00268475525, -1.37163854 , 3.4         , 3           , 12          , 0.0566694364, 0
-0.0259692837, 0.04039113  , -9.792764   , -0.000828005, -0.000242406371, 0.000278383261, 0.0882432237, 0.4342052   , 0.308143467 , -0.0053170654, -0.00268716458, -1.37163579 , 3.41        , 3           , 50          , 0           , 0
-0.0300924219, 0.0438788235, -9.778308   , -0.00171323994, -0.00168710947, 0.00254168757, 0.0882432237, 0.433800727 , 0.307941228 , -0.00533426739, -0.0027039  , -1.37161016 , 3.42        , 3           , 11          , 0.009086043 , 0.009086042
-0.0303024221, 0.035544768 , -9.75808048 , 0.0003097551, -0.000253964885, 0.000285236863, 0.0882432237, 0.433935553 , 0.308952421 , -0.00533117773, -0.00270642433, -1.3716073  , 3.43        , 3           , 12          , 0.0566694364, 0
-0.0139779374, 0.04626409  , -9.761419   , -0.00627553044, -0.004759972, -0.001251768, 0.0881084   , 0.4341378   , 0.307401925 , -0.00539389951, -0.00275409059, -1.37161958 , 3.44        , 3           , 50          , 0           , 0
-0.0179152116, 0.0357921571, -9.790937   , 0.00116307475, -0.000262633723, 0.000290377036, 0.08837805  , 0.4337333   , 0.308952421 , -0.00538227661, -0.002756701, -1.37161672 , 3.45        , 3           , 11          , 0.009086043 , 0.009086042
-0.0256300624, 0.04911984  , -9.76601    , 0.00289392238, 0.00116316229, -0.000823130948, 0.08817581  , 0.434407443 , 0.308413118 , -0.00535331434, -0.002745114, -1.371625   , 3.46        , 3           , 12          , 0.0566694364, 0
-0.0345438868, 0.06046605  , -9.76551    , 0.00288621476, 0.00115292426, 0.000321525062, 0.08817581  , 0.434407443 , 0.308413118 , -0.00532446057, -0.00273356773, -1.37162185 , 3.47        , 3           , 50          , 0           , 0
-0.0246469378, 0.0519093722, -9.774552   , 0.00313765486, -0.00171575684, 0.000281503133, 0.0881084   , 0.433935553 , 0.307873815 , -0.00529309176, -0.00275070965, -1.37161887 , 3.48        , 3           , 11          , 0.009086043 , 0.009086042
-0.0188329052, 0.0509082042, -9.769993   , -0.00142025 , -0.003089621, -0.001197599, 0.08837805  , 0.433800727 , 0.308952421 , -0.0053072623, -0.002781669, -1.37163079 , 3.49        , 3           , 12          , 0.0566694364, 0
-0.0274471  , 0.0419887751, -9.772434   , 0.00567631563, -0.004304618, -0.000885262445, 0.0882432237, 0.4341378   , 0.307671577 , -0.00524896337, -0.00281140255, -1.37163949 , 3.5         , 3           , 50          , 0           , 0
-0.0139901647, 0.025769202 , -9.784692   , 0.00576515  , 0.002586079 , -0.002215918, 0.0885128751, 0.4336659   , 0.3083457   , -0.00519125 , -0.00278565777, -1.3716619  , 3.51        , 3           , 11          , 0.009268476 , 0.009268472
-0.0128886066, 0.048326008 , -9.786229   , 6.837738E-05, 0.00178669346, -0.0025488704, 0.0885128751, 0.4336659   , 0.3083457   , -0.0051904954, -0.00276792375, -1.37168741 , 3.52        , 3           , 12          , 0.0577053241, 0
-0.00116514228, 0.0469149128, -9.790202   , 3.453505E-05, 0.000330762065, 5.73824946E-06, 0.0882432237, 0.4341378   , 0.308413118 , -0.00519015 , -0.0027646157, -1.37168741 , 3.53        , 3           , 50          , 0           , 0
-0.0345694721, 0.0417312346, -9.78469849 , 0.00289928843, 0.00173988054, -0.0005285882, 0.08797357  , 0.4342052   , 0.307671577 , -0.00516114244, -0.002747245, -1.37169278 , 3.54        , 3           , 11          , 0.009268476 , 0.009268472
-0.0231589135, 0.0485468172, -9.798516   , -0.001668516, -0.000493721, -0.00202021073, 0.0886477   , 0.4337333   , 0.309087247 , -0.005177772, -0.00275228615, -1.3717128  , 3.55        , 3           , 12          , 0.0577053241, 0
-0.0402493328, 0.0509503148, -9.798645   , 0.00086559786, -0.003093821, -0.00261468021, 0.08831064  , 0.434272617 , 0.308008641 , -0.005169044, -0.00278335926, -1.37173891 , 3.56        , 3           , 50          , 0           , 0
-0.04839208 , 0.0598648   , -9.782357   , 0.00429453468, -0.0002857406, 2.30921069E-05, 0.0881084   , 0.4336659   , 0.308143467 , -0.005126099, -0.00278621516, -1.37173855 , 3.57        , 3           , 11          , 0.009268476 , 0.009268472
-0.0223136488, 0.0658146143, -9.769401   , -0.0027988567, 0.0006564755, -0.00115187827, 0.0881084   , 0.4336659   , 0.308143467 , -0.00515405461, -0.00277970964, -1.37175012 , 3.58        , 3           , 12          , 0.0577053241, 0
-0.0166165885, 0.04148733  , -9.776404   , 0.00057590747, -0.00140473014, 0.00112877984, 0.0885128751, 0.4342052   , 0.30868277  , -0.005148328, -0.0027936988, -1.37173879 , 3.59        , 3           , 50          , 0           , 0
-0.0195717644, 0.0538343824, -9.78984    , -0.00278506684, 0.0009559648, -0.00143383816, 0.0882432237, 0.434272617 , 0.307536751 , -0.00515669258, -0.00276069762, -1.37175322 , 3.6         , 3           , 11          , 0.009636407 , 0.009636405
-0.00616959669, 0.0459884778, -9.783936   , -0.00137139414, 0.000365798944, -0.00114745437, 0.08844546  , 0.43386814  , 0.309019834 , -0.00517037464, -0.002757099, -1.37176466 , 3.61        , 3           , 12          , 0.0587491542, 0
-0.0250627417, 0.03327042  , -9.802324   , -0.00225029443, -0.00135268562, -0.00031914367, 0.08817581  , 0.434070379 , 0.308480531 , -0.005192869, -0.002770642, -1.37176788 , 3.62        , 3           , 50          , 0           , 0
-0.0381610021, 0.03554669  , -9.793836   , 0.003155703 , -0.000276629027, 0.001447089 , 0.08817581  , 0.434070379 , 0.308480531 , -0.00516135152, -0.002773333, -1.37175333 , 3.63        , 3           , 11          , 0.009636407 , 0.009636405
0.006528513 , 0.0526955239, -9.78871    , -0.003949781, -0.00104364974, -0.000897578546, 0.0882432237, 0.434070379 , 0.307873815 , -0.00520082423, -0.002783816, -1.37176228 , 3.64        , 3           , 12          , 0.0587491542, 0
-0.0237063728, 0.0466213152, -9.786799   , -0.00223186752, 8.27696058E-05, -0.00058444 , 0.0885128751, 0.434002966 , 0.30868277  , -0.00522312662, -0.00278301863, -1.37176824 , 3.65        , 3           , 50          , 0           , 0
-0.0292972326, 0.0267946348, -9.783918   , -0.00337210856, 0.000373228628, 0.000271371973, 0.08817581  , 0.4342052   , 0.307671577 , -0.00525685539, -0.00277927285, -1.37176561 , 3.66        , 3           , 11          , 0.009636407 , 0.009636405
-0.030914   , 0.0578066744, -9.772734   , -0.00311021484, -0.00191717525, -0.000332630938, 0.08858029  , 0.4335985   , 0.308480531 , -0.00528794853, -0.002798462, -1.37176883 , 3.67        , 3           , 12          , 0.0587491542, 0
-0.0430585966, 0.0459122621, -9.789245   , -0.0005472201, -0.0025035427, -0.00175637752, 0.08858029  , 0.4335985   , 0.308480531 , -0.005293371, -0.0028235896, -1.37178624 , 3.68        , 3           , 50          , 0           , 0
-0.0192248337, 0.0474403724, -9.782684   , 0.00402773824, 2.17573834E-05, -0.000832909369, 0.08831064  , 0.4342052   , 0.3083457   , -0.0052530705, -0.00282341521, -1.37179446 , 3.69        , 3           , 11          , 0.009636407 , 0.009636405
-0.0110165291, 0.0542059653, -9.789306   , -0.0002714275, -0.002231426, 0.0008250281, 0.0881084   , 0.434002966 , 0.3078064   , -0.005243075, -0.00281861378, -1.37178612 , 3.7         , 3           , 12          , 0.05980031  , 0
-0.00150709227, 0.0546519719, -9.79644    , -0.00163449277, 0.00209450722, -0.0005517559, 0.08871511  , 0.433800727 , 0.30915466  , -0.005259405, -0.002797698, -1.3717916  , 3.71        , 3           , 50          , 0           , 0
-0.0179757439, 0.0330286548, -9.785549   , -0.00168317335, -0.00163870049, 0.0002524802, 0.08817581  , 0.4342052   , 0.3078064   , -0.00527624367, -0.00281407149, -1.371789   , 3.72        , 3           , 11          , 0.009970749 , 0.009970758
-0.0326027237, 0.04998186  , -9.798587   , -0.006815186, -0.003295924, -0.0009480581, 0.08858029  , 0.4337333   , 0.308143467 , -0.00534436945, -0.00284708035, -1.37179828 , 3.73        , 3           , 12          , 0.05980031  , 0
-0.0357954353, 0.03614736  , -9.809617   , 0.000599500258, -0.00137011916, -0.0003019671, 0.08858029  , 0.4337333   , 0.308143467 , -0.00533836568, -0.00286079734, -1.37180114 , 3.74        , 3           , 50          , 0           , 0
-0.0405121371, 0.0247300453, -9.792627   , -0.00106835994, 0.00152068841, -0.00112900417, 0.08837805  , 0.434070379 , 0.308480531 , -0.005349016, -0.002845651, -1.37181258 , 3.75        , 3           , 11          , 0.009970749 , 0.009970758
-0.0239723362, 0.0203962028, -9.78033    , 0.00432251161, 0.001447869 , 0.000906698464, 0.08817581  , 0.434272617 , 0.3078064   , -0.00530581642, -0.00283112423, -1.37180364 , 3.76        , 3           , 12          , 0.05980031  , 0
-0.005021982, 0.0265248716, -9.778278   , 0.0002704988, -0.004248378, 0.0013715683, 0.08844546  , 0.4337333   , 0.30915466  , -0.00530315144, -0.00287353457, -1.37178969 , 3.77        , 3           , 50          , 0           , 0
-0.0255967956, 0.0411583856, -9.780557   , 0.003159171 , -0.0002677259, 0.00173329574, 0.08831064  , 0.43434003  , 0.30821088  , -0.00527160941, -0.00287612039, -1.37177241 , 3.78        , 3           , 11          , 0.009970749 , 0.009970758
-0.0118746851, 0.0667424   , -9.780135   , -0.00194258709, 0.00037280278, -6.18244667E-06, 0.08831064  , 0.43434003  , 0.30821088  , -0.0052910354, -0.0028723923, -1.37177241 , 3.79        , 3           , 12          , 0.05980031  , 0
-0.0215895586, 0.04283478  , -9.771918   , -0.00309126661, 0.000695616 , -0.0005810175, 0.0886477   , 0.433800727 , 0.308008641 , -0.00536627136, -0.0028175097, -1.371778   , 3.8         , 3           , 50          , 0           , 0
-0.0107115433, 0.0401804261, -9.785399   , -0.00200960645, -0.004187788, -0.000645114051, 0.08844546  , 0.4341378   , 0.308885    , -0.005386349, -0.00285942131, -1.37178445 , 3.81        , 3           , 11          , 0.0102457972, 0.0102457907
-0.0147455074, 0.0420241728, -9.785868   , 5.40731635E-05, 0.002096726 , -0.0005413025, 0.0882432237, 0.434070379 , 0.307536751 , -0.00538579235, -0.00283848355, -1.37178993 , 3.82        , 3           , 12          , 0.0608582   , 0
-0.0196203329, 0.0644432157, -9.769844   , -0.00137939979, 0.0009674169, -0.0008527276, 0.0886477   , 0.433935553 , 0.308885    , -0.005399562, -0.002828855, -1.37179852 , 3.83        , 3           , 50          , 0           , 0
-0.00881171 , 0.05945691  , -9.776126   , -0.00140717265, -0.001609236, -0.00117645343, 0.08831064  , 0.4342052   , 0.3083457   , -0.005413601, -0.00284501119, -1.3718102  , 3.84        , 3           , 11          , 0.0102457972, 0.0102457907
-0.0161246676, 0.04199238  , -9.781815   , -0.00597581966, -0.00243297732, -7.17323055E-05, 0.08831064  , 0.4342052   , 0.3083457   , -0.005473358, -0.00286934548, -1.37181079 , 3.85        , 3           , 12          , 0.0608582   , 0
-0.03600654 , 0.0246956833, -9.793037   , -0.00513847 , -0.00218066247, 0.00279922155, 0.08837805  , 0.434070379 , 0.3078064   , -0.005524824, -0.00289099733, -1.37178266 , 3.86        , 3           , 50          , 0           , 0
-0.04123196 , 0.05083235  , -9.786912   , 0.0008548587, -0.00165026961, 0.0008404018, 0.0886477   , 0.43386814  , 0.309087247 , -0.00551630044, -0.0029074538, -1.37177408 , 3.87        , 3           , 11          , 0.0102457972, 0.0102457907
0.00499183871, 0.0435198173, -9.773021   , 0.00687347865, 0.00173567678, 6.79734658E-05, 0.0881084   , 0.4341378   , 0.307739    , -0.00544756744, -0.00289009325, -1.37177348 , 3.88        , 3           , 12          , 0.0608582   , 0
-0.01314316 , 0.0212281179, -9.782479   , 0.00255104434, -0.00224588462, 0.00141466316, 0.08858029  , 0.4337333   , 0.3083457   , -0.00542209856, -0.00291247526, -1.37175918 , 3.89        , 3           , 50          , 0           , 0
-0.01346416 , 0.0396804549, -9.778654   , 0.0006292353, -0.000477435649, 0.00056915835, 0.08858029  , 0.4337333   , 0.3083457   , -0.00530463969, -0.00286358059, -1.37175417 , 3.9         , 3           , 11          , 0.0105254836, 0.0105254715
-0.0111733638, 0.03170908  , -9.794084   , 0.00464412849, 0.00150096114, -0.0008084594, 0.0885128751, 0.4342052   , 0.308480531 , -0.005258175, -0.002848614, -1.37176228 , 3.91        , 3           , 12          , 0.06192229  , 0
-0.021141028, 0.03926717  , -9.77602    , 0.00148888957, -0.0007598861, -0.000860695, 0.0882432237, 0.434070379 , 0.307873815 , -0.005243261, -0.002856258, -1.371771   , 3.92        , 3           , 50          , 0           , 0
-0.0313350148, 0.0422756746, -9.795954   , 0.000941182952, 0.00124938774, -0.000548743061, 0.08837805  , 0.43386814  , 0.30915466  , -0.00523383357, -0.00284379348, -1.37177646 , 3.93        , 3           , 11          , 0.0105254836, 0.0105254715
-0.0182181075, 0.05827846  , -9.784808   , 0.00261318451, -0.00276470114, -0.00231387629, 0.08817581  , 0.434272617 , 0.308076054 , -0.005207636, -0.00287156063, -1.37179947 , 3.94        , 3           , 12          , 0.06192229  , 0
-0.0126682036, 0.0323903859, -9.77240849 , 0.005777216 , 0.000918803969, -0.001096117, 0.0881084   , 0.4337333   , 0.308076054 , -0.00514983246, -0.00286242971, -1.37181044 , 3.95        , 3           , 50          , 0           , 0
-0.0125915371, 0.0285015944, -9.788261   , 0.0006311622, -0.000474876171, 0.000282994355, 0.0881084   , 0.4337333   , 0.308076054 , -0.00514352927, -0.00286716386, -1.37180769 , 3.96        , 3           , 11          , 0.0105254836, 0.0105254715
-0.01715164 , 0.0440321676, -9.761023   , -0.00166442245, -0.00301817385, -0.0011990947, 0.08831064  , 0.4341378   , 0.308615357 , -0.005160139, -0.002897407, -1.37181962 , 3.97        , 3           , 12          , 0.06192229  , 0
-0.0341934562, 0.04740038  , -9.767013   , -0.003355936, -0.00185196009, -0.00147884467, 0.08790616  , 0.4341378   , 0.3078064   , -0.005193656, -0.00291600288, -1.37183428 , 3.98        , 3           , 50          , 0           , 0
-0.0473334268, 0.0375941321, -9.767247   , -0.0076552704, -0.00382746733, -0.00010294051, 0.08858029  , 0.433800727 , 0.309087247 , -0.005270206, -0.002954282, -1.371835   , 3.99        , 3           , 11          , 0.0105254836, 0.0105254715
-0.0249810144, 0.05387175  , -9.788986   , -0.00162316265, -0.0001685087, -0.000871314667, 0.08797357  , 0.434272617 , 0.3082783   , -0.005259526, -0.002991801, -1.3718437  , 4           , 3           , 12          , 0.06299206  , 0
-0.018324   , 0.04075604  , -9.790884   , 0.000667195 , 0.00208565057, 0.00089276483, 0.08797357  , 0.434272617 , 0.3082783   , -0.00525288051, -0.00297089783, -1.371835   , 4.01        , 3           , 50          , 0           , 0
-0.0242265482, 0.03004817  , -9.796933   , -0.00162371679, 0.000112951413, -0.00029481313, 0.08817581  , 0.43386814  , 0.307941228 , -0.00526910927, -0.002969784, -1.37183785 , 4.02        , 3           , 11          , 0.0107669532, 0.0107669346
-0.02182665 , 0.05117759  , -9.792602   , 0.00237301551, 0.00150283286, 3.62060673E-05, 0.08837805  , 0.434070379 , 0.308952421 , -0.00524538 , -0.00295475358, -1.37183762 , 4.03        , 3           , 12          , 0.06299206  , 0
-0.0133365747, 0.04076615  , -9.795806   , -0.00131783891, 0.00296049612, 0.00146561966, 0.08790616  , 0.43434003  , 0.307671577 , -0.00525860162, -0.00292507233, -1.37182307 , 4.04        , 3           , 50          , 0           , 0
-0.0361893363, 0.0589393973, -9.789934   , -0.004223831, -0.00301853172, 0.000216185435, 0.08837805  , 0.433800727 , 0.3088176   , -0.00530084642, -0.00295524579, -1.37182081 , 4.05        , 3           , 11          , 0.0107669532, 0.0107669346
-0.0275380574, 0.0719218254, -9.787897   , -0.00280163018, -0.00303297979, 0.000224752454, 0.08844546  , 0.434272617 , 0.308480531 , -0.005328871, -0.00298556359, -1.37181842 , 4.06        , 3           , 12          , 0.06299206  , 0
-0.0377096534, 0.0386604033, -9.790182   , 0.00205750251, -0.00135750941, -0.0002934067, 0.08844546  , 0.434272617 , 0.308480531 , -0.005308286, -0.002999154, -1.37182128 , 4.07        , 3           , 50          , 0           , 0
-0.0175016634, 0.0366223045, -9.784599   , 0.00208334858, 0.00121658389, 0.000316483143, 0.08797357  , 0.4341378   , 0.308008641 , -0.00528746145, -0.002986971, -1.37181818 , 4.08        , 3           , 11          , 0.0107669532, 0.0107669346
-0.008435231, 0.0562240742, -9.769384   , 0.0008977276, -0.00193958532, 0.00198070472, 0.0882432237, 0.433935553 , 0.309356868 , -0.0052785445, -0.00300626247, -1.3717984  , 4.09        , 3           , 12          , 0.06299206  , 0
-0.0241948683, 0.0532436557, -9.773177   , 0.00547804125, 0.0008967414, 0.00204995251, 0.0881084   , 0.434272617 , 0.308008641 , -0.00523401471, -0.002951363, -1.37177789 , 4.1         , 3           , 50          , 0           , 0
-0.0501329862, 0.0281196143, -9.764671   , -0.00109982444, -0.002470628, 0.00138813409, 0.08837805  , 0.433800727 , 0.3083457   , -0.00524505461, -0.00297599635, -1.37176383 , 4.11        , 3           , 11          , 0.0110846851, 0.0110846739
-0.0318646245, 0.03726156  , -9.790596   , 0.00295247813, 0.00209721923, -0.001096578, 0.08837805  , 0.433800727 , 0.3083457   , -0.00521549676, -0.00295508187, -1.37177491 , 4.12        , 3           , 12          , 0.06406705  , 0
-0.015445373, 0.0300722811, -9.76433    , 0.000613416 , -0.0019148076, 0.00140676158, 0.08837805  , 0.4341378   , 0.3088176   , -0.005209405, -0.00297415676, -1.37176061 , 4.13        , 3           , 50          , 0           , 0
-0.0179455988, 0.0366359055, -9.785508   , 3.71169372E-05, -0.003047666, 0.000528148666, 0.0881084   , 0.434272617 , 0.307873815 , -0.00520905061, -0.00300460518, -1.37175512 , 4.14        , 3           , 11          , 0.0110846851, 0.0110846739
-0.0151204877, 0.0532716922, -9.78303051 , 0.00231979066, -0.00277908519, -2.62986941E-05, 0.08844546  , 0.433800727 , 0.309424281 , -0.00518585136, -0.00303239655, -1.37175524 , 4.15        , 3           , 12          , 0.06406705  , 0
-0.0219373759, 0.0416601859, -9.788196   , 0.00182350981, 0.0035314355, 6.209226E-05, 0.08783875  , 0.43434003  , 0.3083457   , -0.005167618, -0.00299708 , -1.37175477 , 4.16        , 3           , 50          , 0           , 0
-0.0226461142, 0.0301398467, -9.764847   , 0.00406547636, 0.0009239871, 0.00061056565, 0.08783875  , 0.43434003  , 0.3083457   , -0.00512698153, -0.00298780855, -1.37174881 , 4.17        , 3           , 11          , 0.0110846851, 0.0110846739
-0.0089501515, 0.0481165275, -9.769934   , -0.000232461432, -0.00274284044, -0.00118637539, 0.0881084   , 0.433800727 , 0.30821088  , -0.00512927072, -0.00301529747, -1.37176049 , 4.18        , 3           , 12          , 0.06406705  , 0
-0.0248327125, 0.07012371  , -9.790604   , 0.00289307837, -0.00306120561, -0.00117170159, 0.08817581  , 0.434070379 , 0.308952421 , -0.00510030566, -0.003045969, -1.37177193 , 4.19        , 3           , 50          , 0           , 0
-0.0207819548, 0.0302209463, -9.773863   , 0.00231170538, 0.0004024802, -0.00169704261, 0.08797357  , 0.4342052   , 0.3078064   , -0.005235366, -0.00300292321, -1.37178779 , 4.2         , 3           , 11          , 0.0113820368, 0.0113820154
-0.0175184533, 0.0312549919, -9.788728   , 0.0006083655, 0.0007063972, -0.00170314952, 0.08844546  , 0.43386814  , 0.308952421 , -0.00522923 , -0.00299594854, -1.37180483 , 4.21        , 3           , 12          , 0.06514681  , 0
-0.0280753113, 0.0682314038, -9.779815   , 0.00174557127, 0.000976298761, -0.00111979444, 0.0882432237, 0.434474856 , 0.308480531 , -0.00521174073, -0.00298624416, -1.37181616 , 4.22        , 3           , 50          , 0           , 0
-0.037839517, 0.0451384932, -9.763459   , 0.00346044963, 0.002663079 , 0.0006325114, 0.0882432237, 0.434474856 , 0.308480531 , -0.00517715467, -0.00295958039, -1.37180984 , 4.23        , 3           , 11          , 0.0113820368, 0.0113820154
-0.0162000377, 0.03297427  , -9.78191948 , 0.00315209036, 9.44345957E-05, -0.000265255861, 0.08790616  , 0.434070379 , 0.308008641 , -0.005145626, -0.00295864977, -1.37181246 , 4.24        , 3           , 12          , 0.06514681  , 0
-0.0278724544, 0.0371343456, -9.78198    , -0.0005112564, 0.003281811 , 4.45428959E-05, 0.08831064  , 0.434002966 , 0.309222043 , -0.00515074 , -0.00292583 , -1.37181222 , 4.25        , 3           , 50          , 0           , 0
-0.0250244047, 0.0497990921, -9.787679   , 0.000592950033, 0.000685921 , 0.0005861627, 0.0881084   , 0.4342052   , 0.307873815 , -0.005144827, -0.002918941, -1.37180626 , 4.26        , 3           , 11          , 0.0113820368, 0.0113820154
-0.011405075, 0.0462919734, -9.80792    , 0.00372920837, 0.001792773 , 0.00148019614, 0.0885128751, 0.4337333   , 0.308615357 , -0.00510757836, -0.00290093687, -1.37179172 , 4.27        , 3           , 12          , 0.06514681  , 0
-0.0331711546, 0.06271365  , -9.765923   , -0.00115714432, -0.00274081016, 0.0010981278, 0.0885128751, 0.4337333   , 0.308615357 , -0.00511918124, -0.00292828865, -1.37178063 , 4.28        , 3           , 50          , 0           , 0
-0.0284231883, 0.0374294966, -9.767075   , -0.003728088, -0.00498696 , -0.00123999314, 0.0881084   , 0.4342052   , 0.308547944 , -0.00515642669, -0.002978221, -1.37179279 , 4.29        , 3           , 11          , 0.0113820368, 0.0113820154
-0.006165214, 0.0468854532, -9.783474   , 0.00116541225, -0.00130239746, -0.00201515155, 0.08797357  , 0.4341378   , 0.308143467 , -0.005117406, -0.002989943, -1.37181294 , 4.3         , 3           , 12          , 0.06623092  , 0
-0.00696323253, 0.05728832  , -9.78562    , -0.00225832057, -0.00184599939, -0.00147173123, 0.08858029  , 0.434002966 , 0.3095591   , -0.00513994554, -0.003008479, -1.3718276  , 4.31        , 3           , 50          , 0           , 0
-0.0307529122, 0.04647991  , -9.809902   , 0.00261153141, 0.00125468825, -0.00111053081, 0.08817581  , 0.434272617 , 0.308076054 , -0.005113797, -0.002995989, -1.37183881 , 4.32        , 3           , 11          , 0.0113377338, 0.0113377338
-0.02187347 , 0.03997753  , -9.799506   , 0.004603695 , 0.00264688046, 0.00121164264, 0.0885128751, 0.433800727 , 0.308413118 , -0.005067796, -0.00296945916, -1.37182689 , 4.33        , 3           , 12          , 0.06623092  , 0
-0.0011762958, 0.0549102463, -9.778818   , 0.000350584625, 0.00270814146, -0.0008172062, 0.0885128751, 0.433800727 , 0.308413118 , -0.005064266, -0.00294241961, -1.37183523 , 4.34        , 3           , 50          , 0           , 0
-0.0127967261, 0.0555888861, -9.790661   , -0.00363157573, 0.00274859625, -0.000841193832, 0.0882432237, 0.4342052   , 0.308885    , -0.00510055572, -0.00291497633, -1.3718437  , 4.35        , 3           , 11          , 0.0113377338, 0.0113377338
-0.02563959 , 0.03753178  , -9.778792   , 0.00173099234, -0.00159475591, -0.00201589824, 0.08790616  , 0.434407443 , 0.307873815 , -0.005083188, -0.00293102674, -1.37186384 , 4.36        , 3           , 12          , 0.06623092  , 0
-0.0310870819, 0.0441875681, -9.764311   , 0.0028404023, -0.0019261674, 0.00170691381, 0.08858029  , 0.433935553 , 0.309222043 , -0.00505483476, -0.00295020174, -1.37184668 , 4.37        , 3           , 50          , 0           , 0
-0.0205161031, 0.05867154  , -9.777597   , -0.00171282946, -0.00272943266, 0.000522322836, 0.08831064  , 0.434272617 , 0.308547944 , -0.005071979, -0.00297746877, -1.37184119 , 4.38        , 3           , 11          , 0.0113377338, 0.0113377338
-0.0193078462, 0.0397459343, -9.780064   , -0.00509171328, -0.00152028585, -0.00262934784, 0.08831064  , 0.434272617 , 0.308547944 , -0.005122818, -0.00299280626, -1.37186742 , 4.39        , 3           , 12          , 0.06623092  , 0
-0.02743253 , 0.0411208346, -9.775605   , -0.000515975931, 0.000154837559, -0.00143225 , 0.0882432237, 0.434002966 , 0.3082783   , -0.00508987671, -0.00295471773, -1.371882   , 4.4         , 3           , 50          , 0           , 0
-0.0292465687, 0.024646556 , -9.79388    , 0.00283568888, -0.00391242234, 0.0008191932, 0.08831064  , 0.4342052   , 0.308952421 , -0.005061545, -0.00299380044, -1.37187362 , 4.41        , 3           , 11          , 0.0116176857, 0.0116176857
-0.0251876749, 0.07294436  , -9.800963   , 0.001459423 , -0.0007328058, -0.000574285048, 0.08783875  , 0.43434003  , 0.3078064   , -0.00504693342, -0.00300115743, -1.37187934 , 4.42        , 3           , 12          , 0.06731899  , 0
-0.0407105  , 0.0544985756, -9.792737   , -0.00106394885, 0.00131717138, -0.002563639, 0.08844546  , 0.4337333   , 0.3088176   , -0.00505749555, -0.00298811542, -1.37190509 , 4.43        , 3           , 50          , 0           , 0
-0.0111486074, 0.05444881  , -9.769881   , 2.01695948E-05, -0.00186979328, -2.72181278E-05, 0.0881084   , 0.43434003  , 0.308615357 , -0.00505729346, -0.00300681451, -1.37190521 , 4.44        , 3           , 11          , 0.0116176857, 0.0116176857
-0.0193806086, 0.0599139035, -9.810095   , -0.00165209721, 0.00129735563, 0.00029457442, 0.0881084   , 0.43434003  , 0.308615357 , -0.0050738235, -0.00299382582, -1.37190223 , 4.45        , 3           , 12          , 0.06731899  , 0
-0.0144576915, 0.0611606054, -9.804164   , 0.00316302828, -0.000189782877, 0.0008751625, 0.08797357  , 0.4341378   , 0.308076054 , -0.00504221953, -0.002995679, -1.37189341 , 4.46        , 3           , 50          , 0           , 0
-0.029558707, 0.04266735  , -9.791868   , 0.000860001 , -0.00189637893, 0.00198107  , 0.08844546  , 0.4341378   , 0.309356868 , -0.005033679, -0.003014543, -1.3718735  , 4.47        , 3           , 11          , 0.0116176857, 0.0116176857
-0.03556437 , 0.0529712029, -9.822519   , 0.00287198857, -0.000760051538, 0.000865102 , 0.08797357  , 0.434407443 , 0.308008641 , -0.00500498526, -0.00302209961, -1.3718648  , 4.48        , 3           , 12          , 0.06731899  , 0
-0.00922241248, 0.0399355069, -9.805715   , -0.00368415075, -0.00240538642, -5.78393228E-05, 0.0886477   , 0.433800727 , 0.308547944 , -0.005041825, -0.003046156, -1.37186527 , 4.49        , 3           , 50          , 0           , 0
0.000284364447, 0.0430482365, -9.809206   , -0.0004878983, 0.0005000893, -0.000569459342, 0.0886477   , 0.433800727 , 0.308547944 , -0.00495148962, -0.00283435243, -1.371872   , 4.5         , 3           , 11          , 0.0117977979, 0.0117977941
-0.0230356958, 0.04873554  , -9.81613    , 0.005227301 , 0.00273493025, -0.0005018032, 0.0882432237, 0.4342052   , 0.30868277  , -0.00489920238, -0.00280702813, -1.37187707 , 4.51        , 3           , 12          , 0.0684106648, 0
-0.0214384738, 0.0541945174, -9.779916   , 0.00320871384, 0.00102544448, 0.0006058179, 0.0881084   , 0.434407443 , 0.308008641 , -0.00486713229, -0.002796744, -1.371871   , 4.52        , 3           , 50          , 0           , 0
-0.00289180875, 0.06440462  , -9.779628   , 0.000911755837, -0.001801873, -0.00116660865, 0.08858029  , 0.434002966 , 0.309356868 , -0.004857982, -0.00281481934, -1.37188256 , 4.53        , 3           , 11          , 0.0117977979, 0.0117977941
-0.0187288076, 0.04171983  , -9.796296   , -0.00253288564, -0.00350202969, 0.000504773459, 0.0880409852, 0.43434003  , 0.3083457   , -0.004883326, -0.00284981518, -1.37187731 , 4.54        , 3           , 12          , 0.0684106648, 0
-0.01310296 , 0.0137223992, -9.797472   , 0.00322906743, 0.0024634595, 5.43575734E-05, 0.08837805  , 0.4337333   , 0.308143467 , -0.00485103671, -0.00282517727, -1.37187684 , 4.55        , 3           , 50          , 0           , 0
-0.0210079122, 0.0559410043, -9.774924   , 0.00269263331, 0.00561649073, 0.000669167668, 0.08837805  , 0.4337333   , 0.308143467 , -0.004824128, -0.0027689808, -1.3718704  , 4.56        , 3           , 11          , 0.0117977979, 0.0117977941
-0.0288602356, 0.0697516352, -9.79471    , 0.000913948053, -0.00095237355, -9.431991E-06, 0.08844546  , 0.434272617 , 0.308885    , -0.004814988, -0.00277850451, -1.37187052 , 4.57        , 3           , 12          , 0.0684106648, 0
-0.0180983189, 0.05133978  , -9.810634   , 0.00179036742, 0.00104501168, 2.4922927E-05, 0.0880409852, 0.434272617 , 0.3078064   , -0.00479708565, -0.00276805367, -1.37187028 , 4.58        , 3           , 50          , 0           , 0
-0.0278982278, 0.0344240665, -9.781559   , 0.000649861759, 0.0004885308, -0.000562605739, 0.08858029  , 0.434070379 , 0.30915466  , -0.004790571, -0.00276319566, -1.371876   , 4.59        , 3           , 11          , 0.0117977979, 0.0117977941
-0.0282426085, 0.0403768644, -9.789623   , 0.0006791094, 0.00219925912, 0.000320831983, 0.0881084   , 0.43434003  , 0.308413118 , -0.004734846, -0.00274461065, -1.37187326 , 4.6         , 3           , 12          , 0.0695056   , 0
-0.0123835523, 0.05152197  , -9.790253   , 0.00121361634, -0.0009563313, -7.814138E-06, 0.0881084   , 0.43434003  , 0.308413118 , -0.00472271 , -0.00275417417, -1.37187326 , 4.61        , 3           , 50          , 0           , 0
-0.0306647066, 0.0330126137, -9.773922   , 0.0029480292, 0.00160298357, 0.000326192065, 0.08817581  , 0.433935553 , 0.308143467 , -0.00469323853, -0.002738129, -1.37187    , 4.62        , 3           , 11          , 0.0115758888, 0.0115758907
-0.04050406 , 0.0398769677, -9.775288   , -0.00137467007, -0.00322551746, 0.000229541081, 0.08837805  , 0.434070379 , 0.309222043 , -0.004706992, -0.00277037336, -1.37186766 , 4.63        , 3           , 12          , 0.0695056   , 0
-0.00519750267, 0.0545478538, -9.783829   , -0.00106657692, -0.00150381331, -0.000316032383, 0.0880409852, 0.43434003  , 0.3078064   , -0.004717649, -0.002785426, -1.37187064 , 4.64        , 3           , 50          , 0           , 0
-0.0302557312, 0.0554505475, -9.805729   , -0.0005026581, -0.00095179124, 0.00141272554, 0.08831064  , 0.43386814  , 0.308750182 , -0.00472271536, -0.00279487716, -1.37185645 , 4.65        , 3           , 11          , 0.0115758888, 0.0115758907
-0.001532523, 0.0452652164, -9.804228   , 0.00119848957, -0.00210520765, 0.000261655747, 0.08831064  , 0.43386814  , 0.308750182 , -0.004710738, -0.002815917, -1.37185383 , 4.66        , 3           , 12          , 0.0695056   , 0
0.0005472619, 0.04898924  , -9.774806   , 0.003225869 , 0.00102693576, 0.00031955837, 0.0882432237, 0.434407443 , 0.308547944 , -0.00467848871, -0.00280563277, -1.37185073 , 4.67        , 3           , 50          , 0           , 0
-0.0190998632, 0.06276632  , -9.782054   , -0.00215702853, 0.001956933 , -0.00141745945, 0.08797357  , 0.4341378   , 0.307873815 , -0.00470001856, -0.00278612971, -1.37186491 , 4.68        , 3           , 11          , 0.0115758888, 0.0115758907
-0.0325686559, 0.06338807  , -9.78714    , 0.003793641 , 0.00158407679, 0.00147598831, 0.08844546  , 0.434002966 , 0.309289455 , -0.004662122, -0.0027702197, -1.37185013 , 4.69        , 3           , 12          , 0.0695056   , 0
-0.0378480479, 0.0388935655, -9.769855   , -0.00279899547, -0.0014884863, -0.00118466141, 0.0881084   , 0.434407443 , 0.307941228 , -0.00479457527, -0.00281726243, -1.371861   , 4.7         , 3           , 50          , 0           , 0
-0.02488542 , 0.03195823  , -9.764395   , -0.00195256493, -0.0009419134, 0.00083197403, 0.08844546  , 0.433800727 , 0.308547944 , -0.004814124, -0.00282664062, -1.37185264 , 4.71        , 3           , 11          , 0.0117156077, 0.0117156105
-0.0432403237, 0.02827371  , -9.784481   , 4.5669105E-05, -0.0006704426, 0.000275813276, 0.08844546  , 0.433800727 , 0.308547944 , -0.004813675, -0.00283333147, -1.37184978 , 4.72        , 3           , 12          , 0.07060349  , 0
-0.0475078225, 0.043362163 , -9.800156   , 0.00119580957, -0.000101164187, -0.0005674781, 0.0882432237, 0.434272617 , 0.30868277  , -0.004801701, -0.00283437036, -1.3718555  , 4.73        , 3           , 50          , 0           , 0
-0.0257737674, 0.07274021  , -9.7815485  , 0.00119910948, 0.000185414974, -0.0005633046, 0.0881084   , 0.434407443 , 0.308008641 , -0.004789693, -0.00283254334, -1.37186122 , 4.74        , 3           , 11          , 0.0117156077, 0.0117156105
-0.008235816, 0.0614259765, -9.791906   , 0.0039898674, -0.00301888748, 0.00198339671, 0.0882432237, 0.434002966 , 0.309356868 , -0.0047498513, -0.00286263716, -1.37184131 , 4.75        , 3           , 12          , 0.07060349  , 0
-0.0107129011, 0.0668863654, -9.752569   , -0.0002566438, -0.00238446821, -3.710534E-05, 0.08831064  , 0.4342052   , 0.308076054 , -0.004752417, -0.00288648321, -1.37184155 , 4.76        , 3           , 50          , 0           , 0
-0.0227892511, 0.04263274  , -9.79406452 , 0.00208212924, 0.00275595859, -0.0005206026, 0.08831064  , 0.4342052   , 0.308076054 , -0.00473157968, -0.00285894866, -1.3718468  , 4.77        , 3           , 11          , 0.0117156077, 0.0117156105
-0.00487009436, 0.0592522733, -9.76028252 , 0.00319486251, 0.0007357864, -0.000256799744, 0.0882432237, 0.43386814  , 0.3082783   , -0.00469962368, -0.00285160262, -1.37184954 , 4.78        , 3           , 12          , 0.07060349  , 0
-0.0151871005, 0.04604753  , -9.78221    , -0.004226158, -0.0009162369, 0.000532102829, 0.08837805  , 0.434002966 , 0.3088176   , -0.00474190153, -0.00286074076, -1.37184417 , 4.79        , 3           , 50          , 0           , 0
-0.0167392325, 0.0301711448, -9.772471   , -0.0016786902, -0.00320128142, -0.00148896337, 0.08817581  , 0.434407443 , 0.307671577 , -0.00475723 , -0.00283937715, -1.37185907 , 4.8         , 3           , 11          , 0.01172768  , 0.0117276832
-0.029097382, 0.04846714  , -9.786377   , -0.000265571347, -0.00350998715, -0.000626078, 0.08844546  , 0.433800727 , 0.309019834 , -0.00475986768, -0.0028745064, -1.371865   , 4.81        , 3           , 12          , 0.07170402  , 0
-0.0241822731, 0.0416894555, -9.789119   , 0.00287728757, -0.00182997645, 0.00027630257, 0.08831064  , 0.4341378   , 0.308547944 , -0.00473110331, -0.00289279222, -1.37186217 , 4.82        , 3           , 50          , 0           , 0
-0.0134109482, 0.0370911546, -9.789526   , -0.002228613, -6.61670347E-05, 0.00112899463, 0.08831064  , 0.4341378   , 0.308547944 , -0.00475342246, -0.00289340084, -1.37185109 , 4.83        , 3           , 11          , 0.01172768  , 0.0117276832
-0.0151163787, 0.0470461175, -9.791233   , 4.93875741E-05, -0.000368184585, 0.0002800363, 0.08817581  , 0.433935553 , 0.308008641 , -0.00475293631, -0.00289706956, -1.37184823 , 4.84        , 3           , 12          , 0.07170402  , 0
-0.0337145925, 0.0314154774, -9.790681   , 0.00068262883, 0.00422666036, -0.00136674428, 0.08837805  , 0.434070379 , 0.309087247 , -0.00474607 , -0.002854868, -1.37186217 , 4.85        , 3           , 50          , 0           , 0
-0.0317819826, 0.04005894  , -9.799146   , 0.0026371202, 0.00218246179, 0.0006191827, 0.0881084   , 0.434474856 , 0.307739    , -0.004719716, -0.00283301435, -1.371856   , 4.86        , 3           , 11          , 0.01172768  , 0.0117276832
-0.008163916, 0.05174315  , -9.814152   , 0.000951942 , 0.0030748935, -0.00109556131, 0.0886477   , 0.433800727 , 0.308413118 , -0.00471016532, -0.0028023175, -1.37186718 , 4.87        , 3           , 12          , 0.07170402  , 0
-0.010831859, 0.0328739956, -9.776903   , 0.00547383539, 0.000167987542, -0.00168221013, 0.0886477   , 0.433800727 , 0.308413118 , -0.00465538 , -0.002800716, -1.37188387 , 4.88        , 3           , 50          , 0           , 0
-0.0201310813, 0.0363110527, -9.795467   , 0.00090848835, -0.000369174872, -0.000573315541, 0.0882432237, 0.434272617 , 0.308547944 , -0.004646279, -0.00280443463, -1.37188959 , 4.89        , 3           , 11          , 0.01172768  , 0.0117276832
-0.00266600586, 0.0293365158, -9.789968   , 0.001492213 , -0.00235484587, 0.000545382849, 0.08797357  , 0.4342052   , 0.307739    , -0.00447129831, -0.00270027248, -1.37188578 , 4.9         , 3           , 12          , 0.07280692  , 0
0.0143318037, 0.0214495715, -9.783127   , -0.0004809937, -0.0006177033, 0.0008445944, 0.0885128751, 0.433935553 , 0.309356868 , -0.004476131, -0.00270641129, -1.37187731 , 4.91        , 3           , 50          , 0           , 0
-0.0116397422, 0.0383652858, -9.783622   , -0.00162205333, -0.0008927239, 0.0008335672, 0.08797357  , 0.43434003  , 0.308008641 , -0.004492374, -0.00271530123, -1.37186885 , 4.92        , 3           , 11          , 0.011832946 , 0.01183295
-0.0115592666, 0.0465009436, -9.785334   , 0.0009315951, -0.00262028887, -0.00117920153, 0.08831064  , 0.4335985   , 0.308076054 , -0.00448302645, -0.00274155661, -1.37188065 , 4.93        , 3           , 12          , 0.07280692  , 0
-0.0137513466, 0.0390438549, -9.803056   , -0.00392231159, -0.0040066205, -0.0009430329, 0.08831064  , 0.4335985   , 0.308076054 , -0.004522224, -0.002781665, -1.37188983 , 4.94        , 3           , 50          , 0           , 0
-0.007578455, 0.03344746  , -9.790869   , -0.0007937604, -0.00291000633, 0.00109565665, 0.0880409852, 0.4342052   , 0.308952421 , -0.00453019235, -0.0028107157, -1.37187874 , 4.95        , 3           , 11          , 0.011832946 , 0.01183295
0.001516642 , 0.048641786 , -9.785191   , 0.0012196   , -0.00148965942, 0.000270026067, 0.08797357  , 0.4341378   , 0.307671577 , -0.0045180046, -0.00282559916, -1.371876   , 4.96        , 3           , 12          , 0.07280692  , 0
-0.007487895, 0.0420437045, -9.793479   , -0.00071701844, 0.002271454 , -0.00140469568, 0.0886477   , 0.433800727 , 0.30915466  , -0.004525135, -0.00280294847, -1.37189019 , 4.97        , 3           , 50          , 0           , 0
-0.0227254573, 0.0431755781, -9.80264    , 0.00181350659, 0.0005131749, 1.65035817E-05, 0.08837805  , 0.4342052   , 0.308480531 , -0.004507   , -0.00279781641, -1.37189    , 4.98        , 3           , 11          , 0.011832946 , 0.01183295
-0.0125549166, 0.0414665639, -9.777722   , 0.004104973 , 0.002204414 , 0.00062758  , 0.08837805  , 0.4342052   , 0.308480531 , -0.004465967, -0.0027757443, -1.37188387 , 4.99        , 3           , 12          , 0.07280692  , 0
-0.0215245467, 0.0442697629, -9.779579   , 0.000390377041, -2.83974514E-05, -0.0005727195, 0.0881084   , 0.433935553 , 0.308076054 , -0.00445551239, -0.00273273815, -1.37188971 , 5           , 3           , 50          , 0           , 0
-0.0303338431, 0.0628982037, -9.785317   , 0.001216189 , -0.00176677923, 0.0005520355, 0.08837805  , 0.433935553 , 0.309222043 , -0.004443366, -0.00275038136, -1.37188411 , 5.01        , 3           , 11          , 0.0110946512, 0.0110946558
-0.0429003574, 0.05327676  , -9.80316    , 0.006664556 , 0.00134092662, -0.0005141571, 0.08783875  , 0.43434003  , 0.307739    , -0.004376706, -0.00273699476, -1.37188935 , 5.02        , 3           , 12          , 0.07391191  , 0
-0.0246994048, 0.0273466576, -9.796968   , 0.00012436384, 0.00140994752, -0.0008397292, 0.08837805  , 0.4336659   , 0.308547944 , -0.0043754396, -0.00272293272, -1.37189782 , 5.03        , 3           , 50          , 0           , 0
-0.0160662  , 0.0478686728, -9.783101   , 0.00181120366, -0.000326865149, -0.000854490034, 0.08797357  , 0.434474856 , 0.308547944 , -0.004357304, -0.00272623822, -1.37190628 , 5.04        , 3           , 11          , 0.0110946512, 0.0110946558
