Acc X       , Acc Y       , Acc Z       , Gyro X      , Gyro Y      , Gyro Z      , Magn X      , Magn Y      , Magn Z      , Euler X     , Euler Y     , Euler Z     , Time        , Status      , LowRate X   , LowRate Y   , LowRate Z    
0.145999745 , -0.0152528621, -9.788664   , 0.00548842642, 0.003593173 , 0.0002855756, 0.106579483 , 0.162194952 , 0.7117433   , 0.002590322 , 0.0146863116, -0.940556049, 0           , 3           , 11          , 0.0346410163, 0.0346410163
0.162254542 , -0.0255615916, -9.807604   , -0.001931486, 0.0013782297, -7.852494E-05, 0.106579483 , 0.162532017 , 0.711541057 , 0.00257099629, 0.0147000961, -0.940556765, 0.01        , 3           , 12          , 0.0346410163, 0
0.14675957  , -0.0328363478, -9.7897625  , -0.00478771329, 0.000544828945, 0.000177984519, 0.106579483 , 0.162532017 , 0.711541057 , 0.002523146 , 0.0147055406, -0.940554857, 0.02        , 3           , 50          , 0           , 0
0.127016217 , -0.0156455785, -9.778905   , -0.00363179133, 0.001121786 , -0.0015237988, 0.106646895 , 0.162532017 , 0.7117433   , 0.00248660473, 0.0147167947, -0.9405701  , 0.03        , 3           , 11          , 0.0346410163, 0.0346410163
0.1747531   , -0.0218309537, -9.78712    , -0.00134364876, 0.004501786 , 0.00254628668, 0.10651207  , 0.1624646   , 0.7117433   , 0.002473545 , 0.0147617478, -0.940544367, 0.04        , 3           , 12          , 0.0346410163, 0
0.170209974 , -0.0169576015, -9.775361   , 0.00463566  , 0.003320382 , -0.000296066137, 0.10651207  , 0.162329778 , 0.7117433   , 0.002519858 , 0.0147949625, -0.9405472  , 0.05        , 3           , 50          , 0           , 0
0.142412141 , -0.0116384495, -9.786396   , -0.00335917762, 0.000256599276, -0.00124844187, 0.106781721 , 0.1624646   , 0.7118107   , 0.00248608179, 0.0147975571, -0.9405596  , 0.06        , 3           , 11          , 0.0346410163, 0.0346410163
0.1404326   , -0.029256478, -9.782101   , 0.00120408635, 0.00234307186, 0.000670339738, 0.106714308 , 0.162397191 , 0.711541057 , 0.00249822228, 0.0148209725, -0.94055295 , 0.07        , 3           , 12          , 0.0346410163, 0
0.15492259  , -0.0176825728, -9.779575   , -0.00122643181, 0.000516387168, -0.0006590901, 0.106714308 , 0.162397191 , 0.711541057 , 0.00248586  , 0.0148261515, -0.9405596  , 0.08        , 3           , 50          , 0           , 0
0.150546849 , -0.0241262987, -9.805888   , -0.000364994543, 0.00080069626, -0.0013651863, 0.106714308 , 0.162262365 , 0.711541057 , 0.002482008 , 0.0148341907, -0.9405732  , 0.09        , 3           , 11          , 0.0346410163, 0.0346410163
0.132683426 , -0.01840378 , -9.82044    , 0.003060636 , 0.0027616   , 0.000258479849, 0.10651207  , 0.162329778 , 0.7117433   , 0.00250345282, 0.0150819141, -0.9405706  , 0.1         , 3           , 12          , 0.0346410163, 0
0.149372846 , -0.0258728024, -9.768428   , 0.003318532 , 0.00103027711, 0.00123672606, 0.106714308 , 0.162262365 , 0.7118107   , 0.002536824 , 0.0150921857, -0.9405582  , 0.11        , 3           , 50          , 0           , 0
0.151022732 , -0.037248224, -9.760414   , 0.000435496215, -0.00237849681, 0.001026428 , 0.106714308 , 0.162329778 , 0.7118781   , 0.00254133367, 0.0150683746, -0.940547943, 0.12        , 3           , 11          , 0.0346410163, 0.0346410163
0.137932763 , -0.0177957937, -9.797348   , -0.00111846975, -0.00178432639, 0.00045302324, 0.106714308 , 0.162329778 , 0.7118781   , 0.00253021787, 0.0150505193, -0.940543652, 0.13        , 3           , 12          , 0.0346410163, 0
0.150362343 , -0.0368726328, -9.794745   , 0.00175522  , 0.000483249867, 7.429941E-05, 0.106781721 , 0.162397191 , 0.711541057 , 0.00254778145, 0.01505535  , -0.9405427  , 0.14        , 3           , 50          , 0           , 0
0.163639873 , -0.0413484052, -9.766669   , 0.00147448957, 0.00105545844, 0.0005101791, 0.106579483 , 0.1624646   , 0.7118107   , 0.00256260321, 0.0150658945, -0.9405377  , 0.15        , 3           , 11          , 0.0346410163, 0.0346410163
0.128081948 , -0.0216322187, -9.810131   , -0.00153276126, -0.000211485269, 0.00133189955, 0.106646895 , 0.162397191 , 0.7116759   , 0.00254747621, 0.015063744 , -0.94052434 , 0.16        , 3           , 12          , 0.0346410163, 0
0.139165446 , -0.0326777771, -9.798412   , 0.000452272623, -0.00108633109, 0.0007590447, 0.106714308 , 0.162329778 , 0.7116759   , 0.00255211256, 0.0150528587, -0.9405167  , 0.17        , 3           , 50          , 0           , 0
0.15584071  , -0.0163280237, -9.780456   , -0.000810376368, -6.262208E-05, -9.255023E-05, 0.106714308 , 0.162329778 , 0.711541057 , 0.00254399376, 0.0150522348, -0.940517664, 0.18        , 3           , 11          , 0.0346410163, 0.0346410163
0.152071863 , -0.0276806019, -9.770232   , -0.00236448669, 0.00109574827, 0.000343966269, 0.106714308 , 0.162329778 , 0.711541057 , 0.0025204015, 0.015063188 , -0.9405143  , 0.19        , 3           , 12          , 0.0346410163, 0
0.134139046 , -0.0242900271, -9.777584   , 0.0003438963, 0.001641344 , 0.0006547715, 0.106781721 , 0.162397191 , 0.711608469 , 0.00255812868, 0.015134275 , -0.9405072  , 0.2         , 3           , 50          , 0           , 0
0.147438973 , -0.00355559587, -9.78716    , 0.00135676691, 0.00264193583, -0.000183116121, 0.106916539 , 0.162329778 , 0.7116759   , 0.00257166941, 0.0151606994, -0.940508842, 0.21        , 3           , 11          , 0.0262822416, 0.026282249
0.148470849 , 0.009546705 , -9.790161   , 6.496021E-05, 0.00179264229, 8.2817045E-05, 0.106579483 , 0.162397191 , 0.7116759   , 0.00257233228, 0.0151786227, -0.9405081  , 0.22        , 3           , 12          , 0.0346698426, 0
0.124635994 , -0.0385253951, -9.788225   , -0.00195060461, 0.000510465936, 0.0014828624, 0.106714308 , 0.162262365 , 0.7116759   , 0.0025530525, 0.0151836891, -0.9404931  , 0.23        , 3           , 50          , 0           , 0
0.116011977 , -0.0407828651, -9.781103   , -0.00166520174, 0.000508856 , 0.00134149368, 0.106714308 , 0.162262365 , 0.7116759   , 0.00253660441, 0.0151887415, -0.940479755, 0.24        , 3           , 11          , 0.0262822416, 0.026282249
0.130150586 , -0.009912856, -9.769324   , -0.000942684, 0.00108118914, 0.000638714235, 0.106714308 , 0.162329778 , 0.7116759   , 0.00252727373, 0.01519954  , -0.9404733  , 0.25        , 3           , 12          , 0.0346698426, 0
0.148566678 , -0.0168178082, -9.771043   , 0.00107178476, 0.00193861581, -0.0013399194, 0.106579483 , 0.162397191 , 0.7116759   , 0.002537788 , 0.0152189592, -0.94048667 , 0.26        , 3           , 50          , 0           , 0
0.149773061 , -0.0486551672, -9.789015   , 0.00020966091, 0.001512297 , -0.000778991845, 0.106646895 , 0.162329778 , 0.7116759   , 0.00253976719, 0.0152341025, -0.940494537, 0.27        , 3           , 11          , 0.0262822416, 0.026282249
0.140338391 , -0.0405291244, -9.782231   , -0.00179834059, 0.0008045586, 0.000486318517, 0.106714308 , 0.162329778 , 0.711608469 , 0.002521857 , 0.0152421342, -0.940489531, 0.28        , 3           , 12          , 0.0346698426, 0
0.144240588 , -0.005380163, -9.782694   , 0.000760102 , 0.00105873228, 0.00122132269, 0.106714308 , 0.162329778 , 0.711608469 , 0.00252964534, 0.0152526908, -0.9404774  , 0.29        , 3           , 50          , 0           , 0
0.154505268 , -0.0189636219, -9.785917   , 0.00117063418, 0.00148296857, 0.000657465658, 0.106849134 , 0.162262365 , 0.711541057 , 0.00221161288, 0.0151826544, -0.9404757  , 0.3         , 3           , 11          , 0.024877606 , 0.0248776171
0.139688909 , -0.01832529 , -9.791467   , -0.0008472551, -0.001072177, 0.000178663875, 0.106579483 , 0.162397191 , 0.7117433   , 0.00220316718, 0.0151719293, -0.940474033, 0.31        , 3           , 12          , 0.0347559527, 0
0.144098118 , -0.0242940113, -9.78517151 , 0.00041167278, -0.001677535, 0.00232425751, 0.106646895 , 0.162329778 , 0.7118107   , 0.00220763544, 0.0151551021, -0.9404509  , 0.32        , 3           , 50          , 0           , 0
0.168752238 , -0.03758589 , -9.785099   , 0.00128039636, -0.0006780579, 0.00177167659, 0.106849134 , 0.1624646   , 0.7117433   , 0.002220707 , 0.015148283 , -0.940433   , 0.33        , 3           , 11          , 0.024877606 , 0.0248776171
0.144992471 , -0.040336065, -9.803867   , 0.0005596735, -0.00167130132, 0.00146662176, 0.106714308 , 0.162262365 , 0.711541057 , 0.00222652568, 0.0151315341, -0.9404185  , 0.34        , 3           , 12          , 0.0347559527, 0
0.150304154 , -0.035626363, -9.784794   , 0.00172370055, 0.000186303441, 0.000785193231, 0.106714308 , 0.162262365 , 0.711541057 , 0.002243881 , 0.015133379 , -0.9404104  , 0.35        , 3           , 50          , 0           , 0
0.142032117 , -0.0133075081, -9.798614   , 0.00246079057, 0.002188973 , 0.000389445457, 0.106714308 , 0.162532017 , 0.711406231 , 0.00226854882, 0.0151552623, -0.940406561, 0.36        , 3           , 11          , 0.024877606 , 0.0248776171
0.169398427 , -0.0141427116, -9.784822   , 0.00116718956, 0.00176058954, 0.001663213 , 0.106646895 , 0.162329778 , 0.7117433   , 0.002280473 , 0.01517283  , -0.9403899  , 0.37        , 3           , 12          , 0.0347559527, 0
0.165580288 , -0.0246805586, -9.766459   , 3.15010548E-05, 0.00121050747, 0.000360274338, 0.106579483 , 0.1624646   , 0.7116759   , 0.002280842 , 0.0151849268, -0.9403863  , 0.38        , 3           , 50          , 0           , 0
0.1508275   , -0.0190483965, -9.775112   , -0.0003756241, 0.002087377 , -0.00106059527, 0.106714308 , 0.162262365 , 0.711608469 , 0.00227692653, 0.0152058238, -0.9403968  , 0.39        , 3           , 11          , 0.024877606 , 0.0248776171
0.144108921 , -0.02561285 , -9.788349   , -0.0009765517, -0.000199512768, -0.000811308331, 0.106714308 , 0.162262365 , 0.711608469 , 0.00223345333, 0.0152266268, -0.940405369, 0.4         , 3           , 12          , 0.0348984934, 0
0.152056783 , -0.0294842087, -9.770253   , -0.0021273673, -0.00189847115, -0.00184477691, 0.106646895 , 0.162262365 , 0.711541057 , 0.00221189833, 0.0152076827, -0.940423965, 0.41        , 3           , 50          , 0           , 0
0.14937672  , -0.0276473947, -9.77116    , 0.0007372419, 7.484764E-05, -0.00136918225, 0.106781721 , 0.162397191 , 0.7116759   , 0.0022190637, 0.0152084623, -0.940437555, 0.42        , 3           , 11          , 0.0228466783, 0.0228466671
0.160750821 , -0.02444874 , -9.784117   , 0.002572613 , 3.81484424E-05, 0.0006451027, 0.106781721 , 0.1624646   , 0.7118107   , 0.00224488834, 0.0152088292, -0.9404311  , 0.43        , 3           , 12          , 0.0348984934, 0
0.153544918 , -0.0350722671, -9.796953   , 0.000591987453, 0.0006366531, 6.912792E-05, 0.10651207  , 0.162194952 , 0.7116759   , 0.002250818 , 0.015215192 , -0.9404304  , 0.44        , 3           , 50          , 0           , 0
0.136888191 , -0.0424909964, -9.806677   , 0.000879318046, 0.0006376027, -0.000358404679, 0.106714308 , 0.162262365 , 0.711406231 , 0.0022595576, 0.0152215762, -0.940433741, 0.45        , 3           , 11          , 0.0228466783, 0.0228466671
0.14283368  , -0.0188084748, -9.790992   , 0.00156001968, -0.00110317359, 0.00119473983, 0.106714308 , 0.162262365 , 0.711406231 , 0.00227533886, 0.0152105168, -0.940422058, 0.46        , 3           , 12          , 0.0348984934, 0
0.140657842 , -0.009770764, -9.790908   , 0.00171048963, -0.000388170534, 0.00120603025, 0.106849134 , 0.162532017 , 0.711608469 , 0.002292626 , 0.015206608 , -0.9404099  , 0.47        , 3           , 50          , 0           , 0
0.132466048 , -0.01829159 , -9.788823   , 0.002581971 , 0.00019167611, -0.000497466535, 0.106714308 , 0.162397191 , 0.7117433   , 0.00231836946, 0.0152085368, -0.9404149  , 0.48        , 3           , 11          , 0.0228466783, 0.0228466671
0.1131509   , -0.0149376635, -9.791672   , 0.00102264574, 7.323777E-05, -0.001510551, 0.106916539 , 0.162329778 , 0.7117433   , 0.002328367 , 0.0152093042, -0.9404299  , 0.49        , 3           , 12          , 0.0348984934, 0
0.1447823   , -0.0145918084, -9.807186   , 0.00101048022, 0.00165028113, -0.00134255749, 0.106579483 , 0.162262365 , 0.7117433   , 0.00212774659, 0.01426764  , -0.9404464  , 0.5         , 3           , 50          , 0           , 0
0.1664359   , -0.03677577 , -9.774721   , 0.00185375579, 0.00134607486, -0.0003400168, 0.106579483 , 0.162262365 , 0.7117433   , 0.002146237 , 0.014281109 , -0.940449953, 0.51        , 3           , 11          , 0.0218486432, 0.0218486339
0.154470891 , -0.0141197946, -9.775022   , 0.00281394762, -0.00082746 , 0.00120858056, 0.106849134 , 0.1624646   , 0.711406231 , 0.002174548 , 0.0142728072, -0.9404378  , 0.52        , 3           , 12          , 0.03509635  , 0
0.159670934 , -0.0380696766, -9.774799   , 0.00209088833, -0.00210600276, 0.0007562702, 0.10651207  , 0.162397191 , 0.7118781   , 0.00219556456, 0.0142517313, -0.9404304  , 0.53        , 3           , 50          , 0           , 0
0.153218672 , -0.06851186 , -9.790567   , -0.00143819989, -0.000764919154, -0.0009633502, 0.106579483 , 0.1624646   , 0.7117433   , 0.00218104548, 0.0142441029, -0.940439939, 0.54        , 3           , 11          , 0.0218486432, 0.0218486339
0.144343808 , -0.0401909128, -9.774964   , -0.0008576373, 0.0006557985, -0.000223645678, 0.106849134 , 0.162262365 , 0.7116759   , 0.0021724368, 0.0142506687, -0.9404423  , 0.55        , 3           , 12          , 0.03509635  , 0
0.17068246  , -0.0191531423, -9.781254   , 0.0018212985, -0.000813507, 0.0007733378, 0.106849134 , 0.162262365 , 0.7116759   , 0.002190759 , 0.0142425159, -0.9404347  , 0.56        , 3           , 50          , 0           , 0
0.136993721 , -0.02986564 , -9.80653    , 0.0015412661, -0.00108695845, -0.0003772051, 0.106714308 , 0.1624646   , 0.711541057 , 0.00220611831, 0.0142316557, -0.9404385  , 0.57        , 3           , 11          , 0.0218486432, 0.0218486339
0.118670508 , -0.05378103 , -9.790714   , -0.001139464, 0.000803257455, -0.000366354361, 0.106377244 , 0.1624646   , 0.711608469 , 0.00219467119, 0.0142396959, -0.940441847, 0.58        , 3           , 12          , 0.03509635  , 0
0.144509837 , -0.0248020571, -9.780205   , -0.0002640077, 0.00279936288, -0.000188917431, 0.106646895 , 0.1624646   , 0.7118107   , 0.00219200575, 0.0142676933, -0.940443754, 0.59        , 3           , 50          , 0           , 0
0.158711523 , -0.03503615 , -9.762576   , -0.000282574358, 0.0006591354, -0.000220148955, 0.106714308 , 0.162329778 , 0.7117433   , 0.00222121412, 0.0143215489, -0.9404454  , 0.6         , 3           , 11          , 0.0190112274, 0.0190111883
0.141156733 , -0.0406627767, -9.770481   , -0.00114401162, 0.000374826428, 0.000485947268, 0.106781721 , 0.162397191 , 0.711541057 , 0.00220984314, 0.0143252872, -0.940440655, 0.61        , 3           , 12          , 0.035348177 , 0
0.1479395   , -0.0106046461, -9.803046   , 0.00144881546, 0.00279114139, -0.000178567192, 0.106781721 , 0.162397191 , 0.711541057 , 0.00222430751, 0.0143532027, -0.9404423  , 0.62        , 3           , 50          , 0           , 0
0.142283782 , -0.0225182641, -9.781103   , 0.00187217526, 0.002500228 , -0.000180170638, 0.10651207  , 0.162262365 , 0.711541057 , 0.002243004 , 0.0143782124, -0.940444231, 0.63        , 3           , 11          , 0.0190112274, 0.0190111883
0.13541916  , -0.027525859, -9.771287   , 0.000709521235, 0.0009266425, 0.0007915954, 0.106579483 , 0.1624646   , 0.711608469 , 0.002250213 , 0.0143874567, -0.9404361  , 0.64        , 3           , 12          , 0.035348177 , 0
0.145460114 , -0.03452661 , -9.79928    , -0.00115624839, -0.0007702106, 0.000326171081, 0.106646895 , 0.162262365 , 0.7116759   , 0.00223869737, 0.0143797509, -0.940433   , 0.65        , 3           , 50          , 0           , 0
0.174401343 , -0.007431928, -9.783795   , -0.003549094, 0.0008394949, -0.000667012355, 0.106646895 , 0.162329778 , 0.711608469 , 0.00220311037, 0.01438816  , -0.940439463, 0.66        , 3           , 11          , 0.0190112274, 0.0190111883
0.162084877 , -0.0320533141, -9.790968   , -0.0005674236, 0.000379285164, -0.00065528194, 0.106646895 , 0.162329778 , 0.711608469 , 0.00219734223, 0.0143919652, -0.940446138, 0.67        , 3           , 12          , 0.035348177 , 0
0.137644574 , -0.0418292843, -9.784982   , -0.000156300026, -0.00105666521, -0.0008166616, 0.106849134 , 0.162329778 , 0.711406231 , 0.00219566165, 0.0143814171, -0.940454245, 0.68        , 3           , 50          , 0           , 0
0.169542253 , -0.0399885848, -9.77202    , -0.00371771352, -0.00145169359, -0.0007012573, 0.106579483 , 0.1624646   , 0.711608469 , 0.00215838244, 0.0143669164, -0.9404614  , 0.69        , 3           , 11          , 0.0190112274, 0.0190111883
0.157986775 , -0.02407592 , -9.77465248 , -0.00653038826, -0.00123333815, -0.0008590608, 0.10651207  , 0.162397191 , 0.7116759   , 0.00221562455, 0.0145437177, -0.9404683  , 0.7         , 3           , 12          , 0.0356524251, 0
0.1199031   , -0.0114375986, -9.787052   , -0.00496982224, -0.0012543503, -0.000277309126, 0.106983952 , 0.162262365 , 0.7117433   , 0.00216588541, 0.0145311793, -0.940470934, 0.71        , 3           , 50          , 0           , 0
0.116580948 , -0.03926954 , -9.796438   , -0.004410155, -0.0019778572, -0.000141234283, 0.106714308 , 0.162262365 , 0.711541057 , 0.00212176261, 0.0145114036, -0.940472364, 0.72        , 3           , 11          , 0.0184151344, 0.0184151046
0.138656065 , -0.02519717 , -9.780716   , -0.00383178541, -0.00140663877, -0.000558706466, 0.106714308 , 0.162262365 , 0.711541057 , 0.00208336348, 0.014497349 , -0.9404781  , 0.73        , 3           , 12          , 0.0356524251, 0
0.1502793   , -0.0191944763, -9.761116   , 0.000431370165, -0.00117236224, 0.000472742075, 0.107118778 , 0.162397191 , 0.711608469 , 0.00208774512, 0.0144856153, -0.9404733  , 0.74        , 3           , 50          , 0           , 0
0.149612218 , -0.023725627, -9.800472   , 0.00170804979, -0.00147194462, 0.00047627883, 0.10651207  , 0.162599429 , 0.7118107   , 0.00210489449, 0.0144708855, -0.9404688  , 0.75        , 3           , 11          , 0.0184151344, 0.0184151046
0.122757547 , -0.0125622209, -9.810528   , 0.002434    , -0.000189562619, 0.000499343267, 0.106916539 , 0.162262365 , 0.7117433   , 0.002129307 , 0.01446898  , -0.9404638  , 0.76        , 3           , 12          , 0.0356524251, 0
0.120607629 , -0.0348925442, -9.787317   , 0.00174696348, 0.00182499515, 0.0003811925, 0.106983952 , 0.162060127 , 0.711473644 , 0.00214683148, 0.0144872237, -0.940459967, 0.77        , 3           , 50          , 0           , 0
0.132001072 , -0.0267677922, -9.797055   , 0.000867520459, -0.0005996993, 5.44132381E-05, 0.106983952 , 0.162060127 , 0.711473644 , 0.0021555135, 0.0144812232, -0.9404595  , 0.78        , 3           , 11          , 0.0184151344, 0.0184151046
0.135346174 , -0.02096067 , -9.752693   , 0.000733550347, 0.000118193384, 6.39903737E-05, 0.106781721 , 0.162194952 , 0.711541057 , 0.00216285838, 0.0144824032, -0.9404588  , 0.79        , 3           , 12          , 0.0356524251, 0
0.125493184 , -0.0194588024, -9.758636   , -0.0003837275, 0.00240864139, 0.0009490283, 0.106714308 , 0.162262365 , 0.7116759   , 0.00215866766, 0.014484656 , -0.940449238, 0.8         , 3           , 50          , 0           , 0
0.144127041 , -0.0215788949, -9.786043   , -0.000405863917, 0.000403867132, 0.0007767316, 0.106916539 , 0.162262365 , 0.7117433   , 0.002154722 , 0.0144886766, -0.94044137 , 0.81        , 3           , 11          , 0.0182105172, 0.01821049
0.164930031 , -0.0556972  , -9.775405   , 0.0027409934, 0.00152479683, 9.686294E-05, 0.106916539 , 0.162060127 , 0.7116759   , 0.0021821463, 0.0145039232, -0.9404404  , 0.82        , 3           , 12          , 0.0360073559, 0
0.13992618  , -0.0426926352, -9.790391   , 0.00472052349, 0.000501542469, 9.424938E-05, 0.106916539 , 0.162060127 , 0.7116759   , 0.00222936575, 0.0145089366, -0.940439463, 0.83        , 3           , 50          , 0           , 0
0.129317611 , -0.020484807, -9.792038   , -0.0001132943, -0.000293714373, -0.001664383, 0.106646895 , 0.16212754  , 0.711473644 , 0.00222799135, 0.0145060364, -0.940456152, 0.84        , 3           , 11          , 0.0182105172, 0.01821049
0.136217788 , -0.037482664, -9.768684   , -0.004515514, 0.000324232969, -0.00168259349, 0.106714308 , 0.162329778 , 0.7117433   , 0.00218259171, 0.0145093137, -0.940472841, 0.85        , 3           , 12          , 0.0360073559, 0
0.1551449   , -0.04607902 , -9.781256   , -0.00339165237, 1.2017972E-05, -0.00010601143, 0.10651207  , 0.162262365 , 0.711541057 , 0.00214865874, 0.0145094367, -0.9404738  , 0.86        , 3           , 50          , 0           , 0
0.1544258   , -0.0217561536, -9.777821   , -0.00325204572, -0.000133996175, 3.584048E-05, 0.106849134 , 0.162262365 , 0.7118107   , 0.00211614324, 0.0145080937, -0.940473557, 0.87        , 3           , 11          , 0.0182105172, 0.01821049
0.139487147 , -0.0275369454, -9.773508   , -0.00240931241, -0.00114441232, -0.0001167087, 0.106781721 , 0.1619253   , 0.711608469 , 0.002092033 , 0.0144966515, -0.940474749, 0.88        , 3           , 12          , 0.0360073559, 0
0.146158367 , -0.04641766 , -9.784505   , -0.00187068619, -0.003447944, 0.0004256578, 0.106781721 , 0.1619253   , 0.711608469 , 0.002073386 , 0.0144621646, -0.940470457, 0.89        , 3           , 50          , 0           , 0
0.144914985 , -0.0324423425, -9.782999   , -0.00290821516, -0.003837589, -0.000873816258, 0.106849134 , 0.162194952 , 0.7116759   , 0.00235270755, 0.014478608 , -0.940474749, 0.9         , 3           , 11          , 0.01834788  , 0.0183478519
0.1607773   , -0.02351789 , -9.786816   , -0.00228446419, 0.000180258125, -0.00209969818, 0.106646895 , 0.162329778 , 0.711541057 , 0.00232955953, 0.0144804595, -0.9404957  , 0.91        , 3           , 12          , 0.03641109  , 0
0.148054615 , -0.0436166152, -9.794844   , 0.0006985665, 0.0009917378, -6.603859E-05, 0.106579483 , 0.16212754  , 0.7118107   , 0.00233653584, 0.014490379 , -0.940496445, 0.92        , 3           , 50          , 0           , 0
0.125979915 , -0.0412183851, -9.790503   , 0.000661158934, -0.00159771263, 0.00104105566, 0.106646895 , 0.16212754  , 0.7113388   , 0.0023432977, 0.0144743761, -0.9404862  , 0.93        , 3           , 11          , 0.01834788  , 0.0183478519
0.138985217 , -0.04230162 , -9.784072   , -0.00215931027, 1.50474079E-05, 0.000188384074, 0.106646895 , 0.16212754  , 0.7113388   , 0.00232173223, 0.0144745214, -0.9404843  , 0.94        , 3           , 12          , 0.03641109  , 0
0.1382531   , -0.0228951648, -9.784758   , -0.00282558356, 0.00375036034, -4.780747E-05, 0.106849134 , 0.162262365 , 0.711608469 , 0.00229347  , 0.0145120258, -0.940484762, 0.95        , 3           , 50          , 0           , 0
0.119546212 , -0.007729661, -9.796047   , -0.00143006 , 0.0015840095, 0.000215622014, 0.106714308 , 0.162262365 , 0.7116759   , 0.002279201 , 0.014527861 , -0.9404824  , 0.96        , 3           , 11          , 0.01834788  , 0.0183478519
0.16220136  , -0.0113987494, -9.7825985  , 0.0005325602, -0.00115488109, -0.000241278831, 0.107051365 , 0.16212754  , 0.712012947 , 0.00228449237, 0.0145163173, -0.940484762, 0.97        , 3           , 12          , 0.03641109  , 0
0.146670386 , -0.031192407, -9.774839   , 0.00096060487, -0.00186286587, -0.00167996262, 0.106849134 , 0.162329778 , 0.711608469 , 0.00229385425, 0.0144977272, -0.9405017  , 0.98        , 3           , 50          , 0           , 0
0.129193366 , -0.0375902019, -9.794948   , 0.00239091  , -0.0005966661, -0.0006510408, 0.106983952 , 0.162262365 , 0.711473644 , 0.00231766817, 0.0144917751, -0.9405081  , 0.99        , 3           , 11          , 0.01834788  , 0.0183478519
0.131019548 , -0.02376813 , -9.78167248 , 0.0021466678, 0.000389961147, 0.000653770752, 0.106983952 , 0.162262365 , 0.711473644 , 0.002854715 , 0.01405383  , -0.940494537, 1           , 3           , 12          , 0.03686164  , 0
0.144259557 , -0.00535113 , -9.785403   , 4.57636634E-06, -0.00101102446, -0.0005246033, 0.106781721 , 0.162262365 , 0.7117433   , 0.002854687 , 0.0140437335, -0.9404998  , 1.01        , 3           , 50          , 0           , 0
0.139549851 , -0.0301117469, -9.785732   , 0.00143131637, -0.0008783438, -0.0009431956, 0.106714308 , 0.162262365 , 0.7116759   , 0.00286886655, 0.01403498  , -0.9405093  , 1.02        , 3           , 11          , 0.0177749954, 0.0177749824
0.145996079 , -0.017929256, -9.791405   , 0.00158054591, -2.38903012E-05, -0.0005005724, 0.106646895 , 0.162194952 , 0.711608469 , 0.00288460264, 0.0140347546, -0.9405143  , 1.03        , 3           , 12          , 0.03686164  , 0
0.141323268 , -0.0226023365, -9.77253    , -0.00114089123, -0.00100970408, 0.000613199139, 0.106781721 , 0.162194952 , 0.711608469 , 0.002873279 , 0.0140246395, -0.9405081  , 1.04        , 3           , 50          , 0           , 0
0.147547811 , -0.0250036959, -9.763918   , -0.00171609432, -0.0017178132, 0.000313174416, 0.106781721 , 0.162194952 , 0.711608469 , 0.00285616121, 0.0140074529, -0.940505266, 1.05        , 3           , 11          , 0.0177749954, 0.0177749824
0.149975836 , -0.0225268323, -9.786452   , 0.000733958557, 0.0009814067, 0.000224304677, 0.106579483 , 0.162262365 , 0.711541057 , 0.00286353217, 0.0140172588, -0.9405029  , 1.06        , 3           , 12          , 0.03686164  , 0
0.134271562 , -0.00806226 , -9.776944   , 0.0018671779, 0.0008227193, 0.0006583176, 0.106781721 , 0.162329778 , 0.711945534 , 0.00288229831, 0.0140254665, -0.9404962  , 1.07        , 3           , 50          , 0           , 0
0.148647383 , -0.0131331515, -9.778226   , -0.0007125819, -0.0008707489, 0.000617856 , 0.10651207  , 0.162194952 , 0.7118107   , 0.00287525728, 0.0140167447, -0.94049    , 1.08        , 3           , 11          , 0.0177749954, 0.0177749824
0.142606229 , -0.0445294529, -9.789484   , -0.00184828206, -0.000433160923, 0.00104650867, 0.106849134 , 0.162262365 , 0.711608469 , 0.00285692164, 0.01401238  , -0.9404795  , 1.09        , 3           , 12          , 0.03686164  , 0
0.142876357 , -0.05638274 , -9.777875   , 0.00148255681, -0.00187817 , 0.00161877368, 0.106849134 , 0.162262365 , 0.711608469 , 0.00307835941, 0.0140611045, -0.9404607  , 1.1         , 3           , 50          , 0           , 0
0.161796033 , -0.0246800631, -9.80534    , 0.00220809714, -0.0008785277, 0.00120841863, 0.106849134 , 0.162329778 , 0.7117433   , 0.00310060964, 0.0140522821, -0.9404485  , 1.11        , 3           , 11          , 0.0149369948, 0.0149370115
0.144554347 , -0.0176117625, -9.7778635  , 0.003092911 , 0.00127110526, 0.000243286238, 0.106849134 , 0.162329778 , 0.7117433   , 0.00313157332, 0.0140649844, -0.940446138, 1.12        , 3           , 12          , 0.03735692  , 0
0.131028846 , -0.00772907026, -9.763419   , 0.00210108026, 0.00185053819, 0.000674882438, 0.10651207  , 0.162329778 , 0.711608469 , 0.00315267965, 0.0140834693, -0.940439463, 1.13        , 3           , 50          , 0           , 0
0.117586717 , -0.0222010333, -9.790811   , -0.00130724988, 0.00231508235, 0.000660582038, 0.106781721 , 0.162194952 , 0.7118107   , 0.00313970074, 0.0141066   , -0.9404328  , 1.14        , 3           , 11          , 0.0149369948, 0.0149370115
0.148924142 , -0.03165324 , -9.775726   , -0.0021545114, 0.0021907   , -0.0004913009, 0.106849134 , 0.162329778 , 0.7116759   , 0.0031180873, 0.014128522 , -0.940437555, 1.15        , 3           , 12          , 0.03735692  , 0
0.153145775 , -0.020745812, -9.786855   , -0.002874692, 0.001903666 , 0.000358734018, 0.106849134 , 0.162329778 , 0.7116759   , 0.003089392 , 0.0141475471, -0.940433741, 1.16        , 3           , 50          , 0           , 0
0.14071314  , -0.0473256633, -9.779596   , -0.000206619967, -0.0004266567, 0.001486279 , 0.106781721 , 0.162397191 , 0.7118107   , 0.003087535 , 0.0141432332, -0.940418959, 1.17        , 3           , 11          , 0.0149369948, 0.0149370115
0.147266343 , -0.0260766782, -9.78968048 , -0.0007686113, -0.000976119, -0.000528642733, 0.106781721 , 0.162532017 , 0.7116759   , 0.003079773 , 0.0141334906, -0.940424442, 1.18        , 3           , 12          , 0.03735692  , 0
0.130073339 , -0.031842716, -9.784936   , -0.000746198057, 0.000887925038, -0.0006445968, 0.106579483 , 0.162397191 , 0.7117433   , 0.00307222153, 0.0141423885, -0.9404309  , 1.19        , 3           , 50          , 0           , 0
0.127860188 , -0.022417   , -9.77897549 , 0.0023789308, 0.0003915901, 8.35582541E-05, 0.106646895 , 0.162262365 , 0.7116759   , 0.00311022275, 0.0140799945, -0.9404297  , 1.2         , 3           , 11          , 0.0145222945, 0.0145223159
0.1408988   , -0.019888157, -9.772955   , 0.00236228667, -0.000477105728, 0.00107261154, 0.106646895 , 0.162262365 , 0.7116759   , 0.00313399616, 0.0140751889, -0.940418959, 1.21        , 3           , 12          , 0.037894804 , 0
0.150220677 , -0.0344188176, -9.77123    , 0.001536884 , 0.00154401606, 0.000381276157, 0.106714308 , 0.162262365 , 0.711608469 , 0.00314941932, 0.014090619 , -0.940415144, 1.22        , 3           , 50          , 0           , 0
0.13998197  , -0.0341496281, -9.78803349 , -0.000722810859, 0.00187034917, -0.00148832344, 0.106579483 , 0.162329778 , 0.712012947 , 0.00314198225, 0.0141093684, -0.9404299  , 1.23        , 3           , 11          , 0.0145222945, 0.0145223159
0.136049643 , -0.0179059189, -9.7856245  , -0.00144972408, 0.0005866872, -0.00136830576, 0.106579483 , 0.1624646   , 0.7118107   , 0.00312729226, 0.0141152758, -0.940443754, 1.24        , 3           , 12          , 0.037894804 , 0
0.1404777   , -0.0216201115, -9.779303   , -0.000742201053, 0.00043361407, -0.00107994513, 0.106646895 , 0.162397191 , 0.7116759   , 0.00311971828, 0.0141196465, -0.9404545  , 1.25        , 3           , 50          , 0           , 0
0.154939815 , -0.0212172326, -9.786391   , -0.000312795, 0.0009973188, -0.0004967  , 0.106714308 , 0.162329778 , 0.7116759   , 0.00311651966, 0.0141296359, -0.9404595  , 1.26        , 3           , 11          , 0.0145222945, 0.0145223159
0.123962358 , -0.0132426359, -9.790197   , 0.0008499916, 0.002994374 , -0.000746795558, 0.106714308 , 0.162329778 , 0.7116759   , 0.00312491646, 0.0141596012, -0.940466642, 1.27        , 3           , 12          , 0.037894804 , 0
0.134368122 , -0.0181524344, -9.803257   , -0.0023158344, -0.0002682209, -0.0009567205, 0.106579483 , 0.162262365 , 0.7116759   , 0.00310162129, 0.01415695  , -0.9404762  , 1.28        , 3           , 50          , 0           , 0
0.141664684 , -0.04458452 , -9.783622   , -0.00321701588, -0.00342727941, 0.000709214364, 0.106377244 , 0.162532017 , 0.712012947 , 0.00306954957, 0.0141226528, -0.940469265, 1.29        , 3           , 11          , 0.0145222945, 0.0145223159
0.147727892 , -0.0247278847, -9.78966    , -0.00230936031, -0.00243002246, 0.00173121551, 0.106579483 , 0.162397191 , 0.7118781   , 0.00315517862, 0.0141242612, -0.94045043 , 1.3         , 3           , 12          , 0.0384731442, 0
0.148404434 , -0.01370201 , -9.808949   , -0.00154737581, 0.00115779066, 0.000356848352, 0.106579483 , 0.162397191 , 0.7117433   , 0.00313975639, 0.0141358254, -0.940446854, 1.31        , 3           , 50          , 0           , 0
0.161578357 , -0.0316904224, -9.782386   , 0.001424117 , -2.14266038E-05, 0.000644308864, 0.106579483 , 0.162397191 , 0.7117433   , 0.00315408874, 0.0141355926, -0.9404404  , 1.32        , 3           , 11          , 0.0145273888, 0.0145274056
0.134609416 , -0.034946315, -9.793512   , -0.000351822469, -0.006022251, 0.0005463843, 0.10651207  , 0.1624646   , 0.7117433   , 0.00315064518, 0.0140753509, -0.9404352  , 1.33        , 3           , 12          , 0.0384731442, 0
0.133059233 , -0.008283658, -9.797284   , 0.000523212657, -0.00332121528, 0.00202199351, 0.106377244 , 0.1624646   , 0.7118781   , 0.00315616024, 0.0140420748, -0.940415144, 1.34        , 3           , 50          , 0           , 0
0.149028838 , -0.0150229521, -9.770565   , 0.0001371163, 0.0001233483, 0.00192642352, 0.106579483 , 0.1624646   , 0.7118107   , 0.003157802 , 0.0140432473, -0.9403956  , 1.35        , 3           , 11          , 0.0145273888, 0.0145274056
0.144487068 , -0.0368555635, -9.791636   , -0.00298689445, -0.000826136966, -0.0005394254, 0.106444657 , 0.1624646   , 0.711945534 , 0.00312785734, 0.0140350051, -0.9404013  , 1.36        , 3           , 12          , 0.0384731442, 0
0.132496148 , -0.0262578949, -9.80291748 , -0.002703418, -0.000830306264, -0.000394629955, 0.106444657 , 0.1624646   , 0.711945534 , 0.00310076633, 0.0140267126, -0.94040513 , 1.37        , 3           , 50          , 0           , 0
0.1534822   , -0.000644663349, -9.81101    , -0.00228652568, -0.0012709084, 0.000317089842, 0.106646895 , 0.162329778 , 0.7118107   , 0.00307794567, 0.0140139936, -0.940402031, 1.38        , 3           , 11          , 0.0145273888, 0.0145274056
0.14380914  , 0.0106773209, -9.76579952 , -0.0004243335, 0.000280095817, 0.00106659136, 0.106646895 , 0.162329778 , 0.711945534 , 0.00307385228, 0.0140167614, -0.9403913  , 1.39        , 3           , 12          , 0.0384731442, 0
0.162545636 , -0.0151260439, -9.771797   , 0.00208877679, 0.00156427908, 9.820633E-05, 0.106579483 , 0.162532017 , 0.7118781   , 0.00295183738, 0.0140566844, -0.940392256, 1.4         , 3           , 50          , 0           , 0
0.163172543 , -0.0284617655, -9.748457   , 0.00168163993, 0.00342881843, 0.0004089282, 0.106646895 , 0.162599429 , 0.7116759   , 0.00296871364, 0.01409096  , -0.940387964, 1.41        , 3           , 11          , 0.0146222021, 0.0146222189
0.144061878 , -0.0323619246, -9.789783   , 0.000680319 , 0.0034312536, 0.00126142334, 0.106849134 , 0.162397191 , 0.711608469 , 0.002975697 , 0.0141252335, -0.9403753  , 1.42        , 3           , 12          , 0.0390897729, 0
0.1413002   , -0.05335194 , -9.806763   , -0.000322640059, 0.00230272929, 0.000380240323, 0.106849134 , 0.162397191 , 0.711608469 , 0.00297252531, 0.014148253 , -0.9403715  , 1.43        , 3           , 50          , 0           , 0
0.145348623 , -0.0168919917, -9.761587   , -0.00174002233, 0.00232357625, -0.0003437367, 0.106646895 , 0.1624646   , 0.711945534 , 0.002955078 , 0.014171497 , -0.940374851, 1.44        , 3           , 11          , 0.0146222021, 0.0146222189
0.149244368 , -0.03452711 , -9.760399   , 0.00146847032, -0.00273118867, 0.000318340579, 0.10651207  , 0.162532017 , 0.712012947 , 0.00296980632, 0.0141441748, -0.940371752, 1.45        , 3           , 12          , 0.0390897729, 0
0.154093757 , -0.0229065679, -9.796356   , 0.00229689572, -0.004325001, 0.00130210037, 0.106646895 , 0.162532017 , 0.7118107   , 0.002992958 , 0.0141008906, -0.9403589  , 1.46        , 3           , 50          , 0           , 0
0.163010031 , -0.0324685052, -9.79503    , 0.00190433185, -0.00103012542, 0.00191985385, 0.106646895 , 0.162397191 , 0.7118107   , 0.00301227113, 0.01409053  , -0.9403398  , 1.47        , 3           , 11          , 0.0146222021, 0.0146222189
0.154977009 , -0.019379748, -9.789532   , 0.003502992 , 0.00168032281, 0.00153968018, 0.106646895 , 0.162397191 , 0.7118107   , 0.00304751913, 0.0141072851, -0.9403243  , 1.48        , 3           , 12          , 0.0390897729, 0
0.122197606 , -0.005159037, -9.78560448 , -0.000624952954, 0.000588703435, 6.732172E-05, 0.10651207  , 0.162262365 , 0.7116759   , 0.0030412802, 0.01411317  , -0.9403236  , 1.49        , 3           , 50          , 0           , 0
0.15885441  , -0.036597833, -9.785179   , -0.00402214658, -0.000882572, 0.000168473984, 0.106579483 , 0.162532017 , 0.7116759   , 0.00278049149, 0.0139616486, -0.940325   , 1.5         , 3           , 11          , 0.0150601529, 0.01506017
0.177291915 , -0.0416894853, -9.787778   , -0.00303376 , -0.00118438387, 0.0007426253, 0.106646895 , 0.162194952 , 0.711945534 , 0.002750258 , 0.0139497817, -0.940317631, 1.51        , 3           , 12          , 0.03974256  , 0
0.11940182  , -0.0141826654, -9.783024   , -0.00233131973, -0.00219079573, 0.000303055451, 0.106781721 , 0.1624646   , 0.7118107   , 0.00272698537, 0.0139278639, -0.940314531, 1.52        , 3           , 50          , 0           , 0
0.107018888 , 0.006746182 , -9.790123   , -0.0004556506, 0.000365794956, 0.0007810003, 0.106781721 , 0.1624646   , 0.7118107   , 0.00272253761, 0.0139315   , -0.9403069  , 1.53        , 3           , 11          , 0.0150601529, 0.01506017
0.141044736 , -0.0192195047, -9.793271   , 0.00111069647, 0.0003524616, 0.000504259951, 0.106781721 , 0.162262365 , 0.711406231 , 0.002733715 , 0.0139350109, -0.940301657, 1.54        , 3           , 12          , 0.03974256  , 0
0.162447155 , -0.0295211487, -9.7751255  , -0.0008928848, -0.00161928788, -0.0011108506, 0.106714308 , 0.162397191 , 0.7118107   , 0.00272463076, 0.0139188478, -0.940312862, 1.55        , 3           , 50          , 0           , 0
0.140056685 , -0.03715113 , -9.802522   , 0.000233457831, -0.00221040356, -0.00039693396, 0.106714308 , 0.162397191 , 0.711945534 , 0.00272690947, 0.0138967531, -0.9403169  , 1.56        , 3           , 11          , 0.0150601529, 0.01506017
0.118802063 , -0.0313228443, -9.782324   , 0.00235272641, -0.00295620225, 0.000463974633, 0.106781721 , 0.1624646   , 0.7118107   , 0.0027505008, 0.013867178 , -0.9403124  , 1.57        , 3           , 12          , 0.03974256  , 0
0.122776493 , -0.0305869542, -9.770082   , 0.00125333772, -0.0003539135, -0.0007930552, 0.106714308 , 0.162397191 , 0.7116759   , 0.00276292372, 0.0138636613, -0.940320253, 1.58        , 3           , 50          , 0           , 0
0.1380379   , -0.010067502, -9.80313    , -0.000853285135, 0.0018196617, -0.001060768, 0.106714308 , 0.162397191 , 0.7116759   , 0.00275424379, 0.0138818892, -0.940330744, 1.59        , 3           , 11          , 0.0150601529, 0.01506017
0.153145164 , -0.0211918652, -9.787311   , -0.00162389269, -2.91695869E-05, 0.000193919492, 0.106377244 , 0.1624646   , 0.7118781   , 0.00239569065, 0.0139208725, -0.9403336  , 1.6         , 3           , 12          , 0.040429417 , 0
0.146932274 , -0.024114294, -9.804114   , -0.00108980725, -0.00247983 , 0.0011634453, 0.106579483 , 0.1624646   , 0.711945534 , 0.0023849532, 0.0138960443, -0.9403219  , 1.61        , 3           , 50          , 0           , 0
0.157936528 , -0.0424033776, -9.78977    , -0.00137699326, -0.00304497965, 0.000581056753, 0.106714308 , 0.162532017 , 0.7118107   , 0.00237126229, 0.0138655826, -0.9403162  , 1.62        , 3           , 11          , 0.0151031082, 0.0151031194
0.146007836 , -0.0254785325, -9.802332   , -0.00250003557, -0.00216728472, -0.000128686268, 0.106646895 , 0.162329778 , 0.7118107   , 0.00234624348, 0.0138439126, -0.940317631, 1.63        , 3           , 12          , 0.040429417 , 0
0.132860869 , -0.0219414681, -9.785248   , -0.00165359257, -0.00260838168, 0.000156357622, 0.106646895 , 0.162329778 , 0.7118107   , 0.002329728 , 0.0138178254, -0.940315962, 1.64        , 3           , 50          , 0           , 0
0.143680617 , -0.009550525, -9.771906   , -0.002212428, -0.0023070653, -0.000844469643, 0.106646895 , 0.162329778 , 0.7118107   , 0.002307487 , 0.0137947733, -0.940324545, 1.65        , 3           , 11          , 0.0151031082, 0.0151031194
0.144125879 , -0.0108974874, -9.772821   , -0.00333079812, -0.0008587717, -0.00125970156, 0.106377244 , 0.162599429 , 0.711945534 , 0.00227400544, 0.0137862172, -0.9403374  , 1.66        , 3           , 12          , 0.040429417 , 0
0.144283339 , -0.0133271087, -9.79859352 , -0.000484206452, -3.816849E-05, -8.5391E-05 , 0.106849134 , 0.162599429 , 0.7118781   , 0.00226915115, 0.0137858326, -0.9403379  , 1.67        , 3           , 50          , 0           , 0
0.138241246 , -0.0384929925, -9.802102   , -0.00162966212, -0.00102451793, -0.0006791799, 0.10651207  , 0.162397191 , 0.712080359 , 0.002252761 , 0.0137756057, -0.940345049, 1.68        , 3           , 11          , 0.0151031082, 0.0151031194
0.152919114 , -0.0366726741, -9.77349    , -0.00250580464, -0.00316263339, -0.00100178574, 0.106849134 , 0.162397191 , 0.7117433   , 0.00222756318, 0.0137439994, -0.940355062, 1.69        , 3           , 12          , 0.040429417 , 0
0.145869657 , -0.0296963733, -9.787477   , 0.00212093443, 0.0008397223, -0.0003432594, 0.106849134 , 0.162397191 , 0.7117433   , 0.00231419364, 0.0138340313, -0.940357447, 1.7         , 3           , 50          , 0           , 0
0.131834075 , -0.0359262154, -9.784064   , 0.00200937781, 0.003421659 , -0.000449636282, 0.106377244 , 0.162329778 , 0.712012947 , 0.00233422685, 0.0138682574, -0.9403622  , 1.71        , 3           , 11          , 0.0142176291, 0.0142176263
0.122874245 , -0.0144124124, -9.764475   , 0.000422965648, 0.000868577743, -0.00164127781, 0.106646895 , 0.162397191 , 0.711945534 , 0.00233822875, 0.013876983 , -0.9403784  , 1.72        , 3           , 12          , 0.04114829  , 0
0.146639973 , 0.001504153 , -9.79569149 , 0.0008449527, 0.0002936446, -0.00193321868, 0.106714308 , 0.1624646   , 0.711945534 , 0.00234641018, 0.0138799641, -0.940397739, 1.73        , 3           , 50          , 0           , 0
0.158706442 , -0.05952627 , -9.791768   , -0.0008779217, -0.000274973572, -0.000521026, 0.106646895 , 0.162397191 , 0.7118107   , 0.00233755819, 0.0138772288, -0.940403   , 1.74        , 3           , 11          , 0.0142176291, 0.0142176263
0.1562019   , -0.0422860757, -9.799271   , -0.00231717527, -0.001411961, 2.60407614E-05, 0.106646895 , 0.162397191 , 0.7118107   , 0.00231438922, 0.0138631063, -0.940402746, 1.75        , 3           , 12          , 0.04114829  , 0
0.135282353 , -0.0150232986, -9.801406   , -0.00131696241, -0.000851476041, 0.0003265487, 0.106646895 , 0.162329778 , 0.7118107   , 0.00230126525, 0.0138545856, -0.9403994  , 1.76        , 3           , 50          , 0           , 0
0.127329856 , -0.0256516822, -9.771339   , 0.002809477 , -0.000467346079, 0.0007868992, 0.106646895 , 0.162397191 , 0.7118107   , 0.00232946919, 0.0138498917, -0.940391541, 1.77        , 3           , 11          , 0.0142176291, 0.0142176263
0.172764778 , -0.0158703439, -9.752741   , 0.00218186178, 0.000613827433, 0.0007986948, 0.106579483 , 0.162397191 , 0.711945534 , 0.00235139788, 0.0138560114, -0.9403837  , 1.78        , 3           , 12          , 0.04114829  , 0
0.143294618 , -0.0179057475, -9.79142952 , -0.00302091683, -0.000971668866, -0.000329687435, 0.106579483 , 0.162397191 , 0.7118107   , 0.0023211427, 0.0138463052, -0.940387   , 1.79        , 3           , 50          , 0           , 0
0.1402819   , 0.007707184 , -9.780319   , 0.00127588026, -0.000818488246, 0.0004132433, 0.106579483 , 0.162397191 , 0.7118107   , 0.00226021931, 0.0139560075, -0.9403839  , 1.8         , 3           , 11          , 0.0146323973, 0.0146323955
0.142168447 , -0.0284816436, -9.771687   , 0.00364403171, 0.0007383368, -5.0453742E-05, 0.106646895 , 0.162194952 , 0.7116759   , 0.00229665334, 0.0139633929, -0.9403844  , 1.81        , 3           , 12          , 0.0418972075, 0
0.136960119 , -0.0152276829, -9.783777   , -0.001348036, -0.000500061, -0.00017076006, 0.106444657 , 0.162397191 , 0.711945534 , 0.002283149 , 0.0139583973, -0.940386057, 1.82        , 3           , 50          , 0           , 0
0.134021714 , 0.00248668715, -9.793085   , -8.668176E-05, -0.00258372468, -0.0009802589, 0.106646895 , 0.162397191 , 0.7118781   , 0.00228214357, 0.013932582 , -0.9403961  , 1.83        , 3           , 11          , 0.0146323973, 0.0146323955
0.135939747 , -0.03142826 , -9.786232   , 0.00177276472, -0.0016007598, -0.00081143243, 0.106579483 , 0.162532017 , 0.7118107   , 0.00229975814, 0.013916593 , -0.9404042  , 1.84        , 3           , 12          , 0.0418972075, 0
0.13550359  , -0.03496385 , -9.792601   , 0.00123798044, 0.00169556087, -0.000194535649, 0.106781721 , 0.162329778 , 0.711608469 , 0.00231211074, 0.0139335524, -0.9404061  , 1.85        , 3           , 50          , 0           , 0
0.127736211 , -0.03239982 , -9.77322    , 0.000305987429, 0.00113051385, -6.536924E-05, 0.106781721 , 0.162329778 , 0.711608469 , 0.002315163 , 0.0139448568, -0.940406561, 1.86        , 3           , 11          , 0.0146323973, 0.0146323955
0.1306339   , -0.00185370271, -9.764258   , -0.00142747362, -0.000439851574, 0.00118913408, 0.106646895 , 0.162397191 , 0.7118107   , 0.002301054 , 0.0139404312, -0.94039464 , 1.87        , 3           , 12          , 0.0418972075, 0
0.136469245 , -0.02418865 , -9.788854   , 0.0006293624, -0.001667245, -0.000103919432, 0.106646895 , 0.1624646   , 0.7117433   , 0.00230733259, 0.0139237614, -0.940395832, 1.88        , 3           , 50          , 0           , 0
0.123879634 , -0.03918709 , -9.80992    , 0.00125897652, -0.003027959, -0.000906839734, 0.106646895 , 0.162397191 , 0.7118107   , 0.002319796 , 0.0138935018, -0.9404049  , 1.89        , 3           , 11          , 0.0146323973, 0.0146323955
0.15384756  , -0.0277349874, -9.766602   , -0.00233935867, -0.000613430457, -0.000534757739, 0.106849134 , 0.16212754  , 0.711945534 , 0.00244017667, 0.0137786251, -0.940408468, 1.9         , 3           , 12          , 0.0426742658, 0
0.130064726 , -0.0242886022, -9.77446    , -0.003763341, -0.00116574182, -0.00126708171, 0.106849134 , 0.16212754  , 0.711945534 , 0.00240236823, 0.0137669994, -0.9404211  , 1.91        , 3           , 50          , 0           , 0
0.13121143  , -0.0194680337, -9.804205   , -0.0013140362, -0.00343057048, 0.0007902547, 0.106781721 , 0.162397191 , 0.7116759   , 0.00238933484, 0.0137326745, -0.940413237, 1.92        , 3           , 11          , 0.0142020527, 0.01420205
0.1388292   , -0.0253771  , -9.806011   , -0.00453639962, -0.00526210666, 0.000886933 , 0.106781721 , 0.162397191 , 0.7117433   , 0.00234409026, 0.0136800325, -0.9404044  , 1.93        , 3           , 12          , 0.0426742658, 0
0.158359215 , -0.0348822251, -9.77658    , -0.0024036814, 0.00158332556, 0.00228725816, 0.106983952 , 0.1624646   , 0.7118107   , 0.00232036761, 0.0136958137, -0.940381765, 1.94        , 3           , 50          , 0           , 0
0.1566504   , -0.0204811152, -9.772365   , -0.000839316, 0.000368027424, 0.000204255091, 0.106983952 , 0.162397191 , 0.711608469 , 0.00231200224, 0.0136994887, -0.9403794  , 1.95        , 3           , 11          , 0.0142020527, 0.01420205
0.141904369 , -0.0237412434, -9.792864   , 0.00292394287, -3.0403784E-05, 0.000436363567, 0.106714308 , 0.16212754  , 0.711608469 , 0.00234130141, 0.013699173 , -0.9403751  , 1.96        , 3           , 12          , 0.0426742658, 0
0.146024287 , -0.0134347342, -9.789997   , -0.00080711965, -0.00292963488, 0.000299769745, 0.106714308 , 0.16212754  , 0.711608469 , 0.00233327062, 0.0136698717, -0.9403722  , 1.97        , 3           , 50          , 0           , 0
0.1503956   , -0.0194615033, -9.778282   , 0.000558754 , -0.00186548976, -3.41459163E-05, 0.106646895 , 0.162599429 , 0.711608469 , 0.0023388525, 0.0136512155, -0.940372467, 1.98        , 3           , 11          , 0.0142020527, 0.01420205
0.149101287 , -0.0104606673, -9.77548    , 0.00113800983, -0.0005170565, 0.0007760562, 0.106646895 , 0.162262365 , 0.7117433   , 0.002350338 , 0.0136460261, -0.940364838, 1.99        , 3           , 12          , 0.0426742658, 0
0.134140685 , -0.00692729326, -9.756606   , -0.00220536673, 0.00128759583, -0.0006503867, 0.10651207  , 0.162329778 , 0.7118107   , 0.00226815138, 0.01373421  , -0.9403722  , 2           , 3           , 50          , 0           , 0
0.135553733 , -0.0144108962, -9.774748   , -0.000930824666, 0.001337919 , 0.0002883999, 0.106646895 , 0.162194952 , 0.711541057 , 0.00225888169, 0.013747585 , -0.9403691  , 2.01        , 3           , 11          , 0.0142958509, 0.0142958546
0.174426943 , -0.0140696969, -9.795616   , 0.00046015784, -0.000975561154, 0.0009789887, 0.106646895 , 0.162194952 , 0.711541057 , 0.00226361724, 0.0137378071, -0.940359354, 2.02        , 3           , 12          , 0.043477647 , 0
0.146677658 , -0.0374131426, -9.783493   , 0.0002677962, 0.0008887307, 0.00107637269, 0.106781721 , 0.162262365 , 0.711608469 , 0.002266443 , 0.0137466686, -0.9403486  , 2.03        , 3           , 50          , 0           , 0
0.141929582 , -0.053329844, -9.767459   , -0.00285979733, 0.000287231262, -0.000239603251, 0.106781721 , 0.162329778 , 0.7118107   , 0.00223781238, 0.0137495445, -0.940351   , 2.04        , 3           , 11          , 0.0142958509, 0.0142958546
0.146186337 , -0.0374721326, -9.777626   , -0.002602377, -0.00193856633, -5.561176E-05, 0.106849134 , 0.162329778 , 0.711945534 , 0.00221178145, 0.013730159 , -0.9403517  , 2.05        , 3           , 12          , 0.043477647 , 0
0.126469672 , -0.0353750549, -9.789076   , -0.0004294659, 0.0004910414, -0.00172427029, 0.106983952 , 0.162194952 , 0.7116759   , 0.00220725  , 0.0137351081, -0.9403689  , 2.06        , 3           , 50          , 0           , 0
0.171388343 , -0.0323679  , -9.769205   , 0.0007878468, 0.00232424843, 0.000241746719, 0.106983952 , 0.162194952 , 0.7116759   , 0.00221516239, 0.0137583446, -0.9403665  , 2.07        , 3           , 11          , 0.0142958509, 0.0142958546
0.122039929 , -0.023651015, -9.785366   , -0.002029168, -0.00144475163, 0.000169741761, 0.106916539 , 0.162397191 , 0.711541057 , 0.00219489424, 0.0137438932, -0.9403646  , 2.08        , 3           , 12          , 0.043477647 , 0
0.119832054 , -0.005759701, -9.769824   , 0.0005885693, -0.00304126763, -0.000552773767, 0.106646895 , 0.162194952 , 0.711608469 , 0.00220070384, 0.0137134939, -0.9403703  , 2.09        , 3           , 50          , 0           , 0
0.15413478  , -0.009044621, -9.785355   , 0.00195960631, -0.00360383419, 0.00145126053, 0.10651207  , 0.162329778 , 0.711945534 , 0.002157279 , 0.0136205861, -0.940356731, 2.1         , 3           , 11          , 0.0146908   , 0.0146908024
0.139771536 , -0.0155279208, -9.800016   , -0.00266920985, -0.00434177136, 0.00105423562, 0.106646895 , 0.162262365 , 0.7117433   , 0.00213072845, 0.0135771465, -0.9403465  , 2.11        , 3           , 12          , 0.04430561  , 0
0.1284214   , -0.0173545  , -9.788849   , -0.000369620917, -0.00285138935, 8.827992E-05, 0.106983952 , 0.16212754  , 0.7116759   , 0.002127043 , 0.0135486331, -0.9403455  , 2.12        , 3           , 50          , 0           , 0
0.15558292  , -0.0296317134, -9.759381   , -0.0009850719, -0.0003430788, 0.0007648123, 0.106983952 , 0.16212754  , 0.7116759   , 0.00211729552, 0.0135451844, -0.9403379  , 2.13        , 3           , 11          , 0.0146908   , 0.0146908024
0.15503712  , -0.0395670533, -9.757694   , 0.0005432371, 0.0022280016, 2.44183648E-05, 0.10651207  , 0.162329778 , 0.7118107   , 0.00212273235, 0.0135674635, -0.940337658, 2.14        , 3           , 12          , 0.04430561  , 0
0.122083671 , -0.02625483 , -9.794882   , 0.0005666245, -0.00101081363, 0.00155179622, 0.106377244 , 0.162262365 , 0.7118107   , 0.002128609 , 0.0135573223, -0.940322161, 2.15        , 3           , 50          , 0           , 0
0.154108763 , -0.00730389869, -9.779464   , 0.00248392043, -0.00188045786, 0.0004777262, 0.106781721 , 0.162329778 , 0.7118107   , 0.002153513 , 0.0135385105, -0.9403174  , 2.16        , 3           , 11          , 0.0146908   , 0.0146908024
0.160465389 , -0.00994809 , -9.790276   , -0.00210633129, 0.00110137532, 0.000778826361, 0.106579483 , 0.162194952 , 0.711541057 , 0.00213255431, 0.0135495057, -0.940309763, 2.17        , 3           , 12          , 0.04430561  , 0
0.157686889 , -0.010932833, -9.78037548 , 0.000179232578, 0.00137379591, -0.000204867, 0.106579483 , 0.162194952 , 0.711541057 , 0.00213431986, 0.0135632483, -0.9403117  , 2.18        , 3           , 50          , 0           , 0
0.138804212 , -0.01829326 , -9.793734   , 0.00128687709, -0.00100587984, 0.000196800931, 0.106916539 , 0.162194952 , 0.711541057 , 0.00214721565, 0.0135531854, -0.940309763, 2.19        , 3           , 11          , 0.0146908   , 0.0146908024
0.161497131 , -0.00619384227, -9.804678   , -0.00224135979, -0.00162517536, 0.0008801881, 0.106646895 , 0.162397191 , 0.711608469 , 0.00206292444, 0.0136741968, -0.940301657, 2.2         , 3           , 12          , 0.0451565124, 0
0.162790492 , -0.008964261, -9.799728   , 0.002167941 , -0.00166932447, 0.0008352047, 0.106646895 , 0.162194952 , 0.7118781   , 0.00208471646, 0.013657487 , -0.94029355 , 2.21        , 3           , 50          , 0           , 0
0.120760046 , -0.0248661581, -9.797136   , -0.00020785688, 0.00158565142, 0.000152183056, 0.106849134 , 0.162397191 , 0.7117433   , 0.00208265916, 0.01367334  , -0.9402919  , 2.22        , 3           , 11          , 0.0151508329, 0.015150832
0.128032833 , -0.0252684969, -9.807464   , -0.00077982567, 0.0009523865, -0.0005045032, 0.106579483 , 0.16212754  , 0.711473644 , 0.00207479252, 0.0136828739, -0.9402969  , 2.23        , 3           , 12          , 0.0451565124, 0
0.156840339 , -0.0152937267, -9.793532   , 0.0005340673, -0.0020032546, -3.835628E-05, 0.106579483 , 0.16212754  , 0.711473644 , 0.0020801276, 0.01366284  , -0.940297365, 2.24        , 3           , 50          , 0           , 0
0.158024251 , -0.0151158739, -9.769129   , 0.00152795727, -0.00215665787, -3.4446166E-05, 0.106579483 , 0.162194952 , 0.711541057 , 0.00209540222, 0.0136412755, -0.9402976  , 2.25        , 3           , 11          , 0.0151508329, 0.015150832
0.146274224 , -0.0262091588, -9.776592   , -0.0006127013, -0.00256805378, 0.000304148067, 0.106579483 , 0.1624646   , 0.7116759   , 0.002089315 , 0.0136155887, -0.940294743, 2.26        , 3           , 12          , 0.0451565124, 0
0.131139264 , -0.0169077627, -9.790627   , -0.001166665, -0.00106093346, 0.000680337369, 0.10651207  , 0.162262365 , 0.711541057 , 0.00207774  , 0.0136049651, -0.940288067, 2.27        , 3           , 50          , 0           , 0
0.1686227   , -0.0377842821, -9.76658249 , 0.000433373963, 0.00143969955, -0.0002752946, 0.106579483 , 0.161992714 , 0.711608469 , 0.002082036 , 0.013619367 , -0.9402907  , 2.28        , 3           , 11          , 0.0151508329, 0.015150832
0.165996611 , -0.02874263 , -9.766502   , -0.000111436748, 0.00295897736, -0.00125838432, 0.106579483 , 0.161992714 , 0.711608469 , 0.00208075042, 0.0136489822, -0.9403031  , 2.29        , 3           , 12          , 0.0451565124, 0
0.1297807   , -0.0429741368, -9.756159   , -0.00261089625, 0.000536537031, -0.00195370987, 0.10651207  , 0.162194952 , 0.711473644 , 0.00208282145, 0.0137647921, -0.9403224  , 2.3         , 3           , 50          , 0           , 0
0.124212168 , -0.0237915739, -9.774056   , -0.00377245457, -0.0006122983, -0.000403355574, 0.106444657 , 0.162262365 , 0.711608469 , 0.00204504188, 0.013758678 , -0.940326452, 2.31        , 3           , 11          , 0.0140527738, 0.0140527748
0.137821421 , -0.0277592726, -9.7934     , -0.00159376976, -0.00179764617, 0.00145329523, 0.106579483 , 0.162262365 , 0.7116759   , 0.00202930276, 0.0137406718, -0.9403119  , 2.32        , 3           , 12          , 0.046028778 , 0
0.153053045 , -0.0240037683, -9.777408   , -0.00015011405, -0.000443164958, 0.000623194443, 0.106646895 , 0.162262365 , 0.711608469 , 0.00202788715, 0.0137362285, -0.9403057  , 2.33        , 3           , 50          , 0           , 0
0.129809454 , -0.00618072366, -9.780578   , 0.00329307  , 0.002242742 , 0.0008980268, 0.106646895 , 0.162262365 , 0.711608469 , 0.00206094165, 0.013758637 , -0.94029665 , 2.34        , 3           , 11          , 0.0140527738, 0.0140527748
0.124878354 , -0.0203488357, -9.801112   , -0.000377679738, -0.001306494, 0.00125325785, 0.106646895 , 0.1619253   , 0.711541057 , 0.00205733743, 0.0137455473, -0.940284   , 2.35        , 3           , 12          , 0.046028778 , 0
0.156196237 , -0.0302761514, -9.783774   , -0.00192546123, 7.192953E-05, 0.0011205764, 0.106377244 , 0.162397191 , 0.711541057 , 0.00203823671, 0.01374624  , -0.9402728  , 2.36        , 3           , 50          , 0           , 0
0.1538939   , -0.0192064773, -9.76289    , -0.00237823837, -0.00285093416, -6.94284E-05, 0.106646895 , 0.162329778 , 0.711608469 , 0.00201444421, 0.0137177361, -0.9402735  , 2.37        , 3           , 11          , 0.0140527738, 0.0140527748
0.135926545 , -0.0203201324, -9.770746   , -0.00398950046, -0.000685615058, 2.35620573E-05, 0.106444657 , 0.162262365 , 0.7116759   , 0.00197455264, 0.0137108779, -0.9402735  , 2.38        , 3           , 12          , 0.046028778 , 0
0.135952175 , -0.02695791 , -9.782567   , -0.00466030836, 0.00240873382, -0.0006512661, 0.106646895 , 0.162262365 , 0.711473644 , 0.00192786008, 0.0137349768, -0.9402797  , 2.39        , 3           , 50          , 0           , 0
0.1598664   , -0.0172941424, -9.777719   , -0.000451447268, 0.00150655035, -6.583439E-05, 0.106646895 , 0.162262365 , 0.711473644 , 0.00197973056, 0.0137610454, -0.9402797  , 2.4         , 3           , 11          , 0.0145187825, 0.0145187844
0.143170536 , -0.0256630778, -9.782937   , -0.0029065886, -0.00155217317, 0.00016090025, 0.106579483 , 0.162397191 , 0.711541057 , 0.001950687 , 0.0137455184, -0.9402783  , 2.41        , 3           , 12          , 0.04692094  , 0
0.156412318 , -0.0174814276, -9.799434   , -0.00136459211, 0.00167202891, -0.00150013622, 0.10651207  , 0.162329778 , 0.711541057 , 0.00193683419, 0.0137622673, -0.9402933  , 2.42        , 3           , 50          , 0           , 0
0.1639187   , -0.0195549224, -9.780417   , -0.00370227545, -0.00254981313, 0.000427745021, 0.106444657 , 0.16212754  , 0.711608469 , 0.00189986918, 0.0137367649, -0.940289   , 2.43        , 3           , 11          , 0.0145187825, 0.0145187844
0.159421355 , -0.0203981716, -9.782275   , -0.00395521149, -0.005492761, 0.00124217314, 0.106714308 , 0.162262365 , 0.7118107   , 0.00186048518, 0.0136818122, -0.940276861, 2.44        , 3           , 12          , 0.04692094  , 0
0.129155457 , -0.03764826 , -9.789529   , -0.00195897045, -0.005435584, 0.000611341442, 0.106714308 , 0.162262365 , 0.7118107   , 0.00184097711, 0.0136274453, -0.940270662, 2.45        , 3           , 50          , 0           , 0
0.1127011   , -0.0238357168, -9.802619   , -0.000240531386, 0.00199501961, 0.00115895132, 0.106714308 , 0.16212754  , 0.711608469 , 0.0018387303, 0.0136473747, -0.940259   , 2.46        , 3           , 11          , 0.0145187825, 0.0145187844
0.125223309 , -0.0374291  , -9.806727   , 0.00223078881, 0.0003238244, 0.0009353227, 0.106444657 , 0.162262365 , 0.7117433   , 0.001861167 , 0.0136505943, -0.9402497  , 2.47        , 3           , 12          , 0.04692094  , 0
0.165617481 , -0.0228430722, -9.7696     , 0.00206148229, -0.002109374, 0.000755909 , 0.106377244 , 0.162194952 , 0.7117433   , 0.001881884 , 0.0136294877, -0.940242052, 2.48        , 3           , 50          , 0           , 0
0.1589903   , -0.0248162113, -9.790461   , 0.000293843157, -0.00158404151, 0.000108634937, 0.106849134 , 0.162262365 , 0.711541057 , 0.00188483694, 0.0136136459, -0.9402411  , 2.49        , 3           , 11          , 0.0145187825, 0.0145187844
0.134733558 , -0.0156154456, -9.787868   , 0.000279100146, -5.37080923E-05, 0.000342840271, 0.106579483 , 0.162194952 , 0.711473644 , 0.00197714241, 0.0139743648, -0.94023633 , 2.5         , 3           , 12          , 0.0478316024, 0
0.142340109 , -0.0366762653, -9.80656052 , -0.000868903066, -0.000972892, 0.000250881742, 0.106579483 , 0.162194952 , 0.711473644 , 0.00196848926, 0.0139646316, -0.940233946, 2.51        , 3           , 50          , 0           , 0
0.146228626 , -0.0365170874, -9.782583   , 0.0006160183, -0.00163414516, 0.000393568655, 0.106781721 , 0.162329778 , 0.711473644 , 0.001974704 , 0.0139482822, -0.940230131, 2.52        , 3           , 11          , 0.0147139495, 0.0147139486
0.147236466 , -0.0225613788, -9.781058   , 0.00339623913, -3.04859677E-05, 0.00222279737, 0.106444657 , 0.162262365 , 0.711608469 , 0.002008977 , 0.0139479339, -0.9402077  , 2.53        , 3           , 12          , 0.0478316024, 0
0.112695739 , -0.03007582 , -9.809467   , 0.0021981725, 0.000137242212, 0.0008583229, 0.106646895 , 0.162329778 , 0.7117433   , 0.00203107879, 0.01394929  , -0.940199137, 2.54        , 3           , 50          , 0           , 0
0.128340751 , -0.034838222, -9.798538   , -0.00272285729, -0.000819778244, 0.00124340539, 0.106579483 , 0.162329778 , 0.711406231 , 0.002004024 , 0.0139410682, -0.940186739, 2.55        , 3           , 11          , 0.0147139495, 0.0147139486
0.139347613 , -0.04199497 , -9.770966   , -0.004374809, -0.0030119936, -0.000158070528, 0.106579483 , 0.162329778 , 0.711406231 , 0.00196025358, 0.01391095  , -0.940188646, 2.56        , 3           , 12          , 0.0478316024, 0
0.155437842 , -0.0162515156, -9.787233   , -0.00357431057, -0.00151411968, -0.000274529652, 0.10651207  , 0.162262365 , 0.711608469 , 0.00192447181, 0.0138958143, -0.940191269, 2.57        , 3           , 50          , 0           , 0
0.123867139 , -0.0298584085, -9.796714   , -8.366429E-05, -0.00104736409, -0.000317777856, 0.10651207  , 0.162397191 , 0.711608469 , 0.00192359078, 0.0138853472, -0.940194368, 2.58        , 3           , 11          , 0.0147139495, 0.0147139486
0.132258445 , -0.0364149325, -9.780904   , 0.00315059163, 0.00185820379, -0.000327264454, 0.10651207  , 0.16212754  , 0.7118107   , 0.00195505167, 0.0139039336, -0.9401977  , 2.59        , 3           , 12          , 0.0478316024, 0
0.14322789  , -0.0229044147, -9.787874   , 0.0015070393, -0.00272682984, 0.000240660767, 0.106646895 , 0.162262365 , 0.711541057 , 0.00207650778, 0.01385364  , -0.9401939  , 2.6         , 3           , 50          , 0           , 0
0.143630475 , -0.0301034655, -9.789761   , -0.0007472412, -0.000488483347, 0.000903167471, 0.106646895 , 0.162262365 , 0.711541057 , 0.00206915988, 0.013848735 , -0.94018507 , 2.61        , 3           , 11          , 0.01433154  , 0.0143315457
0.1425753   , -0.03255824 , -9.770375   , 0.000497585046, 0.00258060172, 0.000883773959, 0.106646895 , 0.162329778 , 0.711406231 , 0.00207425817, 0.0138745215, -0.940176249, 2.62        , 3           , 12          , 0.0487594679, 0
0.152420908 , -0.0256138574, -9.75304    , 0.00360689661, 0.00118244567, 0.00145512517, 0.106579483 , 0.16212754  , 0.711473644 , 0.00211052969, 0.0138863148, -0.940161467, 2.63        , 3           , 50          , 0           , 0
0.168736547 , -0.0398355834, -9.785577   , 0.00212617754, 0.001425988 , -5.310119E-05, 0.10651207  , 0.162329778 , 0.7118107   , 0.0021317848, 0.013900579 , -0.940161943, 2.64        , 3           , 11          , 0.01433154  , 0.0143315457
0.144139424 , -0.0286820959, -9.79651451 , 5.93812474E-05, 0.00108807406, 8.00753241E-07, 0.106714308 , 0.16212754  , 0.7117433   , 0.00213237782, 0.0139114568, -0.9401622  , 2.65        , 3           , 12          , 0.0487594679, 0
0.142001629 , -0.0102382656, -9.790449   , 0.004998561 , 0.00362127973, -0.000361327431, 0.106646895 , 0.16212754  , 0.711473644 , 0.00218231487, 0.0139476806, -0.940165758, 2.66        , 3           , 50          , 0           , 0
0.141811773 , -0.02922469 , -9.786154   , 0.0022664764, 0.0009281486, -0.0006318763, 0.106646895 , 0.16212754  , 0.711473644 , 0.00220489083, 0.0139569743, -0.940171957, 2.67        , 3           , 11          , 0.01433154  , 0.0143315457
0.1526748   , -0.0105355792, -9.771383   , -0.0007568583, -0.00198278576, -0.0002633996, 0.106646895 , 0.16212754  , 0.711541057 , 0.00219728565, 0.0139371511, -0.9401748  , 2.68        , 3           , 12          , 0.0487594679, 0
0.13511619  , -0.0281866528, -9.793429   , -0.0001823358, -0.00191052153, -0.0009743393, 0.10651207  , 0.1624646   , 0.7117433   , 0.002195326 , 0.0139180683, -0.940184355, 2.69        , 3           , 50          , 0           , 0
0.138285577 , -0.0152781606, -9.780153   , 0.000223584619, -0.00257291715, -0.0006230462, 0.106714308 , 0.162262365 , 0.7118781   , 0.00233077677, 0.0138684595, -0.9401891  , 2.7         , 3           , 11          , 0.0145584252, 0.0145584326
0.134331465 , -0.005744824, -9.782789   , 0.00176042016, 0.0005738814, -0.00164125708, 0.106646895 , 0.162329778 , 0.7117433   , 0.00234815315, 0.0138742365, -0.940205336, 2.71        , 3           , 12          , 0.0497033   , 0
0.147823319 , -0.0125631122, -9.788616   , 0.00335164368, 0.00362719665, -0.000299229869, 0.106646895 , 0.162329778 , 0.7117433   , 0.00238163024, 0.0139105152, -0.9402082  , 2.72        , 3           , 50          , 0           , 0
0.140151292 , -0.020981418, -9.796462   , -0.00230868626, 0.00129951246, 0.00192181091, 0.10651207  , 0.16212754  , 0.711608469 , 0.00235881144, 0.0139234653, -0.9401891  , 2.73        , 3           , 11          , 0.0145584252, 0.0145584326
0.142006785 , 0.0004528295, -9.778131   , 0.0006052572, -0.000143165729, -0.000299265375, 0.106646895 , 0.162397191 , 0.711608469 , 0.00236482336, 0.01392204  , -0.940192   , 2.74        , 3           , 12          , 0.0497033   , 0
0.125188336 , -0.03303136 , -9.796288   , 0.001370817 , -0.000525973039, 0.0015602957, 0.106983952 , 0.162329778 , 0.7117433   , 0.002378749 , 0.0139167439, -0.940176249, 2.75        , 3           , 50          , 0           , 0
0.137785181 , -0.0358271971, -9.79801    , -0.000886874564, -0.00508948462, 0.001551781 , 0.106849134 , 0.162329778 , 0.711608469 , 0.002370094 , 0.0138658118, -0.940161   , 2.76        , 3           , 11          , 0.0145584252, 0.0145584326
0.153102875 , -0.0221469142, -9.782353   , -0.001748998, -0.005515804, 0.00211270875, 0.106849134 , 0.16212754  , 0.711541057 , 0.00235289615, 0.0138106039, -0.94014    , 2.77        , 3           , 12          , 0.0497033   , 0
0.1717383   , -0.00467877276, -9.786046   , 0.000365919317, -0.0006693872, 0.002696868 , 0.106849134 , 0.16212754  , 0.711541057 , 0.00235692831, 0.01380385  , -0.940113068, 2.78        , 3           , 50          , 0           , 0
0.157653317 , -0.0216674656, -9.788631   , -0.000601830136, 0.000435874623, 0.000417209783, 0.106242418 , 0.162262365 , 0.7116759   , 0.002350967 , 0.0138081964, -0.940109   , 2.79        , 3           , 11          , 0.0145584252, 0.0145584326
0.112577021 , -0.0315930545, -9.794127   , 0.00221131812, -0.00114904961, 0.00134007516, 0.10651207  , 0.162397191 , 0.7116759   , 0.00235973345, 0.0140227815, -0.940095663, 2.8         , 3           , 12          , 0.050661955 , 0
0.1320557   , -0.007543357, -9.781476   , 0.0067867646, 0.000883055152, 0.00132620661, 0.106714308 , 0.16212754  , 0.711541057 , 0.00242778729, 0.0140315779, -0.9400823  , 2.81        , 3           , 50          , 0           , 0
0.16183877  , -0.0391072147, -9.76395    , 0.004293579 , 0.000902580447, 0.00195508357, 0.106849134 , 0.162262365 , 0.711473644 , 0.00247099739, 0.0140405567, -0.940062761, 2.82        , 3           , 11          , 0.0136722559, 0.0136722671
0.1403502   , -0.0365048349, -9.779024   , 0.00358185475, 0.005589835 , -0.0004857434, 0.106849134 , 0.162262365 , 0.711473644 , 0.00250674947, 0.0140964659, -0.9400675  , 2.83        , 3           , 12          , 0.050661955 , 0
0.156584114 , -0.0343817659, -9.779753   , 0.000931256043, 0.00425019348, 5.09113779E-05, 0.10651207  , 0.162329778 , 0.711541057 , 0.002516071 , 0.0141389668, -0.9400668  , 2.84        , 3           , 50          , 0           , 0
0.160380214 , -0.01230423 , -9.780818   , 0.000180683288, 0.00173577212, 0.00158401125, 0.10651207  , 0.162262365 , 0.711608469 , 0.00251810346, 0.0141562847, -0.94005084 , 2.85        , 3           , 11          , 0.0136722559, 0.0136722671
0.144685417 , -0.0231977273, -9.803674   , 0.000881340762, 0.000162600758, 0.000420684461, 0.106781721 , 0.162194952 , 0.7118107   , 0.00252697733, 0.0141579006, -0.9400468  , 2.86        , 3           , 12          , 0.050661955 , 0
0.149441689 , -0.03778596 , -9.792956   , 0.00262971781, 0.00323430775, -0.0004542027, 0.106781721 , 0.162397191 , 0.711473644 , 0.002553211 , 0.0141902547, -0.9400513  , 2.87        , 3           , 50          , 0           , 0
0.1508291   , -0.03863179 , -9.799277   , 0.00289325626, 0.0015810281, -0.000190323131, 0.106781721 , 0.162397191 , 0.711473644 , 0.00258211652, 0.0142060695, -0.940053   , 2.88        , 3           , 11          , 0.0136722559, 0.0136722671
0.139070451 , -0.0283719376, -9.779393   , -0.0008357525, -0.0003983388, 0.000974385 , 0.106781721 , 0.162262365 , 0.711406231 , 0.002573898 , 0.0142020611, -0.940043449, 2.89        , 3           , 12          , 0.050661955 , 0
0.1172471   , -0.0104542021, -9.792486   , 0.000111540117, -0.000315863028, -0.00123668218, 0.10651207  , 0.162194952 , 0.711541057 , 0.00259121717, 0.0141998176, -0.9400556  , 2.9         , 3           , 50          , 0           , 0
0.1550203   , -0.0130815767, -9.788104   , 0.00125053455, 2.69631528E-05, -0.0007953658, 0.10651207  , 0.162262365 , 0.711608469 , 0.00260361  , 0.0142001081, -0.9400635  , 2.91        , 3           , 11          , 0.0135765485, 0.0135765625
0.153842375 , -0.0499996133, -9.793057   , 0.000323208573, 0.0005263501, 0.0004941074, 0.106849134 , 0.162397191 , 0.7116759   , 0.00260691252, 0.014205358 , -0.94005847 , 2.92        , 3           , 12          , 0.0516343527, 0
0.139546812 , -0.0323420726, -9.788016   , -0.00132043869, 0.000249987468, 0.00119549176, 0.106579483 , 0.161992714 , 0.711473644 , 0.00259387866, 0.0142078279, -0.940046549, 2.93        , 3           , 50          , 0           , 0
0.161373645 , -0.0135051152, -9.795728   , 0.00321566267, 0.004794222 , 0.000788467354, 0.106579483 , 0.161992714 , 0.711473644 , 0.002626149 , 0.0142557472, -0.940038443, 2.94        , 3           , 11          , 0.0135765485, 0.0135765625
0.150392547 , -0.0216918252, -9.780567   , 0.000775027846, 0.00295409933, 0.0009613986, 0.106377244 , 0.162262365 , 0.711406231 , 0.00263403775, 0.0142852617, -0.940028667, 2.95        , 3           , 12          , 0.0516343527, 0
0.1346896   , -0.008560631, -9.772881   , -0.00146601908, -0.000740716758, -3.616923E-05, 0.10651207  , 0.162329778 , 0.711608469 , 0.00261937222, 0.0142778559, -0.940029144, 2.96        , 3           , 50          , 0           , 0
0.141843736 , -0.0242792349, -9.784741   , -0.000885661342, 0.000538631 , 0.000486825418, 0.10651207  , 0.162262365 , 0.7118107   , 0.00261058472, 0.0142832277, -0.940024137, 2.97        , 3           , 11          , 0.0135765485, 0.0135765625
0.141043127 , -0.0250086859, -9.800114   , 0.00261083222, 0.0012248   , -5.40796573E-05, 0.106781721 , 0.16212754  , 0.711541057 , 0.002636687 , 0.0142954784, -0.940024853, 2.98        , 3           , 12          , 0.0516343527, 0
0.152597785 , -0.0369164348, -9.792466   , -0.00104046066, -0.000675966, 0.000253608276, 0.106781721 , 0.16212754  , 0.711541057 , 0.00262631732, 0.0142887123, -0.94002223 , 2.99        , 3           , 50          , 0           , 0
0.155334651 , -0.02486711 , -9.782817   , -0.003813774, -0.0009911736, 0.000445700076, 0.10651207  , 0.16212754  , 0.711608469 , 0.00277095963, 0.0144854039, -0.9400153  , 3           , 3           , 11          , 0.01382618  , 0.0138261961
0.149882957 , -0.03513284 , -9.788405   , -0.002714938, 0.000804467243, -0.00123877416, 0.106646895 , 0.162262365 , 0.711541057 , 0.00274363044, 0.0144934831, -0.9400277  , 3.01        , 3           , 12          , 0.0526194945, 0
0.1538514   , -0.0410831124, -9.783469   , -0.00205775048, -0.00273126783, 0.0007175316, 0.106444657 , 0.162262365 , 0.711608469 , 0.00272315578, 0.0144661516, -0.940020561, 3.02        , 3           , 50          , 0           , 0
0.150547564 , -0.0439594947, -9.765014   , 0.00443078857, -0.00115109654, 0.000995132 , 0.10651207  , 0.162262365 , 0.711608469 , 0.00276760664, 0.0144546125, -0.9400108  , 3.03        , 3           , 11          , 0.01382618  , 0.0138261961
0.125124156 , -0.0384712331, -9.793641   , 0.00404806947, 0.00180411176, -0.000467020349, 0.10651207  , 0.162262365 , 0.711608469 , 0.00280802068, 0.014472669 , -0.9400153  , 3.04        , 3           , 12          , 0.0526194945, 0
0.122665718 , -0.008251548, -9.791959   , -3.697719E-05, 0.000321551925, 0.001632883 , 0.106444657 , 0.16212754  , 0.711473644 , 0.002807887 , 0.0144758383, -0.939998865, 3.05        , 3           , 50          , 0           , 0
0.156440079 , -0.0040849  , -9.787083   , -0.00345025118, -0.000137607538, 0.0007465264, 0.10651207  , 0.162262365 , 0.711608469 , 0.00277349213, 0.0144744413, -0.9399915  , 3.06        , 3           , 11          , 0.01382618  , 0.0138261961
0.1319902   , -0.0116499066, -9.777007   , -0.0006036472, -0.000304674264, 0.000189245577, 0.10651207  , 0.162329778 , 0.7116759   , 0.002767484 , 0.0144713894, -0.939989567, 3.07        , 3           , 12          , 0.0526194945, 0
0.114544913 , -0.008651257, -9.790232   , 0.002119567 , 0.00174173363, 0.0006650269, 0.106377244 , 0.162262365 , 0.7116759   , 0.002788776 , 0.0144887883, -0.9399829  , 3.08        , 3           , 50          , 0           , 0
0.147215411 , -0.0310511664, -9.78838348 , 0.0002363342, -0.00138929486, 0.000321817031, 0.10651207  , 0.162194952 , 0.7113388   , 0.00279118516, 0.0144748874, -0.9399798  , 3.09        , 3           , 11          , 0.01382618  , 0.0138261961
0.1490621   , -0.0229843948, -9.78511    , -0.00288695237, -0.002406223, -0.000284864975, 0.10651207  , 0.162194952 , 0.7113388   , 0.00279616588, 0.01450097  , -0.9399822  , 3.1         , 3           , 12          , 0.0536164269, 0
0.135539383 , -0.01799394 , -9.777046   , -0.002999545, 0.0004565344, 0.000256800675, 0.106579483 , 0.162262365 , 0.711473644 , 0.00276620826, 0.0145055279, -0.939979553, 3.11        , 3           , 50          , 0           , 0
0.142305627 , -0.02960693 , -9.792929   , 0.001056194 , 0.0011241266, 0.00115014229, 0.106444657 , 0.162329778 , 0.711608469 , 0.00277693779, 0.0145167373, -0.9399679  , 3.12        , 3           , 11          , 0.0132304188, 0.0132304374
0.165773451 , -0.0332873836, -9.804951   , -3.60306331E-05, -0.00108602585, 0.00111137237, 0.10651207  , 0.162329778 , 0.7116759   , 0.00277673756, 0.0145058464, -0.9399569  , 3.13        , 3           , 12          , 0.0536164269, 0
0.154783815 , -0.0477190576, -9.796185   , -0.004632112, 0.000194888955, -0.0006872577, 0.106444657 , 0.162194952 , 0.711473644 , 0.00273031788, 0.0145078124, -0.9399638  , 3.14        , 3           , 50          , 0           , 0
0.13544184  , -0.0386194736, -9.788127   , -0.000780279341, 0.00122991111, -0.0005769353, 0.106444657 , 0.162194952 , 0.711473644 , 0.00272243121, 0.0145201311, -0.93996954 , 3.15        , 3           , 11          , 0.0132304188, 0.0132304374
0.133963749 , -0.04414437 , -9.776461   , 0.000254599843, -0.000798497, 0.0006880132, 0.106646895 , 0.162060127 , 0.711406231 , 0.00272507546, 0.0145121245, -0.9399626  , 3.16        , 3           , 12          , 0.0536164269, 0
0.135467812 , -0.0149876047, -9.76301    , 5.02122275E-05, -0.000431707042, -2.346493E-05, 0.10651207  , 0.162329778 , 0.711608469 , 0.00272557465, 0.01450781  , -0.9399631  , 3.17        , 3           , 50          , 0           , 0
0.171096027 , -0.006749455, -9.760781   , -0.00185270945, 0.00123306853, 0.000275131519, 0.106377244 , 0.162194952 , 0.7117433   , 0.00270708743, 0.014520132 , -0.939960241, 3.18        , 3           , 11          , 0.0132304188, 0.0132304374
0.131682    , -0.009202737, -9.794597   , 0.0006628992, -0.00202655187, 0.00131671492, 0.106714308 , 0.162262365 , 0.711473644 , 0.00271390751, 0.014499831 , -0.9399471  , 3.19        , 3           , 12          , 0.0536164269, 0
0.116337582 , -0.0193628669, -9.802082   , -0.000784538162, -0.00396260759, 0.00113695639, 0.106579483 , 0.162194952 , 0.711608469 , 0.002344798 , 0.0142450221, -0.9399409  , 3.2         , 3           , 50          , 0           , 0
0.153136954 , -0.008740712, -9.770906   , 0.00101706444, -0.00162086915, 0.00168288359, 0.106579483 , 0.162194952 , 0.711608469 , 0.00235520769, 0.0142287724, -0.939924   , 3.21        , 3           , 11          , 0.0131708253, 0.013170843
0.149521157 , -0.009620843, -9.770047   , 0.00555496663, 0.00200861949, -0.00059777085, 0.106781721 , 0.1624646   , 0.711406231 , 0.00241067377, 0.0142488759, -0.939929962, 3.22        , 3           , 12          , 0.0546242781, 0
0.141851783 , -0.0207058825, -9.781537   , 0.00334312581, 0.001880046 , 0.000245355623, 0.106579483 , 0.162262365 , 0.711541057 , 0.00244414085, 0.0142676681, -0.93992734 , 3.23        , 3           , 50          , 0           , 0
0.136683911 , -0.0512614325, -9.787809   , 0.002585477 , -0.00170200807, 0.000975853938, 0.10651207  , 0.162194952 , 0.7117433   , 0.00247013452, 0.0142506231, -0.9399178  , 3.24        , 3           , 11          , 0.0131708253, 0.013170843
0.145801    , -0.03380774 , -9.782556   , 0.00144537468, -0.00148191419, 0.00168754056, 0.106579483 , 0.162329778 , 0.7116759   , 0.00248482847, 0.014235761 , -0.9399011  , 3.25        , 3           , 12          , 0.0546242781, 0
0.149856538 , -0.0129165929, -9.757434   , 0.00213527982, 0.00259917649, 0.00132162264, 0.106579483 , 0.162329778 , 0.7116759   , 0.00250637042, 0.0142617207, -0.939887762, 3.26        , 3           , 50          , 0           , 0
0.1507667   , -0.0289344564, -9.778389   , 0.00293585053, 0.00381495059, 0.0007002028, 0.106309831 , 0.162262365 , 0.711608469 , 0.00253583025, 0.0142998518, -0.9398806  , 3.27        , 3           , 11          , 0.0131708253, 0.013170843
0.133671179 , -0.0256485026, -9.776701   , 0.00178008468, 0.00168612355, -0.0003395263, 0.106242418 , 0.162397191 , 0.711541057 , 0.00255358312, 0.0143167237, -0.939883947, 3.28        , 3           , 12          , 0.0546242781, 0
0.140194774 , -0.0371880122, -9.757352   , 0.00219442439, 0.0018065219, 0.00173981977, 0.106714308 , 0.162329778 , 0.711473644 , 0.002575778 , 0.0143347429, -0.939866543, 3.29        , 3           , 50          , 0           , 0
0.136768565 , -0.02620427 , -9.769452   , 0.00376606081, 0.0014352143, 0.00145799166, 0.106849134 , 0.162329778 , 0.711473644 , 0.00263722939, 0.014349672 , -0.9398515  , 3.3         , 3           , 11          , 0.0122478791, 0.0122478763
0.133827254 , -0.0129457125, -9.78378    , 0.00185386487, 0.00167669263, 0.000662605336, 0.106849134 , 0.162329778 , 0.711473644 , 0.0026558626, 0.0143664237, -0.939844847, 3.31        , 3           , 12          , 0.0556422248, 0
0.138540328 , -0.03605762 , -9.777228   , 0.0021287424, 0.00137890538, 0.00159017823, 0.106781721 , 0.162262365 , 0.7112714   , 0.002677379 , 0.0143801691, -0.9398291  , 3.32        , 3           , 50          , 0           , 0
0.1602504   , -0.0196251739, -9.770967   , 0.000351685128, 0.0010451402, 0.00085884257, 0.106646895 , 0.162397191 , 0.711541057 , 0.00268102065, 0.0143905971, -0.9398203  , 3.33        , 3           , 11          , 0.0122478791, 0.0122478763
0.166170463 , -0.005329419, -9.763069   , -0.00355344545, 0.001022186 , -0.000167333972, 0.106646895 , 0.162397191 , 0.711608469 , 0.00264546252, 0.0144008249, -0.939821959, 3.34        , 3           , 12          , 0.0556422248, 0
0.145872265 , -0.0185640417, -9.774249   , -0.00463536056, -4.54888432E-05, 0.000239836052, 0.106714308 , 0.162194952 , 0.711541057 , 0.00259914366, 0.0144003611, -0.9398196  , 3.35        , 3           , 50          , 0           , 0
0.148538738 , -0.0141898058, -9.763784   , -0.000829046534, -0.00238673016, 0.00130269362, 0.106579483 , 0.16212754  , 0.711473644 , 0.00259103975, 0.0143764634, -0.9398067  , 3.36        , 3           , 11          , 0.0122478791, 0.0122478763
0.173390031 , -0.0147159975, -9.776663   , 0.0006654254, -0.001765416, 0.0022511126, 0.106579483 , 0.16212754  , 0.711473644 , 0.002598016 , 0.0143587487, -0.9397843  , 3.37        , 3           , 12          , 0.0556422248, 0
0.1362325   , -0.04057609 , -9.774591   , 0.0009676056, -0.0004748602, 0.00184236059, 0.106781721 , 0.162262365 , 0.7113388   , 0.00260795536, 0.0143539524, -0.9397657  , 3.38        , 3           , 50          , 0           , 0
0.123200938 , -0.026820926, -9.826949   , -0.00190312648, 0.00158960687, -0.001365332, 0.10651207  , 0.162329778 , 0.711541057 , 0.00258873  , 0.0143698836, -0.9397795  , 3.39        , 3           , 11          , 0.0122478791, 0.0122478763
0.138433322 , -0.0132713094, -9.799099   , -0.000970177236, 0.003191456 , 0.000452828564, 0.106579483 , 0.162262365 , 0.711608469 , 0.00258313  , 0.01434914  , -0.939774752, 3.4         , 3           , 12          , 0.056669496 , 0
0.148787767 , -0.00268006325, -9.785782   , -0.00421701325, -0.0009301534, 0.00022995472, 0.106849134 , 0.162262365 , 0.711406231 , 0.002540993 , 0.0143398307, -0.939772367, 3.41        , 3           , 50          , 0           , 0
0.1644941   , -0.0202574283, -9.799392   , 7.324025E-05, 0.000751096057, -0.00029163112, 0.106849134 , 0.162262365 , 0.711406231 , 0.00254168455, 0.0143473493, -0.9397752  , 3.42        , 3           , 11          , 0.01262999  , 0.0126299923
0.139787942 , -0.0150576495, -9.801817   , 0.00019160776, -0.00161014765, -0.0008259931, 0.106714308 , 0.16212754  , 0.7113388   , 0.002543481 , 0.0143312663, -0.9397836  , 3.43        , 3           , 12          , 0.056669496 , 0
0.143692911 , -0.00285468437, -9.765505   , 0.00344712543, -0.00258115912, -0.000104443032, 0.106579483 , 0.162194952 , 0.711406231 , 0.00257793628, 0.0143054565, -0.939784765, 3.44        , 3           , 50          , 0           , 0
0.137270957 , -0.0203415751, -9.769832   , 0.00388339628, -0.0005973563, 0.0019304899, 0.10651207  , 0.162397191 , 0.711608469 , 0.0026170467, 0.0142994327, -0.939765453, 3.45        , 3           , 11          , 0.01262999  , 0.0126299923
0.137579888 , -0.04994076 , -9.785527   , 0.00210448424, -0.00121578074, 0.0009803578, 0.106781721 , 0.162329778 , 0.711473644 , 0.00263823126, 0.0142872483, -0.9397557  , 3.46        , 3           , 12          , 0.056669496 , 0
0.1476349   , -0.0351084  , -9.78887749 , 0.00118590123, -0.0009869761, 0.0004771323, 0.106714308 , 0.162194952 , 0.711204    , 0.00265015755, 0.0142773669, -0.9397509  , 3.47        , 3           , 50          , 0           , 0
0.154215589 , -0.007585446, -9.795275   , 0.0006770529, 0.0031198333, -0.00139842869, 0.106714308 , 0.162194952 , 0.711204    , 0.00265672943, 0.0143086016, -0.939765   , 3.48        , 3           , 11          , 0.01262999  , 0.0126299923
0.158030778 , -0.019557178, -9.775504   , 0.00360500836, -0.000233683211, 0.00164782943, 0.10651207  , 0.162194952 , 0.711473644 , 0.00269301515, 0.0143062212, -0.9397483  , 3.49        , 3           , 12          , 0.056669496 , 0
0.143831879 , -0.0142153222, -9.799512   , -0.0009690688, -0.00243501668, -0.000416339433, 0.106444657 , 0.162329778 , 0.711406231 , 0.0026568193, 0.0143528553, -0.939753056, 3.5         , 3           , 50          , 0           , 0
0.145519838 , -0.01618463 , -9.785518   , -0.00379696884, -0.0009732246, -0.0004126057, 0.106646895 , 0.162262365 , 0.711473644 , 0.00261879  , 0.0143431332, -0.939757347, 3.51        , 3           , 11          , 0.01295081  , 0.0129508115
0.149952129 , -0.0283498876, -9.790133   , 0.00047456933, 0.000400969759, 0.00135094684, 0.106646895 , 0.162194952 , 0.711541057 , 0.002623729 , 0.0143471081, -0.939743757, 3.52        , 3           , 12          , 0.0577053875, 0
0.152094021 , -0.0530193038, -9.804401   , 0.007862301 , 0.000315601472, 0.00254015112, 0.106646895 , 0.162194952 , 0.711541057 , 0.00270271534, 0.0143501954, -0.939718246, 3.53        , 3           , 50          , 0           , 0
0.151248872 , -0.03556647 , -9.791108   , -0.00121280132, 0.000443902682, -0.00152097351, 0.106714308 , 0.162262365 , 0.7113388   , 0.0026903695, 0.0143546751, -0.939733744, 3.54        , 3           , 11          , 0.01295081  , 0.0129508115
0.151222438 , -0.02492376 , -9.774273   , -0.0009575306, -0.000444319536, 0.00132985925, 0.106646895 , 0.162262365 , 0.711473644 , 0.00268098572, 0.0143501963, -0.9397204  , 3.55        , 3           , 12          , 0.0577053875, 0
0.144588828 , -0.0246810932, -9.791495   , 0.000815951033, 0.00386006548, -0.00117273314, 0.106579483 , 0.162329778 , 0.711406231 , 0.00268897926, 0.0143888313, -0.939731836, 3.56        , 3           , 50          , 0           , 0
0.143404424 , -0.0275305063, -9.819093   , -0.00146783073, 0.00415440463, 0.0005347171, 0.10651207  , 0.162194952 , 0.711406231 , 0.002674379 , 0.014430359 , -0.939726353, 3.57        , 3           , 11          , 0.01295081  , 0.0129508115
0.141893521 , -0.0339959338, -9.803823   , 0.00163405575, 0.00211144565, 0.00109667773, 0.10651207  , 0.162194952 , 0.711406231 , 0.00269087963, 0.0144514441, -0.9397154  , 3.58        , 3           , 12          , 0.0577053875, 0
0.159757107 , -0.0303704087, -9.777871   , 0.00474613  , -0.000200175782, -0.000348683272, 0.106646895 , 0.162262365 , 0.7113388   , 0.00273829023, 0.0144494511, -0.939718962, 3.59        , 3           , 50          , 0           , 0
0.150913388 , -0.0184716862, -9.786848   , 0.001929255 , 0.0007350147, -0.002070281, 0.106444657 , 0.162329778 , 0.711406231 , 0.0027735366, 0.01454029  , -0.939739466, 3.6         , 3           , 11          , 0.0132026467, 0.0132026523
0.1569019   , -0.0390399024, -9.766253   , 0.00273965159, -0.00102384354, 0.00134378625, 0.10651207  , 0.162397191 , 0.711473644 , 0.002801129 , 0.0145300152, -0.9397259  , 3.61        , 3           , 12          , 0.05874922  , 0
0.150397077 , -0.0114468243, -9.768704   , -0.00123783492, -0.0004127898, 0.00161430985, 0.106781721 , 0.162262365 , 0.7116759   , 0.00278898352, 0.0145258419, -0.9397099  , 3.62        , 3           , 50          , 0           , 0
0.148104861 , -0.0252891686, -9.779726   , -0.00178084581, 0.0001917429, -0.00124240981, 0.106579483 , 0.16212754  , 0.711473644 , 0.00277099526, 0.014527793 , -0.9397223  , 3.63        , 3           , 11          , 0.0132026467, 0.0132026523
0.157122225 , -0.0346962661, -9.79285049 , -0.000676373951, -0.0015572072, 0.0007425505, 0.106579483 , 0.16212754  , 0.711473644 , 0.00276433956, 0.0145122046, -0.93971467 , 3.64        , 3           , 12          , 0.05874922  , 0
0.148189947 , -0.0207075141, -9.786448   , -0.00406214641, 0.000207181336, -0.0003976251, 0.106579483 , 0.162262365 , 0.711406231 , 0.002723661 , 0.0145142842, -0.9397187  , 3.65        , 3           , 50          , 0           , 0
0.152713761 , -0.0189334266, -9.787289   , -0.00123947323, -0.00154374947, -0.000119368349, 0.106646895 , 0.162397191 , 0.711541057 , 0.00271124672, 0.0144988494, -0.9397199  , 3.66        , 3           , 11          , 0.0132026467, 0.0132026523
0.148727417 , -0.0214680918, -9.800002   , 0.0004933014, -0.000115393734, -0.00151904032, 0.106444657 , 0.162194952 , 0.7116759   , 0.00271596  , 0.0144977383, -0.9397352  , 3.67        , 3           , 12          , 0.05874922  , 0
0.109014533 , -0.0372879729, -9.806874   , -0.001489541, 0.00160895125, 0.000210991129, 0.106714308 , 0.162194952 , 0.711541057 , 0.002701096 , 0.0145138213, -0.939733   , 3.68        , 3           , 50          , 0           , 0
0.127056465 , -0.0115777422, -9.779761   , -0.00380136026, -0.00152030226, 0.000151375119, 0.106714308 , 0.162194952 , 0.711541057 , 0.002663104 , 0.0144986138, -0.9397316  , 3.69        , 3           , 11          , 0.0132026467, 0.0132026523
0.1415618   , -0.0164502542, -9.799559   , 0.00243939925, -0.000469472725, 0.000777784036, 0.106646895 , 0.162329778 , 0.7113388   , 0.00261564553, 0.0144205606, -0.9397247  , 3.7         , 3           , 12          , 0.05980037  , 0
0.129860908 , -0.023907261, -9.809689   , -0.0009601268, 0.00043005927, 0.0001974159, 0.106714308 , 0.162262365 , 0.7117433   , 0.00260607223, 0.0144248558, -0.9397228  , 3.71        , 3           , 50          , 0           , 0
0.141409174 , -0.0220256243, -9.784266   , 0.00647903141, 0.004645938 , 0.00116305926, 0.10651207  , 0.162262365 , 0.711608469 , 0.002671033 , 0.014471285 , -0.9397111  , 3.72        , 3           , 11          , 0.0134056695, 0.013405676
0.14904514  , -0.0123271951, -9.769631   , 0.00250209868, 0.00497553125, 0.0008570812, 0.106781721 , 0.161992714 , 0.7113388   , 0.00269617955, 0.0145210139, -0.9397023  , 3.73        , 3           , 12          , 0.05980037  , 0
0.158400655 , -0.0299222711, -9.776522   , 0.0024688337, 0.00126279984, -0.00062799477, 0.10651207  , 0.162329778 , 0.7112714   , 0.00272077741, 0.0145336585, -0.9397085  , 3.74        , 3           , 50          , 0           , 0
0.1570435   , -0.0276946872, -9.772896   , -9.1126014E-05, 0.00128880644, -0.0006434153, 0.10651207  , 0.162329778 , 0.7112714   , 0.00271977321, 0.0145465648, -0.9397149  , 3.75        , 3           , 11          , 0.0134056695, 0.013405676
0.136493281 , 0.00033050403, -9.762373   , 0.003605486 , 0.00181416143, 0.0005318619, 0.106444657 , 0.162194952 , 0.711406231 , 0.00275590573, 0.014564692 , -0.939709663, 3.76        , 3           , 12          , 0.05980037  , 0
0.13051708  , -0.0158317685, -9.76442051 , 0.006141526 , -0.00078337884, -0.0003487714, 0.106444657 , 0.162262365 , 0.711473644 , 0.00281726965, 0.014556868 , -0.93971324 , 3.77        , 3           , 50          , 0           , 0
0.141962886 , -0.0497177541, -9.767869   , -0.0006809137, 0.00013803097, 0.000481119758, 0.106714308 , 0.16212754  , 0.711473644 , 0.00281053  , 0.0145582333, -0.9397085  , 3.78        , 3           , 11          , 0.0134056695, 0.013405676
0.18361716  , -0.0488330573, -9.799545   , -0.00240075355, -0.0009909479, 0.00045414528, 0.106714308 , 0.162329778 , 0.711608469 , 0.002786589 , 0.0145483157, -0.939703941, 3.79        , 3           , 12          , 0.05980037  , 0
0.154954523 , -0.0243106689, -9.792299   , 0.00211338117, -5.804817E-06, -0.0006543159, 0.106714308 , 0.162329778 , 0.711608469 , 0.00346229831, 0.0157961324, -0.939700365, 3.8         , 3           , 50          , 0           , 0
0.141501218 , -0.00541470759, -9.777299   , 0.00379251363, -0.00175285549, 0.0004755793, 0.106579483 , 0.162060127 , 0.711406231 , 0.00350029836, 0.0157785844, -0.9396956  , 3.81        , 3           , 11          , 0.013568243 , 0.0135682477
0.118840113 , -0.0219167173, -9.776342   , -0.0007554913, -0.00226698257, -0.0009910023, 0.106849134 , 0.162397191 , 0.711608469 , 0.003492584 , 0.0157559551, -0.9397056  , 3.82        , 3           , 12          , 0.06085827  , 0
0.127417937 , -0.0304132532, -9.789913   , -0.00131420663, -0.000554525759, 0.000461432326, 0.10651207  , 0.162262365 , 0.711541057 , 0.00347951544, 0.01575039  , -0.9397011  , 3.83        , 3           , 50          , 0           , 0
0.154990643 , -0.0140172578, -9.784953   , 0.004378423 , 0.00136814069, 0.00338655524, 0.106579483 , 0.162194952 , 0.711473644 , 0.00352383382, 0.0157639533, -0.939667   , 3.84        , 3           , 11          , 0.013568243 , 0.0135682477
0.156106442 , -0.0290782657, -9.769308   , 0.0021301466, 0.00227403082, 0.00080989243, 0.106579483 , 0.162194952 , 0.711473644 , 0.003545265 , 0.0157866646, -0.9396589  , 3.85        , 3           , 12          , 0.06085827  , 0
0.125675932 , -0.02184972 , -9.788024   , 0.00532031246, 0.00740322936, 0.000617699348, 0.106444657 , 0.16212754  , 0.711204    , 0.0035985685, 0.015860673 , -0.939652443, 3.86        , 3           , 50          , 0           , 0
0.1437411   , -0.0183605719, -9.79142952 , 0.00132001459, 0.004879829 , -0.001160834, 0.106579483 , 0.16212754  , 0.711406231 , 0.003611587 , 0.0159095153, -0.9396641  , 3.87        , 3           , 11          , 0.013568243 , 0.0135682477
0.162443429 , -0.0183985084, -9.760995   , -0.00302937254, -0.0011129058, 0.0007289689, 0.106377244 , 0.162329778 , 0.711473644 , 0.00358140818, 0.01589836  , -0.939656734, 3.88        , 3           , 12          , 0.06085827  , 0
0.145962819 , -0.009967806, -9.776859   , 0.00182234135, -0.000576073537, -0.000664376363, 0.10651207  , 0.16212754  , 0.711473644 , 0.00359952543, 0.0158926211, -0.9396634  , 3.89        , 3           , 50          , 0           , 0
0.142863646 , 0.0008233041, -9.771342   , -0.00155198539, 0.00659391237, 0.00142215157, 0.106849134 , 0.162060127 , 0.711406231 , 0.00349826762, 0.0159263816, -0.9396503  , 3.9         , 3           , 11          , 0.0117878756, 0.0117879314
0.129659981 , -0.0117512681, -9.765738   , 0.0009411554, 0.000270842836, 0.00048726247, 0.106849134 , 0.162060127 , 0.711406231 , 0.00350775663, 0.0159290731, -0.9396455  , 3.91        , 3           , 12          , 0.0619223639, 0
0.128315076 , -0.014401393, -9.769845   , 0.0009540901, 0.0005702196, -0.0009393841, 0.106646895 , 0.162262365 , 0.7112714   , 0.00351714785, 0.0159348082, -0.9396546  , 3.92        , 3           , 50          , 0           , 0
0.138704568 , -0.02200695 , -9.78384    , 0.001259149 , 0.00285228458, -4.57903225E-05, 0.106444657 , 0.162262365 , 0.711541057 , 0.00352973351, 0.01596333  , -0.939655066, 3.93        , 3           , 11          , 0.0117878756, 0.0117879314
0.174147382 , -0.0340837538, -9.779589   , 0.000379694917, 0.00141526014, 0.00135902176, 0.106242418 , 0.162329778 , 0.711406231 , 0.00353374844, 0.0159774348, -0.9396415  , 3.94        , 3           , 12          , 0.0619223639, 0
0.150155276 , -0.04075084 , -9.769497   , 0.00037668366, 2.80968379E-07, -0.00066499383, 0.106444657 , 0.16212754  , 0.711406231 , 0.00353740854, 0.0159774628, -0.939648151, 3.95        , 3           , 50          , 0           , 0
0.132277668 , -0.029263325, -9.774949   , 0.00293883542, 0.000823773735, 0.000507603341, 0.106444657 , 0.16212754  , 0.711406231 , 0.003566878 , 0.0159856826, -0.939643145, 3.96        , 3           , 11          , 0.0117878756, 0.0117879314
0.155189157 , -0.0344377533, -9.773443   , 0.004096395 , 0.00253169  , 0.0005394981, 0.106646895 , 0.162194952 , 0.711473644 , 0.00360793015, 0.01601098  , -0.9396374  , 3.97        , 3           , 12          , 0.0619223639, 0
0.153105915 , -0.019916581, -9.78007    , 0.000102120088, 0.00283824769, 0.00280899624, 0.106444657 , 0.16212754  , 0.7113388   , 0.00360940374, 0.01603926  , -0.9396093  , 3.98        , 3           , 50          , 0           , 0
0.11841096  , -0.0387955979, -9.80003    , -0.0006937039, 0.006027443 , -0.000298039231, 0.106646895 , 0.162329778 , 0.711608469 , 0.00360242184, 0.0160995442, -0.93961215 , 3.99        , 3           , 11          , 0.0117878756, 0.0117879314
0.150076181 , -0.0321660973, -9.812761   , 0.000136340532, 0.000155529546, -0.0006563315, 0.106646895 , 0.162329778 , 0.711473644 , 0.00371256541, 0.01487345  , -0.93961525 , 4           , 3           , 12          , 0.06299213  , 0
0.15832141  , -0.0371657759, -9.773897   , 0.002919679 , -0.0041874107, 0.00101518352, 0.106579483 , 0.162194952 , 0.7112714   , 0.003741911 , 0.0148315355, -0.939605236, 4.01        , 3           , 50          , 0           , 0
0.1528317   , -0.04526408 , -9.771331   , 0.00407145824, -0.002487173, 0.00190557027, 0.106579483 , 0.162194952 , 0.7112714   , 0.00378290587, 0.0148065947, -0.9395864  , 4.02        , 3           , 11          , 0.0120070167, 0.0120070726
0.123888865 , -0.0347215831, -9.805804   , 0.0007021858, 0.000710111 , 0.0007862624, 0.106377244 , 0.162262365 , 0.711406231 , 0.00379004562, 0.0148136653, -0.9395783  , 4.03        , 3           , 12          , 0.06299213  , 0
0.118385337 , -0.03215783 , -9.788209   , 0.003869252 , 0.0038332555, 0.0005648546, 0.106579483 , 0.1624646   , 0.711608469 , 0.003828825 , 0.0148519771, -0.9395726  , 4.04        , 3           , 50          , 0           , 0
0.138265163 , -0.0117483363, -9.772885   , 0.007009388 , 0.002969887 , -0.00257662288, 0.10651207  , 0.162329778 , 0.711473644 , 0.00389853748, 0.0148817739, -0.9395983  , 4.05        , 3           , 11          , 0.0120070167, 0.0120070726
0.139261112 , -0.02496398 , -9.80284    , 0.002720773 , 0.00241959654, -0.000321358733, 0.106714308 , 0.162194952 , 0.711406231 , 0.00392569834, 0.0149059808, -0.9396014  , 4.06        , 3           , 12          , 0.06299213  , 0
0.158056661 , -0.01907241 , -9.77866    , 0.0006903589, -0.000152186, 0.00105990586, 0.106714308 , 0.162194952 , 0.711406231 , 0.00393275963, 0.014904418 , -0.9395907  , 4.07        , 3           , 50          , 0           , 0
0.133982643 , -0.030316323, -9.762299   , -0.000151399465, -0.00012816 , -0.00066221843, 0.106714308 , 0.162194952 , 0.7112714   , 0.003931148 , 0.01490316  , -0.939597368, 4.08        , 3           , 11          , 0.0120070167, 0.0120070726
0.145914853 , -0.03585904 , -9.801549   , 0.0052537797, 0.000382416882, 0.000237175118, 0.106646895 , 0.162329778 , 0.7116759   , 0.00398372067, 0.0149069754, -0.939595   , 4.09        , 3           , 12          , 0.06299213  , 0
0.159478843 , -0.0198650118, -9.78994751 , -0.00190976961, -0.00298271258, -0.000142128963, 0.106579483 , 0.162194952 , 0.711608469 , 0.00392053137, 0.0148742739, -0.939597368, 4.1         , 3           , 50          , 0           , 0
0.13740921  , -0.029922789, -9.80155849 , -0.003331151, -0.00240278454, 0.0007161432, 0.106579483 , 0.16212754  , 0.7113388   , 0.0038873232, 0.01485022  , -0.9395902  , 4.11        , 3           , 11          , 0.0103602884, 0.01036031
0.118243746 , -0.043503046, -9.781567   , -0.00358312135, -0.00122798316, -0.00213051634, 0.106579483 , 0.16212754  , 0.7113388   , 0.00385117624, 0.01483802  , -0.9396117  , 4.12        , 3           , 12          , 0.06406713  , 0
0.141318113 , -0.0332934372, -9.78485    , 0.00183496834, 0.00155731034, 0.000805413758, 0.106579483 , 0.16212754  , 0.711406231 , 0.003869646 , 0.0148535613, -0.939603567, 4.13        , 3           , 50          , 0           , 0
0.143054962 , -0.027175473, -9.76805    , 0.00157750549, 0.00159603322, -0.00320259575, 0.106714308 , 0.162329778 , 0.711406231 , 0.00388494669, 0.0148696471, -0.9396355  , 4.14        , 3           , 11          , 0.0103602884, 0.01036031
0.1554225   , -0.025177693, -9.795918   , -0.00211501075, 0.003898077 , -4.36775445E-05, 0.106646895 , 0.162329778 , 0.711608469 , 0.003863792 , 0.0149086276, -0.939635754, 4.15        , 3           , 12          , 0.06406713  , 0
0.1513896   , -0.03178987 , -9.806872   , -0.00476433476, -0.004660493, -0.001615124, 0.106444657 , 0.162329778 , 0.711473644 , 0.00381590566, 0.0148620838, -0.9396522  , 4.16        , 3           , 50          , 0           , 0
0.123117626 , -0.0162653215, -9.801985   , -0.00107461167, -0.00357989664, 0.0015716484, 0.106646895 , 0.162194952 , 0.7116759   , 0.003805391 , 0.014826226 , -0.939636469, 4.17        , 3           , 11          , 0.0103602884, 0.01036031
0.131917134 , -0.0166582558, -9.772548   , 0.000669701258, -0.00016084424, 0.00191817491, 0.106646895 , 0.162194952 , 0.7116759   , 0.00381237222, 0.0148245459, -0.9396174  , 4.18        , 3           , 12          , 0.06406713  , 0
0.153974771 , -0.03154635 , -9.789682   , 0.000930221751, -0.00273526786, 0.00102383457, 0.106781721 , 0.16212754  , 0.711406231 , 0.003821825 , 0.0147971548, -0.939607143, 4.19        , 3           , 50          , 0           , 0
0.158273488 , -0.008057119, -9.79659748 , 0.00208762  , -0.0001464711, 0.0007818186, 0.106916539 , 0.1624646   , 0.711541057 , 0.00380682084, 0.0148514919, -0.9396002  , 4.2         , 3           , 11          , 0.009967575 , 0.0099676
0.140067548 , -0.026896419, -9.791563   , -0.00106431963, -0.00212073931, 0.0007337565, 0.106714308 , 0.162194952 , 0.711541057 , 0.003796284 , 0.0148302568, -0.939592838, 4.21        , 3           , 12          , 0.0651468858, 0
0.1330942   , -0.0561077744, -9.795578   , 0.00183372211, 0.00102577079, -0.00177867664, 0.106781721 , 0.162329778 , 0.711541057 , 0.00381435733, 0.0148405815, -0.9396107  , 4.22        , 3           , 50          , 0           , 0
0.1552707   , -0.034758   , -9.785642   , -0.00165986456, -0.005254533, -0.000746399164, 0.106781721 , 0.162329778 , 0.711541057 , 0.00379764568, 0.0147880651, -0.939618349, 4.23        , 3           , 11          , 0.009967575 , 0.0099676
0.157286808 , -0.0157485455, -9.793534   , 0.00033396142, -0.004706721, -0.000153730347, 0.106646895 , 0.162194952 , 0.711473644 , 0.00380096  , 0.0147410035, -0.9396198  , 4.24        , 3           , 12          , 0.0651468858, 0
0.131772116 , -0.03513087 , -9.774118   , 0.0009382981, -0.0001502697, 0.00249194913, 0.106579483 , 0.162262365 , 0.7116759   , 0.00381071  , 0.0147394072, -0.939595   , 4.25        , 3           , 50          , 0           , 0
0.147706732 , -0.0309921745, -9.79425049 , 0.0006855087, 0.000459052 , -0.00122154923, 0.106714308 , 0.162262365 , 0.7117433   , 0.003817385 , 0.0147440434, -0.939607143, 4.26        , 3           , 11          , 0.009967575 , 0.0099676
0.133737519 , -0.0255468749, -9.786185   , -0.00187500473, 0.0007665186, -0.000660468359, 0.106579483 , 0.162194952 , 0.711608469 , 0.00379853928, 0.0147517323, -0.9396136  , 4.27        , 3           , 12          , 0.0651468858, 0
0.134669527 , -0.0117072985, -9.773821   , 0.003227861 , -0.0004369302, -7.399342E-05, 0.106579483 , 0.162329778 , 0.7112714   , 0.00383080659, 0.0147473663, -0.939614534, 4.28        , 3           , 50          , 0           , 0
0.1445329   , -0.0309986  , -9.791118   , 0.00267548067, 0.00100174488, -5.655254E-05, 0.106579483 , 0.162329778 , 0.7112714   , 0.00385755324, 0.0147573845, -0.939615   , 4.29        , 3           , 11          , 0.009967575 , 0.0099676
0.1342295   , -0.0134682842, -9.777459   , 0.00148670573, 0.000120357552, 0.00364395161, 0.106579483 , 0.162262365 , 0.711406231 , 0.00382397  , 0.0147586726, -0.939579248, 4.3         , 3           , 12          , 0.066231    , 0
0.1377958   , -0.0211214833, -9.78158    , 9.671013E-05, 0.0004597776, -0.0006529023, 0.106579483 , 0.162262365 , 0.711473644 , 0.00382484146, 0.0147632938, -0.9395857  , 4.31        , 3           , 50          , 0           , 0
0.160183638 , -0.03619739 , -9.781548   , 0.000623774831, -0.00185911113, 0.00160644832, 0.106849134 , 0.162060127 , 0.711541057 , 0.00383131579, 0.0147446413, -0.9395697  , 4.32        , 3           , 11          , 0.009993834 , 0.009993858
0.1349327   , -0.0355898663, -9.775901   , -0.00303294859, -7.391628E-05, -0.00153858855, 0.106714308 , 0.162194952 , 0.7113388   , 0.00380076026, 0.0147439614, -0.939585   , 4.33        , 3           , 12          , 0.066231    , 0
0.144951776 , -0.0355019  , -9.792069   , -0.00251248386, -0.00296596345, 0.000712414854, 0.106714308 , 0.162194952 , 0.7113388   , 0.00377573818, 0.0147142746, -0.939578056, 4.34        , 3           , 50          , 0           , 0
0.170618027 , -0.0201420449, -9.773135   , 0.0009659757, 0.00216546445, -5.03928641E-05, 0.106646895 , 0.162262365 , 0.711541057 , 0.00378539134, 0.0147359306, -0.939578533, 4.35        , 3           , 11          , 0.009993834 , 0.009993858
0.165784284 , 0.00233989768, -9.762983   , 9.533709E-05, 0.000175758 , -0.0009432399, 0.106444657 , 0.162532017 , 0.711406231 , 0.00378620462, 0.0147377225, -0.93958807 , 4.36        , 3           , 12          , 0.066231    , 0
0.147165731 , -0.0235599726, -9.772037   , 0.0006677823, 0.00130349782, 0.0005077012, 0.106377244 , 0.162262365 , 0.711608469 , 0.00379295833, 0.0147507414, -0.939583063, 4.37        , 3           , 50          , 0           , 0
0.140160888 , -0.0231923927, -9.800553   , 0.00237606  , 0.00241711945, 0.00225165975, 0.106781721 , 0.162060127 , 0.711473644 , 0.00381705281, 0.0147748226, -0.9395602  , 4.38        , 3           , 11          , 0.009993834 , 0.009993858
0.1184844   , -0.02889019 , -9.79856    , 0.0015180906, -0.000120150245, -0.00151117437, 0.106781721 , 0.162060127 , 0.711473644 , 0.00383201032, 0.014773679 , -0.939575434, 4.39        , 3           , 12          , 0.066231    , 0
0.152007073 , -0.03356656 , -9.768042   , -0.00268458249, -0.00155991665, 0.000169392486, 0.10651207  , 0.162194952 , 0.711204    , 0.00318811787, 0.0128849009, -0.939575434, 4.4         , 3           , 50          , 0           , 0
0.1540304   , -0.00697880425, -9.767715   , 0.001559182 , -0.00276237517, 0.00160921924, 0.106579483 , 0.162194952 , 0.711608469 , 0.003203915 , 0.0128572257, -0.9395592  , 4.41        , 3           , 11          , 0.00995772  , 0.009957746
0.158825591 , 0.00188791752, -9.799189   , -0.000125730861, -0.001023003, 0.001337816 , 0.10651207  , 0.1624646   , 0.711608469 , 0.003202829 , 0.0128469514, -0.9395461  , 4.42        , 3           , 12          , 0.06731909  , 0
0.137944221 , -0.007095035, -9.78593349 , -0.00409770245, -0.00125121081, -0.000693492941, 0.106781721 , 0.162329778 , 0.711406231 , 0.00316176284, 0.0128344614, -0.939553   , 4.43        , 3           , 50          , 0           , 0
0.151226416 , -0.0289238524, -9.779738   , -0.00180623634, 0.00044002806, -8.24166054E-05, 0.106714308 , 0.162194952 , 0.711541057 , 0.003143691 , 0.0128388656, -0.939554   , 4.44        , 3           , 11          , 0.00995772  , 0.009957746
0.1450685   , -0.01929834 , -9.78917    , 0.002747838 , -0.0001665666, -0.00149416935, 0.106714308 , 0.162194952 , 0.711541057 , 0.003170977 , 0.012837247 , -0.939568758, 4.45        , 3           , 12          , 0.06731909  , 0
0.137030378 , -0.00532711856, -9.781856   , 0.000166970829, -0.00129711465, -0.000381628022, 0.106646895 , 0.162262365 , 0.7113388   , 0.00317259785, 0.0128242858, -0.9395726  , 4.46        , 3           , 50          , 0           , 0
0.138464957 , -0.001649376, -9.789479   , 0.000464056822, 0.000127772422, 0.000213281033, 0.106781721 , 0.162329778 , 0.711608469 , 0.003177266 , 0.0128255561, -0.9395704  , 4.47        , 3           , 11          , 0.00995772  , 0.009957746
0.131588161 , -0.0155783193, -9.7888     , 0.00587282376, -0.0002034715, -0.0009029941, 0.106714308 , 0.162397191 , 0.711473644 , 0.00323587819, 0.012823551 , -0.9395795  , 4.48        , 3           , 12          , 0.06731909  , 0
0.146126509 , -0.0101622567, -9.800799   , 0.00446738955, 0.00209081243, 0.00055264734, 0.106646895 , 0.162060127 , 0.711473644 , 0.00328062382, 0.0128444405, -0.939574   , 4.49        , 3           , 50          , 0           , 0
0.140974015 , -0.0202180911, -9.78425    , 0.002433598 , 0.00158407947, -0.000327025715, 0.106646895 , 0.162060127 , 0.711473644 , 0.00317801465, 0.0129770432, -0.939579248, 4.5         , 3           , 11          , 0.00565348333, 0.00565345958
0.143556371 , -0.0266559087, -9.774815   , 9.72824637E-05, -0.001859908, 0.002756989 , 0.10651207  , 0.162397191 , 0.7112714   , 0.00317934388, 0.0129583562, -0.93955183 , 4.51        , 3           , 12          , 0.0684107542, 0
0.135900885 , -0.0252559  , -9.773063   , -0.00158596958, -0.0009649161, 0.000756080961, 0.106916539 , 0.162397191 , 0.711406231 , 0.003163581 , 0.0129486835, -0.939544439, 4.52        , 3           , 50          , 0           , 0
0.119238324 , -0.0300127473, -9.77869    , -0.00130097521, -0.00124926586, 0.000181292853, 0.106579483 , 0.162194952 , 0.711473644 , 0.00315059419, 0.0129361851, -0.939542532, 4.53        , 3           , 11          , 0.00565348333, 0.00565345958
0.144033685 , -0.0368564576, -9.791189   , 0.00335043669, 0.007585894 , 0.000624250737, 0.106444657 , 0.162329778 , 0.711406231 , 0.00318418234, 0.0130120236, -0.939535856, 4.54        , 3           , 12          , 0.0684107542, 0
0.163074583 , -0.0221315436, -9.791749   , -0.00328682782, -0.0009398999, -0.000112691385, 0.106444657 , 0.162329778 , 0.711406231 , 0.00315130013, 0.0130026275, -0.9395373  , 4.55        , 3           , 50          , 0           , 0
0.1552447   , -0.0330172852, -9.779749   , -0.00130591344, -0.00266680471, -0.00155655877, 0.106714308 , 0.162060127 , 0.711204    , 0.0031380367, 0.01297601  , -0.939553   , 4.56        , 3           , 11          , 0.00565348333, 0.00565345958
0.148904592 , -0.03212834 , -9.773474   , -0.000457266375, -0.00324607245, -0.00184592954, 0.106444657 , 0.162262365 , 0.711541057 , 0.00313322246, 0.0129436068, -0.9395716  , 4.57        , 3           , 12          , 0.0684107542, 0
0.1644053   , -0.0137164192, -9.77854    , -0.0004314205, -0.0006719788, -0.0012360398, 0.10651207  , 0.162397191 , 0.711541057 , 0.00312874955, 0.0129369283, -0.939584   , 4.58        , 3           , 50          , 0           , 0
0.1541135   , -0.0130834086, -9.787209   , 0.000120671 , -0.0009822539, 0.000766361365, 0.106714308 , 0.16212754  , 0.7116759   , 0.00313005457, 0.0129270824, -0.9395764  , 4.59        , 3           , 11          , 0.00565348333, 0.00565345958
0.148455292 , -0.0383548439, -9.781229   , -0.00389587786, -0.00293570664, 0.0009990985, 0.106579483 , 0.162194952 , 0.711406231 , 0.003063313 , 0.0129415579, -0.939566851, 4.6         , 3           , 12          , 0.06950569  , 0
0.149814457 , -0.0298961736, -9.772085   , 0.00354272616, 0.00156163168, 0.00254124333, 0.106579483 , 0.162194952 , 0.711406231 , 0.0030990704, 0.0129570961, -0.9395416  , 4.61        , 3           , 50          , 0           , 0
0.152609244 , -0.0262156688, -9.781051   , 0.00381755526, -0.00042939515, 0.000510593934, 0.106781721 , 0.162194952 , 0.711204    , 0.00313731283, 0.0129527869, -0.939536333, 4.62        , 3           , 11          , 0.0056745396, 0.005674523
0.136127308 , -0.0164515972, -9.795092   , -0.000457571354, -0.0009617687, 0.00076270994, 0.106377244 , 0.162329778 , 0.711473644 , 0.00313283363, 0.0129431449, -0.9395287  , 4.63        , 3           , 12          , 0.06950569  , 0
0.139174134 , -0.01708478 , -9.780617   , 0.0043737893, -0.00186295109, -7.917496E-05, 0.10651207  , 0.162194952 , 0.711473644 , 0.00317656086, 0.0129245175, -0.939529657, 4.64        , 3           , 50          , 0           , 0
0.144690722 , -0.003158588, -9.779954   , -0.000471590378, -0.002673565, -0.000120823257, 0.106781721 , 0.162329778 , 0.7113388   , 0.00317182764, 0.0128977895, -0.9395311  , 4.65        , 3           , 11          , 0.0056745396, 0.005674523
0.137586609 , -0.0450340137, -9.780502   , 0.0015348813, -0.0006979763, 0.00106504129, 0.106781721 , 0.162329778 , 0.7113388   , 0.00318731414, 0.0128907748, -0.9395206  , 4.66        , 3           , 12          , 0.06950569  , 0
0.137615263 , -0.04944145 , -9.790039   , 0.00213319575, 0.00102851691, -0.000337310776, 0.10651207  , 0.162060127 , 0.7113388   , 0.00320860161, 0.0129010705, -0.939523935, 4.67        , 3           , 50          , 0           , 0
0.152316511 , -0.0170678254, -9.792692   , -0.00211579562, 0.00194183667, -0.00149514712, 0.106646895 , 0.1624646   , 0.7113388   , 0.003187251 , 0.0129205361, -0.9395387  , 4.68        , 3           , 11          , 0.0056745396, 0.005674523
0.1422373   , -0.04039479 , -9.796215   , 0.0004095025, -0.00010558105, 0.000208042737, 0.106579483 , 0.162194952 , 0.7116759   , 0.00319137331, 0.0129194744, -0.9395366  , 4.69        , 3           , 12          , 0.06950569  , 0
0.162386358 , -0.03940721 , -9.778402   , 0.0007689057, 0.003953024 , 0.000268136966, 0.106579483 , 0.162262365 , 0.7113388   , 0.003284174 , 0.0131049464, -0.9395344  , 4.7         , 3           , 50          , 0           , 0
0.142161638 , -0.0311628841, -9.773976   , 0.0004929928, 0.00453163125, -1.13933929E-05, 0.106646895 , 0.162194952 , 0.711204    , 0.00328910328, 0.01315026  , -0.9395344  , 4.71        , 3           , 11          , 0.005821512 , 0.00582149345
0.122273982 , -0.0342241526, -9.766967   , -0.00212499336, -0.000316767429, 0.000188400008, 0.106646895 , 0.162194952 , 0.711204    , 0.00326787774, 0.0131470859, -0.9395325  , 4.72        , 3           , 12          , 0.07060358  , 0
0.160225078 , -0.0312374327, -9.78149    , -0.00185898051, -0.00175511232, 0.000455409754, 0.106175005 , 0.162194952 , 0.711406231 , 0.00324934651, 0.0131295212, -0.939528   , 4.73        , 3           , 50          , 0           , 0
0.150666833 , -0.0281971563, -9.763023   , -0.002101051, 0.000279426546, -0.00237872917, 0.106444657 , 0.162194952 , 0.711473644 , 0.00322802388, 0.01313239  , -0.9395516  , 4.74        , 3           , 11          , 0.005821512 , 0.00582149345
0.179056987 , -0.019503437, -9.755436   , -0.0046712  , 0.00057409564, -0.000386828033, 0.10651207  , 0.162329778 , 0.711406231 , 0.00318126078, 0.0131381433, -0.9395554  , 4.75        , 3           , 12          , 0.07060358  , 0
0.168403745 , -0.0254075173, -9.784961   , -0.00131650036, -0.0040535247, 0.000425448263, 0.106646895 , 0.162329778 , 0.711204    , 0.00316814962, 0.0130975936, -0.9395516  , 4.76        , 3           , 50          , 0           , 0
0.126860991 , -0.03235327 , -9.776842   , -0.00443625962, -0.00372748123, -0.0004477176, 0.106646895 , 0.162329778 , 0.711204    , 0.00312372646, 0.0130603341, -0.9395561  , 4.77        , 3           , 11          , 0.005821512 , 0.00582149345
0.135086045 , -0.0317939036, -9.793471   , -0.0024171418, -0.000324115885, 0.0013313425, 0.10651207  , 0.162329778 , 0.711204    , 0.003099729 , 0.0130570512, -0.9395428  , 4.78        , 3           , 12          , 0.07060358  , 0
0.141959578 , -0.015644297, -9.790963   , 0.000757078757, 0.00309072644, 0.0005417804, 0.106579483 , 0.162194952 , 0.711473644 , 0.003107372 , 0.01308794  , -0.939537048, 4.79        , 3           , 50          , 0           , 0
0.142557845 , -0.006518815, -9.801242   , -0.00698838849, -0.0011236358, 0.00100503443, 0.106579483 , 0.162262365 , 0.7113388   , 0.003001686 , 0.01311024  , -0.9395275  , 4.8         , 3           , 11          , 0.005740482 , 0.005740472
0.140923575 , -0.0225210153, -9.77976    , -0.00127649 , 0.0008246258, 0.0010685171, 0.106646895 , 0.16212754  , 0.711406231 , 0.00298906164, 0.0131184543, -0.9395168  , 4.81        , 3           , 12          , 0.07170411  , 0
0.155828118 , -0.03014642 , -9.795521   , 0.00153572892, -0.00150458235, 0.00191075471, 0.106646895 , 0.16212754  , 0.711406231 , 0.003004668 , 0.0131033538, -0.9394977  , 4.82        , 3           , 50          , 0           , 0
0.131541729 , -0.0218813159, -9.789776   , 0.000448865467, 0.00111434329, -0.001206341, 0.10651207  , 0.162329778 , 0.711406231 , 0.00300899846, 0.0131145306, -0.93950963 , 4.83        , 3           , 11          , 0.005740482 , 0.005740472
0.125207782 , -0.0303307474, -9.795804   , 0.0001292101, -0.000622718129, 0.00105621642, 0.106242418 , 0.162262365 , 0.711406231 , 0.003010429 , 0.0131082712, -0.93949914 , 4.84        , 3           , 12          , 0.07170411  , 0
0.133496627 , -0.0292285345, -9.821011   , -0.00156285777, 0.0008249558, 0.00135296769, 0.106377244 , 0.162397191 , 0.711473644 , 0.002994978 , 0.0131164808, -0.9394858  , 4.85        , 3           , 50          , 0           , 0
0.1565783   , -0.0317198746, -9.775657   , 0.000171844527, 0.00225587119, -0.000332868338, 0.106579483 , 0.162329778 , 0.711541057 , 0.00299665355, 0.0131390486, -0.9394889  , 4.86        , 3           , 11          , 0.005740482 , 0.005740472
0.159354627 , -0.02539684 , -9.77872    , 0.00127164274, -6.367781E-05, 0.001357581 , 0.106646895 , 0.162262365 , 0.711473644 , 0.00300954888, 0.0131383725, -0.9394753  , 4.87        , 3           , 12          , 0.07170411  , 0
0.152729452 , -0.01668374 , -9.786811   , -0.002754524, -0.00318583241, 0.00243234052, 0.106646895 , 0.162262365 , 0.711473644 , 0.002982322 , 0.0131064411, -0.939451   , 4.88        , 3           , 50          , 0           , 0
0.127509937 , -0.025375871, -9.797081   , 0.0006769167, -0.00263199187, 0.0007442644, 0.106714308 , 0.162262365 , 0.711473644 , 0.0029891876, 0.0130800977, -0.9394438  , 4.89        , 3           , 11          , 0.005740482 , 0.005740472
0.1283525   , -0.0170148872, -9.778458   , 0.00272061327, 0.0025185307, -0.000885746, 0.106579483 , 0.162262365 , 0.711406231 , 0.002962459 , 0.0130964369, -0.939452648, 4.9         , 3           , 12          , 0.07280701  , 0
0.146254778 , -0.0289097633, -9.777075   , -0.00103294093, -0.00146881014, 0.000464370532, 0.10651207  , 0.162397191 , 0.711608469 , 0.00295218942, 0.0130817359, -0.9394481  , 4.91        , 3           , 50          , 0           , 0
0.148328081 , -0.03454348 , -9.758148   , 0.000154607464, 0.00168991846, -0.001486015, 0.106444657 , 0.162262365 , 0.711473644 , 0.0029535417, 0.0130986786, -0.9394629  , 4.92        , 3           , 11          , 0.00586833851, 0.0058683157
0.130987182 , -0.033610642, -9.789013   , 0.00330488523, 0.00450856751, 0.000291551667, 0.106444657 , 0.162262365 , 0.711473644 , 0.00298663066, 0.0131437555, -0.9394598  , 4.93        , 3           , 12          , 0.07280701  , 0
0.135004967 , -0.0403756276, -9.792216   , 0.00187553163, 0.00423131743, 0.0008511392, 0.106714308 , 0.162329778 , 0.711204    , 0.00300550018, 0.0131860413, -0.9394512  , 4.94        , 3           , 50          , 0           , 0
0.138709918 , -0.0157668553, -9.776993   , 0.000422258949, 0.00138253334, 0.000514672836, 0.106377244 , 0.162262365 , 0.711541057 , 0.003009791 , 0.0131998528, -0.939446   , 4.95        , 3           , 11          , 0.00586833851, 0.0058683157
0.133988589 , -0.0352036953, -9.769131   , -0.00183565344, 0.002275626 , -0.000631169765, 0.106579483 , 0.162397191 , 0.711541057 , 0.00299135223, 0.0132226292, -0.9394522  , 4.96        , 3           , 12          , 0.07280701  , 0
0.138050854 , -0.0347783975, -9.769991   , -0.00159440225, -0.0003243928, 0.00133612985, 0.106781721 , 0.162329778 , 0.711473644 , 0.00297558471, 0.0132193444, -0.9394388  , 4.97        , 3           , 50          , 0           , 0
0.141893446 , -0.0201969  , -9.786952   , -0.0030358478, -0.00231087976, 0.0007260202, 0.106579483 , 0.16212754  , 0.7113388   , 0.00294532184, 0.0131962141, -0.939431667, 4.98        , 3           , 11          , 0.00586833851, 0.0058683157
0.138238132 , -0.0269242767, -9.787515   , -0.000456353067, -0.00146435131, -0.0006768587, 0.106579483 , 0.16212754  , 0.7113388   , 0.00294066849, 0.0131815914, -0.939438343, 4.99        , 3           , 12          , 0.07280701  , 0
0.145378232 , -0.0275298487, -9.778873   , -0.000487352838, -0.00291015417, 0.00130536547, 0.106781721 , 0.162262365 , 0.7113388   , 0.002933008 , 0.0131671242, -0.9394257  , 5           , 3           , 50          , 0           , 0
0.136001945 , -0.03667462 , -9.80165    , 0.000425101549, 0.00139266159, -5.77112842E-05, 0.10651207  , 0.162194952 , 0.711406231 , 0.002937252 , 0.0131810512, -0.9394262  , 5.01        , 3           , 11          , 0.005648341 , 0.005648319
0.145189047 , -0.0164429  , -9.803139   , -0.000736866146, -3.891377E-05, 0.00105922355, 0.10651207  , 0.162194952 , 0.711541057 , 0.002930022 , 0.0131806349, -0.9394157  , 5.02        , 3           , 12          , 0.073912    , 0
0.148337632 , -0.00490163267, -9.788523   , -0.000110778754, 0.0042642327, -1.94027234E-05, 0.106714308 , 0.162329778 , 0.7113388   , 0.00292891287, 0.0132232737, -0.9394157  , 5.03        , 3           , 50          , 0           , 0
0.142363876 , -0.0192796569, -9.788742   , 0.00126440206, -0.0003278036, -0.00093610445, 0.106714308 , 0.162329778 , 0.7113388   , 0.00294143334, 0.0132200234, -0.939425   , 5.04        , 3           , 11          , 0.005648341 , 0.005648319
0.141368672 , -0.03321603 , -9.792075   , 0.00125476741, -0.000340601226, 0.000494715758, 0.106579483 , 0.162194952 , 0.711406231 , 0.002954046 , 0.0132166035, -0.93942    , 5.05        , 3           , 12          , 0.073912    , 0
0.1399026   , -0.0391676575, -9.782672   , 0.00158569589, 0.00254021748, -0.00146498356, 0.10651207  , 0.162329778 , 0.711473644 , 0.00296971062, 0.0132420491, -0.939434767, 5.06        , 3           , 50          , 0           , 0
0.112564035 , -0.0249359068, -9.784115   , -0.00329407956, 0.00055513205, 0.00162447814, 0.106579483 , 0.162262365 , 0.711473644 , 0.00293698488, 0.0132475533, -0.939418554, 5.07        , 3           , 11          , 0.005648341 , 0.005648319
0.146900833 , -0.0148146376, -9.788198   , 0.00268164044, 0.000215549415, 0.000797793735, 0.106377244 , 0.162060127 , 0.711406231 , 0.00296390778, 0.0132496851, -0.939410448, 5.08        , 3           , 12          , 0.073912    , 0
