Acc X       , Acc Y       , Acc Z       , Gyro X      , Gyro Y      , Gyro Z      , Magn X      , Magn Y      , Magn Z      , Euler X     , Euler Y     , Euler Z     , Time        , Status      , LowRate X   , LowRate Y   , LowRate Z    
-0.0130532077, 0.0293782856, -9.785545   , 0.00135459518, 0.00274648  , 0.0006663818, 0.08837805  , 0.43434003  , 0.308952421 , -0.00450923853, -0.00224765763, -1.37221861 , 0           , 3           , 11          , 0.0346410163, 0.0346410163
-0.0234731  , 0.02625405  , -9.780257   , -0.0008022141, 0.000479358278, 0.000190897073, 0.08831064  , 0.434407443 , 0.3088176   , -0.004517265, -0.00224285549, -1.37221682 , 0.01        , 3           , 12          , 0.0346410163, 0
-0.0364570543, 0.0175770447, -9.801706   , -0.003205514, 0.00151078647, -0.000238305438, 0.08884994  , 0.433935553 , 0.310031    , -0.004549315, -0.002227759, -1.37221932 , 0.02        , 3           , 50          , 0           , 0
-0.0305078048, 0.0417104736, -9.78601551 , -0.00163559022, 0.001643302 , -0.0007991231, 0.0886477   , 0.434542269 , 0.30962652  , -0.00456565246, -0.00221136259, -1.37222731 , 0.03        , 3           , 11          , 0.0346410163, 0.0346410163
-0.0230389964, 0.03290242  , -9.769788   , 0.00179007044, 0.00218946347, -0.00162870728, 0.0886477   , 0.434542269 , 0.30962652  , -0.00454771658, -0.0021895424, -1.37224376 , 0.04        , 3           , 12          , 0.0346410163, 0
-0.02820321 , 0.0484496132, -9.785465   , -8.010693E-05, 0.000768951431, -0.0009453018, 0.0885128751, 0.4342052   , 0.30915466  , -0.00454849657, -0.00218189554, -1.3722533  , 0.05        , 3           , 50          , 0           , 0
-0.0382294431, 0.0269843247, -9.794387   , 0.00161786191, 0.0007400959, 0.000352716452, 0.08884994  , 0.434272617 , 0.310368061 , -0.004532325, -0.00217447849, -1.37224972 , 0.06        , 3           , 11          , 0.0346410163, 0.0346410163
-0.0133949537, 0.05803695  , -9.766248   , 0.00291476352, 0.00145505834, -0.00091687747, 0.08837805  , 0.434542269 , 0.309289455 , -0.004503158, -0.00215996965, -1.3722589  , 0.07        , 3           , 12          , 0.0346410163, 0
-0.0258604046, 0.07394292  , -9.767533   , 0.000908014248, -0.0003798002, -0.00181449112, 0.08884994  , 0.4341378   , 0.3095591   , -0.00449403841, -0.002163849, -1.372277   , 0.08        , 3           , 50          , 0           , 0
-0.0139163835, 0.0289981309, -9.79143    , 5.78500476E-05, 0.000479647773, -0.000805536751, 0.08884994  , 0.4341378   , 0.3095591   , -0.004493442, -0.00215908862, -1.37228513 , 0.09        , 3           , 11          , 0.0346410163, 0.0346410163
-0.00973333 , 0.027827885 , -9.81173    , -5.94096964E-05, 0.00219815876, 7.71398845E-05, 0.08878253  , 0.434542269 , 0.309828758 , -0.00382555742, -0.00181513571, -1.37228572 , 0.1         , 3           , 12          , 0.0346410163, 0
-0.0313528627, 0.0453642756, -9.789595   , 0.00148534274, 0.0008862609, 0.000783192634, 0.08844546  , 0.434407443 , 0.309222043 , -0.003810718, -0.00180624286, -1.37227786 , 0.11        , 3           , 50          , 0           , 0
-0.0294737  , 0.0176216848, -9.769571   , -8.95192E-05, -0.0006637935, -0.000393841532, 0.08884994  , 0.434272617 , 0.310435474 , -0.00381160551, -0.00181289564, -1.37228179 , 0.12        , 3           , 11          , 0.0346410163, 0.0346410163
-0.0167717617, 0.0544069447, -9.803358   , -0.00148751133, 0.000793788466, -0.001526197, 0.0885128751, 0.434407443 , 0.3094917   , -0.00382645358, -0.001805016, -1.37229693 , 0.13        , 3           , 12          , 0.0346410163, 0
0.00115934573, 0.04745267  , -9.800112   , 0.00120201078, 0.0003262302, -0.000371523871, 0.0885128751, 0.434407443 , 0.3094917   , -0.00381442625, -0.00180176785, -1.37230074 , 0.14        , 3           , 50          , 0           , 0
-0.024899317, 0.06289955  , -9.789785   , 0.00404887972, 0.00100610324, 0.000514536 , 0.0885128751, 0.433935553 , 0.309289455 , -0.00377394632, -0.00179168722, -1.37229562 , 0.15        , 3           , 11          , 0.0346410163, 0.0346410163
-0.014819501, 0.0432462431, -9.773658   , 0.00121176674, 0.00175016746, 0.0006509178, 0.08884994  , 0.434272617 , 0.309828758 , -0.00376184052, -0.00177416136, -1.37228918 , 0.16        , 3           , 12          , 0.0346410163, 0
-0.0202795565, 0.03608363  , -9.774242   , 7.82702045E-05, 0.00204958487, 0.0005051558, 0.08837805  , 0.434609681 , 0.309019834 , -0.00376106659, -0.00175364711, -1.37228417 , 0.17        , 3           , 50          , 0           , 0
-0.0213645957, 0.055197943 , -9.789389   , 0.0004969569, 0.00118807249, 0.000209041318, 0.0886477   , 0.434070379 , 0.310233235 , -0.00375610078, -0.00174175878, -1.37228215 , 0.18        , 3           , 11          , 0.0346410163, 0.0346410163
-0.0186900515, 0.08119933  , -9.818876   , -0.00208458514, -0.00107215508, -0.000555177568, 0.08831064  , 0.4347445   , 0.309761345 , -0.003776937, -0.00175250112, -1.37228775 , 0.19        , 3           , 12          , 0.0346410163, 0
-0.0192320235, 0.039862074 , -9.790902   , -0.00152796006, 0.0002132558, -0.000819082663, 0.08831064  , 0.4347445   , 0.309761345 , -0.00443259 , -0.00177191861, -1.37229478 , 0.2         , 3           , 50          , 0           , 0
-0.0252750684, 0.02092661  , -9.786659   , -8.65145339E-05, 0.00219974271, -0.000208972808, 0.08844546  , 0.434272617 , 0.30915466  , -0.00443345075, -0.00174993044, -1.37229693 , 0.21        , 3           , 11          , 0.02602409  , 0.0260241088
-0.025322685, 0.025305016 , -9.774413   , -8.58280036E-05, 0.00234175241, -6.38040437E-05, 0.08844546  , 0.43434003  , 0.310435474 , -0.004434308, -0.00172651582, -1.37229764 , 0.22        , 3           , 12          , 0.0346698426, 0
-0.0193836764, 0.0396298133, -9.769225   , 0.0007615788, 0.00190193532, 7.81578347E-05, 0.0882432237, 0.434609681 , 0.309087247 , -0.004426693, -0.00170749333, -1.37229693 , 0.23        , 3           , 50          , 0           , 0
-0.0141536631, 0.0533654764, -9.792505   , 0.00047933092, 0.00275432458, 0.001233621 , 0.08858029  , 0.434070379 , 0.309896171 , -0.00442192052, -0.00167989568, -1.37228465 , 0.24        , 3           , 11          , 0.02602409  , 0.0260241088
-0.01770657 , 0.0708321556, -9.778335   , -0.0008130299, 0.00218649069, 0.00207605585, 0.08858029  , 0.434070379 , 0.309896171 , -0.004430085, -0.00165793928, -1.372264   , 0.25        , 3           , 12          , 0.0346698426, 0
-0.00470405072, 0.07464113  , -9.765524   , -8.830885E-05, 0.00262065348, 0.0007988616, 0.08831064  , 0.434474856 , 0.30962652  , -0.004430982, -0.001631697, -1.37225616 , 0.26        , 3           , 50          , 0           , 0
-0.009292593, 0.053182032 , -9.779365   , -0.0012388475, 0.0007809651, -0.0005228581, 0.08817581  , 0.43434003  , 0.309289455 , -0.004443362, -0.0016239112, -1.3722614  , 0.27        , 3           , 11          , 0.02602409  , 0.0260241088
-0.02265553 , 0.0597526431, -9.792511   , -0.00370526756, -0.0029276805, 0.000266814139, 0.08844546  , 0.434070379 , 0.310435474 , -0.00448041875, -0.00165317545, -1.37225866 , 0.28        , 3           , 12          , 0.0346698426, 0
0.005403067 , 0.0403402038, -9.771248   , -0.00286157057, -0.00393681647, -2.88171123E-05, 0.08837805  , 0.434542269 , 0.309356868 , -0.004509034, -0.00169254467, -1.37225878 , 0.29        , 3           , 50          , 0           , 0
-0.0268552583, 0.0533300824, -9.779072   , 0.0004448762, -0.00137049321, -0.000400732184, 0.08844546  , 0.434002966 , 0.309356868 , -0.00446871063, -0.00149464456, -1.37226284 , 0.3         , 3           , 11          , 0.0241774619, 0.02417747
-0.0337088481, 0.08597898  , -9.790051   , 0.000186282079, 0.00120648963, 0.000207444216, 0.08844546  , 0.434002966 , 0.309356868 , -0.00446685 , -0.00148257031, -1.37226081 , 0.31        , 3           , 12          , 0.0347559527, 0
-0.0131979734, 0.06145458  , -9.790596   , -0.000678587938, 0.000212131461, 0.000187696656, 0.0885128751, 0.434407443 , 0.309963584 , -0.004473639, -0.00148044073, -1.3722589  , 0.32        , 3           , 50          , 0           , 0
-0.0148848165, 0.0231151637, -9.788796   , 2.08295442E-05, -0.00122158951, -0.000544297451, 0.08817581  , 0.434474856 , 0.309087247 , -0.004473423, -0.001492681, -1.37226439 , 0.33        , 3           , 11          , 0.0241774619, 0.02417747
-0.0133535918, 0.03984981  , -9.794461   , 0.0005693558, -0.00266538351, 1.05896561E-05, 0.08878253  , 0.4341378   , 0.310368061 , -0.00446773 , -0.00151933415, -1.37226415 , 0.34        , 3           , 12          , 0.0347559527, 0
-0.0298423022, 0.0585061871, -9.796656   , 0.0008695972, -0.000389717257, 0.00161959324, 0.08837805  , 0.434474856 , 0.309356868 , -0.004459059, -0.0015231591, -1.37224793 , 0.35        , 3           , 50          , 0           , 0
-0.0213536359, 0.0632271543, -9.781166   , 0.001184014 , 0.00204587542, 0.00137061777, 0.08837805  , 0.434474856 , 0.309356868 , -0.00444723852, -0.0015026395, -1.37223434 , 0.36        , 3           , 11          , 0.0241774619, 0.02417747
-0.03192614 , 0.02915494  , -9.79159451 , 0.00203184178, 0.000901128 , 0.000214407744, 0.0882432237, 0.4342052   , 0.309424281 , -0.00442692358, -0.00149361836, -1.37223232 , 0.37        , 3           , 12          , 0.0347559527, 0
-0.0150639266, 0.0346627   , -9.813961   , 0.001181966 , 0.000632176 , -0.00079647993, 0.08837805  , 0.4342052   , 0.310165823 , -0.004415092, -0.00148733181, -1.3722403  , 0.38        , 3           , 50          , 0           , 0
-0.04252184 , 0.04693112  , -9.80052    , 0.001196816 , 0.00192178239, -0.000777699, 0.08817581  , 0.434609681 , 0.308952421 , -0.00440311152, -0.00146814866, -1.37224817 , 0.39        , 3           , 11          , 0.0241774619, 0.02417747
-0.0156748053, 0.03709141  , -9.787739   , 0.000450967316, 0.00129489647, -0.0003598104, 0.0886477   , 0.434002966 , 0.310165823 , -0.00463851728, -0.003241822, -1.37225115 , 0.4         , 3           , 12          , 0.03489849  , 0
-0.03143532 , 0.0265423618, -9.800653   , -0.00141383871, -0.0004006768, -0.0009683166, 0.08837805  , 0.434542269 , 0.309761345 , -0.00465262448, -0.00324587338, -1.37226081 , 0.41        , 3           , 50          , 0           , 0
-0.0119324289, 0.05908668  , -9.781127   , -0.000293963356, -0.00114148087, 0.0004589231, 0.08837805  , 0.434542269 , 0.309761345 , -0.00465557864, -0.00325726671, -1.372256   , 0.42        , 3           , 11          , 0.0231509525, 0.0231509563
-0.00300391763, 0.0446470343, -9.787536   , 0.000996049 , 0.000128723288, 0.00120082428, 0.0882432237, 0.4342052   , 0.309356868 , -0.00464565726, -0.00325592374, -1.37224412 , 0.43        , 3           , 12          , 0.03489849  , 0
0.004619808 , 0.0772769451, -9.808319   , -0.000680192839, 0.00187961326, -0.000358316873, 0.08837805  , 0.4342052   , 0.310233235 , -0.004652447, -0.00323714456, -1.37224782 , 0.44        , 3           , 50          , 0           , 0
-0.00563233346, 0.0496789142, -9.792019   , -0.0001258859, 0.000443497818, -0.0006619217, 0.08797357  , 0.434609681 , 0.309019834 , -0.00465368526, -0.00323273987, -1.37225449 , 0.45        , 3           , 11          , 0.0231509525, 0.0231509563
-0.01702919 , 0.0344267674, -9.790493   , 0.00126798719, -0.001866143, -0.000400579069, 0.08858029  , 0.434070379 , 0.309761345 , -0.00464099133, -0.00325141987, -1.37225842 , 0.46        , 3           , 12          , 0.03489849  , 0
-0.0193155017, 0.0410696268, -9.777338   , 0.00184800744, -0.00115163508, -0.000815964362, 0.08858029  , 0.434070379 , 0.309761345 , -0.004622485, -0.00326297362, -1.37226653 , 0.47        , 3           , 50          , 0           , 0
-0.0436204076, 0.0404037   , -9.779827   , 0.00456641056, 0.0003945392, -0.0004905687, 0.0885128751, 0.434474856 , 0.309963584 , -0.00457680458, -0.003259051, -1.37227142 , 0.48        , 3           , 11          , 0.0231509525, 0.0231509563
-0.024204338, 0.05322913  , -9.771823   , 0.0021596665, 0.00170358818, 8.5976324E-05, 0.08817581  , 0.434407443 , 0.30915466  , -0.00455521047, -0.00324201118, -1.37227058 , 0.49        , 3           , 12          , 0.03489849  , 0
-0.00613887748, 0.0384682529, -9.797573   , 0.00103670079, 0.00316003617, -0.00061537954, 0.08831064  , 0.434070379 , 0.3106377   , -0.00457777129, -0.00318217673, -1.37227678 , 0.5         , 3           , 50          , 0           , 0
-0.01590191 , 0.04812029  , -9.806586   , 0.00245367363, 0.00285644946, -0.000324822118, 0.08817581  , 0.434542269 , 0.309289455 , -0.004553224, -0.00315362774, -1.37228012 , 0.51        , 3           , 11          , 0.01436572  , 0.0143657476
-0.00776977651, 0.0614462532, -9.794162   , 0.000438940653, 0.00115208293, 0.000210471 , 0.08831064  , 0.433935553 , 0.309424281 , -0.004548841, -0.00314209727, -1.37227821 , 0.52        , 3           , 12          , 0.0350963436, 0
-0.007001415, 0.0501076952, -9.788865   , -0.001420915, -0.000113621674, -0.000391775044, 0.08831064  , 0.433935553 , 0.309424281 , -0.004563038, -0.00314325118, -1.372282   , 0.53        , 3           , 50          , 0           , 0
-0.0286653116, 0.0328557044, -9.802814   , -0.002840092, 0.000328135677, -0.000107917687, 0.08858029  , 0.434542269 , 0.309963584 , -0.004591435, -0.00313997478, -1.3722831  , 0.54        , 3           , 11          , 0.01436572  , 0.0143657476
-0.0324394926, 0.0152630461, -9.79943752 , -0.0007492941, -0.00214865548, 0.00201568776, 0.08837805  , 0.434474856 , 0.309019834 , -0.004598991, -0.00316136866, -1.37226284 , 0.55        , 3           , 12          , 0.0350963436, 0
-0.0164640658, 0.04928821  , -9.78896    , 0.00394561561, -0.00205304474, 0.00204604561, 0.08858029  , 0.434070379 , 0.310165823 , -0.004559601, -0.003181805, -1.37224233 , 0.56        , 3           , 50          , 0           , 0
-0.0195445567, 0.0529858135, -9.794819   , 0.004554516 , 0.000675195653, 0.0008013829, 0.08837805  , 0.434542269 , 0.30962652  , -0.00451408047, -0.00317501673, -1.37223434 , 0.57        , 3           , 11          , 0.01436572  , 0.0143657476
-0.0205726288, 0.0519079566, -9.777677   , 0.001726207 , 0.00185424788, 0.000371697126, 0.08837805  , 0.434542269 , 0.30962652  , -0.004496831, -0.00315645756, -1.37223065 , 0.58        , 3           , 12          , 0.0350963436, 0
-0.0233591683, 0.0473498367, -9.770979   , -0.00124061282, 0.00360406353, 0.000378747674, 0.0885128751, 0.4341378   , 0.309222043 , -0.00450924737, -0.0031204  , -1.372227   , 0.59        , 3           , 50          , 0           , 0
-0.019653229, 0.0403556041, -9.794514   , -0.004532224, 0.00206968118, 0.000193048356, 0.0885128751, 0.4342052   , 0.310300648 , -0.00456675328, -0.0030733007, -1.37222517 , 0.6         , 3           , 11          , 0.0143208038, 0.0143208392
-0.0272966381, 0.05290245  , -9.780889   , -0.0040985425, 0.00193357526, -0.00109420635, 0.0881084   , 0.434542269 , 0.309087247 , -0.004607705, -0.00305401534, -1.37223613 , 0.61        , 3           , 12          , 0.0353481732, 0
-0.0138586462, 0.03665385  , -9.790438   , -0.00180377683, 0.003911393 , -0.000478956383, 0.0886477   , 0.433935553 , 0.309828758 , -0.004625727, -0.00301492354, -1.372241   , 0.62        , 3           , 50          , 0           , 0
-0.0136618866, 0.0445224755, -9.809317   , 0.00103263836, 0.004012989 , 0.000971084344, 0.0886477   , 0.433935553 , 0.309828758 , -0.00461542932, -0.00297474884, -1.37223148 , 0.63        , 3           , 11          , 0.0143208038, 0.0143208392
-0.0291804038, 0.0407727025, -9.783755   , 0.00144459272, 0.00215484854, -5.5047487E-05, 0.08844546  , 0.434474856 , 0.309828758 , -0.00460098125, -0.002953203, -1.3722322  , 0.64        , 3           , 12          , 0.0353481732, 0
-0.04044415 , 0.0421943963, -9.781134   , -0.00272680586, -0.00238084 , -0.00100516016, 0.08817581  , 0.434272617 , 0.309289455 , -0.00462821964, -0.00297705759, -1.37224209 , 0.65        , 3           , 50          , 0           , 0
-0.0105448943, 0.0560153536, -9.790184   , -0.003152924, -0.00167029561, 0.000147359475, 0.08858029  , 0.434407443 , 0.310368061 , -0.004659754, -0.00299375341, -1.37224054 , 0.66        , 3           , 11          , 0.0143208038, 0.0143208392
-0.00512312166, 0.05822283  , -9.790109   , 0.001152035 , 0.00186476  , 0.0006544756, 0.08831064  , 0.434542269 , 0.309424281 , -0.004648253, -0.002975076, -1.37223411 , 0.67        , 3           , 12          , 0.0353481732, 0
-0.01301403 , 0.041902028 , -9.775915   , 0.00314339157, 0.00170380261, 0.000378218567, 0.08858029  , 0.434070379 , 0.309356868 , -0.00461683 , -0.00295802066, -1.37223053 , 0.68        , 3           , 50          , 0           , 0
-0.020715069, 0.04456766  , -9.766018   , -0.000267683383, 0.00160030765, -0.000216756991, 0.08858029  , 0.434070379 , 0.309356868 , -0.0046195006, -0.00294202752, -1.37223268 , 0.69        , 3           , 11          , 0.0143208038, 0.0143208392
-0.03408867 , 0.0248590279, -9.80973148 , -0.0034015507, 0.00106914376, -0.000386995234, 0.08844546  , 0.434474856 , 0.309896171 , -0.00465173461, -0.00290540163, -1.37223661 , 0.7         , 3           , 12          , 0.0356524177, 0
-0.022554718, 0.0347311571, -9.772472   , -0.001003069, 3.1316813E-05, 0.0007576173, 0.08817581  , 0.4346771   , 0.309087247 , -0.0046617873, -0.00290505285, -1.3722291  , 0.71        , 3           , 50          , 0           , 0
-0.0522662066, 0.03143588  , -9.777752   , -0.0007366344, -0.002111958, -0.0002735448, 0.08858029  , 0.434002966 , 0.310435474 , -0.00466914568, -0.002926185, -1.3722316  , 0.72        , 3           , 11          , 0.0143999513, 0.0143999886
-0.0385780446, 0.0413882062, -9.791513   , -0.00215140334, -0.001946542, -0.001138517, 0.08817581  , 0.434542269 , 0.3094917   , -0.00469062664, -0.00294570276, -1.37224281 , 0.73        , 3           , 12          , 0.0356524177, 0
-0.0267769936, 0.055230476 , -9.788085   , 0.00128785451, 0.001016346 , 0.000213603824, 0.08817581  , 0.434542269 , 0.3094917   , -0.00467775436, -0.00293552969, -1.37224078 , 0.74        , 3           , 50          , 0           , 0
-0.03713642 , 0.04329618  , -9.802319   , 0.00244280067, 0.00257969322, 0.000386493834, 0.08831064  , 0.434002966 , 0.309289455 , -0.00465333648, -0.00290971459, -1.372237   , 0.75        , 3           , 11          , 0.0143999513, 0.0143999886
-0.009777792, 0.0322111249, -9.799936   , 0.00215726462, 0.002157833 , -0.000193807864, 0.08844546  , 0.43434003  , 0.309896171 , -0.00463175774, -0.00288814516, -1.372239   , 0.76        , 3           , 12          , 0.0356524177, 0
-0.00128866918, 0.0280301012, -9.79539    , 0.00129115477, 0.001302925 , 0.000217777371, 0.0881084   , 0.434542269 , 0.308952421 , -0.0046188524, -0.00287510571, -1.372237   , 0.77        , 3           , 50          , 0           , 0
-0.0278889071, 0.0250905324, -9.794313   , -0.00128159591, 0.00046535494, 0.000619082246, 0.08858029  , 0.434002966 , 0.310031    , -0.004631686, -0.00287042372, -1.37223077 , 0.78        , 3           , 11          , 0.0143999513, 0.0143999886
-0.009374395, 0.0463797338, -9.77583    , 0.000155176807, 0.00188124343, 0.0009346808, 0.08817581  , 0.434609681 , 0.309693933 , -0.00463016052, -0.0028515684, -1.37222135 , 0.79        , 3           , 12          , 0.0356524177, 0
-0.00230889954, 0.0465501621, -9.755437   , 0.00313445786, 0.00159678282, 0.00123482547, 0.08817581  , 0.434609681 , 0.309693933 , -0.004604139, -0.00274783256, -1.372209   , 0.8         , 3           , 50          , 0           , 0
-0.007173653, 0.0324836746, -9.785457   , 0.00326361088, 0.0008724912, 0.00194065832, 0.08837805  , 0.434272617 , 0.309222043 , -0.004571556, -0.002739019, -1.37218952 , 0.81        , 3           , 11          , 0.0146203395, 0.01462036
-0.02464664 , 0.03365934  , -9.796895   , 0.00372395664, 0.003875958 , 0.00213013263, 0.0885128751, 0.434272617 , 0.310233235 , -0.00453437353, -0.00270016259, -1.37216854 , 0.82        , 3           , 12          , 0.0360073522, 0
-0.018965859, 0.04358243  , -9.75969    , 0.00514025474, 0.00244269148, 0.000543929869, 0.08797357  , 0.434609681 , 0.30915466  , -0.004482986, -0.002675711, -1.372163   , 0.83        , 3           , 50          , 0           , 0
-0.02206679 , 0.0392362922, -9.772415   , 0.00143209309, 0.0009143094, -0.000645954744, 0.0885128751, 0.433935553 , 0.30962652  , -0.00446864776, -0.00266659679, -1.37216961 , 0.84        , 3           , 11          , 0.0146203395, 0.01462036
-0.0205741618, 0.03231972  , -9.801391   , -0.0009751929, 0.00151714857, -0.00122449955, 0.0885128751, 0.433935553 , 0.30962652  , -0.004478367, -0.00265148026, -1.37218189 , 0.85        , 3           , 12          , 0.0360073522, 0
-0.0276522581, 0.04370348  , -9.80584049 , 0.00129977288, 0.00177549163, -0.000634290744, 0.08831064  , 0.434407443 , 0.30962652  , -0.004465351, -0.002633754, -1.37218845 , 0.86        , 3           , 50          , 0           , 0
-0.00266318955, 0.0360178351, -9.782211   , -0.000443865, -0.000513881, 0.0008959426, 0.08817581  , 0.43434003  , 0.309019834 , -0.00446981331, -0.00263885246, -1.37217951 , 0.87        , 3           , 11          , 0.0146203395, 0.01462036
-0.0132077187, 0.05431751  , -9.797907   , -0.002168655, -0.00207272847, 0.0008627078, 0.0885128751, 0.434272617 , 0.310165823 , -0.00449152431, -0.00265954132, -1.37217057 , 0.88        , 3           , 12          , 0.0360073522, 0
-0.00741762668, 0.05194428  , -9.791556   , -0.00371739385, -0.00118941988, 7.31269E-06 , 0.0881084   , 0.434474856 , 0.309222043 , -0.00452869758, -0.00267143524, -1.37217057 , 0.89        , 3           , 50          , 0           , 0
-0.01739283 , 0.05860056  , -9.773504   , -0.00290033873, -0.000644694141, -0.000839125656, 0.08837805  , 0.434002966 , 0.309222043 , -0.00466382224, -0.00241622981, -1.37217867 , 0.9         , 3           , 11          , 0.0148216924, 0.01482171
-0.0331224725, 0.0498793274, -9.788656   , 0.00138936087, 0.00131801551, -0.0007842101, 0.08837805  , 0.434002966 , 0.309222043 , -0.00464991 , -0.00240308628, -1.37218654 , 0.91        , 3           , 12          , 0.036411088 , 0
-0.0277262516, 0.04492555  , -9.793632   , 0.00036245957, -0.000406702835, 0.000901736 , 0.08831064  , 0.434272617 , 0.309896171 , -0.00464630639, -0.002407111, -1.37217748 , 0.92        , 3           , 50          , 0           , 0
-0.009323122, 0.04467772  , -9.785336   , -0.00307887024, -0.00280795 , 0.000845700153, 0.0880409852, 0.434407443 , 0.308952421 , -0.00467711641, -0.00243515056, -1.3721689  , 0.93        , 3           , 11          , 0.0148216924, 0.01482171
-0.01754955 , 0.03387816  , -9.781018   , -0.00389960012, -0.0002162296, 0.00044887574, 0.0886477   , 0.434070379 , 0.310368061 , -0.004716124, -0.002437292, -1.37216449 , 0.94        , 3           , 12          , 0.036411088 , 0
-0.008978892, 0.0293768812, -9.78867    , -0.00185696071, 0.00448825955, 0.0009589789, 0.0881084   , 0.434407443 , 0.30962652  , -0.00473471545, -0.00239236467, -1.37215507 , 0.95        , 3           , 50          , 0           , 0
-0.0148999449, 0.00973799452, -9.802954   , -0.00101711764, 0.00347400433, 0.00123567565, 0.0881084   , 0.434407443 , 0.30962652  , -0.00474491576, -0.002357566, -1.37214291 , 0.96        , 3           , 11          , 0.0148216924, 0.01482171
0.00183669862, 0.03641986  , -9.781262   , -0.00176919019, -0.000241740985, 0.000890972151, 0.08831064  , 0.4341378   , 0.309289455 , -0.004762629, -0.00235994137, -1.37213385 , 0.97        , 3           , 12          , 0.036411088 , 0
0.00523624755, 0.05858358  , -9.790009   , 0.0002169395, -0.000691837049, 0.000896705664, 0.08837805  , 0.4341378   , 0.309963584 , -0.00476048142, -0.002366817, -1.37212491 , 0.98        , 3           , 50          , 0           , 0
-0.00745596224, 0.0354156122, -9.806202   , 0.00135139935, -0.0009899747, 0.000899385661, 0.08797357  , 0.434542269 , 0.308750182 , -0.00474698748, -0.00237667421, -1.37211585 , 0.99        , 3           , 11          , 0.0148216924, 0.01482171
-0.00478575 , 0.02866721  , -9.80987    , -0.00127203146, -0.0007098268, 0.0003131464, 0.0885128751, 0.434002966 , 0.309828758 , -0.00460719038, -0.002166634, -1.372113   , 1           , 3           , 12          , 0.0368616357, 0
-0.0237056483, 0.0448418781, -9.789079   , -0.00254224427, -0.000260555884, -0.000403713522, 0.0882432237, 0.434474856 , 0.30962652  , -0.00463260338, -0.002169258, -1.372117   , 1.01        , 3           , 50          , 0           , 0
-0.00481970049, 0.0499816462, -9.778909   , -0.00224941014, -0.0001111976, -0.00140148739, 0.0882432237, 0.434474856 , 0.30962652  , -0.004655068, -0.00217043515, -1.372131   , 1.02        , 3           , 11          , 0.0143671287, 0.0143671427
-0.02872894 , 0.04166092  , -9.782838   , -0.00423622644, 0.00019688865, -0.00155238959, 0.0880409852, 0.4342052   , 0.30915466  , -0.004697396, -0.00216853828, -1.37214649 , 1.03        , 3           , 12          , 0.0368616357, 0
-0.0367062353, 0.0401456058, -9.803255   , -0.004106941, -0.000103932885, -0.000124886545, 0.0886477   , 0.434070379 , 0.310165823 , -0.00473846262, -0.00216958369, -1.3721478  , 1.04        , 3           , 50          , 0           , 0
-0.0218865983, 0.03728661  , -9.800894   , -0.00026026892, 0.0008536854, 0.000628261652, 0.08817581  , 0.434609681 , 0.308952421 , -0.004741079, -0.002161017, -1.37214148 , 1.05        , 3           , 11          , 0.0143671287, 0.0143671427
-0.02321727 , 0.04044503  , -9.799965   , 0.00162750424, 0.00413184334, 0.0005443124, 0.08858029  , 0.433935553 , 0.309222043 , -0.004724815, -0.00211967365, -1.37213624 , 1.06        , 3           , 12          , 0.0368616357, 0
-0.004026938, 0.031113185 , -9.78634548 , 0.00347732753, 0.00411434  , 0.0004123675, 0.08858029  , 0.433935553 , 0.309222043 , -0.00469004968, -0.00207851082, -1.3721323  , 1.07        , 3           , 50          , 0           , 0
-0.0143500743, 0.0388203636, -9.781836   , 0.00246584183, 0.002410098 , -0.000190998617, 0.08837805  , 0.434407443 , 0.309693933 , -0.00466538733, -0.002054419, -1.37213421 , 1.08        , 3           , 11          , 0.0143671287, 0.0143671427
-0.021449443, 0.04616532  , -9.788139   , -0.00182619411, 0.00016208888, -0.000393169845, 0.0881084   , 0.434407443 , 0.308750182 , -0.00468364125, -0.002052816, -1.372138   , 1.09        , 3           , 12          , 0.0368616357, 0
-0.040750213, 0.0277297311, -9.819696   , 1.369699E-06, -0.00158249319, -0.0004070988, 0.0885128751, 0.4341378   , 0.310300648 , -0.00468654558, -0.00208102772, -1.372142   , 1.1         , 3           , 50          , 0           , 0
-0.03329262 , 0.04071605  , -9.775212   , 0.00200633588, -0.00031439407, -0.000233242085, 0.08831064  , 0.434407443 , 0.309289455 , -0.004666477, -0.00208418234, -1.37214434 , 1.11        , 3           , 11          , 0.0140040144, 0.014004021
-0.00470059551, 0.0563959368, -9.788319   , 0.00287298835, 0.00124672358, 0.000510262558, 0.08831064  , 0.434407443 , 0.309289455 , -0.004637758, -0.00207169168, -1.37213922 , 1.12        , 3           , 12          , 0.03735692  , 0
-0.0102675073, 0.0379413255, -9.787228   , 0.00330019044, 0.001948599 , 0.0016679226, 0.08844546  , 0.434070379 , 0.309087247 , -0.00460479 , -0.00205212878, -1.37212253 , 1.13        , 3           , 50          , 0           , 0
-0.0347510353, 0.03344074  , -9.768535   , -0.00151795847, 0.0030084285, 0.0007949101, 0.08831064  , 0.434272617 , 0.309761345 , -0.00461998628, -0.00202200841, -1.37211466 , 1.14        , 3           , 11          , 0.0140040144, 0.014004021
-0.0413417  , 0.04665807  , -9.776121   , -0.004635381, 0.00361977145, 6.899985E-05, 0.0880409852, 0.434542269 , 0.3088176   , -0.00466634054, -0.001985808, -1.37211418 , 1.15        , 3           , 12          , 0.03735692  , 0
-0.03807488 , 0.0570450053, -9.780037   , -0.000383631617, 0.00228682067, 7.59198738E-05, 0.0882432237, 0.434002966 , 0.309963584 , -0.004670178, -0.00196293578, -1.37211347 , 1.16        , 3           , 50          , 0           , 0
-0.0234518275, 0.0302928425, -9.778403   , 0.00359275914, 0.00125101733, -0.0007731919, 0.0882432237, 0.434474856 , 0.309693933 , -0.00463423552, -0.00195046212, -1.37212133 , 1.17        , 3           , 11          , 0.0140040144, 0.014004021
-0.0155517049, 0.03950561  , -9.802616   , -0.000392423157, 0.000864162866, -0.00108960376, 0.0882432237, 0.434474856 , 0.309693933 , -0.004638139, -0.00194187136, -1.3721323  , 1.18        , 3           , 12          , 0.03735692  , 0
-0.0331265852, 0.05610491  , -9.780453   , -0.00238172035, 0.0014511497, -0.0003778405, 0.0882432237, 0.43386814  , 0.309222043 , -0.004661948, -0.00192737707, -1.372136   , 1.19        , 3           , 50          , 0           , 0
-0.02879732 , 0.0627258644, -9.81240749 , 0.0001261227, 8.508032E-05, 0.0004771735, 0.08878253  , 0.434070379 , 0.309828758 , -0.0047197286, -0.002006698, -1.37213123 , 1.2         , 3           , 11          , 0.0140472483, 0.0140472464
-0.0323544443, 0.04521726  , -9.775151   , 0.00110777607, -0.00121335976, 0.000321307452, 0.0881084   , 0.434609681 , 0.308885    , -0.00470865751, -0.002018816, -1.37212789 , 1.21        , 3           , 12          , 0.037894804 , 0
-0.03283351 , 0.04028058  , -9.7770195  , 0.00240660412, -0.000495837943, -0.00123445049, 0.08878253  , 0.434070379 , 0.3095591   , -0.00468456652, -0.00202383287, -1.37214029 , 1.22        , 3           , 50          , 0           , 0
-0.01960957 , 0.05155083  , -9.787157   , 0.000118294338, -0.00133629772, -0.000831432233, 0.08878253  , 0.434070379 , 0.3095591   , -0.00468336744, -0.0020372346, -1.37214863 , 1.23        , 3           , 11          , 0.0140472483, 0.0140472464
-0.03225191 , 0.04181325  , -9.794161   , -0.00058965 , -0.000478294445, 0.000178378934, 0.08837805  , 0.434407443 , 0.309424281 , -0.004689268, -0.00204200926, -1.37214673 , 1.24        , 3           , 12          , 0.037894804 , 0
-0.0355483368, 0.042064175 , -9.772959   , 0.0002796273, 0.000239722634, -0.000950703, 0.0882432237, 0.43434003  , 0.3088176   , -0.00468645152, -0.002039657, -1.37215638 , 1.25        , 3           , 50          , 0           , 0
-0.0121354368, 0.0374093354, -9.778217   , -0.00201005582, -0.000884756737, -0.00083802233, 0.08858029  , 0.43386814  , 0.310233235 , -0.00470653549, -0.00204854365, -1.37216461 , 1.26        , 3           , 11          , 0.0140472483, 0.0140472464
-0.00903449953, 0.04175547  , -9.76549149 , -0.0004401437, 0.000235428888, 0.000332751457, 0.08817581  , 0.434542269 , 0.308952421 , -0.004710944, -0.00204617367, -1.37216127 , 1.27        , 3           , 12          , 0.037894804 , 0
-0.0259959586, 0.05548483  , -9.770457   , -0.00230289041, -0.00103411474, 0.000159751507, 0.08858029  , 0.43386814  , 0.309222043 , -0.004733977, -0.00205650716, -1.37215972 , 1.28        , 3           , 50          , 0           , 0
-0.006545799, 0.0563438758, -9.782013   , -0.0027545772, -0.0030383938, 0.0004141306, 0.08858029  , 0.43386814  , 0.309222043 , -0.004761532, -0.00208687154, -1.37215519 , 1.29        , 3           , 11          , 0.0140472483, 0.0140472464
-0.0090254005, 0.0368729234, -9.772775   , -0.00135629158, -0.00228542718, 0.000147273953, 0.08837805  , 0.434407443 , 0.309761345 , -0.00483753346, -0.0020210566, -1.37215352 , 1.3         , 3           , 12          , 0.03847314  , 0
-0.022323288, 0.05645205  , -9.779446   , -0.00106304768, -0.001853329, -0.000417080329, 0.08783875  , 0.434542269 , 0.3088176   , -0.004848155, -0.00203960948, -1.37215769 , 1.31        , 3           , 50          , 0           , 0
-0.0262324288, 0.0642737   , -9.790684   , -0.0003668095, -0.00216248934, 0.00130001351, 0.08858029  , 0.433935553 , 0.3100984   , -0.00485185 , -0.00206117146, -1.37214446 , 1.32        , 3           , 11          , 0.0143914856, 0.0143914809
-0.0351065025, 0.03358983  , -9.782087   , -0.00278069568, -0.00213280879, 0.0007131216, 0.08844546  , 0.434407443 , 0.309289455 , -0.00487967255, -0.00208246429, -1.37213719 , 1.33        , 3           , 12          , 0.03847314  , 0
-0.0333621725, 0.0290360544, -9.779412   , -0.00104159769, 9.43528E-06 , -0.000389952358, 0.08844546  , 0.434407443 , 0.309289455 , -0.00489007961, -0.00208238931, -1.37214112 , 1.34        , 3           , 50          , 0           , 0
-0.0164342653, 0.0595719442, -9.780711   , -0.0007519308, 0.000295684353, -0.0006702294, 0.0882432237, 0.4341378   , 0.30915466  , -0.0048975856, -0.002079465, -1.37214792 , 1.35        , 3           , 11          , 0.0143914856, 0.0143914809
-0.0075131706, 0.0420049876, -9.78986549 , -0.0013451511, -0.00156514021, -0.0002715381, 0.0885128751, 0.434070379 , 0.309828758 , -0.004911031, -0.002095129, -1.37215042 , 1.36        , 3           , 12          , 0.03847314  , 0
-0.0124828657, 0.0411317945, -9.788567   , -0.0019372754, -0.00300121517, 0.000705741462, 0.0880409852, 0.434474856 , 0.308885    , -0.00493041938, -0.002125106, -1.372143   , 1.37        , 3           , 50          , 0           , 0
-0.0224288423, 0.0322531536, -9.79373    , -0.005071619, -0.00311783771, 0.0012571353, 0.08858029  , 0.43386814  , 0.309761345 , -0.004981163, -0.002156221, -1.37213039 , 1.38        , 3           , 11          , 0.0143914856, 0.0143914809
-0.0231962167, 0.04893482  , -9.79264    , -0.00376440841, -0.00126039784, 0.00043348156, 0.08844546  , 0.434474856 , 0.30962652  , -0.00501881726, -0.00216880348, -1.37212586 , 1.39        , 3           , 12          , 0.03847314  , 0
-0.0154161118, 0.06953725  , -9.785555   , -0.000179636525, -7.695428E-06, -0.00138647226, 0.08844546  , 0.434474856 , 0.30962652  , -0.005017144, -0.00220055017, -1.37213957 , 1.4         , 3           , 50          , 0           , 0
0.00313943252, 0.0358894542, -9.774933   , 0.00167237886, 0.000824301154, -0.0003612406, 0.08831064  , 0.434070379 , 0.308952421 , -0.005000411, -0.002192326, -1.37214327 , 1.41        , 3           , 11          , 0.0147098433, 0.0147098461
0.00088112615, 0.0261052568, -9.785907   , 0.00010438171, 0.000694345043, -8.65871261E-05, 0.0885128751, 0.4341378   , 0.3100984   , -0.004999366, -0.00218538684, -1.37214422 , 1.42        , 3           , 12          , 0.03908977  , 0
-0.038862288, 0.0452074371, -9.810896   , -0.00258595916, 0.0005964235, -0.00210809917, 0.0882432237, 0.434542269 , 0.308885    , -0.00502517866, -0.00217952835, -1.37216544 , 1.43        , 3           , 50          , 0           , 0
-0.0358382948, 0.0463197939, -9.79098    , -0.001730989, 0.0007310442, -0.00210087234, 0.0886477   , 0.434002966 , 0.309424281 , -0.005042444, -0.00217232364, -1.37218642 , 1.44        , 3           , 11          , 0.0147098433, 0.0147098461
-0.0275222529, 0.028519664 , -9.77801    , 0.0026460595, -0.00133131689, -0.0008157913, 0.0886477   , 0.434002966 , 0.309424281 , -0.005015965, -0.00218567741, -1.37219453 , 1.45        , 3           , 12          , 0.03908977  , 0
-0.0210983567, 0.0451192632, -9.775049   , 0.00362742436, -0.00150135718, 0.00104818493, 0.08837805  , 0.43434003  , 0.309693933 , -0.00497971429, -0.00220063841, -1.37218392 , 1.46        , 3           , 50          , 0           , 0
-0.0302201658, 0.03344509  , -9.772557   , 0.00237384415, 0.000804279465, 0.001073863 , 0.0881084   , 0.434542269 , 0.3088176   , -0.00495599862, -0.00219254242, -1.37217319 , 1.47        , 3           , 11          , 0.0147098433, 0.0147098461
-0.03351718 , 0.007877352 , -9.78282    , 0.00225088163, 0.00181898929, -5.70424636E-05, 0.0885128751, 0.434002966 , 0.310165823 , -0.004933488, -0.00217435532, -1.37217379 , 1.48        , 3           , 12          , 0.03908977  , 0
-0.0399936773, 0.0377394855, -9.786601   , 0.0005229248, 0.000397032563, 0.0006272195, 0.0881084   , 0.434609681 , 0.309222043 , -0.004928273, -0.00217035436, -1.37216747 , 1.49        , 3           , 50          , 0           , 0
-0.02690064 , 0.0385711528, -9.790536   , 0.00197101757, -0.00213474315, -0.000115628951, 0.0882432237, 0.433935553 , 0.309019834 , -0.004819909, -0.00235016 , -1.37216878 , 1.5         , 3           , 11          , 0.0142615633, 0.0142615661
-0.0133875031, 0.0357916728, -9.794509   , 0.00240015844, -0.00241797836, -0.0009757245, 0.0882432237, 0.433935553 , 0.309019834 , -0.00479588425, -0.00237438641, -1.37217844 , 1.51        , 3           , 12          , 0.03974256  , 0
-0.022449581, 0.04245946  , -9.778254   , -0.000144409161, -0.000396155519, 0.000182725678, 0.08844546  , 0.4342052   , 0.309828758 , -0.004797333, -0.00237833941, -1.37217653 , 1.52        , 3           , 50          , 0           , 0
-0.02104576 , 0.0420838855, -9.786376   , -0.0006995469, 0.00146215013, 0.00135108293, 0.0882432237, 0.434474856 , 0.30868277  , -0.00480436 , -0.00236365246, -1.372163   , 1.53        , 3           , 11          , 0.0142615633, 0.0142615661
-0.0121452883, 0.0324977636, -9.782791   , -0.0018725103, -0.00125391223, 0.00187690882, 0.0886477   , 0.434070379 , 0.310165823 , -0.00482313 , -0.00237610145, -1.37214422 , 1.54        , 3           , 12          , 0.03974256  , 0
-0.0220535882, 0.0281281751, -9.787902   , -0.00429711537, -0.00264944881, 0.0004106573, 0.0881084   , 0.434542269 , 0.3095591   , -0.00486611156, -0.00240257569, -1.37214    , 1.55        , 3           , 50          , 0           , 0
-0.03531965 , 0.0433047041, -9.804562   , -0.00243629655, -0.00138246431, 0.0008698214, 0.0881084   , 0.434542269 , 0.3095591   , -0.004890495, -0.00241635763, -1.37213123 , 1.56        , 3           , 11          , 0.0142615633, 0.0142615661
-0.02313648 , 0.0672768   , -9.778877   , 0.000390218716, -0.002140606, 0.00230734143, 0.08837805  , 0.434070379 , 0.30915466  , -0.004886649, -0.00243765023, -1.372108   , 1.57        , 3           , 12          , 0.03974256  , 0
-0.025677992, 0.0348021537, -9.776566   , -0.00141063 , -1.2130613E-05, -0.0012505874, 0.08831064  , 0.4342052   , 0.310031    , -0.00490072463, -0.0024378323, -1.3721205  , 1.58        , 3           , 50          , 0           , 0
-0.0368438  , 0.03637384  , -9.787942   , -0.004745784, 0.000383885636, -0.001694749, 0.08790616  , 0.434542269 , 0.308750182 , -0.004948141, -0.002434077, -1.37213743 , 1.59        , 3           , 11          , 0.0142615633, 0.0142615661
-0.0363198966, 0.0418243371, -9.79194    , 0.000367548928, 0.001393347 , 0.000211945269, 0.08844546  , 0.434070379 , 0.30962652  , -0.004828887, -0.00254492275, -1.37213588 , 1.6         , 3           , 12          , 0.04042941  , 0
-0.0192283764, 0.0425384752, -9.788161   , 0.00128442142, 0.000315682671, -0.0005135471, 0.08844546  , 0.434070379 , 0.30962652  , -0.004816029, -0.00254179072, -1.372141   , 1.61        , 3           , 50          , 0           , 0
-0.0280836541, 0.0459619239, -9.805819   , -0.0008111834, -0.00231806422, -0.00013532833, 0.08837805  , 0.434474856 , 0.3094917   , -0.00482413871, -0.00256497762, -1.3721422  , 1.62        , 3           , 11          , 0.0144379577, 0.01443797
-0.0149997547, 0.0401026   , -9.816607   , -0.00157779071, -0.00066676666, 0.000384744722, 0.08831064  , 0.4342052   , 0.308952421 , -0.00483992649, -0.00257162657, -1.37213826 , 1.63        , 3           , 12          , 0.04042941  , 0
-0.023064306, 0.0212901719, -9.780311   , 0.000479587557, -0.00118795014, 0.000246781128, 0.08858029  , 0.434070379 , 0.310233235 , -0.0048351367, -0.002583494, -1.37213588 , 1.64        , 3           , 50          , 0           , 0
-0.02523296 , 0.0379061848, -9.772009   , -0.00136898935, -0.00180373271, -0.000918402337, 0.08831064  , 0.434542269 , 0.308952421 , -0.00484880339, -0.0026015758, -1.37214482 , 1.65        , 3           , 11          , 0.0144379577, 0.01443797
-0.00208069757, 0.0451191328, -9.790232   , -0.00434495648, -0.0005599093, -0.0004178685, 0.08858029  , 0.434070379 , 0.30915466  , -0.004892242, -0.002607195, -1.372149   , 1.66        , 3           , 12          , 0.04042941  , 0
-0.00205588527, 0.0540598258, -9.782902   , -0.00206661248, -0.0007909219, -0.00119424239, 0.08858029  , 0.434070379 , 0.30915466  , -0.004912877, -0.00261516264, -1.37216091 , 1.67        , 3           , 50          , 0           , 0
-0.0136566283, 0.0529880635, -9.799733   , -0.002356069, -0.001429636, -0.00156305148, 0.08844546  , 0.43434003  , 0.309761345 , -0.00493639661, -0.002629535, -1.37217641 , 1.68        , 3           , 11          , 0.0144379577, 0.01443797
-0.00525281 , 0.0486764   , -9.782992   , -0.00151307 , -0.00159311248, -0.00027225996, 0.0882432237, 0.4346771   , 0.308885    , -0.004951521, -0.00264547928, -1.372179   , 1.69        , 3           , 12          , 0.04042941  , 0
-0.0252484642, 0.0196319576, -9.792093   , 0.00214916468, 0.00124759425, -0.0008532156, 0.08884994  , 0.433935553 , 0.310233235 , -0.004931625, -0.00249119755, -1.37218761 , 1.7         , 3           , 50          , 0           , 0
-0.0192842968, 0.0362209529, -9.787783   , 0.00173336233, 0.002606781 , -0.000120551413, 0.0882432237, 0.434542269 , 0.309222043 , -0.004914288, -0.00246513635, -1.37218893 , 1.71        , 3           , 11          , 0.0145281861, 0.0145282019
-0.023512952, 0.0270832852, -9.773473   , 0.000143235113, -2.17842626E-05, -0.000883990142, 0.0882432237, 0.434542269 , 0.309222043 , -0.00491283368, -0.00246539735, -1.37219787 , 1.72        , 3           , 12          , 0.0411482863, 0
-0.01593701 , 0.05474355  , -9.79341    , -0.00147895119, 0.000576947641, -0.00188706908, 0.08844546  , 0.4341378   , 0.309087247 , -0.00492757559, -0.00245972 , -1.3722167  , 1.73        , 3           , 50          , 0           , 0
-0.01048681 , 0.0569945872, -9.79739952 , -0.002784318, -8.162704E-06, 0.00088697247, 0.08837805  , 0.43434003  , 0.309963584 , -0.00495544076, -0.00245975773, -1.37220776 , 1.74        , 3           , 11          , 0.0145281861, 0.0145282019
-0.0338600278, 0.0334183834, -9.767171   , -0.00178333465, -0.0005754377, -0.0009039028, 0.08817581  , 0.434474856 , 0.308750182 , -0.0049732523, -0.00246555661, -1.3722167  , 1.75        , 3           , 12          , 0.0411482863, 0
-0.0276805777, 0.04143443  , -9.804512   , -0.0004962731, -1.46427965E-05, -0.0009593864, 0.0886477   , 0.434070379 , 0.309828758 , -0.00497819157, -0.00246575079, -1.37222624 , 1.76        , 3           , 50          , 0           , 0
-0.026372131, 0.04046763  , -9.799542   , -0.00148053467, 0.000645393 , -0.001528321, 0.08831064  , 0.434542269 , 0.30962652  , -0.004992958, -0.00245937263, -1.3722415  , 1.77        , 3           , 11          , 0.0145281861, 0.0145282019
-0.0454925224, 0.0229501948, -9.790887   , 0.00085090223, -0.000739057432, -0.00160555064, 0.08831064  , 0.434542269 , 0.30962652  , -0.00498440955, -0.00246684323, -1.37225747 , 1.78        , 3           , 12          , 0.0411482863, 0
-0.0225561652, 0.0382900164, -9.767914   , -0.00356211467, -0.000770392246, -0.00113236473, 0.08831064  , 0.434272617 , 0.309087247 , -0.0050200033, -0.00247460348, -1.3722688  , 1.79        , 3           , 50          , 0           , 0
-0.00271784514, 0.0421660021, -9.766784   , -0.00168648874, 0.000208194353, -0.000105082181, 0.08871511  , 0.4342052   , 0.310435474 , -0.00499614561, -0.00246640388, -1.37227    , 1.8         , 3           , 11          , 0.0148261143, 0.0148261283
-0.021919908, 0.033674527 , -9.800483   , -0.000223515075, 0.0032815116, -0.0008386007, 0.0882432237, 0.434542269 , 0.308952421 , -0.00499836029, -0.00243363157, -1.37227857 , 1.81        , 3           , 12          , 0.0418972   , 0
-0.0178825185, 0.03895818  , -9.791803   , 9.907916E-06, -0.000739885552, -0.000179906754, 0.08871511  , 0.434002966 , 0.309356868 , -0.004998256, -0.00244103884, -1.37228036 , 1.82        , 3           , 50          , 0           , 0
-0.0336241052, 0.0538107529, -9.776419   , 0.000493719 , -0.001751169, 0.000166189333, 0.08871511  , 0.434002966 , 0.309356868 , -0.00499332324, -0.00245854235, -1.37227869 , 1.83        , 3           , 11          , 0.0148261143, 0.0148261283
-0.0502610542, 0.042416133 , -9.793868   , 0.00170856877, -0.00112056651, 0.00039748475, 0.0885128751, 0.434474856 , 0.309761345 , -0.00497624837, -0.00246972824, -1.37227464 , 1.84        , 3           , 12          , 0.0418972   , 0
-0.0265507754, 0.0366329625, -9.778358   , 0.00295202783, 0.00117066363, -0.000778042, 0.0881084   , 0.434407443 , 0.309087247 , -0.004946708, -0.00245806016, -1.37228239 , 1.85        , 3           , 50          , 0           , 0
-0.0269179959, 0.0443313122, -9.780983   , 0.00130164227, 0.000391507841, 5.912069E-05, 0.0885128751, 0.4342052   , 0.310368061 , -0.00493369345, -0.002454142, -1.37228179 , 1.86        , 3           , 11          , 0.0148261143, 0.0148261283
-0.0443408862, 0.0544863939, -9.788706   , 0.0004351223, -0.000746139849, 3.72863324E-05, 0.08817581  , 0.434407443 , 0.309289455 , -0.00492934324, -0.00246160128, -1.37228131 , 1.87        , 3           , 12          , 0.0418972   , 0
-0.0403846763, 0.05341381  , -9.776034   , 0.0007934963, -0.000957647455, -0.0007506532, 0.0885128751, 0.43386814  , 0.309222043 , -0.00492138974, -0.00247121486, -1.372289   , 1.88        , 3           , 50          , 0           , 0
-0.00640224852, 0.0668018162, -9.790022   , 0.00330626569, 0.0015886022, 0.000160392883, 0.0885128751, 0.43386814  , 0.309222043 , -0.00488833059, -0.00245532137, -1.37228739 , 1.89        , 3           , 11          , 0.0148261143, 0.0148261283
-0.0156823341, 0.03618959  , -9.787749   , 0.002039317 , 0.0008754367, -0.0014319832, 0.0885128751, 0.434272617 , 0.309896171 , -0.00511372462, -0.00221780036, -1.3723011  , 1.9         , 3           , 12          , 0.04267426  , 0
-0.0021786876, 0.03339559  , -9.790367   , -0.001160838, 0.0007665749, -0.00166796881, 0.08790616  , 0.434474856 , 0.308885    , -0.0051252963, -0.00221021986, -1.37231779 , 1.91        , 3           , 50          , 0           , 0
-0.004636634, 0.0228604861, -9.773348   , -0.00334564177, -0.00273706461, -8.650206E-05, 0.0885128751, 0.433935553 , 0.310233235 , -0.00515875127, -0.00223759469, -1.37231863 , 1.92        , 3           , 11          , 0.0153630218, 0.0153630329
-0.0273343641, 0.0368198454, -9.795076   , -0.00505441334, -0.00286365626, -2.732823E-05, 0.08844546  , 0.434542269 , 0.309424281 , -0.005209294, -0.002266232, -1.37231874 , 1.93        , 3           , 12          , 0.04267426  , 0
-0.02465425 , 0.0465565659, -9.780033   , -0.00181450893, -0.000373879855, -0.00161697739, 0.08844546  , 0.434542269 , 0.309424281 , -0.00522740232, -0.002270055, -1.37233484 , 1.94        , 3           , 50          , 0           , 0
-0.00227495655, 0.06866208  , -9.798544   , -0.00231427816, -8.928259E-05, -0.0008288511, 0.08831064  , 0.4342052   , 0.309019834 , -0.00525052659, -0.00227099145, -1.37234318 , 1.95        , 3           , 11          , 0.0153630218, 0.0153630329
-0.008515356, 0.0414119363, -9.775879   , 0.0007469504, 0.000801438 , 0.000276246981, 0.0886477   , 0.4342052   , 0.309963584 , -0.00524306344, -0.002262963, -1.37234044 , 1.96        , 3           , 12          , 0.04267426  , 0
-0.00665508 , 0.04326761  , -9.782166   , 0.0008609215, -0.00227113417, -0.0008408767, 0.08817581  , 0.434474856 , 0.308885    , -0.005234435, -0.00228571775, -1.37234879 , 1.97        , 3           , 50          , 0           , 0
-0.008317279, 0.04794719  , -9.79658    , -0.000129878739, -0.001478687, -0.000191527448, 0.0886477   , 0.433935553 , 0.309761345 , -0.00523572927, -0.00230051461, -1.37235057 , 1.98        , 3           , 11          , 0.0153630218, 0.0153630329
-0.011900235, 0.05958113  , -9.785186   , 0.001624484 , 0.001742068 , -0.00170819717, 0.08844546  , 0.434272617 , 0.30962652  , -0.005219445, -0.00228318316, -1.37236774 , 1.99        , 3           , 12          , 0.04267426  , 0
-0.0235640053, 0.0677606538, -9.781586   , -0.00161682279, 0.00160368509, -0.00151566416, 0.08844546  , 0.434272617 , 0.30962652  , -0.00530796638, -0.00217838283, -1.37238276 , 2           , 3           , 50          , 0           , 0
-0.019200623, 0.0559349954, -9.775809   , -0.00034806144, 0.00164632965, 0.000281614572, 0.08831064  , 0.43434003  , 0.308952421 , -0.00531145325, -0.0021619047, -1.37238    , 2.01        , 3           , 11          , 0.0151430489, 0.0151430629
-0.00694860751, 0.0245675687, -9.762508   , -0.000344833417, 0.002215009 , 0.000790748745, 0.0886477   , 0.434070379 , 0.310233235 , -0.00531491823, -0.002139713, -1.37237227 , 2.02        , 3           , 12          , 0.0434776433, 0
-0.03144026 , 0.0367728733, -9.787436   , -0.0017186082, 1.15855073E-05, 0.000321019121, 0.08837805  , 0.434474856 , 0.30915466  , -0.00533211045, -0.00213957974, -1.37236893 , 2.03        , 3           , 50          , 0           , 0
-0.0202092919, 0.0459842049, -9.772321   , -0.00227001868, 0.0009577053, -0.000670417736, 0.08844546  , 0.4337333   , 0.309356868 , -0.00535479654, -0.0021300388, -1.37237585 , 2.04        , 3           , 11          , 0.0151430489, 0.0151430629
-0.00756565854, 0.0428148732, -9.781276   , -0.000419641379, 0.0006587423, -0.00137886417, 0.08844546  , 0.4337333   , 0.309356868 , -0.00535896374, -0.00212352537, -1.37238967 , 2.05        , 3           , 12          , 0.0434776433, 0
-0.00312173 , 0.02532584  , -9.794083   , 0.000426392042, -6.509465E-05, -0.00152723992, 0.08837805  , 0.434407443 , 0.309761345 , -0.00535466662, -0.00212425785, -1.37240493 , 2.06        , 3           , 50          , 0           , 0
-0.0006893538, 0.0540722571, -9.785148   , 9.970538E-05, 0.00343375513, 0.000238728215, 0.08790616  , 0.434474856 , 0.308885    , -0.00535367476, -0.00208990835, -1.37240267 , 2.07        , 3           , 11          , 0.0151430489, 0.0151430629
-0.0093934  , 0.0347771533, -9.787257   , -0.00133315322, 0.00272855558, 0.000577432453, 0.0885128751, 0.434070379 , 0.310368061 , -0.005367018, -0.00206259172, -1.372397   , 2.08        , 3           , 12          , 0.0434776433, 0
-0.0263925381, 0.04399746  , -9.792274   , -0.000498121546, 0.00121406652, 0.0007037436, 0.0882432237, 0.434407443 , 0.309289455 , -0.00537201343, -0.00205041375, -1.37239    , 2.09        , 3           , 50          , 0           , 0
-0.0384622142, 0.050023146 , -9.797737   , 0.0008414256, 0.000217105029, 0.0007690059, 0.0882432237, 0.434407443 , 0.309289455 , -0.00522353547, -0.00215096213, -1.37238264 , 2.1         , 3           , 11          , 0.0152786355, 0.01527865
-0.0061390996, 0.04291924  , -9.792102   , -0.00170517946, -0.004278911, 0.00154677255, 0.0882432237, 0.434002966 , 0.309019834 , -0.005240621, -0.00219366979, -1.37236691 , 2.11        , 3           , 12          , 0.044305604 , 0
-0.0291884821, 0.0256257784, -9.801094   , 0.00212051976, -0.000573113, -0.000450958119, 0.0886477   , 0.434272617 , 0.309963584 , -0.005219406, -0.00219942443, -1.37237132 , 2.12        , 3           , 50          , 0           , 0
-0.021515226, 0.0349362232, -9.79233551 , -0.000169102757, -0.0009920225, 0.0008883535, 0.0880409852, 0.434474856 , 0.308615357 , -0.00522111729, -0.00220929878, -1.37236249 , 2.13        , 3           , 11          , 0.0152786355, 0.01527865
-0.0119134746, 0.0591157079, -9.783836   , 0.00050197175, 0.000877037935, -0.0005114833, 0.08844546  , 0.434002966 , 0.309963584 , -0.00521608628, -0.00220055529, -1.3723675  , 2.14        , 3           , 12          , 0.044305604 , 0
-0.00224366039, 0.04353416  , -9.76857    , -0.000383456441, -0.001696705, -0.00019648044, 0.08831064  , 0.43434003  , 0.3094917   , -0.005219917, -0.00221753167, -1.37236929 , 2.15        , 3           , 50          , 0           , 0
-0.004898565, 0.0476351827, -9.770354   , 0.00144979474, -0.00286500342, 0.00015566744, 0.08831064  , 0.43434003  , 0.3094917   , -0.00520542357, -0.002246173, -1.37236762 , 2.16        , 3           , 11          , 0.0152786355, 0.01527865
-0.03811373 , 0.03784477  , -9.7978735  , 0.0007673647, -0.000491581741, -2.88074043E-05, 0.0882432237, 0.43434003  , 0.309222043 , -0.00519774854, -0.002251091, -1.372368   , 2.17        , 3           , 12          , 0.044305604 , 0
-0.0118965451, 0.03688495  , -9.813454   , -0.000352799048, 0.00137762225, 0.000563795 , 0.08837805  , 0.4342052   , 0.3100984   , -0.00520128943, -0.00223728549, -1.37236238 , 2.18        , 3           , 50          , 0           , 0
-0.0088708885, 0.0553600565, -9.77256    , -0.00205881847, 0.001325235 , 0.000337848236, 0.0882432237, 0.434474856 , 0.308885    , -0.005221885, -0.00222401554, -1.37235892 , 2.19        , 3           , 11          , 0.0152786355, 0.01527865
-0.0315702967, 0.0339029133, -9.772113   , -0.00386883947, -0.0007054437, 0.00015396181, 0.08858029  , 0.433935553 , 0.309289455 , -0.00527942926, -0.00217503146, -1.37235737 , 2.2         , 3           , 12          , 0.045156505 , 0
0.00556906126, 0.04415552  , -9.790625   , 0.00103093917, -0.000975983, 0.0008242568, 0.08858029  , 0.433935553 , 0.309289455 , -0.00526913768, -0.00218474772, -1.37234914 , 2.21        , 3           , 50          , 0           , 0
-0.006203508, 0.04193033  , -9.783983   , 0.00201911  , 0.00368497474, -0.0006047158, 0.0885128751, 0.434542269 , 0.3095591   , -0.00524893356, -0.00214793044, -1.37235534 , 2.22        , 3           , 11          , 0.0147450464, 0.01474505
-0.03133502 , 0.0422756746, -9.795954   , -0.00106632675, 0.00135112018, -0.0005860255, 0.08831064  , 0.434474856 , 0.309019834 , -0.005259584, -0.00213444955, -1.37236118 , 2.23        , 3           , 12          , 0.045156505 , 0
-0.0299641117, 0.04318508  , -9.797737   , -0.000103376726, -0.00124204543, -0.0001883444, 0.08837805  , 0.434272617 , 0.310233235 , -0.00526061375, -0.00214687944, -1.372363   , 2.24        , 3           , 50          , 0           , 0
-0.0161675643, 0.0405912772, -9.777314   , 0.00311155617, 0.000438522518, 0.0005713825, 0.0882432237, 0.434407443 , 0.309087247 , -0.005229511, -0.00214246451, -1.37235737 , 2.25        , 3           , 11          , 0.0147450464, 0.01474505
-0.0105913989, 0.063511394 , -9.774288   , -0.000534859952, -0.000750274863, 0.00139029115, 0.08858029  , 0.434070379 , 0.309289455 , -0.00523488829, -0.00214989437, -1.37234342 , 2.26        , 3           , 12          , 0.045156505 , 0
0.00728812255, 0.0395630375, -9.784338   , -0.0011581392, 0.0003366575, 0.000758217764, 0.08858029  , 0.434070379 , 0.309289455 , -0.00524648651, -0.00214648782, -1.37233591 , 2.27        , 3           , 50          , 0           , 0
-0.007426837, 0.0590523146, -9.781538   , -0.00128131779, 0.00219766749, 0.001142194 , 0.08837805  , 0.4342052   , 0.30962652  , -0.00525932433, -0.00212445157, -1.37232447 , 2.28        , 3           , 11          , 0.0147450464, 0.01474505
-0.0156651717, 0.04645397  , -9.777694   , -0.00249347626, 0.0009356994, -0.000600852654, 0.0881084   , 0.434407443 , 0.308750182 , -0.005284246, -0.0021151267, -1.37233043 , 2.29        , 3           , 12          , 0.045156505 , 0
-0.0111062881, 0.0300312657, -9.805846   , -0.004142911, -0.00196384359, -0.00151193677, 0.0886477   , 0.4341378   , 0.310233235 , -0.00529629458, -0.00210661045, -1.37234557 , 2.3         , 3           , 50          , 0           , 0
-0.0135728884, 0.05890307  , -9.804633   , -0.00305762887, -0.000397854368, -0.00155409821, 0.0882432237, 0.434474856 , 0.309424281 , -0.005326838, -0.00211067148, -1.37236118 , 2.31        , 3           , 11          , 0.0151680252, 0.0151680373
-0.0367816724, 0.04492653  , -9.786488   , 0.0006468894, 0.000772943662, -0.0004409716, 0.0882432237, 0.434474856 , 0.309424281 , -0.00532036 , -0.00210296572, -1.37236559 , 2.32        , 3           , 12          , 0.04602877  , 0
-0.027983686, 0.0249453764, -9.780766   , 0.002147895 , 0.00175568112, 0.000154959052, 0.08844546  , 0.433935553 , 0.309222043 , -0.005298883, -0.00208540075, -1.37236428 , 2.33        , 3           , 50          , 0           , 0
-0.0147845205, 0.0388484746, -9.784098   , 0.00401361054, 0.00225312938, -0.00147204346, 0.08844546  , 0.4341378   , 0.3100984   , -0.00525871664, -0.00206294749, -1.37237906 , 2.34        , 3           , 11          , 0.0151680252, 0.0151680373
-0.0182005148, 0.04806731  , -9.799832   , -0.0009884964, 0.000225359108, -0.00146074477, 0.0880409852, 0.434542269 , 0.3088176   , -0.005268572, -0.002060771, -1.37239373 , 2.35        , 3           , 12          , 0.04602877  , 0
0.0017120241, 0.0462702364, -9.816382   , -0.00284376321, 0.0008000231, 0.000468072336, 0.08844546  , 0.434002966 , 0.309896171 , -0.00529701868, -0.00205274625, -1.37238908 , 2.36        , 3           , 50          , 0           , 0
-0.004411511, 0.0445716977, -9.779419   , -0.00199221983, -0.000269240147, -0.00111634017, 0.0885128751, 0.43434003  , 0.3094917   , -0.005316917, -0.002055497, -1.37240016 , 2.37        , 3           , 11          , 0.0151680252, 0.0151680373
-0.0211566  , 0.0347919837, -9.779235   , -0.00257546222, -0.002046262, -0.002075885, 0.0885128751, 0.43434003  , 0.3094917   , -0.00534262974, -0.00207606982, -1.37242079 , 2.38        , 3           , 12          , 0.04602877  , 0
-0.009572303, 0.02381993  , -9.774737   , -0.00136632682, -0.00121160317, -0.00062526227, 0.08817581  , 0.4342052   , 0.308952421 , -0.00535627967, -0.00208821916, -1.372427   , 2.39        , 3           , 50          , 0           , 0
-0.0140512222, 0.05218695  , -9.80878    , 0.0009264124, 0.001146167 , 0.0005670866, 0.0886477   , 0.4341378   , 0.310300648 , -0.00520030875, -0.002020998, -1.37242162 , 2.4         , 3           , 11          , 0.0154828094, 0.0154828187
-0.0155094946, 0.0542596877, -9.790701   , 0.00106203812, 7.772892E-05, -0.00030619945, 0.08797357  , 0.434474856 , 0.309087247 , -0.005189683, -0.00202023634, -1.37242472 , 2.41        , 3           , 12          , 0.0469209328, 0
0.00560575258, 0.0433214381, -9.796957   , -0.00288532767, 0.00256306469, -0.00129628589, 0.0885128751, 0.433935553 , 0.3095591   , -0.00521850958, -0.00199467363, -1.37243772 , 2.42        , 3           , 50          , 0           , 0
-0.0160606485, 0.03808423  , -9.795862   , -0.00441555772, -0.0005044103, -0.00113552366, 0.0885128751, 0.433935553 , 0.3095591   , -0.005262643, -0.00199977681, -1.37244892 , 2.43        , 3           , 11          , 0.0154828094, 0.0154828187
-0.0245862324, 0.0386483259, -9.799547   , -0.0008915635, -0.00171116251, 0.00158775772, 0.08837805  , 0.434542269 , 0.309761345 , -0.00527159 , -0.00201680418, -1.37243307 , 2.44        , 3           , 12          , 0.0469209328, 0
-0.0205139779, 0.041759707 , -9.798571   , -0.00307946769, -0.0007497072, 0.00072955084, 0.08837805  , 0.434407443 , 0.309019834 , -0.0053024  , -0.00202426268, -1.37242579 , 2.45        , 3           , 50          , 0           , 0
-0.00582337566, 0.04137389  , -9.774501   , -0.00119601237, 0.00104118651, -0.00130791648, 0.0885128751, 0.4341378   , 0.310300648 , -0.00531433336, -0.00201392034, -1.37243891 , 2.46        , 3           , 11          , 0.0154828094, 0.0154828187
-0.003505202, 0.0419019759, -9.783507   , -3.26789777E-05, -0.000865852868, 0.00224928744, 0.08831064  , 0.434407443 , 0.3095591   , -0.005314705, -0.00202245917, -1.37241626 , 2.47        , 3           , 12          , 0.0469209328, 0
-0.0242600832, 0.03088708  , -9.791051   , -0.000407469051, -0.00335701043, 0.00077980716, 0.08858029  , 0.433935553 , 0.309424281 , -0.005318796, -0.00205598725, -1.37240839 , 2.48        , 3           , 50          , 0           , 0
-0.0117522534, 0.03908323  , -9.766451   , 0.000131207067, 0.000149166823, 0.0007623904, 0.08858029  , 0.433935553 , 0.309424281 , -0.00531749846, -0.002054455, -1.37240076 , 2.49        , 3           , 11          , 0.0154828094, 0.0154828187
-0.0282282662, 0.0439599119, -9.787324   , -0.000648156856, 0.00433175825, 0.0004600908, 0.0886477   , 0.434407443 , 0.310031    , -0.00527202757, -0.00197750051, -1.37239647 , 2.5         , 3           , 12          , 0.0478315949, 0
-0.0443472452, 0.0429031625, -9.801939   , -0.00166306982, 0.00142363179, -0.00173491507, 0.08844546  , 0.434542269 , 0.309019834 , -0.00528862467, -0.00196335558, -1.37241387 , 2.51        , 3           , 50          , 0           , 0
-0.0114477016, 0.05201343  , -9.794755   , -0.002376712, -0.0031122826, 0.001414842 , 0.08891735  , 0.434002966 , 0.3100984   , -0.00531242043, -0.001994403, -1.37239957 , 2.52        , 3           , 11          , 0.0158240236, 0.0158240311
-0.00440847129, 0.04680203  , -9.777135   , 0.000923017738, -0.000779315946, 0.0012543546, 0.0886477   , 0.434474856 , 0.309828758 , -0.005303215, -0.00200212933, -1.37238693 , 2.53        , 3           , 12          , 0.0478315949, 0
-0.0301827081, 0.0424051434, -9.767035   , 0.00247553829, -0.00137540593, 0.002042382 , 0.0886477   , 0.434474856 , 0.309828758 , -0.005278501, -0.0020157746, -1.37236619 , 2.54        , 3           , 50          , 0           , 0
-0.0151924286, 0.05138098  , -9.774922   , -0.0025023655, -0.00146620732, 0.00179568806, 0.0885128751, 0.4341378   , 0.309222043 , -0.005303561, -0.002030342, -1.37234831 , 2.55        , 3           , 11          , 0.0158240236, 0.0158240311
0.00484820269, 0.05334114  , -9.805431   , -0.00444955472, -0.00430481555, 0.0008838954, 0.08878253  , 0.4342052   , 0.310233235 , -0.00534807565, -0.00207334221, -1.37233913 , 2.56        , 3           , 12          , 0.0478315949, 0
-0.0147911739, 0.0455152877, -9.774987   , -0.00342184585, -0.0010269474, 0.00179637957, 0.08831064  , 0.434542269 , 0.309019834 , -0.005382332, -0.00208351575, -1.37232113 , 2.57        , 3           , 50          , 0           , 0
-0.01058718 , 0.05506031  , -9.785226   , -0.000912093965, 0.0005981581, 0.00154920563, 0.08878253  , 0.434070379 , 0.309828758 , -0.005391485, -0.00207745074, -1.37230563 , 2.58        , 3           , 11          , 0.0158240236, 0.0158240311
-0.0154135516, 0.0256696753, -9.774318   , 0.005591915 , 0.00339821051, 0.00162992079, 0.08878253  , 0.434070379 , 0.309828758 , -0.005335599, -0.00204338133, -1.37228954 , 2.59        , 3           , 12          , 0.0478315949, 0
-0.0178248845, 0.048839394 , -9.788076   , 0.003278985 , 0.0002878557, 0.000782844669, 0.0885128751, 0.434474856 , 0.309761345 , -0.005156766, -0.00201531686, -1.37228179 , 2.6         , 3           , 50          , 0           , 0
-0.0127931088, 0.0466917455, -9.802055   , 0.00208380842, 0.000459423085, -0.00101087557, 0.0885128751, 0.434407443 , 0.309087247 , -0.00513590733, -0.00201077526, -1.372292   , 2.61        , 3           , 11          , 0.0162430387, 0.0162430461
-0.028214829, 0.0284008011, -9.808282   , 0.00130763859, 0.00181582291, 0.000435057067, 0.0886477   , 0.433935553 , 0.3105029   , -0.005122841, -0.00199259445, -1.37228775 , 2.62        , 3           , 12          , 0.04875946  , 0
-0.040620476, 0.0488497168, -9.812676   , 0.0003803126, 0.00231520971, 0.00172453024, 0.08831064  , 0.434609681 , 0.309087247 , -0.00511907 , -0.001969354, -1.37227058 , 2.63        , 3           , 50          , 0           , 0
-0.0362416431, 0.0437247381, -9.80095    , 0.0012458025, 0.00323984283, 0.00152861141, 0.0885128751, 0.43386814  , 0.309356868 , -0.005106642, -0.00193687831, -1.37225556 , 2.64        , 3           , 11          , 0.0162430387, 0.0162430461
-0.016985571, 0.0340484381, -9.797272   , 0.00160872284, 0.0026816288, -0.0005522829, 0.0885128751, 0.43386814  , 0.309356868 , -0.005090545, -0.00191009045, -1.37226129 , 2.65        , 3           , 12          , 0.04875946  , 0
-0.0122762509, 0.0539119877, -9.802871   , 0.002042796 , 0.004309768 , 0.00119126891, 0.08837805  , 0.43434003  , 0.309963584 , -0.00507013826, -0.00186693307, -1.3722496  , 2.66        , 3           , 50          , 0           , 0
-0.0343430229, 0.06210909  , -9.792591   , 0.000458028459, 0.00239381078, 0.0008675099, 0.0882432237, 0.434474856 , 0.308952421 , -0.005065575, -0.00184295163, -1.372241   , 2.67        , 3           , 11          , 0.0162430387, 0.0162430461
-0.02306763 , 0.0553636253, -9.803406   , -0.00245216512, 0.000948963163, -0.00253439043, 0.08891735  , 0.433935553 , 0.310368061 , -0.00509004947, -0.00183359114, -1.37226653 , 2.68        , 3           , 12          , 0.04875946  , 0
-0.01882652 , 0.03711885  , -9.787768   , -0.00495822541, 0.00137468148, 0.0007477636, 0.08831064  , 0.434542269 , 0.309356868 , -0.005139645, -0.00181980582, -1.372259   , 2.69        , 3           , 50          , 0           , 0
-0.0172670241, 0.0264952313, -9.765743   , -0.0059221494, -0.00120657962, 0.00149098889, 0.08831064  , 0.434542269 , 0.309356868 , -0.005044017, -0.00184371218, -1.37224424 , 2.7         , 3           , 11          , 0.0165259782, 0.0165259838
-0.0243208725, 0.021001026 , -9.794329   , -0.00200634217, -0.001945483, -0.0004274928, 0.08837805  , 0.4341378   , 0.309289455 , -0.005064073, -0.00186318846, -1.37224853 , 2.71        , 3           , 12          , 0.0497032963, 0
-0.0265866257, 0.0334621072, -9.77704048 , -0.002322563, 0.00114397367, -0.0009570971, 0.08837805  , 0.43434003  , 0.310165823 , -0.005087281, -0.00185179745, -1.37225807 , 2.72        , 3           , 50          , 0           , 0
-0.0267671868, 0.0485685021, -9.79764652 , -0.00461027073, 0.00171529362, 0.001827642 , 0.0882432237, 0.434407443 , 0.3088176   , -0.00513341743, -0.00183455134, -1.37223983 , 2.73        , 3           , 11          , 0.0165259782, 0.0165259838
-0.0292573068, 0.055592712 , -9.819721   , 0.000586684 , 0.00110603671, -9.501764E-06, 0.08871511  , 0.4342052   , 0.309963584 , -0.00512755 , -0.0018234913, -1.37224007 , 2.74        , 3           , 12          , 0.0497032963, 0
-0.0240305848, 0.05349526  , -9.79666    , 0.00140624528, -0.00162833335, 0.00031369488, 0.0885128751, 0.434542269 , 0.30962652  , -0.00511349365, -0.0018397586, -1.37223685 , 2.75        , 3           , 50          , 0           , 0
-0.048446   , 0.03886094  , -9.800216   , -0.0015259746, -0.00267914566, 0.0009243509, 0.0885128751, 0.434542269 , 0.30962652  , -0.0051287706, -0.00186650211, -1.37222743 , 2.76        , 3           , 11          , 0.0165259782, 0.0165259838
-0.0263040252, 0.0557064973, -9.790784   , -0.00236864155, -0.00145699456, 0.00143773528, 0.08831064  , 0.434272617 , 0.309222043 , -0.005152485, -0.00188099814, -1.37221289 , 2.77        , 3           , 12          , 0.0497032963, 0
-0.0190980751, 0.0525309779, -9.794819   , -0.00107992452, -0.00124674488, 0.0005185426, 0.08878253  , 0.434070379 , 0.310368061 , -0.00516329333, -0.001893438, -1.37220764 , 2.78        , 3           , 50          , 0           , 0
-0.0288814045, 0.06348734  , -9.7993     , -0.0002400697, -0.00324867014, -0.0009363519, 0.08831064  , 0.434474856 , 0.309087247 , -0.005165676, -0.00192597287, -1.37221682 , 2.79        , 3           , 11          , 0.0165259782, 0.0165259838
-0.03234813 , 0.0452269465, -9.776055   , 0.002045255 , -0.002331344, 0.0015302361, 0.08871511  , 0.434002966 , 0.3095591   , -0.00613896828, -0.0027220957, -1.37219942 , 2.8         , 3           , 12          , 0.05066195  , 0
-0.0429766774, 0.0504890569, -9.795515   , 0.00526555255, -0.000432002445, 0.001863847 , 0.08871511  , 0.434002966 , 0.3095591   , -0.006086365, -0.00272630178, -1.37218082 , 2.81        , 3           , 50          , 0           , 0
-0.04028675 , 0.0535638146, -9.790033   , 0.00177229254, -0.00104332727, 0.00204809033, 0.08831064  , 0.434474856 , 0.309828758 , -0.00606869766, -0.00273661059, -1.37216032 , 2.82        , 3           , 11          , 0.0162416231, 0.0162416231
-0.0364124  , 0.03411539  , -9.787964   , 0.002943335 , 0.00117634085, 0.000942632963, 0.08831064  , 0.434474856 , 0.309222043 , -0.00603928929, -0.00272479 , -1.37215078 , 2.83        , 3           , 12          , 0.05066195  , 0
-0.0222723465, 0.0614265352, -9.780744   , 0.00444799  , 0.00202282751, 0.000749525847, 0.08878253  , 0.434407443 , 0.310435474 , -0.00599483028, -0.002704517, -1.37214339 , 2.84        , 3           , 50          , 0           , 0
-0.03365308 , 0.0395220928, -9.789682   , 0.00102866418, 0.00120288448, 0.000144116435, 0.08837805  , 0.434609681 , 0.309356868 , -0.005984548, -0.00269247964, -1.37214208 , 2.85        , 3           , 11          , 0.0162416231, 0.0162416231
-0.0180365313, 0.0231426042, -9.788825   , 0.00174450362, 0.00197799434, 0.0008037462, 0.08858029  , 0.4342052   , 0.309424281 , -0.00596712437, -0.00267265178, -1.37213409 , 2.86        , 3           , 12          , 0.05066195  , 0
-0.0184500329, 0.033886008 , -9.781027   , 0.0009109227, 0.00300056813, -0.0004029837, 0.08858029  , 0.4342052   , 0.309424281 , -0.005958004, -0.00264267041, -1.37213826 , 2.87        , 3           , 50          , 0           , 0
-0.0160966869, 0.0509379134, -9.774937   , -0.0004825908, -0.000216760425, 0.000328876427, 0.08858029  , 0.434272617 , 0.309896171 , -0.00596283749, -0.00264481851, -1.372135   , 2.88        , 3           , 11          , 0.0162416231, 0.0162416231
-0.00743235648, 0.04346416  , -9.799786   , -0.0003898645, -0.005010728, -0.00059866556, 0.08837805  , 0.434609681 , 0.308952421 , -0.005966721, -0.00269496115, -1.37214077 , 2.89        , 3           , 12          , 0.05066195  , 0
-0.0114841685, 0.0483965054, -9.793894   , -0.0006855241, -0.00489153247, 4.11779765E-05, 0.08878253  , 0.433935553 , 0.310233235 , -0.0054816464, -0.002121852, -1.37214041 , 2.9         , 3           , 50          , 0           , 0
-0.0224218033, 0.0304833986, -9.796911   , 0.000228297184, 0.000189137791, -0.0001657656, 0.08837805  , 0.434609681 , 0.30962652  , -0.00547936 , -0.00211996981, -1.37214208 , 2.91        , 3           , 11          , 0.008364463 , 0.008364445
-0.0255746823, 0.04119225  , -9.783717   , -0.0002700929, 0.000263919675, 4.690236E-05, 0.08837805  , 0.434609681 , 0.30962652  , -0.00548206177, -0.00211732858, -1.3721416  , 2.92        , 3           , 12          , 0.0516343527, 0
-0.006165937, 0.0486648828, -9.781195   , -0.0020527204, -0.000429988926, -0.0004750272, 0.08844546  , 0.434070379 , 0.309087247 , -0.00550257927, -0.00212165434, -1.37214649 , 2.93        , 3           , 50          , 0           , 0
-0.0197278783, 0.02955807  , -9.796898   , 4.26796323E-05, 0.00206238776, -0.00106995564, 0.08858029  , 0.4341378   , 0.310300648 , -0.00550213 , -0.00210109 , -1.37215722 , 2.94        , 3           , 11          , 0.008364463 , 0.008364445
-0.0291858464, 0.0483316481, -9.773731   , 6.241329E-05, 0.00357012777, -0.00140574947, 0.08817581  , 0.434272617 , 0.309019834 , -0.00550147565, -0.00206546625, -1.37217152 , 2.95        , 3           , 12          , 0.0516343527, 0
-0.0116360392, 0.05261524  , -9.766746   , -0.00113634148, -0.000520623231, 0.000602612854, 0.0885128751, 0.43386814  , 0.309761345 , -0.00551285176, -0.00207063928, -1.37216544 , 2.96        , 3           , 50          , 0           , 0
-0.0146069732, 0.0765116438, -9.763786   , -0.0026781254, 1.917906E-05, -0.00190344208, 0.08837805  , 0.434272617 , 0.30962652  , -0.00553959329, -0.00207055314, -1.37218451 , 2.97        , 3           , 11          , 0.008364463 , 0.008364445
-0.009250192, 0.0519115664, -9.787057   , -0.000316862628, 0.0021312458, -0.000355643948, 0.08837805  , 0.434272617 , 0.30962652  , -0.005542755, -0.00204926077, -1.37218821 , 2.98        , 3           , 12          , 0.0516343527, 0
-0.027076561, 0.04364331  , -9.75886    , -0.00307205273, -0.0020741038, 0.000210388112, 0.0881084   , 0.434474856 , 0.309289455 , -0.00557348 , -0.00206999015, -1.372186   , 2.99        , 3           , 50          , 0           , 0
-0.03900773 , 0.0472103432, -9.787385   , -0.003839823, -0.0006423721, 0.00101347594, 0.0885128751, 0.434070379 , 0.310300648 , -0.005604422, -0.00208114041, -1.37217593 , 3           , 3           , 11          , 0.00718959048, 0.007189601
-0.02034182 , 0.03623666  , -9.830252   , -0.00197286787, -0.000284374255, -0.00104485906, 0.08844546  , 0.434542269 , 0.309222043 , -0.005624129, -0.00208404288, -1.37218642 , 3.01        , 3           , 12          , 0.05261949  , 0
-0.0211975612, 0.0325035751, -9.776098   , -0.00291654957, -0.00178208307, -0.0007861746, 0.0882432237, 0.43386814  , 0.3094917   , -0.00565327844, -0.00210190774, -1.372194   , 3.02        , 3           , 50          , 0           , 0
-0.0226076  , 0.0306439716, -9.76981    , 0.0008841056, 0.00139660644, 7.04311751E-05, 0.0882432237, 0.43386814  , 0.3094917   , -0.005644439, -0.002087938, -1.37219346 , 3.03        , 3           , 11          , 0.00718959048, 0.007189601
-0.0195873361, 0.0493592061, -9.793054   , 0.00299814367, 0.0049719736, -0.00143887964, 0.08844546  , 0.43434003  , 0.309828758 , -0.005614426, -0.002038299, -1.37220812 , 3.04        , 3           , 12          , 0.05261949  , 0
-0.00302724726, 0.0437210277, -9.785288   , -0.00215319823, 0.00258358452, -0.00100440881, 0.0880409852, 0.434474856 , 0.30915466  , -0.005635937, -0.00201252 , -1.37221825 , 3.05        , 3           , 50          , 0           , 0
0.00331773167, 0.0464006141, -9.787909   , -0.00352980243, 0.00108189159, 0.000181738636, 0.0885128751, 0.4341378   , 0.310300648 , -0.00567123853, -0.002001691, -1.37221646 , 3.06        , 3           , 11          , 0.00718959048, 0.007189601
-0.0177768879, 0.0493580438, -9.794393   , -0.00126569974, 0.0004792175, 0.000902508735, 0.0881084   , 0.434407443 , 0.3094917   , -0.005683914, -0.001996847, -1.3722074  , 3.07        , 3           , 12          , 0.05261949  , 0
-0.03236409 , 0.0358546972, -9.785196   , 0.00132666156, -0.00270308135, 0.00123015384, 0.0881084   , 0.434407443 , 0.3094917   , -0.00567067135, -0.00202380773, -1.372195   , 3.08        , 3           , 50          , 0           , 0
-0.012371093, 0.0241395086, -9.760304   , -0.00166993053, -0.00325037772, 0.001704603 , 0.08858029  , 0.434070379 , 0.309222043 , -0.00568740675, -0.00205621449, -1.37217784 , 3.09        , 3           , 11          , 0.00718959048, 0.007189601
-0.009768879, 0.043353118 , -9.787613   , -0.00371844554, -0.00350505952, 0.0007579712, 0.08858029  , 0.4341378   , 0.309896171 , -0.005700147, -0.00208521914, -1.37217009 , 3.1         , 3           , 12          , 0.0536164232, 0
-0.035311386, 0.04242709  , -9.806829   , -0.00182386162, -6.208711E-06, 3.328307E-05, 0.0881084   , 0.4346771   , 0.308750182 , -0.005718386, -0.002085279, -1.37216973 , 3.11        , 3           , 50          , 0           , 0
-0.0277459342, 0.04667595  , -9.788643   , 0.00122844218, -0.0009616159, -0.000748813036, 0.08858029  , 0.434002966 , 0.310031    , -0.005706085, -0.00209493819, -1.372177   , 3.12        , 3           , 11          , 0.007479837 , 0.007479843
-0.025361862, 0.0127812717, -9.784044   , 0.000541466055, 0.001758512 , 0.000359667174, 0.08858029  , 0.434542269 , 0.309828758 , -0.005700678, -0.002077332, -1.37217355 , 3.13        , 3           , 12          , 0.0536164232, 0
-0.0208581369, 0.0432615168, -9.812107   , -0.00550431665, 0.0008303269, -0.00119371084, 0.08858029  , 0.434542269 , 0.309828758 , -0.005755697, -0.00206909748, -1.37218547 , 3.14        , 3           , 50          , 0           , 0
-0.0245921239, 0.055109255 , -9.77858    , -0.00245153136, -0.000124440252, -0.00204734784, 0.0882432237, 0.434002966 , 0.30915466  , -0.00578016974, -0.00207046024, -1.37220609 , 3.15        , 3           , 11          , 0.007479837 , 0.007479843
-0.0489166379, 0.04239469  , -9.792953   , 0.0006563343, -0.00152451557, -0.00126137387, 0.08837805  , 0.4341378   , 0.310233235 , -0.00577358063, -0.00208577816, -1.37221849 , 3.16        , 3           , 12          , 0.0536164232, 0
-0.0386984162, 0.0225082263, -9.797153   , 0.001598836 , 0.0008182133, 0.000137905416, 0.0880409852, 0.434474856 , 0.309019834 , -0.00575759448, -0.00207758835, -1.37221718 , 3.17        , 3           , 50          , 0           , 0
-0.0288698152, 0.02853627  , -9.778474   , -0.000396717776, 0.0009030467, 0.000913906 , 0.0885128751, 0.434002966 , 0.309761345 , -0.00576158054, -0.002068505, -1.372208   , 3.18        , 3           , 11          , 0.007479837 , 0.007479843
-0.0201245937, 0.04566878  , -9.784971   , 0.0010135948, -0.0006792683, -3.05144349E-05, 0.0885128751, 0.434002966 , 0.309761345 , -0.005751445, -0.00207529985, -1.37220836 , 3.19        , 3           , 12          , 0.0536164232, 0
-0.00504668429, 0.015358693 , -9.788344   , -0.000857172, -0.00345508684, -1.08219128E-05, 0.08837805  , 0.434542269 , 0.309693933 , -0.00573550351, -0.002109429, -1.37220824 , 3.2         , 3           , 50          , 0           , 0
-0.00274697132, 0.0185292959, -9.791448   , -0.000203301679, -0.00167942734, 0.00102069171, 0.08844546  , 0.434474856 , 0.309356868 , -0.00573755847, -0.002126164, -1.372198   , 3.21        , 3           , 11          , 0.00778421527, 0.00778421154
-0.0225446858, 0.06704454  , -9.799653   , 0.00522368262, -0.000222751041, 0.000288206356, 0.08844546  , 0.434002966 , 0.310368061 , -0.00568532757, -0.00212837523, -1.372195   , 3.22        , 3           , 12          , 0.0546242744, 0
-0.008499073, 0.0441076867, -9.774945   , 0.00198679022, 0.002818921 , 0.000383865437, 0.08817581  , 0.434542269 , 0.309222043 , -0.00566546759, -0.00210016454, -1.37219143 , 3.23        , 3           , 50          , 0           , 0
-0.0311652254, 0.04006167  , -9.758036   , 0.000310492236, -0.000746063364, 0.000250303216, 0.0886477   , 0.433935553 , 0.309289455 , -0.005662368, -0.00210761116, -1.37218893 , 3.24        , 3           , 11          , 0.00778421527, 0.00778421154
-0.01889491 , 0.04013002  , -9.774183   , -0.00202781567, -0.0002878761, -0.000258358981, 0.0886477   , 0.433935553 , 0.309289455 , -0.00568264024, -0.00211050431, -1.37219155 , 3.25        , 3           , 12          , 0.0546242744, 0
-0.0448915474, 0.040982496 , -9.790673   , 0.00104283716, 0.0009681072, 6.5004926E-05, 0.08858029  , 0.434407443 , 0.309828758 , -0.005672213, -0.00210082 , -1.372191   , 3.26        , 3           , 50          , 0           , 0
-0.0294879  , 0.06681303  , -9.772617   , 0.004460519 , 0.00115092553, -0.000197468224, 0.0882432237, 0.434542269 , 0.308885    , -0.00562760374, -0.00208932161, -1.372193   , 3.27        , 3           , 11          , 0.00778421527, 0.00778421154
-0.0124246245, 0.05145907  , -9.784382   , 0.003438917 , -0.0005667541, 0.000701526762, 0.0885128751, 0.4342052   , 0.310233235 , -0.00559323 , -0.00209495029, -1.372186   , 3.28        , 3           , 12          , 0.0546242744, 0
-0.0147886723, 0.03350051  , -9.790031   , 0.00373353413, 0.000149363652, 0.000427509949, 0.08817581  , 0.434542269 , 0.3095591   , -0.005555903, -0.0020934327, -1.37218165 , 3.29        , 3           , 50          , 0           , 0
-0.01931273 , 0.0361774042, -9.783718   , 0.000472454325, 0.00300607458, -0.00169815868, 0.08817581  , 0.434542269 , 0.3095591   , -0.005472126, -0.0020418833, -1.37219882 , 3.3         , 3           , 11          , 0.008041579 , 0.008041577
-0.030722389, 0.0549842045, -9.803933   , 0.00123285921, 0.00205202866, -6.156777E-05, 0.0881084   , 0.434002966 , 0.309087247 , -0.005459795, -0.0020213665, -1.37219954 , 3.31        , 3           , 12          , 0.0556422174, 0
-0.0075623896, 0.0405942127, -9.784463   , 0.00207490637, 0.0008996027, -0.000359285739, 0.08844546  , 0.4342052   , 0.310165823 , -0.00543903839, -0.00201239018, -1.37220323 , 3.32        , 3           , 50          , 0           , 0
-0.008075813, 0.0405013561, -9.77543449 , 0.004392506 , 0.004036535 , -0.00115816155, 0.08797357  , 0.434609681 , 0.308952421 , -0.00539509 , -0.00197208812, -1.372215   , 3.33        , 3           , 11          , 0.008041579 , 0.008041577
-0.007127784, 0.0499141477, -9.7708     , -0.00136366545, -0.0019212754, -0.00156623777, 0.0885128751, 0.434002966 , 0.309896171 , -0.00540869636, -0.00199138559, -1.37223053 , 3.34        , 3           , 12          , 0.0556422174, 0
-0.018906828, 0.03833124  , -9.774655   , -0.00311623933, -0.00506910542, -0.000191607032, 0.08844546  , 0.4346771   , 0.309761345 , -0.00543985562, -0.00204208633, -1.3722322  , 3.35        , 3           , 50          , 0           , 0
-0.02917032 , 0.0412332863, -9.784655   , 0.00202596071, -0.00368054467, -0.0009983904, 0.08844546  , 0.4346771   , 0.309761345 , -0.005419575, -0.00207894552, -1.372242   , 3.36        , 3           , 11          , 0.008041579 , 0.008041577
-0.03449212 , 0.0614356026, -9.771822   , -0.00191385392, 0.000366899127, -0.000391620328, 0.08858029  , 0.43434003  , 0.309356868 , -0.00543870637, -0.00207529729, -1.37224579 , 3.37        , 3           , 12          , 0.0556422174, 0
-0.02283493 , 0.0461238474, -9.783184   , -0.0013364465, 0.0009368377, -0.0006660105, 0.08858029  , 0.4342052   , 0.310233235 , -0.00545205735, -0.002065965, -1.37225246 , 3.38        , 3           , 50          , 0           , 0
-0.03328175 , 0.0255981646, -9.79526    , -0.00245852536, 0.00181581243, -0.00151883543, 0.0880409852, 0.434474856 , 0.309019834 , -0.00547661074, -0.00204789 , -1.37226784 , 3.39        , 3           , 11          , 0.008041579 , 0.008041577
-0.0207240228, 0.0218521282, -9.792479   , 0.004440237 , -4.760096E-05, 0.00107216474, 0.08831064  , 0.434070379 , 0.30962652  , -0.00517895445, -0.00216771173, -1.37225783 , 3.4         , 3           , 12          , 0.056669496 , 0
-0.03043457 , 0.0306942835, -9.810082   , -0.0006942557, -0.0014259239, 0.000734291854, 0.08831064  , 0.434070379 , 0.30962652  , -0.00518591236, -0.00218193256, -1.37225044 , 3.41        , 3           , 50          , 0           , 0
-0.0184559766, 0.0387733765, -9.774195   , 0.00359929726, 0.000541904767, 0.0002168795, 0.08831064  , 0.434407443 , 0.309828758 , -0.00514992373, -0.002176502, -1.37224817 , 3.42        , 3           , 11          , 0.008245139 , 0.008245173
-0.00471239164, 0.0523716621, -9.791528   , -0.0001226296, -0.000863664, 0.00131839374, 0.0880409852, 0.43434003  , 0.308952421 , -0.005151179, -0.00218507065, -1.37223506 , 3.43        , 3           , 12          , 0.056669496 , 0
-0.0288812853, 0.0612618476, -9.802036   , 0.00300291  , -0.001182029, 0.00133306754, 0.08858029  , 0.4342052   , 0.310368061 , -0.005121179, -0.00219682232, -1.37222147 , 3.44        , 3           , 50          , 0           , 0
-0.0342590064, 0.0751466453, -9.788826   , 0.00190393056, 0.00170299981, 0.000509457255, 0.08837805  , 0.434609681 , 0.309222043 , -0.005102152, -0.00217976654, -1.37221646 , 3.45        , 3           , 11          , 0.008245139 , 0.008245173
-0.0142217847, 0.0634992048, -9.770257   , 0.0035566634, -0.00233668438, 0.00160596427, 0.08844546  , 0.433935553 , 0.309289455 , -0.005066621, -0.002203052, -1.37220025 , 3.46        , 3           , 12          , 0.056669496 , 0
-0.0264654662, 0.0367636234, -9.790552   , 0.002723697 , -0.0008900007, 0.00104936375, 0.08844546  , 0.433935553 , 0.309289455 , -0.005039407, -0.002211898, -1.37218964 , 3.47        , 3           , 50          , 0           , 0
-0.0222741086, 0.0462892838, -9.798986   , 0.00446389057, 0.0016769931, 0.0005248778, 0.0885128751, 0.4342052   , 0.310031    , -0.00499478029, -0.00219510263, -1.37218451 , 3.48        , 3           , 11          , 0.008245139 , 0.008245173
-0.0167617835, 0.0570930131, -9.80152    , 0.00217820564, -6.56733437E-06, -0.0009446907, 0.0880409852, 0.434542269 , 0.3088176   , -0.00497297663, -0.002195215, -1.37219393 , 3.49        , 3           , 12          , 0.056669496 , 0
-0.0273917951, 0.0478602275, -9.773269   , 0.00182962  , -0.00169790129, -0.000971192, 0.08858029  , 0.434070379 , 0.3100984   , -0.00505864248, -0.0021530285, -1.37220323 , 3.5         , 3           , 50          , 0           , 0
-0.0373861566, 0.0335658751, -9.778043   , -0.00298331329, 0.000638736354, -0.000394603325, 0.08831064  , 0.43434003  , 0.309761345 , -0.00508846762, -0.002146661, -1.37220728 , 3.51        , 3           , 11          , 0.008222279 , 0.008222314
-0.0265085287, 0.0260144528, -9.797453   , -0.00045717266, -0.00281854183, -0.00128775707, 0.08831064  , 0.43434003  , 0.309761345 , -0.00509301154, -0.00217491179, -1.37222    , 3.52        , 3           , 12          , 0.05770538  , 0
0.00360147282, 0.0399098173, -9.77172    , 0.000415658054, 2.06644872E-05, 0.00076226634, 0.0881084   , 0.434070379 , 0.309222043 , -0.005088872, -0.00217466638, -1.37221241 , 3.53        , 3           , 50          , 0           , 0
-0.026107   , 0.02727132  , -9.788852   , -0.00330048823, -0.00137722574, 0.00100528868, 0.08844546  , 0.4342052   , 0.3100984   , -0.00512189837, -0.00218838733, -1.37220228 , 3.54        , 3           , 11          , 0.008222279 , 0.008222314
-0.0209069755, 0.04674779  , -9.800776   , -0.0015633296, 0.00175012869, 0.00191996968, 0.0881084   , 0.434474856 , 0.308952421 , -0.00513757346, -0.00217078766, -1.3721832  , 3.55        , 3           , 12          , 0.05770538  , 0
-0.0126250368, 0.0409140438, -9.768244   , 0.000168072118, 0.00289446465, 0.000229960307, 0.08837805  , 0.434070379 , 0.30962652  , -0.00513589755, -0.00214183144, -1.372181   , 3.56        , 3           , 50          , 0           , 0
-0.0441884771, 0.0645127743, -9.798526   , -0.00269998168, 0.001198767 , 0.0007601131, 0.08837805  , 0.434070379 , 0.30962652  , -0.00516291335, -0.002129805, -1.37217367 , 3.57        , 3           , 11          , 0.008222279 , 0.008222314
-0.03032935 , 0.06156968  , -9.787591   , -0.0006808401, 0.00262679253, -0.0009240096, 0.08831064  , 0.434474856 , 0.30962652  , -0.005169702, -0.00210358552, -1.372183   , 3.58        , 3           , 12          , 0.05770538  , 0
-0.0133774858, 0.05005129  , -9.778535   , 0.002975907 , -0.00113374216, -0.00124215509, 0.0881084   , 0.4342052   , 0.309222043 , -0.00513991667, -0.00211498677, -1.37219536 , 3.59        , 3           , 50          , 0           , 0
-0.0398847722, 0.0459186919, -9.79237652 , -0.00269267848, 0.00149567693, 0.0001919957, 0.08858029  , 0.434070379 , 0.310300648 , -0.00516649149, -0.00208764267, -1.37219357 , 3.6         , 3           , 11          , 0.008043344 , 0.008043408
-0.0213908218, 0.0613896549, -9.778026   , 0.00212603668, -0.000833282131, -0.00124308479, 0.0880409852, 0.434542269 , 0.309356868 , -0.00514520472, -0.00209603924, -1.372206   , 3.61        , 3           , 12          , 0.0587492138, 0
-0.0119635314, 0.0617098548, -9.773418   , 0.0009841339, 0.0003015572, 0.00134223164, 0.0885128751, 0.43386814  , 0.309424281 , -0.00513539137, -0.00209295447, -1.37219262 , 3.62        , 3           , 50          , 0           , 0
-0.0196758  , 0.04922372  , -9.780409   , -0.00128917024, -0.0008011663, -0.0009774817, 0.0885128751, 0.43386814  , 0.309424281 , -0.00514826225, -0.00210101623, -1.3722024  , 3.63        , 3           , 11          , 0.008043344 , 0.008043408
-0.0323752761, 0.0322764963, -9.787949   , 0.000688155764, -0.00168625009, -0.000405680476, 0.08837805  , 0.434407443 , 0.309896171 , -0.00514137326, -0.00211789971, -1.37220633 , 3.64        , 3           , 12          , 0.0587492138, 0
-0.0337583236, 0.03401929  , -9.781166   , -0.0038155762, 0.00180917187, -0.00152766833, 0.0880409852, 0.434542269 , 0.308750182 , -0.00517949648, -0.0020998863, -1.37222159 , 3.65        , 3           , 50          , 0           , 0
0.01062921  , 0.0124241021, -9.779652   , -0.00132438552, -0.00254111737, 0.00128678908, 0.08858029  , 0.434070379 , 0.310435474 , -0.00519276736, -0.00212523062, -1.3722086  , 3.66        , 3           , 11          , 0.008043344 , 0.008043408
-0.0222419072, 0.0467837453, -9.803045   , 0.00409124745, -0.00145226321, 0.00162220187, 0.08831064  , 0.43434003  , 0.309289455 , -0.00515188929, -0.00213966914, -1.37219238 , 3.67        , 3           , 12          , 0.0587492138, 0
-0.0163229611, 0.0579618737, -9.798797   , -0.00126881641, 0.0006368485, -0.00152894191, 0.08831064  , 0.43434003  , 0.309289455 , -0.00516454456, -0.00213337922, -1.37220764 , 3.68        , 3           , 50          , 0           , 0
-0.0156618319, 0.03043427  , -9.797752   , 0.000157237519, 0.000627519446, -0.002092703, 0.08831064  , 0.4342052   , 0.309087247 , -0.00516292732, -0.002127212, -1.37222862 , 3.69        , 3           , 11          , 0.008043344 , 0.008043408
-0.03237117 , 0.0260509066, -9.796151   , 0.00232881866, 0.000361770333, -0.00122636638, 0.08844546  , 0.4342052   , 0.3100984   , -0.00468188664, -0.00200598687, -1.372241   , 3.7         , 3           , 12          , 0.0598003641, 0
-0.0569128431, 0.05242388  , -9.796523   , -0.0022351318, -0.00186671212, -0.00329031679, 0.0881084   , 0.434407443 , 0.3088176   , -0.00470417133, -0.0020248082, -1.37227368 , 3.71        , 3           , 50          , 0           , 0
-0.0186892878, 0.0475670919, -9.794873   , 0.004022258 , -0.0008018839, -0.00123278017, 0.0886477   , 0.43386814  , 0.309896171 , -0.004663924, -0.00203288486, -1.37228608 , 3.72        , 3           , 11          , 0.008322572 , 0.008322629
-0.0374864638, 0.0178325679, -9.782742   , 0.00315518444, -0.00165807165, -0.000678113, 0.0882432237, 0.434609681 , 0.3095591   , -0.00463235844, -0.00204949663, -1.37229276 , 3.73        , 3           , 12          , 0.0598003641, 0
-0.0178829059, 0.03406112  , -9.797731   , 0.000874438 , -0.00192409323, -0.00040982975, 0.0882432237, 0.434609681 , 0.3095591   , -0.004623606, -0.00206875615, -1.37229681 , 3.74        , 3           , 50          , 0           , 0
-0.00627998263, 0.0297945868, -9.787737   , -0.00281061186, -0.00243409118, -0.00330209127, 0.0882432237, 0.434070379 , 0.309087247 , -0.00465164334, -0.00209325016, -1.37232971 , 3.75        , 3           , 11          , 0.008322572 , 0.008322629
-0.0196838267, 0.0456503443, -9.783611   , 0.00318625756, 0.0012051604, -0.000350213726, 0.0885128751, 0.43434003  , 0.3100984   , -0.00461977348, -0.00208121468, -1.37233329 , 3.76        , 3           , 12          , 0.0598003641, 0
-0.01745617 , 0.0491557345, -9.775873   , -0.0008242288, -0.00104957772, -0.0001214255, 0.0881084   , 0.434474856 , 0.309019834 , -0.004628013, -0.00209171581, -1.37233436 , 3.77        , 3           , 50          , 0           , 0
-0.0151017569, 0.0577517226, -9.780268   , 0.001172343 , 6.627353E-05, 0.00105191849, 0.08858029  , 0.433935553 , 0.309424281 , -0.00461631175, -0.00209100428, -1.37232387 , 3.78        , 3           , 11          , 0.008322572 , 0.008322629
-0.0114953164, 0.0563918464, -9.78251    , -0.00280926214, -0.00017473186, 0.00045142934, 0.08858029  , 0.433935553 , 0.309424281 , -0.00464441348, -0.00209273119, -1.37231946 , 3.79        , 3           , 12          , 0.0598003641, 0
-0.008337064, 0.05192308  , -9.788856   , -0.00193475734, 0.00240278849, 0.000494189269, 0.0882432237, 0.434474856 , 0.3094917   , -0.004684599, -0.00205161516, -1.37231445 , 3.8         , 3           , 50          , 0           , 0
-0.0214512721, 0.04482712  , -9.78951    , 0.006571223 , -0.000542013149, -0.000354636257, 0.0882432237, 0.434407443 , 0.308952421 , -0.00461888034, -0.00205705222, -1.37231791 , 3.81        , 3           , 11          , 0.007652544 , 0.007652588
-0.0456170067, 0.010295799 , -9.788324   , 0.00119160139, 0.00264990353, 0.00137570209, 0.0885128751, 0.4341378   , 0.310368061 , -0.004606992, -0.00203049 , -1.3723042  , 3.82        , 3           , 12          , 0.06085826  , 0
-0.0185156539, 0.03200496  , -9.773822   , -0.0005287686, -0.0001729554, -0.00153795362, 0.0882432237, 0.434542269 , 0.309356868 , -0.004612248, -0.00203229045, -1.3723197  , 3.83        , 3           , 50          , 0           , 0
-0.0238530785, 0.03615854  , -9.778339   , 0.006261756 , -0.002547737, -9.94003858E-05, 0.0885128751, 0.4342052   , 0.309087247 , -0.00454962859, -0.00205777166, -1.37232053 , 3.84        , 3           , 11          , 0.007652544 , 0.007652588
-0.027122708, 0.0190902818, -9.782181   , 0.00341954874, -0.00166934158, 0.00104064238, 0.0885128751, 0.4342052   , 0.309087247 , -0.00451545464, -0.00207441766, -1.37231    , 3.85        , 3           , 12          , 0.06085826  , 0
-0.035026148, 0.0439509749, -9.781062   , 0.00862994  , 0.006300302 , 0.00147450634, 0.08871511  , 0.4341378   , 0.309896171 , -0.004429185, -0.00201134966, -1.3722955  , 3.86        , 3           , 50          , 0           , 0
-0.0132281436, 0.03979356  , -9.747484   , 0.0003578165, 0.003531107 , -4.77374633E-05, 0.0881084   , 0.434474856 , 0.308885    , -0.004425606, -0.00197604112, -1.37229621 , 3.87        , 3           , 11          , 0.007652544 , 0.007652588
-0.02161038 , 0.0298940055, -9.784716   , -0.003687862, -0.00243892171, -0.0010178613, 0.08858029  , 0.433935553 , 0.310031    , -0.00446246425, -0.0020004753, -1.37230635 , 3.88        , 3           , 12          , 0.06085826  , 0
-0.03228233 , 0.0310834534, -9.802867   , 2.33229075E-05, -0.000483230455, 0.000464447716, 0.08831064  , 0.434542269 , 0.309693933 , -0.00446224026, -0.002005287, -1.37230158 , 3.89        , 3           , 50          , 0           , 0
0.0202602968, 0.01884317  , -9.797105   , -0.0009955121, 0.006081218 , 0.000267115742, 0.08831064  , 0.434542269 , 0.309693933 , -0.004370012, -0.00204636832, -1.37229943 , 3.9         , 3           , 11          , 0.007900357 , 0.007900426
0.0162377581, 0.0198141374, -9.800293   , 0.00240237569, 0.00405072654, -0.00088619435, 0.0882432237, 0.4341378   , 0.309019834 , -0.0043459693, -0.00200590026, -1.37230837 , 3.91        , 3           , 12          , 0.0619223453, 0
0.00720947934, 0.0327655748, -9.781255   , -0.0004860316, 0.000917013851, 0.000195418921, 0.08858029  , 0.434272617 , 0.309896171 , -0.00435083359, -0.00199672114, -1.37230647 , 3.92        , 3           , 50          , 0           , 0
-0.0132314293, 0.04849445  , -9.801587   , 0.0006550279, 0.00119203457, 0.000206446042, 0.0880409852, 0.434474856 , 0.308952421 , -0.004344287, -0.0019847923, -1.37230444 , 3.93        , 3           , 11          , 0.007900357 , 0.007900426
-0.00215930864, 0.04989522  , -9.773013   , 0.000362615421, 0.0003377462, -9.39519741E-05, 0.0886477   , 0.4341378   , 0.309896171 , -0.004340659, -0.00198141858, -1.37230539 , 3.94        , 3           , 12          , 0.0619223453, 0
-0.00760878064, 0.0458647534, -9.771303   , -0.00420740526, -0.000770015, 0.0007204316, 0.0882432237, 0.434474856 , 0.3095591   , -0.004382748, -0.00198908756, -1.37229824 , 3.95        , 3           , 50          , 0           , 0
-0.0145821162, 0.0166533981, -9.775318   , 0.00181617658, 0.00205813  , -0.00177732762, 0.0882432237, 0.434474856 , 0.3095591   , -0.00436455058, -0.00196858426, -1.372316   , 3.96        , 3           , 11          , 0.007900357 , 0.007900426
-0.01709836 , 0.0276438165, -9.788765   , 0.00266590784, 0.00289128232, 0.000243481016, 0.0882432237, 0.43434003  , 0.30915466  , -0.004337897, -0.0019396611, -1.37231374 , 3.97        , 3           , 12          , 0.0619223453, 0
-0.00546099059, 0.0416805446, -9.761393   , 0.00212178938, 0.00405873545, -0.00146023557, 0.0886477   , 0.4342052   , 0.310368061 , -0.00431665033, -0.001899138, -1.3723284  , 3.98        , 3           , 50          , 0           , 0
-0.02922978 , 0.0300138723, -9.789752   , 0.00153062865, 0.00262394012, -0.0006260381, 0.08837805  , 0.434474856 , 0.309289455 , -0.004301332, -0.00187292532, -1.37233484 , 3.99        , 3           , 11          , 0.007900357 , 0.007900426
-0.01861529 , 0.04634502  , -9.807082   , -0.0002006772, -0.0008154203, -0.000400338147, 0.0886477   , 0.433935553 , 0.309356868 , -0.004260675, -0.00191951636, -1.37233889 , 4           , 3           , 12          , 0.0629921257, 0
-0.0251181219, 0.0411980078, -9.784617   , -0.00110214727, -0.00284607965, 0.003285439 , 0.0886477   , 0.433935553 , 0.309356868 , -0.004271761, -0.00194783672, -1.37230587 , 4.01        , 3           , 50          , 0           , 0
-0.037566334, 0.053569328 , -9.792719   , 0.00178902945, -0.00111966743, -0.0006786819, 0.08837805  , 0.434474856 , 0.309761345 , -0.004253858, -0.00195906241, -1.37231255 , 4.02        , 3           , 11          , 0.007896273 , 0.007896355
-0.01638192 , 0.04941402  , -9.800703   , -0.005033411, -0.0001982575, 0.000151209257, 0.0881084   , 0.434407443 , 0.308885    , -0.00430419529, -0.00196103822, -1.37231112 , 4.03        , 3           , 12          , 0.0629921257, 0
-0.0295246821, 0.044499997 , -9.794556   , -0.001590432, 0.00234627933, 0.0002093318, 0.0885128751, 0.4341378   , 0.310300648 , -0.00432010274, -0.00193756644, -1.372309   , 4.04        , 3           , 50          , 0           , 0
-0.03268198 , 0.0427383333, -9.795961   , 0.00553294877, 0.00285487575, -0.0005979783, 0.0880409852, 0.434474856 , 0.309289455 , -0.00426476076, -0.00190904364, -1.37231529 , 4.05        , 3           , 11          , 0.007896273 , 0.007896355
-0.0134293446, 0.0259346515, -9.800495   , 0.00180716766, 0.001444188 , 0.00107586407, 0.0880409852, 0.434474856 , 0.309289455 , -0.0042467094, -0.00189455634, -1.37230468 , 4.06        , 3           , 12          , 0.0629921257, 0
-0.0284688529, 0.0589743666, -9.799348   , 0.00123527623, 3.49880538E-05, -0.000951578666, 0.0882432237, 0.4342052   , 0.309019834 , -0.004234339, -0.00189424725, -1.3723141  , 4.07        , 3           , 50          , 0           , 0
-0.008796068, 0.0501330532, -9.78978348 , -0.000494198, -0.0011067884, 0.000452266977, 0.08837805  , 0.434272617 , 0.309963584 , -0.00423928956, -0.00190529542, -1.37230945 , 4.08        , 3           , 11          , 0.007896273 , 0.007896355
-0.008553728, 0.05025584  , -9.759517   , 0.003827682 , 0.00315623288, -0.000317921134, 0.0882432237, 0.434474856 , 0.308750182 , -0.00420100661, -0.00187374663, -1.37231266 , 4.09        , 3           , 12          , 0.0629921257, 0
-0.02849464 , 0.03821033  , -9.755774   , -0.000504789758, -0.00224208971, -0.000422896526, 0.08858029  , 0.4341378   , 0.309896171 , -0.004214229, -0.00188758085, -1.37231684 , 4.1         , 3           , 50          , 0           , 0
-0.00725374371, 0.0292450748, -9.777816   , 0.0025940612, -0.0037246875, 0.00157823111, 0.08817581  , 0.434609681 , 0.309424281 , -0.00418831874, -0.001924761, -1.372301   , 4.11        , 3           , 11          , 0.00807523  , 0.008075286
-0.0359077454, 0.0577868968, -9.766909   , 9.653607E-05, 0.0008993827, 0.000198767113, 0.08817581  , 0.434609681 , 0.309424281 , -0.004187357, -0.001915759, -1.372299   , 4.12        , 3           , 12          , 0.06406712  , 0
-0.0381262675, 0.060972508 , -9.767796   , 0.000360622362, -0.0005415217, 0.0007519409, 0.0882432237, 0.4341378   , 0.309019834 , -0.004183766, -0.00192114268, -1.37229133 , 4.13        , 3           , 50          , 0           , 0
-0.0160213616, 0.0483824834, -9.788967   , 0.0003886838, 0.0009067311, -0.000944175641, 0.08844546  , 0.4341378   , 0.310031    , -0.004179861, -0.00191211479, -1.37230074 , 4.14        , 3           , 11          , 0.00807523  , 0.008075286
-0.0317023546, 0.0521995127, -9.795842   , -0.00218695658, 6.53217649E-05, -0.000113624679, 0.08837805  , 0.434407443 , 0.308885    , -0.004201729, -0.001911466, -1.37230194 , 4.15        , 3           , 12          , 0.06406712  , 0
-0.02329187 , 0.04122103  , -9.788213   , -0.00365371862, -0.002801379, 0.00155305723, 0.08884994  , 0.433935553 , 0.3094917   , -0.0042382963, -0.00193941407, -1.3722862  , 4.16        , 3           , 50          , 0           , 0
-0.02739777 , 0.0411740579, -9.780573   , 0.00373842125, -0.00316308835, 0.00159343181, 0.08884994  , 0.433935553 , 0.3094917   , -0.00420094328, -0.00197097729, -1.37227011 , 4.17        , 3           , 11          , 0.00807523  , 0.008075286
-0.0239997786, 0.0256957673, -9.769879   , 0.002912874 , -0.0005777664, 0.00191201724, 0.08831064  , 0.434474856 , 0.309424281 , -0.00417185249, -0.00197667535, -1.37225091 , 4.18        , 3           , 12          , 0.06406712  , 0
-0.0475221239, 0.0513526574, -9.78832    , -0.00531497831, 0.00066258735, 0.000734367059, 0.08817581  , 0.434474856 , 0.309087247 , -0.004225017, -0.00197001826, -1.37224352 , 4.19        , 3           , 50          , 0           , 0
-0.0488445461, 0.05363346  , -9.7896595  , -0.0013459794, 0.00058495265, 0.000758203736, 0.0885128751, 0.4342052   , 0.310300648 , -0.00427316036, -0.00206206786, -1.37223589 , 4.2         , 3           , 11          , 0.00836207252, 0.008362133
-0.0101274289, 0.029698329 , -9.817586   , -0.00221827952, -0.0005603736, 0.00159486162, 0.0881084   , 0.4346771   , 0.309222043 , -0.004295376, -0.002067603, -1.37221992 , 4.21        , 3           , 12          , 0.06514687  , 0
-0.0224557258, 0.02642524  , -9.796959   , 0.00381411752, 0.00171508931, -0.003200557, 0.0882432237, 0.433935553 , 0.309356868 , -0.004257169, -0.002050589, -1.37225187 , 4.22        , 3           , 50          , 0           , 0
-0.01837394 , 0.0411246866, -9.7832     , -0.00223422563, -0.00227472931, 0.0009974923, 0.0882432237, 0.433935553 , 0.309356868 , -0.00427953154, -0.002073293, -1.37224174 , 4.23        , 3           , 11          , 0.00836207252, 0.008362133
-0.0263529811, 0.06141826  , -9.776716   , 0.0005865199, -0.00402821926, 0.00156191317, 0.08844546  , 0.434407443 , 0.309828758 , -0.0042736996, -0.00211350829, -1.37222612 , 4.24        , 3           , 12          , 0.06514687  , 0
-0.0251776986, 0.0322040878, -9.78698    , 0.00261801877, -4.40174481E-05, 0.00249082828, 0.08831064  , 0.43434003  , 0.308952421 , -0.004247572, -0.00211384217, -1.37220109 , 4.25        , 3           , 50          , 0           , 0
0.00402701274, 0.0287397038, -9.781783   , 0.000864094647, -0.00545120751, 0.000111938709, 0.08891735  , 0.434002966 , 0.310233235 , -0.00423893426, -0.00216834922, -1.37219977 , 4.26        , 3           , 11          , 0.00836207252, 0.008362133
-0.009260934, 0.03943137  , -9.800753   , -0.00308836531, -0.00283154054, 0.00012551299, 0.0882432237, 0.434407443 , 0.3094917   , -0.004269821, -0.00219665957, -1.37219834 , 4.27        , 3           , 12          , 0.06514687  , 0
-0.002717428, 0.0216904823, -9.791863   , -0.000513567, -0.0005802709, 0.0018913059, 0.0882432237, 0.434407443 , 0.3094917   , -0.004274999, -0.00220238115, -1.37217939 , 4.28        , 3           , 50          , 0           , 0
-0.00161626749, 0.03935021  , -9.799328   , 0.00377834821, 0.0002565984, -0.0003597847, 0.08858029  , 0.4342052   , 0.309222043 , -0.004237207, -0.00219983049, -1.372183   , 4.29        , 3           , 11          , 0.00836207252, 0.008362133
0.00248373859, 0.0558581166, -9.786      , 0.00182145508, -0.0004492829, -0.000672997267, 0.08858029  , 0.4342052   , 0.310031    , -0.00409648 , -0.00107954815, -1.37219131 , 4.3         , 3           , 12          , 0.06623098  , 0
-0.0341294333, 0.04349222  , -9.78106    , 0.00357181416, 0.003824388 , 0.000258378161, 0.0880409852, 0.434542269 , 0.308885    , -0.004060765, -0.001041294, -1.37218869 , 4.31        , 3           , 50          , 0           , 0
-0.02528173 , 0.02759341  , -9.777549   , 0.000127172825, 0.00212423154, 0.00192976021, 0.0886477   , 0.434070379 , 0.309896171 , -0.00405951263, -0.00101997354, -1.37216949 , 4.32        , 3           , 11          , 0.00854110252, 0.008541172
-0.0179499239, 0.04731248  , -9.771833   , -0.003547978, 0.00247397088, -0.0009499805, 0.0885128751, 0.434609681 , 0.3094917   , -0.00409498252, -0.0009952723, -1.37217915 , 4.33        , 3           , 12          , 0.06623098  , 0
-0.0353314057, 0.0508539677, -9.793633   , 0.0009293545, -0.003314084, 0.000138619274, 0.0885128751, 0.434609681 , 0.3094917   , -0.00408569025, -0.00102840771, -1.37217772 , 4.34        , 3           , 50          , 0           , 0
-0.0178429577, 0.056378983 , -9.776245   , 0.0046801623, 0.000105217274, -0.00179217232, 0.08831064  , 0.43434003  , 0.30915466  , -0.00403887 , -0.0010274282, -1.3721956  , 4.35        , 3           , 11          , 0.00854110252, 0.008541172
-0.0275289584, 0.06703927  , -9.79518    , -0.000715958653, 0.001864238 , -8.270151E-05, 0.08858029  , 0.434002966 , 0.310165823 , -0.00404602941, -0.001008789, -1.37219644 , 4.36        , 3           , 12          , 0.06623098  , 0
-0.02649717 , 0.038940724 , -9.7833     , 0.0064021945, 0.00208369549, -0.0006080211, 0.0881084   , 0.434474856 , 0.308952421 , -0.00398200052, -0.0009879767, -1.37220263 , 4.37        , 3           , 50          , 0           , 0
-0.0187164247, 0.03461664  , -9.80676651 , 0.0043588453, -0.00078746397, 0.00219988986, 0.0886477   , 0.433935553 , 0.309289455 , -0.003938434, -0.000995764, -1.37218046 , 4.38        , 3           , 11          , 0.00854110252, 0.008541172
-0.0121195652, 0.0236344878, -9.797347   , 0.00496074837, 9.72086054E-05, -0.0012181307, 0.0886477   , 0.433935553 , 0.309289455 , -0.00388881448, -0.0009948396, -1.37219262 , 4.39        , 3           , 12          , 0.06623098  , 0
-0.0162433162, 0.02667611  , -9.783348   , 0.0004453813, -0.000735269743, -0.000113417445, 0.08837805  , 0.434407443 , 0.30962652  , -0.0037402052, -0.00102584076, -1.37219322 , 4.4         , 3           , 50          , 0           , 0
-0.0077042114, 0.0336999819, -9.772348   , 0.000755112851, 0.002117394 , 0.00107468734, 0.08817581  , 0.43434003  , 0.308952421 , -0.00373266451, -0.00100462709, -1.37218261 , 4.41        , 3           , 11          , 0.00593295647, 0.00593297742
-0.00494056 , 0.02843011  , -9.787741   , -0.000103698869, 0.0009899845, -9.18030346E-05, 0.0886477   , 0.4341378   , 0.3100984   , -0.00373370037, -0.0009947306, -1.37218344 , 4.42        , 3           , 12          , 0.0673190653, 0
-0.025093196, 0.0479132   , -9.780023   , 0.0004277736, -0.00160524528, 0.001018718 , 0.08837805  , 0.434542269 , 0.309222043 , -0.00372943329, -0.00101074518, -1.37217331 , 4.43        , 3           , 50          , 0           , 0
-0.014700396, 0.0496605374, -9.783069   , 0.00131794694, 0.0012569963, 0.0004932655, 0.08831064  , 0.434070379 , 0.309087247 , -0.003716259, -0.0009981571, -1.3721683  , 4.44        , 3           , 11          , 0.00593295647, 0.00593297742
-0.00225622579, 0.029715756 , -9.783636   , -0.00010039888, 0.00127656362, -8.76295E-05, 0.08831064  , 0.434070379 , 0.309087247 , -0.0037172616, -0.0009853947, -1.37216938 , 4.45        , 3           , 12          , 0.0673190653, 0
-0.0130178016, 0.0414511338, -9.775921   , 0.00216192077, 0.000107129978, -9.061647E-05, 0.0885128751, 0.4341378   , 0.309828758 , -0.003695642, -0.0009843269, -1.37217021 , 4.46        , 3           , 50          , 0           , 0
-0.0167103577, 0.06473905  , -9.799625   , 0.000732567045, -0.0001701201, 0.000468971033, 0.08817581  , 0.4346771   , 0.308615357 , -0.003688321, -0.0009860108, -1.37216556 , 4.47        , 3           , 11          , 0.00593295647, 0.00593297742
-0.0456449874, 0.0447766148, -9.807348   , 0.00360914762, 0.00210129539, -0.000338998769, 0.08844546  , 0.434070379 , 0.309896171 , -0.003652226, -0.0009650103, -1.372169   , 4.48        , 3           , 12          , 0.0673190653, 0
-0.0189608  , 0.0311264247, -9.775642   , 0.00476092659, 0.00380153325, 0.0005513881, 0.0880409852, 0.434474856 , 0.309356868 , -0.00360462163, -0.000926975044, -1.37216365 , 4.49        , 3           , 50          , 0           , 0
-0.0374940671, 0.0307297986, -9.765881   , 0.00447381241, 0.00379646569, 0.00112200156, 0.0880409852, 0.434474856 , 0.309356868 , -0.003556683, -0.000896700658, -1.37215245 , 4.5         , 3           , 11          , 0.005849355 , 0.005849406
-0.0481790975, 0.0408018753, -9.771282   , -0.005244986, -0.001248355, -0.000728361658, 0.0881084   , 0.434272617 , 0.308952421 , -0.00360912643, -0.0009092102, -1.37215972 , 4.51        , 3           , 12          , 0.06841073  , 0
-0.009397505, 0.041002728 , -9.779055   , -0.0009728936, -0.000155620859, 0.000458689465, 0.0885128751, 0.4342052   , 0.309963584 , -0.00361885922, -0.0009107498, -1.37215519 , 4.52        , 3           , 50          , 0           , 0
-0.0290138647, 0.058833126 , -9.785804   , -0.000129473425, -0.00102402712, 0.000451309024, 0.08817581  , 0.434407443 , 0.3088176   , -0.00362015818, -0.000920973835, -1.37215066 , 4.53        , 3           , 11          , 0.005849355 , 0.005849406
-0.05197562 , 0.04568008  , -9.802428   , -0.00147220935, 0.00671526  , 0.00198624749, 0.0886477   , 0.434002966 , 0.3095591   , -0.00363489776, -0.0008537497, -1.372131   , 4.54        , 3           , 12          , 0.06841073  , 0
-0.0453168526, 0.0477016121, -9.786082   , -0.00154040125, 0.000134178 , 0.000745600148, 0.0886477   , 0.434002966 , 0.3095591   , -0.00365030766, -0.000852380763, -1.37212348 , 4.55        , 3           , 50          , 0           , 0
-0.04403712 , 0.0395687148, -9.785713   , -0.002380786, 0.000442223652, -0.00068618654, 0.0885128751, 0.434407443 , 0.3094917   , -0.00367411016, -0.00084798364, -1.37213027 , 4.56        , 3           , 11          , 0.005849355 , 0.005849406
-0.0290156528, 0.06906848  , -9.773039   , -0.00120482268, 0.00556093547, 0.00254359469, 0.0881084   , 0.43434003  , 0.309019834 , -0.00368617871, -0.0007922808, -1.372105   , 4.57        , 3           , 12          , 0.06841073  , 0
0.00116974115, 0.06660935  , -9.77821    , -0.0004067596, -0.0007294394, -0.00011855887, 0.0886477   , 0.4341378   , 0.3100984   , -0.00369024556, -0.0007995797, -1.37210631 , 4.58        , 3           , 50          , 0           , 0
-0.0287075471, 0.0434742272, -9.78372    , -0.002417663, -0.0004533471, 0.00330758933, 0.0881084   , 0.434609681 , 0.309087247 , -0.00371444854, -0.0008039908, -1.372073   , 4.59        , 3           , 11          , 0.005849355 , 0.005849406
-0.0418088  , 0.0550937019, -9.76338    , -0.005291481, -0.00385515066, 0.001237218 , 0.08837805  , 0.433935553 , 0.309222043 , -0.00377647229, -0.00086907763, -1.37206042 , 4.6         , 3           , 12          , 0.06950568  , 0
-0.0209748726, 0.0524305329, -9.783997   , -0.00238987315, 0.000424878963, 0.000172298984, 0.08837805  , 0.433935553 , 0.309222043 , -0.00380037236, -0.000864822534, -1.37205875 , 4.61        , 3           , 50          , 0           , 0
-0.006719878, 0.03738164  , -9.779975   , 0.000719720731, -0.001607842, -0.000410396431, 0.08837805  , 0.434407443 , 0.30962652  , -0.00379317161, -0.0008809165, -1.3720628  , 4.62        , 3           , 11          , 0.006046393 , 0.00604646234
-0.00209395029, 0.0446537137, -9.788882   , 0.00384800672, -0.00135816773, 0.000184952456, 0.0880409852, 0.434542269 , 0.308885    , -0.00375469332, -0.000894490862, -1.37206078 , 4.63        , 3           , 12          , 0.06950568  , 0
-0.03733512 , 0.03631486  , -9.782076   , 0.00386780663, 0.0003613073, 0.000209993668, 0.08844546  , 0.4342052   , 0.309963584 , -0.00371601712, -0.0008908699, -1.37205875 , 4.64        , 3           , 50          , 0           , 0
-0.0342426  , 0.0321905538, -9.77848148 , -0.000147352752, -0.00246402971, 0.0001442708, 0.0882432237, 0.434542269 , 0.309289455 , -0.00371749164, -0.000915504759, -1.3720572  , 4.65        , 3           , 11          , 0.006046393 , 0.00604646234
0.00937524  , 0.02326728  , -9.780441   , 0.001542787 , -0.003914263, 0.0001336835, 0.0882432237, 0.434542269 , 0.309289455 , -0.00370206521, -0.0009546421, -1.37205577 , 4.66        , 3           , 12          , 0.06950568  , 0
-0.0200886671, 0.0350405872, -9.803162   , 0.00584650552, -0.000239756933, 0.00107213249, 0.08844546  , 0.4341378   , 0.309087247 , -0.00364361051, -0.00095700036, -1.372045   , 4.67        , 3           , 50          , 0           , 0
-0.05422291 , 0.05549864  , -9.791043   , -0.000954473158, 0.00155674759, 0.000197560075, 0.08844546  , 0.43434003  , 0.309828758 , -0.003653157, -0.0009414257, -1.37204313 , 4.68        , 3           , 11          , 0.006046393 , 0.00604646234
-0.00487804972, 0.0418798625, -9.780358   , 0.00246266043, 0.001527191 , -0.0003542072, 0.08797357  , 0.434474856 , 0.308750182 , -0.00362852751, -0.000926166656, -1.37204671 , 4.69        , 3           , 12          , 0.06950568  , 0
-0.002216259, 0.0266610309, -9.793156   , -0.0008536062, 0.009879441 , -0.0008260714, 0.0885128751, 0.4341378   , 0.309693933 , -0.00364413438, -0.000822773436, -1.37205541 , 4.7         , 3           , 50          , 0           , 0
-0.02191027 , 0.0430370942, -9.790438   , 0.00250880118, 0.00526205963, -0.001158451, 0.08844546  , 0.434542269 , 0.309424281 , -0.00361903734, -0.0007701953, -1.37206721 , 4.71        , 3           , 11          , 0.00623287074, 0.00623290427
-0.03172896 , 0.05349417  , -9.790407   , 0.000201365925, 0.00383180426, 0.00109628611, 0.08844546  , 0.434542269 , 0.309424281 , -0.003617032, -0.000731837645, -1.37205625 , 4.72        , 3           , 12          , 0.07060357  , 0
-0.0125897815, 0.0436388366, -9.77002    , 0.0030628196, 0.004954344 , 0.0005577862, 0.08837805  , 0.43434003  , 0.3088176   , -0.003586407, -0.0006822743, -1.37205088 , 4.73        , 3           , 50          , 0           , 0
-0.0227013174, 0.06546925  , -9.778894   , -0.00213107234, -0.001582404, 0.0001447898, 0.08858029  , 0.4341378   , 0.310300648 , -0.00360771921, -0.0006980928, -1.37204933 , 4.74        , 3           , 11          , 0.00623287074, 0.00623290427
-0.0376629867, 0.04051242  , -9.794678   , -0.000714099733, -0.00188599061, 0.000435347261, 0.08817581  , 0.434542269 , 0.308885    , -0.003614863, -0.000716936949, -1.3720448  , 4.75        , 3           , 12          , 0.07060357  , 0
-0.0232297927, 0.0382001773, -9.800895   , 0.00183347915, -0.00249283435, 0.0013009127, 0.0886477   , 0.434002966 , 0.3094917   , -0.003596538, -0.0007418184, -1.37203169 , 4.76        , 3           , 50          , 0           , 0
-0.0241683088, 0.04037545  , -9.7927475  , -0.00699102459, -0.003823354, -0.000203890188, 0.0886477   , 0.434002966 , 0.3094917   , -0.00366644748, -0.00078005885, -1.3720336  , 4.77        , 3           , 11          , 0.00623287074, 0.00623290427
-0.009826241, 0.04059446  , -9.782677   , -0.00383689348, -0.0009995865, 0.0010013486, 0.08837805  , 0.434474856 , 0.3094917   , -0.00370482425, -0.000790018064, -1.37202358 , 4.78        , 3           , 12          , 0.07060357  , 0
-0.0219712257, 0.0238029864, -9.805116   , -0.0008769712, 0.007026448 , -0.00229862682, 0.08817581  , 0.43434003  , 0.3088176   , -0.00371357636, -0.0007198393, -1.372047   , 4.79        , 3           , 50          , 0           , 0
-0.04576204 , 0.0352495275, -9.802039   , -0.004412567, -0.0032999462, 0.0003923274, 0.08844546  , 0.4341378   , 0.310233235 , -0.00371312327, -0.0008055518, -1.3720417  , 4.8         , 3           , 11          , 0.00642766571, 0.006427743
-0.0200209077, 0.05695595  , -9.786195   , 0.00385818421, -0.0008147715, 0.00162423367, 0.08837805  , 0.4347445   , 0.309087247 , -0.00367455464, -0.0008136395, -1.37202549 , 4.81        , 3           , 12          , 0.0717041   , 0
-0.00613856455, 0.05716435  , -9.774773   , -0.00181686156, 0.000107877662, 0.00103015848, 0.08837805  , 0.433935553 , 0.309019834 , -0.00369273173, -0.0008125226, -1.37201512 , 4.82        , 3           , 50          , 0           , 0
-0.0135158589, 0.0249118675, -9.789215   , 0.00133673975, 0.00123776542, -0.0006512842, 0.08837805  , 0.433935553 , 0.309019834 , -0.003679359, -0.000800169248, -1.37202179 , 4.83        , 3           , 11          , 0.00642766571, 0.006427743
-0.008539578, 0.0329173058, -9.782753   , -0.00122981984, 0.0006906138, -0.000675051764, 0.08858029  , 0.43434003  , 0.309693933 , -0.00369165163, -0.000793287938, -1.37202859 , 4.84        , 3           , 12          , 0.0717041   , 0
-0.0360556  , 0.032632947 , -9.776235   , -0.0007093551, -0.00220143283, 0.0015759517, 0.0882432237, 0.434474856 , 0.30868277  , -0.00369875855, -0.0008152439, -1.37201273 , 4.85        , 3           , 50          , 0           , 0
-0.0188845955, 0.0361396149, -9.780553   , -0.0021593275, -0.00476363767, 0.00124365883, 0.08858029  , 0.434070379 , 0.310031    , -0.00372036127, -0.000862833462, -1.372      , 4.86        , 3           , 11          , 0.00642766571, 0.006427743
-0.011259729, 0.0400343537, -9.771403   , -0.00097507966, -0.00189148821, -0.0007109002, 0.08831064  , 0.4346771   , 0.309356868 , -0.00373010663, -0.0008817748, -1.372007   , 4.87        , 3           , 12          , 0.0717041   , 0
-0.04293561 , 0.0505519621, -9.801386   , -0.00330368755, -0.00532523729, 0.00122845825, 0.08831064  , 0.4346771   , 0.309356868 , -0.003763155, -0.0009349809, -1.37199461 , 4.88        , 3           , 50          , 0           , 0
-0.0295566078, 0.0511281081, -9.781834   , -0.0004084153, -0.000771426945, 0.00159853278, 0.08831064  , 0.4341378   , 0.309019834 , -0.0037672543, -0.0009426349, -1.37197852 , 4.89        , 3           , 11          , 0.00642766571, 0.006427743
-0.0401110649, 0.0348888859, -9.773084   , 0.00162009173, 0.00236157724, 0.0005117705, 0.08837805  , 0.4342052   , 0.310031    , -0.00377001031, -0.000945993932, -1.37197351 , 4.9         , 3           , 12          , 0.07280699  , 0
-0.0157479644, 0.0343085527, -9.780544   , 0.000170119136, -0.0002006274, 0.000179477691, 0.08817581  , 0.4346771   , 0.30868277  , -0.00376831042, -0.0009479935, -1.37197161 , 4.91        , 3           , 50          , 0           , 0
-0.0259959921, 0.0439112857, -9.784594   , -0.00406733528, 0.00270338939, 0.0007678401, 0.08871511  , 0.43386814  , 0.309693933 , -0.003808991, -0.0009209303, -1.371964   , 4.92        , 3           , 11          , 0.00654502772, 0.00654506544
-0.0141976681, 0.0488467366, -9.791655   , 0.002778205 , 0.0037880335, -3.28362948E-05, 0.08837805  , 0.434474856 , 0.30962652  , -0.00378120877, -0.0008830518, -1.37196457 , 4.93        , 3           , 12          , 0.07280699  , 0
0.0120163346, 0.0298283   , -9.763628   , 0.00104516547, 0.00151273818, -7.650493E-05, 0.08837805  , 0.434474856 , 0.30962652  , -0.00377075654, -0.000867927447, -1.37196529 , 4.94        , 3           , 50          , 0           , 0
-0.0081698  , 0.0247777291, -9.781037   , 0.00216753338, -0.000494636246, -0.001243522, 0.08844546  , 0.434272617 , 0.309087247 , -0.00374907046, -0.0008729205, -1.37197769 , 4.95        , 3           , 11          , 0.00654502772, 0.00654506544
-0.0312721729, 0.0490489379, -9.796779   , 0.00160689186, 0.00121526071, 0.000495076354, 0.08858029  , 0.434070379 , 0.3100984   , -0.003733006, -0.0008607495, -1.3719728  , 4.96        , 3           , 12          , 0.07280699  , 0
-0.02431645 , 0.03347155  , -9.77973    , 0.000452078268, 7.538355E-05, 0.00104385673, 0.0882432237, 0.434407443 , 0.308952421 , -0.00372849451, -0.0008599566, -1.37196231 , 4.97        , 3           , 50          , 0           , 0
-0.0147829577, 0.03306412  , -9.79139    , -0.00185781473, -0.00305131054, 0.0006980766, 0.0885128751, 0.43386814  , 0.309289455 , -0.00374707929, -0.000890443334, -1.37195528 , 4.98        , 3           , 11          , 0.00654502772, 0.00654506544
-0.0168462489, 0.05295745  , -9.794342   , 0.00214139884, -0.00194032968, 0.000166430254, 0.0885128751, 0.43386814  , 0.309289455 , -0.003725667, -0.000909840455, -1.37195349 , 4.99        , 3           , 12          , 0.07280699  , 0
-0.0317242444, 0.0477146544, -9.798153   , -0.000140091259, -0.000490259146, -0.0006850356, 0.08858029  , 0.43434003  , 0.3095591   , -0.003809933, -0.0009547012, -1.37196076 , 5           , 3           , 50          , 0           , 0
-0.0292286742, 0.0331315026, -9.786103   , -0.00182170444, 0.00153569225, -0.0009522653, 0.0881084   , 0.434474856 , 0.3088176   , -0.00382814067, -0.0009393807, -1.3719703  , 5.01        , 3           , 11          , 0.00673481636, 0.0067348755
-0.01661088 , 0.04105094  , -9.777765   , 0.0012689085, -0.00165102375, -0.0006931627, 0.08878253  , 0.434070379 , 0.3100984   , -0.00381544512, -0.0009559176, -1.37197721 , 5.02        , 3           , 12          , 0.073912    , 0
0.004784068 , 0.0160484351, -9.776501   , 0.00160614809, 0.002931353 , -0.0006246728, 0.0880409852, 0.4346771   , 0.30915466  , -0.003799377, -0.0009266278, -1.37198353 , 5.03        , 3           , 50          , 0           , 0
-0.00187094882, 0.0398504026, -9.761834   , 0.00359337428, 0.00290600653, -4.03510348E-05, 0.0880409852, 0.4346771   , 0.30915466  , -0.00376344332, -0.000897569233, -1.37198389 , 5.04        , 3           , 11          , 0.00673481636, 0.0067348755
