Acc X       , Acc Y       , Acc Z       , Gyro X      , Gyro Y      , Gyro Z      , Magn X      , Magn Y      , Magn Z      , Euler X     , Euler Y     , Euler Z     , Time        , Status      , LowRate X   , LowRate Y   , LowRate Z    
-0.08991239 , -0.07752241 , -9.80645752 , 0.000837084954, 0.003940097 , -0.000392096641, 0.201833621 , -0.09599569 , 0.347242832 , 0.00779239973, -0.011080307, 0.462477446 , 0           , 3           , 11          , 0.0346410163, 0.0346410163
-0.108012877, -0.06993731 , -9.784403   , 0.001958345 , 0.002495643 , -0.000406110776, 0.201766208 , -0.09586086 , 0.347310245 , 0.00781202549, -0.0110553186, 0.462473631 , 0.01        , 3           , 12          , 0.0346410163, 0
-0.101663224, -0.08461079 , -9.808906   , 0.0009244459, -0.00107264356, -0.0008935229, 0.202035859 , -0.09586086 , 0.347242832 , 0.00782137  , -0.0110659748, 0.462464571 , 0.02        , 3           , 50          , 0           , 0
-0.113030516, -0.0851282  , -9.793659   , 0.000211419188, -0.00106797914, -0.0006116424, 0.202035859 , -0.09586086 , 0.347242832 , 0.007823553 , -0.0110766049, 0.462458372 , 0.03        , 3           , 11          , 0.0346410163, 0.0346410163
-0.09990483 , -0.06733148 , -9.781589   , 0.00264771841, 0.0007663845, -0.000140704447, 0.2016988   , -0.09599569 , 0.347175419 , 0.007850044 , -0.0110689318, 0.462456942 , 0.04        , 3           , 12          , 0.0346410163, 0
-0.110159226, -0.06931197 , -9.79887    , 0.001086466 , 0.0006453866, -0.0008676249, 0.201968446 , -0.09586086 , 0.3475799   , 0.007861005 , -0.01106241 , 0.462448359 , 0.05        , 3           , 50          , 0           , 0
-0.1154925  , -0.0598104261, -9.797455   , 0.000377148448, 0.00121937017, -0.000148151317, 0.201833621 , -0.09586086 , 0.347310245 , 0.007864791 , -0.0110502038, 0.462446928 , 0.06        , 3           , 11          , 0.0346410163, 0.0346410163
-0.116337784, -0.09513198 , -9.783415   , 0.00109635387, 0.002492794 , 0.000876487058, 0.201833621 , -0.0960631  , 0.347242832 , 0.007875657 , -0.011025345, 0.46245575  , 0.07        , 3           , 12          , 0.0346410163, 0
-0.1218812  , -0.0598861836, -9.785318   , -0.000161610369, 0.00309943175, -0.001412188, 0.201833621 , -0.0960631  , 0.347242832 , 0.007874193 , -0.01099424 , 0.462441921 , 0.08        , 3           , 50          , 0           , 0
-0.10124658 , -0.06997677 , -9.786149   , -0.00189478241, 0.000400666351, -0.00217752717, 0.201901034 , -0.0959282741, 0.347310245 , 0.007855483 , -0.0109900627, 0.462420225 , 0.09        , 3           , 11          , 0.0346410163, 0.0346410163
-0.08631793 , -0.0668820441, -9.792299   , -0.0020761115, -0.00175786938, -0.0006357691, 0.201968446 , -0.09586086 , 0.3475799   , 0.0076049515, -0.0107973823, 0.462416172 , 0.1         , 3           , 12          , 0.0346410163, 0
-0.113711312, -0.0558502153, -9.789714   , -0.00123007852, -0.00248170621, -0.0007841446, 0.201766208 , -0.0959282741, 0.347512484 , 0.007592738 , -0.01082214 , 0.4624083   , 0.11        , 3           , 50          , 0           , 0
-0.114164993, -0.06297369 , -9.79793    , -0.000261769339, -0.004362263, 5.3216354E-05, 0.202170685 , -0.09599569 , 0.347242832 , 0.007590117 , -0.0108657656, 0.4624083   , 0.12        , 3           , 11          , 0.0346410163, 0.0346410163
-0.0978581756, -0.08324407 , -9.771364   , 0.00216668937, -0.00296160765, 0.000947139866, 0.201833621 , -0.0960631  , 0.347377658 , 0.007611684 , -0.0108954525, 0.4624176   , 0.13        , 3           , 12          , 0.0346410163, 0
-0.12021447 , -0.09774709 , -9.746894   , 0.002478493 , -0.000670584268, 0.0008391594, 0.201833621 , -0.0960631  , 0.347377658 , 0.00763637759, -0.0109022222, 0.462425947 , 0.14        , 3           , 50          , 0           , 0
-0.100528821, -0.09296628 , -9.787762   , 0.00146081636, -0.00266524474, 0.000660865742, 0.201968446 , -0.0959282741, 0.347310245 , 0.00765091553, -0.0109289242, 0.462432384 , 0.15        , 3           , 11          , 0.0346410163, 0.0346410163
-0.08592463 , -0.09012014 , -9.812439   , -0.0011060203, -0.00307166646, 0.000925349 , 0.202103272 , -0.09599569 , 0.347445071 , 0.00763975736, -0.0109597137, 0.462441444 , 0.16        , 3           , 12          , 0.0346410163, 0
-0.08746448 , -0.0558743551, -9.808443   , -0.003070146, -0.001040266, 0.000370242 , 0.202035859 , -0.09613051 , 0.3475799   , 0.00760901533, -0.0109701417, 0.462445021 , 0.17        , 3           , 50          , 0           , 0
-0.09436663 , -0.0560429841, -9.78728    , -0.00504938653, -0.00114541163, -0.0016469867, 0.201968446 , -0.09599569 , 0.347445071 , 0.00755870435, -0.0109814713, 0.46242857  , 0.18        , 3           , 11          , 0.0346410163, 0.0346410163
-0.0894046947, -0.0516205877, -9.783117   , -0.00663388427, -0.00270826346, -0.00139320071, 0.201968446 , -0.09599569 , 0.347445071 , 0.00749252  , -0.011008447, 0.4624145   , 0.19        , 3           , 12          , 0.0346410163, 0
-0.08271609 , -0.06468792 , -9.789532   , -0.00222332 , -0.0007352527, -0.0009080983, 0.202103272 , -0.0961979255, 0.347175419 , 0.00701545272, -0.0106318239, 0.4624102   , 0.2         , 3           , 50          , 0           , 0
-0.09798163 , -0.07250157 , -9.80557    , 7.268645E-05, 0.00110311492, -0.0007241811, 0.201833621 , -0.0960631  , 0.347310245 , 0.00701625645, -0.0106207412, 0.462402821 , 0.21        , 3           , 11          , 0.0284573548, 0.028457338
-0.102775544, -0.09427519 , -9.790056   , -0.000349987124, 0.00153603859, -0.000577409053, 0.201766208 , -0.09599569 , 0.347445071 , 0.007012816 , -0.0106053418, 0.462397337 , 0.22        , 3           , 12          , 0.0346698426, 0
-0.112986229, -0.07348692 , -9.785845   , 0.000800418667, 0.002952257 , 2.26402335E-05, 0.202103272 , -0.09586086 , 0.347377658 , 0.00702081528, -0.0105758207, 0.462397575 , 0.23        , 3           , 50          , 0           , 0
-0.110858425, -0.09461683 , -9.793749   , 0.00137108134, 0.003513237 , 0.0007498242, 0.202103272 , -0.09586086 , 0.347377658 , 0.00703444565, -0.0105407424, 0.462405443 , 0.24        , 3           , 11          , 0.0284573548, 0.028457338
-0.109311089, -0.0591618828, -9.778871   , 0.00280649331, 0.00365743553, -0.0009565061, 0.201901034 , -0.0960631  , 0.347242832 , 0.007062608 , -0.0105041  , 0.462396145 , 0.25        , 3           , 12          , 0.0346698426, 0
-0.105006531, -0.08176089 , -9.777737   , 0.0029407402, 0.002798813 , -0.00125433411, 0.201901034 , -0.09586086 , 0.347377658 , 0.00709214341, -0.010476023, 0.462383747 , 0.26        , 3           , 50          , 0           , 0
-0.110397443, -0.0821405649, -9.780049   , -0.0010513314, 0.0029672   , 0.000440749223, 0.201968446 , -0.09586086 , 0.347445071 , 0.00708158268, -0.0104463836, 0.462388277 , 0.27        , 3           , 11          , 0.0284573548, 0.028457338
-0.128765315, -0.07916793 , -9.790121   , -0.0009289113, 0.00124628027, 0.000416564726, 0.201833621 , -0.0959282741, 0.347512484 , 0.00707225036, -0.0104339523, 0.462392569 , 0.28        , 3           , 12          , 0.0346698426, 0
-0.100908026, -0.0732676759, -9.773988   , 0.0028777516, -0.0015177913, 0.000686211046, 0.201968446 , -0.09586086 , 0.347310245 , 0.00710095745, -0.0104491785, 0.462399483 , 0.29        , 3           , 50          , 0           , 0
-0.09282309 , -0.07603883 , -9.774397   , 0.003176553 , -0.0007993692, 0.000269069453, 0.201968446 , -0.09586086 , 0.347310245 , 0.00717860227, -0.0104425848, 0.462401628 , 0.3         , 3           , 11          , 0.0254384074, 0.025438372
-0.107642159, -0.08430731 , -9.790439   , -0.000228067074, 0.000234494073, 0.000692362 , 0.2016988   , -0.09599569 , 0.347512484 , 0.007176248 , -0.010440289, 0.462408543 , 0.31        , 3           , 12          , 0.0347559527, 0
-0.108074725, -0.07136745 , -9.777193   , -0.000934084354, 0.00109505677, 0.00141600915, 0.201766208 , -0.0959282741, 0.347512484 , 0.007166758 , -0.0104294391, 0.462422848 , 0.32        , 3           , 50          , 0           , 0
-0.0968642  , -0.07019983 , -9.768947   , -0.00105017 , 0.002542195 , 5.200127E-06, 0.201968446 , -0.09579345 , 0.3475799   , 0.00715625426, -0.0104040187, 0.4624231   , 0.33        , 3           , 11          , 0.0254384074, 0.025438372
-0.107330084, -0.08852905 , -9.775578   , -0.00164229423, 0.00110612006, 0.0009824797, 0.201833621 , -0.09586086 , 0.347310245 , 0.007139727 , -0.01039303 , 0.462432861 , 0.34        , 3           , 12          , 0.0347559527, 0
-0.110348061, -0.07138172 , -9.774053   , 0.001309941 , -0.00108636217, 0.002399989 , 0.201833621 , -0.09586086 , 0.347310245 , 0.0071525774, -0.0104040634, 0.4624567   , 0.35        , 3           , 50          , 0           , 0
-0.09806034 , -0.06549998 , -9.785616   , 0.006324771 , 0.00159325008, 0.00161112985, 0.202035859 , -0.09599569 , 0.347310245 , 0.007215657 , -0.0103882467, 0.462472916 , 0.36        , 3           , 11          , 0.0254384074, 0.025438372
-0.111213408, -0.066423595, -9.7731     , 0.005921897 , 0.00374564854, 0.00178294326, 0.201766208 , -0.09599569 , 0.3476473   , 0.007274688 , -0.0103509193, 0.462491035 , 0.37        , 3           , 12          , 0.0347559527, 0
-0.125771731, -0.08878536 , -9.778912   , -0.000496284163, 0.00181100937, 0.0009997672, 0.201901034 , -0.0957260355, 0.347445071 , 0.00726962  , -0.01033288 , 0.4625013   , 0.38        , 3           , 50          , 0           , 0
-0.10751231 , -0.06541283 , -9.786154   , -0.00106913887, 0.000400529825, -0.000884593464, 0.202170685 , -0.0959282741, 0.347445071 , 0.00725902  , -0.01032881 , 0.462492466 , 0.39        , 3           , 11          , 0.0254384074, 0.025438372
-0.103980564, -0.0891438  , -9.80491352 , -8.62341258E-05, 9.353112E-05, -0.00116872007, 0.201901034 , -0.09599569 , 0.347310245 , 0.00714793336, -0.0104538361, 0.462481976 , 0.4         , 3           , 12          , 0.03489849  , 0
-0.08837328 , -0.08461621 , -9.777166   , -0.00280024065, -0.00074131455, -0.0009113539, 0.201901034 , -0.09599569 , 0.347310245 , 0.00712002767, -0.0104611823, 0.462472677 , 0.41        , 3           , 50          , 0           , 0
-0.104393676, -0.07350334 , -9.791187   , -0.003101325, -0.00160712085, 7.598599E-05, 0.201901034 , -0.09599569 , 0.347310245 , 0.007089008 , -0.0104772579, 0.4624734   , 0.42        , 3           , 11          , 0.0240459275, 0.0240459032
-0.101435244, -0.0880710557, -9.780939   , 0.000721693563, -0.002374096, 0.00137642107, 0.201833621 , -0.09599569 , 0.3475799   , 0.007096083 , -0.010501096, 0.462486982 , 0.43        , 3           , 12          , 0.03489849  , 0
-0.108089313, -0.07049952 , -9.774022   , 0.0008658405, -0.00237298128, 0.00109111378, 0.202103272 , -0.0959282741, 0.347377658 , 0.007104629 , -0.0105249025, 0.4624977   , 0.44        , 3           , 50          , 0           , 0
-0.103579454, -0.06741141 , -9.77123451 , 0.0007674955, 0.000367602217, -0.000730160449, 0.202035859 , -0.09599569 , 0.347377658 , 0.00711238  , -0.0105211744, 0.46249032  , 0.45        , 3           , 11          , 0.0240459275, 0.0240459032
-0.118316814, -0.06665209 , -9.788074   , 0.00137432513, 0.0036574835, -0.000678738, 0.202035859 , -0.09599569 , 0.347377658 , 0.00712619256, -0.010484552, 0.462483883 , 0.46        , 3           , 12          , 0.03489849  , 0
-0.122750707, -0.060276024, -9.790299   , -0.000647429843, 0.00208488852, 0.00114637986, 0.201968446 , -0.09599569 , 0.347377658 , 0.00711959647, -0.0104637854, 0.462495565 , 0.47        , 3           , 50          , 0           , 0
-0.128502116, -0.09147695 , -9.778065   , -0.000115403491, -0.000791801547, 0.00168039917, 0.202170685 , -0.0959282741, 0.347377658 , 0.0071182684, -0.0104718236, 0.462512255 , 0.48        , 3           , 11          , 0.0240459275, 0.0240459032
-0.103170544, -0.07460077 , -9.774024   , -9.4772804E-05, 0.000505483244, 0.0008406882, 0.201833621 , -0.0959282741, 0.347445071 , 0.00711723138, -0.010466828, 0.4625206   , 0.49        , 3           , 12          , 0.03489849  , 0
-0.10316962 , -0.05545862 , -9.750767   , -0.0009280669, 0.000954443763, -0.0004459901, 0.201901034 , -0.0959282741, 0.347310245 , 0.007154027 , -0.010465119, 0.462515831 , 0.5         , 3           , 50          , 0           , 0
-0.110863864, -0.08705789 , -9.783724   , -0.00280525349, -0.00132196641, -0.000204351483, 0.201901034 , -0.0959282741, 0.347310245 , 0.00712599652, -0.0104783224, 0.4625137   , 0.51        , 3           , 11          , 0.02180178  , 0.021801753
-0.07665682 , -0.072684   , -9.763821   , -0.0032491  , -0.00289253774, -0.000372958079, 0.201968446 , -0.0960631  , 0.347242832 , 0.007093547 , -0.0105072213, 0.462509632 , 0.52        , 3           , 12          , 0.0350963473, 0
-0.110013172, -0.07734903 , -9.764633   , -0.00135815935, 0.000248729 , -0.00117440429, 0.2022381   , -0.09586086 , 0.347445071 , 0.00708008837, -0.01050465 , 0.46249795  , 0.53        , 3           , 50          , 0           , 0
-0.130124912, -0.0787246451, -9.788322   , -0.00305050355, 0.00183713308, -0.0005894021, 0.2022381   , -0.09586086 , 0.347242832 , 0.0070496425, -0.0104862377, 0.462492228 , 0.54        , 3           , 11          , 0.02180178  , 0.021801753
-0.10173177 , -0.09094766 , -9.806722   , -0.0025034945, 0.000673519447, 0.000685068546, 0.202035859 , -0.09599569 , 0.3475799   , 0.00702453451, -0.0104795508, 0.462499142 , 0.55        , 3           , 12          , 0.0350963473, 0
-0.116276823, -0.07589788 , -9.76874    , -0.0003855983, -0.000356298842, 0.0012556396, 0.201968446 , -0.0960631  , 0.347242832 , 0.00702054845, -0.0104832016, 0.462511778 , 0.56        , 3           , 50          , 0           , 0
-0.100776985, -0.10848093 , -9.77078    , -0.000826554256, -0.00192303059, 0.0006577872, 0.201968446 , -0.0960631  , 0.347242832 , 0.007012215 , -0.010502479, 0.462518215 , 0.57        , 3           , 11          , 0.02180178  , 0.021801753
-0.09163163 , -0.100331753, -9.780991   , -0.0002477746, -0.0010690724, 0.0006737346, 0.202170685 , -0.0959282741, 0.347445071 , 0.007009666 , -0.0105132163, 0.462524652 , 0.58        , 3           , 12          , 0.0350963473, 0
-0.109396078, -0.0775425658, -9.789021   , -0.000229347788, 0.000366382854, 0.0004084382, 0.202103272 , -0.09599569 , 0.347512484 , 0.00700733  , -0.01050958 , 0.462528944 , 0.59        , 3           , 50          , 0           , 0
-0.128760815, -0.08049646 , -9.792396   , -0.00304464041, 0.0002276263, 0.00053213007, 0.202103272 , -0.0959282741, 0.347242832 , 0.00715666963, -0.0106382053, 0.462532282 , 0.6         , 3           , 11          , 0.0210574064, 0.02105738
-0.100652516, -0.0958265439, -9.773342   , -0.00302195014, 0.00195094058, 0.0001279253, 0.202372923 , -0.0960631  , 0.3476473   , 0.007126435 , -0.0106187062, 0.4625337   , 0.61        , 3           , 12          , 0.035348177 , 0
-0.102311634, -0.07734309 , -9.77133751 , -0.000325684057, 0.00149234058, 0.000281024171, 0.202372923 , -0.0960631  , 0.3476473   , 0.007123147 , -0.0106038041, 0.462536573 , 0.62        , 3           , 50          , 0           , 0
-0.111243933, -0.0749278963, -9.77907    , 0.00181916554, 0.00247369567, 0.000308482035, 0.202170685 , -0.09579345 , 0.347175419 , 0.007141304 , -0.01057909 , 0.4625399   , 0.63        , 3           , 11          , 0.0210574064, 0.02105738
-0.109447122, -0.08029155 , -9.784988   , 0.00229092943, 0.00605672  , -0.0002091067, 0.201901034 , -0.0959282741, 0.347445071 , 0.0071642315, -0.010518509, 0.462538242 , 0.64        , 3           , 12          , 0.035348177 , 0
-0.122326054, -0.0790147558, -9.809483   , 0.00113047916, 0.004344964 , 0.000188244521, 0.202103272 , -0.09586086 , 0.347512484 , 0.007175513 , -0.0104750739, 0.4625404   , 0.65        , 3           , 50          , 0           , 0
-0.1019696  , -0.05545284 , -9.794118   , -0.002462694, 0.0009446938, -0.000169419334, 0.202372923 , -0.09599569 , 0.347310245 , 0.00715090428, -0.0104656164, 0.462538958 , 0.66        , 3           , 11          , 0.0210574064, 0.02105738
-0.07795788 , -0.08016345 , -9.78018    , -0.002456913, 0.0009523723, -0.00102791132, 0.202170685 , -0.0959282741, 0.347445071 , 0.007126441 , -0.0104560172, 0.4625287   , 0.67        , 3           , 12          , 0.035348177 , 0
-0.09848558 , -0.0725799054, -9.797897   , 0.00169922644, 0.00391571457, -0.000529999, 0.202170685 , -0.0959282741, 0.347445071 , 0.00714348536, -0.0104168225, 0.4625237   , 0.68        , 3           , 50          , 0           , 0
-0.114904091, -0.07365027 , -9.769153   , -0.000176454618, 0.002346794 , 0.0007236476, 0.2022381   , -0.09579345 , 0.347377658 , 0.00714164367, -0.0103934091, 0.4625311   , 0.69        , 3           , 11          , 0.0210574064, 0.02105738
-0.104513511, -0.07813821 , -9.779497   , -0.0031850487, -0.000499032554, -0.000194497043, 0.202440336 , -0.09599569 , 0.347445071 , 0.007133838 , -0.0104810921, 0.462528944 , 0.7         , 3           , 12          , 0.03565242  , 0
-0.112133577, -0.06466537 , -9.76812    , -0.00160880212, 0.000347371446, -0.000458716764, 0.202305511 , -0.09586086 , 0.347512484 , 0.00711779855, -0.0104775866, 0.462524176 , 0.71        , 3           , 50          , 0           , 0
-0.10345383 , -0.07701198 , -9.801155   , -0.000882707944, 0.00106555352, -0.00144557352, 0.202372923 , -0.0959282741, 0.347377658 , 0.00710912  , -0.010466828, 0.462509871 , 0.72        , 3           , 11          , 0.01917314  , 0.0191731285
-0.102409735, -0.08036092 , -9.826028   , -0.000176004149, 0.000347000663, -0.0020240522, 0.202372923 , -0.0959282741, 0.347377658 , 0.00710757263, -0.0104632135, 0.4624896   , 0.73        , 3           , 12          , 0.03565242  , 0
-0.100155689, -0.07369919 , -9.818252   , 0.001660331 , 0.0003115812, -0.000152848777, 0.202170685 , -0.0960631  , 0.347377658 , 0.007124191 , -0.01046009 , 0.462488174 , 0.74        , 3           , 50          , 0           , 0
-0.120387681, -0.102660485, -9.793026   , 0.00237390026, 0.00101312646, 0.000720360549, 0.202170685 , -0.09599569 , 0.347512484 , 0.00714785466, -0.0104500083, 0.462495327 , 0.75        , 3           , 11          , 0.01917314  , 0.0191731285
-0.0901052654, -0.08716563 , -9.790309   , 0.0013888143, 0.00160151767, 0.000150382722, 0.202103272 , -0.09579345 , 0.347445071 , 0.00716172624, -0.0104340045, 0.462497    , 0.76        , 3           , 12          , 0.03565242  , 0
-0.09900989 , -0.08292747 , -9.799828   , -0.00075672206, 0.000478152942, -2.22438539E-05, 0.202440336 , -0.09613051 , 0.3476473   , 0.00715416  , -0.010429224, 0.462496758 , 0.77        , 3           , 50          , 0           , 0
-0.09675689 , -0.06780982 , -9.781566   , -0.000775702763, -0.0006758423, 0.0008195541, 0.202440336 , -0.09613051 , 0.3476473   , 0.007146319 , -0.01043604 , 0.4625051   , 0.78        , 3           , 11          , 0.01917314  , 0.0191731285
-0.1143853  , -0.0673173144, -9.771333   , 0.00277553382, -0.0009998213, 0.00097988  , 0.202372923 , -0.09599569 , 0.347445071 , 0.00717397174, -0.0104461079, 0.462514639 , 0.79        , 3           , 12          , 0.03565242  , 0
-0.114521459, -0.08622149 , -9.774715   , 0.003329414 , -0.00216881721, 0.00053756393, 0.202103272 , -0.09599569 , 0.347512484 , 0.00718895625, -0.0105485432, 0.462520123 , 0.8         , 3           , 50          , 0           , 0
-0.121268876, -0.07235396 , -9.758807   , 0.00135387061, -0.000716973736, 0.0006895197, 0.202035859 , -0.0959282741, 0.347512484 , 0.00720242271, -0.0105557628, 0.462527037 , 0.81        , 3           , 11          , 0.0189558957, 0.018955892
-0.108119778, -0.09280285 , -9.796864   , 0.000664364954, 0.0005888148, -0.000297556835, 0.202103272 , -0.09599569 , 0.347512484 , 0.007209097 , -0.0105498545, 0.462524176 , 0.82        , 3           , 12          , 0.0360073522, 0
-0.08891637 , -0.0856447443, -9.764987   , -0.00191030058, -0.00123898487, -0.00134167925, 0.202170685 , -0.0959282741, 0.347310245 , 0.00719013624, -0.0105621461, 0.4625106   , 0.83        , 3           , 50          , 0           , 0
-0.105836987, -0.06740148 , -9.770351   , -0.001753098, 0.0004726465, -0.000600371452, 0.202170685 , -0.0959282741, 0.347310245 , 0.00717266835, -0.0105573768, 0.462504625 , 0.84        , 3           , 11          , 0.0189558957, 0.018955892
-0.107612   , -0.08070008 , -9.790397   , -0.0008835551, 0.00203760364, -0.000286112831, 0.202035859 , -0.09599569 , 0.347377658 , 0.0071638613, -0.01053698 , 0.462501764 , 0.85        , 3           , 12          , 0.0360073522, 0
-0.09410835 , -0.0834940746, -9.793015   , -0.00244784239, 0.00247696624, 0.000426133833, 0.202440336 , -0.09599569 , 0.347445071 , 0.007139336 , -0.0105122421, 0.4625063   , 0.86        , 3           , 50          , 0           , 0
-0.108221434, -0.08183022 , -9.768734   , -0.00244743284, 0.002759706 , 0.000859553344, 0.2022381   , -0.09586086 , 0.3475799   , 0.007114769 , -0.0104847066, 0.462515116 , 0.87        , 3           , 11          , 0.0189558957, 0.018955892
-0.109593593, -0.09520529 , -9.782      , -0.00089826074, 0.000183797267, -0.00131481467, 0.202305511 , -0.09599569 , 0.347377658 , 0.007105924 , -0.0104827741, 0.462502    , 0.88        , 3           , 12          , 0.0360073522, 0
-0.117545694, -0.0828828663, -9.789158   , -0.002173423, 0.0002031993, -0.00203793473, 0.202305511 , -0.09599569 , 0.347377658 , 0.007084404 , -0.0104805976, 0.4624815   , 0.89        , 3           , 50          , 0           , 0
-0.0964612737, -0.08407539 , -9.779039   , -0.00179750123, 0.00283531053, -0.000709013955, 0.2022381   , -0.09599569 , 0.347377658 , 0.007302296 , -0.0107125482, 0.4624722   , 0.9         , 3           , 11          , 0.0187807921, 0.0187807828
-0.088212736, -0.07324195 , -9.786518   , 0.000339231163, 0.00352368737, 2.96803373E-05, 0.202372923 , -0.0959282741, 0.347310245 , 0.007305682 , -0.0106773134, 0.462472677 , 0.91        , 3           , 12          , 0.03641109  , 0
-0.09361277 , -0.0803126246, -9.795683   , -0.0009935483, -0.00104857632, -4.48064857E-05, 0.202440336 , -0.0959282741, 0.347445071 , 0.007295752 , -0.0106877955, 0.4624722   , 0.92        , 3           , 50          , 0           , 0
-0.129663363, -0.07737583 , -9.788302   , -0.00190035417, -0.00576718338, -0.000261891953, 0.202035859 , -0.09599569 , 0.347512484 , 0.00727678137, -0.0107454471, 0.4624691   , 0.93        , 3           , 11          , 0.0187807921, 0.0187807828
-0.132894814, -0.08726347 , -9.788897   , 0.000107358079, -0.003931045, 0.00049263984, 0.202507749 , -0.0960631  , 0.347310245 , 0.00727780536, -0.0107847909, 0.462473631 , 0.94        , 3           , 12          , 0.03641109  , 0
-0.103525788, -0.0789026842, -9.793048   , 0.00160835951, 0.00166199671, -0.00156363938, 0.202507749 , -0.0960631  , 0.347310245 , 0.007294056 , -0.0107680578, 0.462458134 , 0.95        , 3           , 50          , 0           , 0
-0.102991357, -0.08189359 , -9.808887   , -0.00108102965, 0.00255302479, -0.00199664221, 0.2022381   , -0.0960631  , 0.347445071 , 0.007283458 , -0.0107423849, 0.462438345 , 0.96        , 3           , 11          , 0.0187807921, 0.0187807828
-0.104024366, -0.07274093 , -9.778527   , -0.00111280079, 0.000535452855, -0.0007381187, 0.202170685 , -0.0959282741, 0.347512484 , 0.00727241  , -0.0107369768, 0.4624312   , 0.97        , 3           , 12          , 0.03641109  , 0
-0.118053786, -0.08830917 , -9.787418   , 0.000851325167, -0.0014959476, -0.000183011667, 0.202170685 , -0.0959282741, 0.347445071 , 0.007280944 , -0.01075192 , 0.462429047 , 0.98        , 3           , 50          , 0           , 0
-0.0832454  , -0.08795205 , -9.806517   , -2.9634999E-05, -0.003640461, 0.0002097926, 0.202440336 , -0.0960631  , 0.347310245 , 0.0072806254, -0.0107883392, 0.462430954 , 0.99        , 3           , 11          , 0.0187807921, 0.0187807828
-0.08996849 , -0.06781539 , -9.786471   , -0.00135584758, -0.00293099112, 0.0004938768, 0.202440336 , -0.0960631  , 0.347310245 , 0.007545911 , -0.0104376413, 0.462432861 , 1           , 3           , 12          , 0.0368616357, 0
-0.111629628, -0.06458701 , -9.775793   , -0.000322225416, 0.0007780251, 0.0012695397, 0.2022381   , -0.0960631  , 0.347310245 , 0.007542554 , -0.0104299551, 0.4624455   , 1.01        , 3           , 50          , 0           , 0
-0.0919272453, -0.0840662  , -9.783515   , 0.00253716856, 0.001474535 , 0.000295533449, 0.202170685 , -0.09586086 , 0.347445071 , 0.00756789371, -0.0104152318, 0.4624486   , 1.02        , 3           , 11          , 0.0175819434, 0.0175819434
-0.0812007561, -0.0891783  , -9.778055   , 0.000961752667, 0.000205940669, -0.0003049992, 0.202170685 , -0.09586086 , 0.3475799   , 0.007577543 , -0.0104131494, 0.4624455   , 1.03        , 3           , 12          , 0.0368616357, 0
-0.118497506, -0.0493202135, -9.805943   , 0.0008374056, 0.00192430092, 5.34929E-06 , 0.202372923 , -0.0960631  , 0.347310245 , 0.00758591527, -0.0103939073, 0.462445736 , 1.04        , 3           , 50          , 0           , 0
-0.117881544, -0.07068514 , -9.790827   , 0.0009623066, -7.551926E-05, -0.000881500833, 0.202372923 , -0.0960631  , 0.347310245 , 0.00759563  , -0.0103945946, 0.4624369   , 1.05        , 3           , 11          , 0.0175819434, 0.0175819434
-0.09094057 , -0.07637477 , -9.786579   , -0.0014558431, -0.000333697564, -0.00132948416, 0.2022381   , -0.09599569 , 0.347310245 , 0.0075812093, -0.01039783 , 0.462423563 , 1.06        , 3           , 12          , 0.0368616357, 0
-0.0985861346, -0.0838622153, -9.797125   , 0.000384201121, 0.000200202077, 0.0009793121, 0.202103272 , -0.0959282741, 0.347512484 , 0.00758495042, -0.0103959022, 0.462433338 , 1.07        , 3           , 50          , 0           , 0
-0.100915834, -0.08129205 , -9.782662   , 0.000220254558, -0.0015203876, 0.00123957824, 0.201968446 , -0.0959282741, 0.347445071 , 0.007587024 , -0.0104111992, 0.462445736 , 1.08        , 3           , 11          , 0.0175819434, 0.0175819434
-0.08097031 , -0.07280054 , -9.791414   , 0.000671675953, -0.0003630483, -0.000458141672, 0.202170685 , -0.09599569 , 0.347445071 , 0.00759378867, -0.010414795, 0.462440968 , 1.09        , 3           , 12          , 0.0368616357, 0
-0.125525832, -0.06570692 , -9.786322   , 0.004218521 , 0.0001574229, 0.000141007578, 0.2022381   , -0.0959282741, 0.3476473   , 0.007609058 , -0.0100496989, 0.462442636 , 1.1         , 3           , 50          , 0           , 0
-0.13918899 , -0.0827430859, -9.784838   , 0.00294087734, 0.000455725531, 0.0002805528, 0.2022381   , -0.0959282741, 0.3476473   , 0.00763843767, -0.0100451624, 0.4624455   , 1.11        , 3           , 11          , 0.0165738687, 0.01657388
-0.119148806, -0.07188092 , -9.804403   , 0.00210529775, 0.00175783969, -0.000135052484, 0.202035859 , -0.09586086 , 0.347445071 , 0.00765950233, -0.0100275744, 0.4624443   , 1.12        , 3           , 12          , 0.0373569168, 0
-0.129173756, -0.08088055 , -9.798276   , 0.0006872166, 0.00262434687, 0.000727393141, 0.202170685 , -0.09599569 , 0.347512484 , 0.0076663   , -0.0100013884, 0.462451935 , 1.13        , 3           , 50          , 0           , 0
-0.09901404 , -0.0629028454, -9.774754   , 0.00142430677, 0.00462701637, 0.000331645337, 0.2022381   , -0.0959282741, 0.347445071 , 0.007680506 , -0.00995514449, 0.4624555   , 1.14        , 3           , 11          , 0.0165738687, 0.01657388
-0.099838376, -0.06945535 , -9.793809   , 0.00315391412, 0.00619226275, -0.0003505298, 0.202372923 , -0.0960631  , 0.347445071 , 0.007712076 , -0.009893197, 0.4624524   , 1.15        , 3           , 12          , 0.0373569168, 0
-0.11567165 , -0.077890195, -9.793599   , 0.0018513765, 0.00490542175, 0.0007676351, 0.202372923 , -0.0960631  , 0.347445071 , 0.00773051  , -0.009844204, 0.462460518 , 1.16        , 3           , 50          , 0           , 0
-0.12105564 , -0.07781412 , -9.796358   , 0.00181878626, 0.00232236972, 0.00115931942, 0.2022381   , -0.0960631  , 0.347377658 , 0.00774858147, -0.00982107 , 0.4624722   , 1.17        , 3           , 11          , 0.0165738687, 0.01657388
-0.150822267, -0.0776328  , -9.789402   , -0.0008992068, 0.00105893542, 0.00126734306, 0.202103272 , -0.0959282741, 0.347512484 , 0.00773946475, -0.009810579, 0.462485075 , 1.18        , 3           , 12          , 0.0373569168, 0
-0.131556228, -0.08462303 , -9.783887   , -0.0013233861, 0.000784369244, 0.00040210734, 0.2022381   , -0.09599569 , 0.347512484 , 0.00772619154, -0.009802767, 0.462489128 , 1.19        , 3           , 50          , 0           , 0
-0.119753741, -0.0743396059, -9.785013   , 0.002387349 , -0.000528399949, 0.00112367235, 0.202372923 , -0.09586086 , 0.347512484 , 0.007828119 , -0.0101166638, 0.46249938  , 1.2         , 3           , 11          , 0.0156379659, 0.0156379752
-0.09194487 , -0.08542859 , -9.782628   , 0.00140239578, 0.000483461015, 0.001275365 , 0.202305511 , -0.09586086 , 0.347242832 , 0.007842014 , -0.0101119317, 0.462512255 , 1.21        , 3           , 12          , 0.037894804 , 0
-0.1008154  , -0.06778422 , -9.780699   , 0.000146623468, 0.00193959824, 0.000143866142, 0.202305511 , -0.09586086 , 0.347242832 , 0.007843464 , -0.0100925453, 0.462513924 , 1.22        , 3           , 50          , 0           , 0
-0.09528618 , -0.05383867 , -9.781842   , 0.00242323941, 0.00234123087, 0.0007361616, 0.202305511 , -0.0959282741, 0.347377658 , 0.00786762  , -0.0100691915, 0.4625213   , 1.23        , 3           , 11          , 0.0156379659, 0.0156379752
-0.09866958 , -0.0826546848, -9.783561   , 0.00213673967, 0.00191809109, 0.000298941944, 0.202035859 , -0.09579345 , 0.347512484 , 0.007888956 , -0.0100500342, 0.462524652 , 1.24        , 3           , 12          , 0.037894804 , 0
-0.111283958, -0.08344672 , -9.783687   , -0.0007445136, -0.000923923333, 0.0008124007, 0.202103272 , -0.09599569 , 0.347512484 , 0.007881431 , -0.0100593371, 0.462532759 , 1.25        , 3           , 50          , 0           , 0
-0.122145079, -0.07765054 , -9.768814   , -0.00257342937, 0.000250134064, -0.000183616212, 0.202440336 , -0.0959282741, 0.3476473   , 0.007855712 , -0.0100568216, 0.462530851 , 1.26        , 3           , 11          , 0.0156379659, 0.0156379752
-0.130953491, -0.088399604, -9.810574   , 0.000169999839, 0.003804922 , -0.000115169772, 0.202440336 , -0.0959282741, 0.3476473   , 0.007857421 , -0.0100187641, 0.4625299   , 1.27        , 3           , 12          , 0.037894804 , 0
-0.1020018  , -0.09937363 , -9.777912   , 0.00456506573, 0.00289527653, 0.0004711952, 0.202035859 , -0.09613051 , 0.347512484 , 0.007903024 , -0.009989849, 0.4625349   , 1.28        , 3           , 50          , 0           , 0
-0.114488371, -0.0781584  , -9.769652   , 0.001844604 , 0.000923072745, -0.000289706833, 0.202170685 , -0.09579345 , 0.347512484 , 0.007921497 , -0.009980596, 0.462532043 , 1.29        , 3           , 11          , 0.0156379659, 0.0156379752
-0.107412159, -0.0590275563, -9.792854   , -0.00414163945, -5.48987846E-05, 8.917091E-05, 0.202103272 , -0.0959282741, 0.347445071 , 0.007883448 , -0.0100559164, 0.462533    , 1.3         , 3           , 12          , 0.0384731442, 0
-0.128651038, -0.06474862 , -9.78905    , -0.004430885, -0.001046078, -0.0009287239, 0.202372923 , -0.09599569 , 0.347445071 , 0.007839235 , -0.0100663034, 0.4625237   , 1.31        , 3           , 50          , 0           , 0
-0.11426086 , -0.06623647 , -9.788032   , -0.00200998923, -0.000219860711, 9.99346448E-05, 0.202372923 , -0.09599569 , 0.347445071 , 0.0078191245, -0.0100685088, 0.462524652 , 1.32        , 3           , 11          , 0.0155429663, 0.0155429756
-0.106160022, -0.07120894 , -9.793435   , -0.00200559339, 0.0004914683, 0.000682696467, 0.202170685 , -0.09599569 , 0.347377658 , 0.00779899862, -0.0100636473, 0.462531328 , 1.33        , 3           , 12          , 0.0384731442, 0
-0.1283649  , -0.08102871 , -9.785171   , -0.002735385, -0.00178370264, -0.000499631336, 0.202035859 , -0.0959282741, 0.347377658 , 0.007771697 , -0.0100814449, 0.462526321 , 1.34        , 3           , 50          , 0           , 0
-0.125756875, -0.0825307444, -9.77342    , -0.00272837561, -0.0009278045, -5.78647268E-05, 0.202372923 , -0.0959282741, 0.347445071 , 0.00774441939, -0.010090718, 0.4625256   , 1.35        , 3           , 11          , 0.0155429663, 0.0155429756
-0.107268989, -0.09689304 , -9.794645   , -0.003992133, 0.0006588245, 0.000243543444, 0.2022381   , -0.09599569 , 0.347445071 , 0.00770447263, -0.0100841494, 0.462528229 , 1.36        , 3           , 12          , 0.0384731442, 0
-0.08518694 , -0.0823649243, -9.779368   , -0.00415772945, -0.00120505469, 0.000501722738, 0.202170685 , -0.0959282741, 0.347310245 , 0.00766284438, -0.0100962371, 0.462533    , 1.37        , 3           , 50          , 0           , 0
-0.09352212 , -0.09199563 , -9.75787449 , -0.0016020335, -0.00151892018, 0.0006560518, 0.202170685 , -0.0959282741, 0.347310245 , 0.00764675951, -0.0101114763, 0.462539434 , 1.38        , 3           , 11          , 0.0155429663, 0.0155429756
-0.105018117, -0.09023614 , -9.786417   , -0.000579684041, 0.00104633928, 0.00112885644, 0.202170685 , -0.09599569 , 0.347377658 , 0.0076408484, -0.0101011023, 0.462550879 , 1.39        , 3           , 12          , 0.0384731442, 0
-0.106157124, -0.07832666 , -9.802551   , -0.000643177133, 0.00173283264, 0.00142406614, 0.2022381   , -0.09586086 , 0.347445071 , 0.00779677927, -0.0101486063, 0.462563753 , 1.4         , 3           , 50          , 0           , 0
-0.127173677, -0.0574442856, -9.798437   , 0.0020627242, 0.00128703029, 0.000146345017, 0.202103272 , -0.0959282741, 0.3476473   , 0.00781739  , -0.0101357475, 0.462565184 , 1.41        , 3           , 11          , 0.0158454962, 0.0158455
-0.110040843, -0.0611182377, -9.806001   , 0.000641355058, 0.000879288244, -0.0007269742, 0.202507749 , -0.09599569 , 0.347512484 , 0.007823879 , -0.010126899, 0.462558031 , 1.42        , 3           , 12          , 0.0390897729, 0
-0.109880745, -0.0842683539, -9.792265   , -0.00306695164, -8.489387E-05, -0.0009069376, 0.202507749 , -0.09599569 , 0.347512484 , 0.007793299 , -0.0101276794, 0.462548971 , 1.43        , 3           , 50          , 0           , 0
-0.106273584, -0.08740765 , -9.796785   , 0.000655241136, 0.00216761488, -0.0005651112, 0.202035859 , -0.0960631  , 0.347377658 , 0.00779990666, -0.0101059582, 0.4625435   , 1.44        , 3           , 11          , 0.0158454962, 0.0158455
-0.101575494, -0.08269587 , -9.819272   , 0.002190636 , 0.000702189049, 0.00128351082, 0.202103272 , -0.0960631  , 0.347512484 , 0.007821683 , -0.0100990366, 0.462556362 , 1.45        , 3           , 12          , 0.0390897729, 0
-0.10973236 , -0.08181544 , -9.810755   , 0.00190688262, 0.0008470888, 0.00142696628, 0.2022381   , -0.09599569 , 0.347512484 , 0.007840607 , -0.010090678, 0.462570667 , 1.46        , 3           , 50          , 0           , 0
-0.09854379 , -0.07133365 , -9.787947   , 0.00336717651, 0.003564101 , 0.000473607739, 0.202372923 , -0.09613051 , 0.3475799   , 0.007874228 , -0.0100550754, 0.462575674 , 1.47        , 3           , 11          , 0.0158454962, 0.0158455
-0.102783032, -0.08360346 , -9.775931   , 0.00221704761, 0.00200715265, -0.000414692273, 0.202170685 , -0.09613051 , 0.347445071 , 0.007896439 , -0.0100349728, 0.462571859 , 1.48        , 3           , 12          , 0.0390897729, 0
-0.101268075, -0.06956457 , -9.78253    , -0.00192726473, -9.38929152E-05, -0.001186248, 0.202170685 , -0.09613051 , 0.347445071 , 0.007877286 , -0.0100358175, 0.462559938 , 1.49        , 3           , 50          , 0           , 0
-0.09493441 , -0.0682377  , -9.785168   , -0.00366702862, -0.0005189067, -0.0010593445, 0.202170685 , -0.09613051 , 0.347310245 , 0.00778173935, -0.0100652054, 0.4625497   , 1.5         , 3           , 11          , 0.015678687 , 0.0156787
-0.127741948, -0.07231058 , -9.799518   , -0.0009594891, 0.000166250538, -0.0006033874, 0.2022381   , -0.09586086 , 0.3475799   , 0.007772205 , -0.0100634964, 0.462543726 , 1.51        , 3           , 12          , 0.0397425629, 0
-0.118028134, -0.08337339 , -9.785102   , -0.00126194581, -0.0009835752, 9.36151046E-05, 0.202372923 , -0.09599569 , 0.3476473   , 0.00775957666, -0.01007334 , 0.46254468  , 1.52        , 3           , 50          , 0           , 0
-0.113870762, -0.0641068444, -9.776711   , -0.001835499, -0.00154839479, -0.000204322758, 0.202372923 , -0.09579345 , 0.347512484 , 0.00774124358, -0.0100888079, 0.462542534 , 1.53        , 3           , 11          , 0.015678687 , 0.0156787
-0.127869383, -0.0640482157, -9.77096748 , -0.0005599152, -0.002272727, -0.0007793743, 0.202372923 , -0.09579345 , 0.347512484 , 0.007735726 , -0.0101114735, 0.462534428 , 1.54        , 3           , 12          , 0.0397425629, 0
-0.0942242444, -0.07832998 , -9.76992    , -0.0002570484, -0.0008401614, -0.0010429573, 0.2022381   , -0.09599569 , 0.347242832 , 0.00773326168, -0.0101197949, 0.462523937 , 1.55        , 3           , 50          , 0           , 0
-0.118452072, -0.06641409 , -9.768199   , 0.0003299812, 0.00073024485, -0.00101657608, 0.202305511 , -0.09586086 , 0.347445071 , 0.00773666333, -0.0101124151, 0.462513924 , 1.56        , 3           , 11          , 0.015678687 , 0.0156787
-0.09814447 , -0.07631205 , -9.786645   , -0.00224565924, -0.000111164605, -0.00018602518, 0.2022381   , -0.0959282741, 0.347512484 , 0.007714226 , -0.01011351 , 0.462512016 , 1.57        , 3           , 12          , 0.0397425629, 0
-0.0950210243, -0.09240757 , -9.80216    , -0.005520982, -0.000365792861, -6.682076E-05, 0.202305511 , -0.0961979255, 0.347377658 , 0.007659022 , -0.010117163, 0.4625113   , 1.58        , 3           , 50          , 0           , 0
-0.09366122 , -0.07192928 , -9.778422   , -0.005806386, -0.000364182983, 7.454785E-05, 0.202305511 , -0.0961979255, 0.347377658 , 0.007600952 , -0.0101208109, 0.462512016 , 1.59        , 3           , 11          , 0.015678687 , 0.0156787
-0.111793786, -0.092436716, -9.786054   , -0.003683369, 0.00019055976, 0.00152651558, 0.202170685 , -0.0959282741, 0.347310245 , 0.00754860835, -0.0100850109, 0.4625275   , 1.6         , 3           , 12          , 0.040429417 , 0
-0.08944945 , -0.109359778, -9.781978   , -0.0007025178, -0.0008351297, 0.000671406859, 0.202103272 , -0.09613051 , 0.347512484 , 0.007541517 , -0.0100934114, 0.4625342   , 1.61        , 3           , 50          , 0           , 0
-0.09352285 , -0.083735995, -9.812886   , 0.0007009899, -0.00313197286, -0.00049807044, 0.202170685 , -0.0959282741, 0.347512484 , 0.007548579 , -0.0101246927, 0.462528944 , 1.62        , 3           , 11          , 0.01576443  , 0.01576444
-0.130881637, -0.07270985 , -9.80181    , 0.00155939232, -0.002287303, 0.000235000451, 0.2022381   , -0.0960631  , 0.3475799   , 0.007564152 , -0.0101475837, 0.4625311   , 1.63        , 3           , 12          , 0.040429417 , 0
-0.121238038, -0.0820997  , -9.77518    , 0.00568761444, -0.0013364139, 0.00141910813, 0.202372923 , -0.0960631  , 0.347377658 , 0.00762088457, -0.0101610553, 0.462545156 , 1.64        , 3           , 50          , 0           , 0
-0.09291025 , -0.08908122 , -9.777711   , 0.003273596 , -0.00173020316, 0.000110545807, 0.202372923 , -0.0960631  , 0.347377658 , 0.00765361  , -0.0101783657, 0.4625461   , 1.65        , 3           , 11          , 0.01576443  , 0.01576444
-0.0964763463, -0.08587899 , -9.77906    , -0.00310305948, -0.000223332347, -0.0009087119, 0.202305511 , -0.09599569 , 0.347377658 , 0.00762267364, -0.0101805292, 0.46253705  , 1.66        , 3           , 12          , 0.040429417 , 0
-0.115303211, -0.08469641 , -9.790062   , -0.00239334442, 0.000473093969, 0.0005368255, 0.2022381   , -0.0959282741, 0.347512484 , 0.0075986837, -0.01017584 , 0.462542534 , 1.67        , 3           , 50          , 0           , 0
-0.120240606, -0.08730066 , -9.795557   , -0.0004034268, -0.000183618089, -0.000390604255, 0.202507749 , -0.09599569 , 0.347512484 , 0.00759468926, -0.0101776468, 0.462538481 , 1.68        , 3           , 11          , 0.01576443  , 0.01576444
-0.110325396, -0.0824753344, -9.790893   , 0.00143256446, -0.0002900424, 0.00140801445, 0.202507749 , -0.09586086 , 0.347512484 , 0.007608872 , -0.010180654, 0.462552547 , 1.69        , 3           , 12          , 0.040429417 , 0
-0.09333879 , -0.0685678944, -9.755796   , 0.000891342643, 0.00222148863, 0.0004401372, 0.202507749 , -0.09586086 , 0.347512484 , 0.007748175 , -0.010332468, 0.4625559   , 1.7         , 3           , 50          , 0           , 0
-0.08883065 , -0.06904348 , -9.757114   , 0.00310661527, 0.00306011131, 0.0003228546, 0.2022381   , -0.0960631  , 0.347377658 , 0.00777920568, -0.0103018936, 0.462559223 , 1.71        , 3           , 11          , 0.0159941185, 0.0159941334
-0.120761983, -0.067819804, -9.761459   , 0.002001047 , 0.000267842319, 0.00127731147, 0.2022381   , -0.0960631  , 0.347445071 , 0.007799085 , -0.0102993157, 0.4625721   , 1.72        , 3           , 12          , 0.04114829  , 0
-0.108275294, -0.04783419 , -9.784602   , 9.58667952E-05, 0.0008713835, 5.78961372E-05, 0.2022381   , -0.0959282741, 0.3476473   , 0.007800036 , -0.010290605, 0.4625728   , 1.73        , 3           , 50          , 0           , 0
-0.108260281, -0.05760411 , -9.7987175  , 0.00199940312, -0.000369282177, 0.00040942902, 0.202170685 , -0.09599569 , 0.347512484 , 0.007819989 , -0.0102943284, 0.462576866 , 1.74        , 3           , 11          , 0.0159941185, 0.0159941334
-0.123624958, -0.0664598942, -9.801671   , -0.000883006956, -0.004341616, -0.0008823314, 0.202170685 , -0.0961979255, 0.347377658 , 0.007811254 , -0.010337675, 0.462567568 , 1.75        , 3           , 12          , 0.04114829  , 0
-0.106593013, -0.07473968 , -9.800255   , -0.000136155548, -0.00140884437, -0.00112143322, 0.202170685 , -0.0961979255, 0.347377658 , 0.00781000964, -0.0103516765, 0.462556124 , 1.76        , 3           , 50          , 0           , 0
-0.119177833, -0.0723705441, -9.800795   , -0.0003033637, 0.00338136614, 0.00030646738, 0.202372923 , -0.09599569 , 0.347310245 , 0.0078069414, -0.0103178881, 0.462559462 , 1.77        , 3           , 11          , 0.0159941185, 0.0159941334
-0.115534343, -0.06966744 , -9.80344    , -0.000403547252, 0.000239315865, -0.0008129846, 0.202103272 , -0.09586086 , 0.347512484 , 0.00780298933, -0.01031543 , 0.462551355 , 1.78        , 3           , 12          , 0.04114829  , 0
-0.127357721, -0.0790926  , -9.798238   , 0.001209005 , 0.003744256 , -0.0018970914, 0.202507749 , -0.0960631  , 0.3475799   , 0.007815273 , -0.0102778394, 0.462532759 , 1.79        , 3           , 50          , 0           , 0
-0.10526257 , -0.0734471  , -9.79571152 , 0.00264679734, 0.00278347777, 0.000481100375, 0.2022381   , -0.0960631  , 0.347310245 , 0.00805089  , -0.0124662714, 0.46253562  , 1.8         , 3           , 11          , 0.015373271 , 0.0153732756
-0.0868799  , -0.08173866 , -9.794282   , 0.00184477575, 0.002059619 , 0.002182939 , 0.2022381   , -0.0960631  , 0.347310245 , 0.00806906447, -0.0124458512, 0.462557554 , 1.81        , 3           , 12          , 0.0418972075, 0
-0.09956293 , -0.08664208 , -9.789488   , -0.00129938952, 0.0003073236, 0.001351056 , 0.2022381   , -0.0960631  , 0.347377658 , 0.008055904 , -0.0124428878, 0.462571144 , 1.82        , 3           , 50          , 0           , 0
-0.119326986, -0.0846175849, -9.794163   , -0.00221377518, 0.0006122523, 0.000348086964, 0.202440336 , -0.09599569 , 0.347512484 , 0.008033722 , -0.0124367923, 0.46257472  , 1.83        , 3           , 11          , 0.015373271 , 0.0153732756
-0.102989852, -0.07387892 , -9.79931    , -0.001600384, -0.0023220873, -0.000763951743, 0.2022381   , -0.09599569 , 0.347445071 , 0.008017815 , -0.0124599515, 0.462566853 , 1.84        , 3           , 12          , 0.0418972075, 0
-0.108012654, -0.07438831 , -9.789876   , 0.005013743 , -0.00259972643, -0.0012280324, 0.202305511 , -0.0959282741, 0.347377658 , 0.008068108 , -0.0124858478, 0.462554216 , 1.85        , 3           , 50          , 0           , 0
-0.113438025, -0.0676986352, -9.778556   , 0.00331211323, -0.00144695 , -5.4216116E-06, 0.202305511 , -0.0959282741, 0.347377658 , 0.00810123  , -0.0125003168, 0.462554216 , 1.86        , 3           , 11          , 0.015373271 , 0.0153732756
-0.141206563, -0.054767333, -9.7845335  , -9.786668E-05, -0.0011256953, -2.18088426E-05, 0.202440336 , -0.09599569 , 0.347310245 , 0.008100254 , -0.0125115719, 0.46255374  , 1.87        , 3           , 12          , 0.0418972075, 0
-0.108659759, -0.0366011634, -9.780412   , 0.000479816983, -0.000696486852, -0.0005844498, 0.202103272 , -0.09599569 , 0.347445071 , 0.008105125 , -0.0125184888, 0.462548018 , 1.88        , 3           , 50          , 0           , 0
-0.101206422, -0.0521098934, -9.770132   , 0.000482629548, 8.328746E-05, 0.000357060431, 0.202103272 , -0.09586086 , 0.3475799   , 0.008109909 , -0.0125176841, 0.4625516   , 1.89        , 3           , 11          , 0.015373271 , 0.0153732756
-0.117383875, -0.05904293 , -9.783461   , -0.0011702734, -0.000527016353, -0.000377512275, 0.202170685 , -0.09599569 , 0.347377658 , 0.008072779 , -0.0125031136, 0.462548018 , 1.9         , 3           , 12          , 0.0426742733, 0
-0.121110216, -0.085465   , -9.797802   , 0.00113158  , 0.001530765 , -0.000691252, 0.2022381   , -0.0960631  , 0.347175419 , 0.008084178 , -0.01248775 , 0.462541342 , 1.91        , 3           , 50          , 0           , 0
-0.128940478, -0.101247795, -9.791733   , -0.00159947993, -0.000455516332, 0.000121748031, 0.2022381   , -0.0960631  , 0.347175419 , 0.008068168 , -0.0124923149, 0.4625423   , 1.92        , 3           , 11          , 0.006947355 , 0.006947285
-0.120067969, -0.0647795647, -9.793037   , -0.005393535, -0.00306104776, -0.000726510771, 0.202103272 , -0.0959282741, 0.347310245 , 0.008014327 , -0.012522866, 0.4625349   , 1.93        , 3           , 12          , 0.0426742733, 0
-0.112702854, -0.08487478 , -9.775585   , -0.00216932339, -0.000451016938, 0.000261403242, 0.202035859 , -0.09599569 , 0.347512484 , 0.007992599 , -0.0125273978, 0.462537527 , 1.94        , 3           , 50          , 0           , 0
-0.112655647, -0.06877765 , -9.762751   , -0.0014408991, 0.00104629959, 0.0002875978, 0.201968446 , -0.09599569 , 0.3475799   , 0.007978154 , -0.0125169577, 0.4625404   , 1.95        , 3           , 11          , 0.006947355 , 0.006947285
-0.113063224, -0.06292164 , -9.761784   , 2.55235373E-05, -0.000768308935, 0.00120054162, 0.202170685 , -0.09599569 , 0.347445071 , 0.00797826  , -0.0125247343, 0.4625523   , 1.96        , 3           , 12          , 0.0426742733, 0
-0.08960253 , -0.08797943 , -9.798896   , -0.000919055252, -0.00205556257, 0.00196314324, 0.202170685 , -0.09599569 , 0.347445071 , 0.007968825 , -0.0125454469, 0.462571859 , 1.97        , 3           , 50          , 0           , 0
-0.13704738 , -0.0711086839, -9.819917   , -0.00077613676, -0.00290266774, 0.000377577177, 0.202305511 , -0.09599569 , 0.347310245 , 0.00796102  , -0.0125745013, 0.462575436 , 1.98        , 3           , 11          , 0.006947355 , 0.006947285
-0.127106622, -0.0591221  , -9.810202   , -0.00119110255, -0.00245950627, -0.000620306644, 0.2022381   , -0.09586086 , 0.3476473   , 0.00794919  , -0.0125990473, 0.462569    , 1.99        , 3           , 12          , 0.0426742733, 0
-0.121187657, -0.0913703144, -9.793806   , -0.005272827, -0.00242250436, -0.0007873983, 0.202305511 , -0.09579345 , 0.347377658 , 0.007850722 , -0.01263171 , 0.4625616   , 2           , 3           , 50          , 0           , 0
-0.117597327, -0.08607793 , -9.785581   , -0.006350202, -0.00334305083, -0.000807387463, 0.2022381   , -0.0960631  , 0.347512484 , 0.00778732542, -0.0126650743, 0.462553263 , 2.01        , 3           , 11          , 0.00729695754, 0.00729687931
-0.126768261, -0.0579620153, -9.792568   , -0.0005381634, -0.004556283, 6.95350245E-05, 0.202440336 , -0.0959282741, 0.347377658 , 0.00778194  , -0.0127106411, 0.46255374  , 2.02        , 3           , 12          , 0.04347765  , 0
-0.130516857, -0.0821924657, -9.801013   , 0.002665845 , -0.004442302, -0.000266807532, 0.202440336 , -0.0959282741, 0.347377658 , 0.007808635 , -0.0127550419, 0.46255064  , 2.03        , 3           , 50          , 0           , 0
-0.120038822, -0.06651545 , -9.79938    , 0.000754119537, -0.00321251433, 0.0005978566, 0.202305511 , -0.0961979255, 0.347445071 , 0.007816102 , -0.0127872108, 0.462556362 , 2.04        , 3           , 11          , 0.00729695754, 0.00729687931
-0.08363329 , -0.08384642 , -9.810537   , 0.00468401145, -0.00202788645, -7.625671E-05, 0.202170685 , -0.09599569 , 0.3476473   , 0.00786295347, -0.0128074829, 0.4625554   , 2.05        , 3           , 12          , 0.04347765  , 0
-0.08822005 , -0.07859476 , -9.792      , 0.00437026471, 0.001276505 , -0.0006027309, 0.202103272 , -0.09599569 , 0.3475799   , 0.007906733 , -0.0127946706, 0.462549448 , 2.06        , 3           , 50          , 0           , 0
-0.0968737155, -0.0817879  , -9.781727   , 0.00117183279, 0.00102883275, -0.00134159008, 0.202372923 , -0.0960631  , 0.347512484 , 0.00791862048, -0.012784279, 0.4625361   , 2.07        , 3           , 11          , 0.00729695754, 0.00729687931
-0.110817425, -0.08075489 , -9.782747   , 0.000279942935, -0.00218843343, -0.00117905962, 0.202372923 , -0.0960631  , 0.347512484 , 0.007921573 , -0.0128060663, 0.462524176 , 2.08        , 3           , 12          , 0.04347765  , 0
-0.10722594 , -0.08614388 , -9.78774452 , 0.000489009137, -0.00247845962, -0.001038866, 0.202170685 , -0.0960631  , 0.347445071 , 0.007926599 , -0.0128307687, 0.4625137   , 2.09        , 3           , 50          , 0           , 0
-0.114413165, -0.07848836 , -9.780948   , -0.000504897442, -0.00287463 , 0.000665308849, 0.202103272 , -0.0959282741, 0.347445071 , 0.007948297 , -0.01280199 , 0.4625194   , 2.1         , 3           , 11          , 0.007667747 , 0.00766767561
-0.111773819, -0.08706456 , -9.782377   , 9.432995E-06, -0.0007412217, 0.00191580586, 0.202170685 , -0.09586086 , 0.347714722 , 0.007948147 , -0.0128095541, 0.462538719 , 2.11        , 3           , 12          , 0.04430562  , 0
-0.116610684, -0.07838649 , -9.788646   , 0.00650416873, 0.000635533361, 0.000902538246, 0.202305511 , -0.09599569 , 0.347445071 , 0.00801307149, -0.0128032714, 0.462547541 , 2.12        , 3           , 50          , 0           , 0
-0.108840868, -0.07916623 , -9.806199   , 0.00281965453, 0.00132558006, 3.11625736E-05, 0.202305511 , -0.09599569 , 0.347445071 , 0.008041264 , -0.0127900168, 0.462548256 , 2.13        , 3           , 11          , 0.007667747 , 0.00766767561
-0.106514618, -0.06349124 , -9.797866   , -0.002360158, -0.00279380148, 0.00172833027, 0.202372923 , -0.09599569 , 0.347310245 , 0.008017445 , -0.0128180925, 0.462565184 , 2.14        , 3           , 12          , 0.04430562  , 0
-0.102227814, -0.0852271244, -9.793109   , -0.00173130271, -0.00401442545, 0.00128520187, 0.202305511 , -0.0959282741, 0.347445071 , 0.00799997  , -0.0128583368, 0.462577581 , 2.15        , 3           , 50          , 0           , 0
-0.107551605, -0.075711064, -9.793048   , -0.00219138851, -0.00156064786, -0.000113141585, 0.202372923 , -0.0959282741, 0.3475799   , 0.007978072 , -0.0128739346, 0.4625764   , 2.16        , 3           , 11          , 0.007667747 , 0.00766767561
-0.121915549, -0.0804149359, -9.80543    , -0.002942116, 0.00159327046, 0.0006434655, 0.202372923 , -0.09599569 , 0.347512484 , 0.007948567 , -0.0128580527, 0.462583065 , 2.17        , 3           , 12          , 0.04430562  , 0
-0.120602839, -0.07825927 , -9.797262   , -0.00312903 , -0.00170990324, 0.00159618724, 0.202372923 , -0.0959282741, 0.347445071 , 0.007917073 , -0.0128752794, 0.4625988   , 2.18        , 3           , 50          , 0           , 0
-0.118817225, -0.0618285351, -9.774923   , 0.00109900592, -0.00547301769, 0.000923763262, 0.202372923 , -0.0959282741, 0.347445071 , 0.00792795  , -0.01293008 , 0.462607622 , 2.19        , 3           , 11          , 0.007667747 , 0.00766767561
-0.120870233, -0.10092552 , -9.786234   , -0.000469635241, -0.003879716, 0.00172441  , 0.202103272 , -0.09613051 , 0.347445071 , 0.007898302 , -0.012957043, 0.462625027 , 2.2         , 3           , 12          , 0.0451565124, 0
-0.109776556, -0.07030964 , -9.790297   , 0.000925462169, -0.0007308329, 0.0006338015, 0.202035859 , -0.09599569 , 0.347445071 , 0.007907474 , -0.0129644023, 0.462631226 , 2.21        , 3           , 50          , 0           , 0
-0.115001254, -0.08937875 , -9.774303   , 0.00131119927, 0.00135157246, -0.0002638316, 0.202372923 , -0.09586086 , 0.3475799   , 0.007920618 , -0.0129508656, 0.462628841 , 2.22        , 3           , 11          , 0.008067128 , 0.008067041
-0.111303642, -0.0816963241, -9.778698   , -0.000750442443, 0.00158489693, 1.30404378E-05, 0.202103272 , -0.0960631  , 0.3475799   , 0.00791311  , -0.0129350172, 0.46262908  , 2.23        , 3           , 12          , 0.0451565124, 0
-0.104412183, -0.0824343562, -9.799421   , -0.00357646542, -0.00276046037, 0.00029039348, 0.202103272 , -0.0960631  , 0.3475799   , 0.007877311 , -0.0129626431, 0.4626317   , 2.24        , 3           , 50          , 0           , 0
-0.107249774, -0.08974145 , -9.788691   , -0.0004412853, -0.00355986273, -0.00199154834, 0.202372923 , -0.0959282741, 0.347377658 , 0.00787316  , -0.0129980864, 0.462611437 , 2.25        , 3           , 11          , 0.008067128 , 0.008067041
-0.10366334 , -0.08267446 , -9.777735   , -0.00210757856, 0.000744004443, -0.0005799468, 0.2022381   , -0.09586086 , 0.347512484 , 0.007852159 , -0.0129905995, 0.4626057   , 2.26        , 3           , 12          , 0.0451565124, 0
-0.100219451, -0.06266851 , -9.79554    , -0.00247226935, -0.000252211234, -0.000954400864, 0.202372923 , -0.0957260355, 0.347445071 , 0.007827561 , -0.0129930479, 0.462596178 , 2.27        , 3           , 50          , 0           , 0
-0.111130223, -0.07475371 , -9.795328   , -0.0014426175, -0.002569758, 0.000592538 , 0.202372923 , -0.09599569 , 0.347512484 , 0.007813061 , -0.0130187878, 0.4626019   , 2.28        , 3           , 11          , 0.008067128 , 0.008067041
-0.10770046 , -0.08083555 , -9.777752   , 0.0005313421, -0.003953156, 0.000799330533, 0.202305511 , -0.09613051 , 0.347377658 , 0.007818273 , -0.01305838 , 0.462609529 , 2.29        , 3           , 12          , 0.0451565124, 0
-0.108623341, -0.0879841447, -9.783262   , -0.00352880778, -0.000278738153, -0.00167759217, 0.202305511 , -0.09613051 , 0.347377658 , 0.00779209  , -0.0130205611, 0.462592363 , 2.3         , 3           , 50          , 0           , 0
-0.113043375, -0.08069657 , -9.786381   , -0.00335778459, 0.0025094843, -0.00113525626, 0.201968446 , -0.0959282741, 0.347782135 , 0.007758657 , -0.012995379, 0.4625814   , 2.31        , 3           , 11          , 0.008573827 , 0.008573732
-0.126382917, -0.06162642 , -9.787639   , 0.00101204356, -5.63096364E-05, 0.000357144 , 0.202103272 , -0.09586086 , 0.3476473   , 0.007768731 , -0.01299597 , 0.462584972 , 2.32        , 3           , 12          , 0.046028778 , 0
-0.102878489, -0.0639154539, -9.803257   , -0.000915905461, -0.0004001476, 0.000912689662, 0.2022381   , -0.0959282741, 0.3475799   , 0.007759454 , -0.0130000431, 0.462594032 , 2.33        , 3           , 50          , 0           , 0
-0.108619884, -0.0628029853, -9.818204   , -3.60415252E-05, 0.0013196168, -5.87029972E-05, 0.2022381   , -0.0959282741, 0.347242832 , 0.0077591   , -0.0129868425, 0.462593555 , 2.34        , 3           , 11          , 0.008573827 , 0.008573732
-0.11272718 , -0.0911439061, -9.779723   , 0.000598113053, 0.000106031635, -0.00128878234, 0.2022381   , -0.0959282741, 0.347242832 , 0.007765248 , -0.012985683, 0.462580681 , 2.35        , 3           , 12          , 0.046028778 , 0
-0.09839984 , -0.099405   , -9.77788    , 0.00230914936, 0.000800022739, -0.000695740164, 0.2022381   , -0.09599569 , 0.347242832 , 0.007788429 , -0.012977629, 0.462573767 , 2.36        , 3           , 50          , 0           , 0
-0.101697437, -0.0704189  , -9.78661    , 0.00287671667, 0.00121579377, 0.000243979957, 0.2022381   , -0.0959282741, 0.347377658 , 0.007817164 , -0.01296549 , 0.4625764   , 2.37        , 3           , 11          , 0.008573827 , 0.008573732
-0.124890067, -0.091047734, -9.778931   , -0.00120728288, -0.00153525616, -3.575089E-05, 0.2022381   , -0.09599569 , 0.3475799   , 0.00780509738, -0.01298084 , 0.4625759   , 2.38        , 3           , 12          , 0.046028778 , 0
-0.115200251, -0.07162982 , -9.789006   , -0.00152150041, -0.003335644, 0.00129573  , 0.202170685 , -0.09599569 , 0.347445071 , 0.00778971845, -0.0130142961, 0.462588549 , 2.39        , 3           , 50          , 0           , 0
-0.133139119, -0.0611263923, -9.786791   , -0.00202718214, -0.00271530985, 0.00115788379, 0.202170685 , -0.09599569 , 0.347445071 , 0.00774645153, -0.0129812509, 0.462600231 , 2.4         , 3           , 11          , 0.00909712352, 0.009097029
-0.122158125, -0.0941405  , -9.787071   , -0.0005662016, 0.000143712357, 0.000349693873, 0.202035859 , -0.0959282741, 0.347377658 , 0.00774074439, -0.01297984 , 0.4626038   , 2.41        , 3           , 12          , 0.0469209366, 0
-0.118125126, -0.08975382 , -9.778853   , 0.001525489 , 0.00206677  , -0.0006828277, 0.202103272 , -0.09599569 , 0.347310245 , 0.007756086 , -0.0129591208, 0.462597132 , 2.42        , 3           , 50          , 0           , 0
-0.0987983942, -0.0846324861, -9.76732349 , -0.00208604941, -0.00206338521, 0.000451435626, 0.202103272 , -0.09586086 , 0.347512484 , 0.007735169 , -0.0129797878, 0.462601423 , 2.43        , 3           , 11          , 0.00909712352, 0.009097029
-0.0982672349, -0.08540273 , -9.779975   , -2.47572189E-05, -0.00187388 , 0.000967774948, 0.202575162 , -0.0959282741, 0.347445071 , 0.00773479743, -0.0129986042, 0.46261096  , 2.44        , 3           , 12          , 0.0469209366, 0
-0.120723084, -0.09936473 , -9.805637   , 0.00323516177, -0.002627398, 0.00140629115, 0.2022381   , -0.0960631  , 0.347445071 , 0.00776696857, -0.0130249849, 0.4626248   , 2.45        , 3           , 50          , 0           , 0
-0.114439234, -0.09989472 , -9.803328   , 0.003352152 , -0.0006623568, -0.00207061833, 0.2022381   , -0.0960631  , 0.347445071 , 0.00780076068, -0.0130314464, 0.462604046 , 2.46        , 3           , 11          , 0.00909712352, 0.009097029
-0.119709775, -0.08139441 , -9.800001   , -0.0005091112, -0.00156880659, -0.000533411046, 0.202170685 , -0.0959282741, 0.347445071 , 0.00779574038, -0.0130470917, 0.462598562 , 2.47        , 3           , 12          , 0.0469209366, 0
-0.118482269, -0.08159489 , -9.782376   , 0.00148993591, -0.000238020817, 0.000643063046, 0.202305511 , -0.09586086 , 0.347445071 , 0.007810556 , -0.0130495215, 0.462605    , 2.48        , 3           , 50          , 0           , 0
-0.09186112 , -0.07951358 , -9.787528   , 0.00067203067, 0.00214580353, -0.000543842558, 0.2022381   , -0.0960631  , 0.347512484 , 0.007817345 , -0.0130280219, 0.462599754 , 2.49        , 3           , 11          , 0.00909712352, 0.009097029
-0.0963087  , -0.06470097 , -9.77746    , -0.000160089417, 0.00368909468, 0.000114741619, 0.202507749 , -0.0960631  , 0.3476473   , 0.007829418 , -0.0128283687, 0.4626007   , 2.5         , 3           , 12          , 0.0478316   , 0
-0.0958400741, -0.05354836 , -9.766487   , -0.000240406967, 0.00247825426, -0.0006188344, 0.202507749 , -0.0960631  , 0.3476473   , 0.00782709  , -0.0128035378, 0.462594748 , 2.51        , 3           , 50          , 0           , 0
-0.112643249, -0.06430732 , -9.759087   , -0.000743869459, -0.00340444176, 0.000652317132, 0.202035859 , -0.09599569 , 0.347377658 , 0.007819573 , -0.0128376344, 0.462601185 , 2.52        , 3           , 11          , 0.009504129 , 0.009504048
-0.116444312, -0.08772789 , -9.75894    , 0.0008278308, -0.00221133162, 0.00168105238, 0.202305511 , -0.09599569 , 0.347512484 , 0.007827637 , -0.0128598763, 0.462617636 , 2.53        , 3           , 12          , 0.0478316   , 0
-0.117633939, -0.08746934 , -9.781984   , 0.0009878633, -0.00120143115, 0.0007664835, 0.2022381   , -0.09599569 , 0.3475799   , 0.007837419 , -0.0128719509, 0.462625265 , 2.54        , 3           , 50          , 0           , 0
-0.109950453, -0.07992382 , -9.776858   , -0.00127059687, -0.0005207134, -0.000668653345, 0.202305511 , -0.09599569 , 0.347512484 , 0.0078248   , -0.0128771039, 0.4626186   , 2.55        , 3           , 11          , 0.009504129 , 0.009504048
-0.095597066, -0.103724688, -9.797778   , -0.000279458618, -0.000748321, -0.000379622565, 0.202575162 , -0.0960631  , 0.347445071 , 0.007822054 , -0.0128845563, 0.462614775 , 2.56        , 3           , 12          , 0.0478316   , 0
-0.0827825144, -0.08793661 , -9.808318   , -0.00401141867, -0.003437097, -1.22992024E-05, 0.202575162 , -0.0960631  , 0.347445071 , 0.007781946 , -0.0129189249, 0.4626143   , 2.57        , 3           , 50          , 0           , 0
-0.110167049, -0.0773363262, -9.807545   , -0.00349866576, -0.00172907789, 0.000731150561, 0.202170685 , -0.0960631  , 0.347377658 , 0.007746867 , -0.0129362717, 0.46262145  , 2.58        , 3           , 11          , 0.009504129 , 0.009504048
-0.127405345, -0.0747142  , -9.785992   , 0.00015970286, 0.00123932154, 0.00122606417, 0.202103272 , -0.0959282741, 0.347512484 , 0.00774830347, -0.0129239745, 0.462633848 , 2.59        , 3           , 12          , 0.0478316   , 0
-0.127874956, -0.09120992 , -9.80335    , -0.000359684549, -0.000193718413, 0.001488431 , 0.202170685 , -0.0959282741, 0.347512484 , 0.00773952762, -0.0129301557, 0.462648869 , 2.6         , 3           , 50          , 0           , 0
-0.109101534, -0.0853522  , -9.77601    , -0.0008915503, -0.00347920228, 0.000865109032, 0.202372923 , -0.09613051 , 0.347310245 , 0.00773050357, -0.0129650142, 0.4626572   , 2.61        , 3           , 11          , 0.00993387  , 0.00993378647
-0.10727261 , -0.0879958943, -9.78325    , -0.001969545, -0.00433002366, 0.00106078607, 0.202372923 , -0.09613051 , 0.347310245 , 0.007710675 , -0.0130083961, 0.462667465 , 2.62        , 3           , 12          , 0.0487594567, 0
-0.127822727, -0.09914233 , -9.820606   , 0.00136284088, 0.000797729939, 0.000869449868, 0.202103272 , -0.09626534 , 0.347512484 , 0.00772418873, -0.0130004855, 0.4626763   , 2.63        , 3           , 50          , 0           , 0
-0.126673669, -0.08521867 , -9.774363   , -0.00145729049, 0.00297532976, 0.000955158437, 0.202103272 , -0.09599569 , 0.347377658 , 0.00770948967, -0.012970808, 0.462686062 , 2.64        , 3           , 11          , 0.00993387  , 0.00993378647
-0.109013304, -0.08076573 , -9.783182   , -0.00064977695, 0.00483526662, 0.0004146702, 0.202305511 , -0.09586086 , 0.3475799   , 0.00770293269, -0.0129224882, 0.4626906   , 2.65        , 3           , 12          , 0.0487594567, 0
-0.109463081, -0.08966379 , -9.794129   , 0.00217894767, 0.00344511936, 0.000411979825, 0.202305511 , -0.0960631  , 0.347445071 , 0.00772466557, -0.0128880693, 0.462694883 , 2.66        , 3           , 50          , 0           , 0
-0.10551203 , -0.101427458, -9.793777   , 5.79063926E-05, -0.00147998054, 0.000613728247, 0.202305511 , -0.0960631  , 0.347445071 , 0.00772516755, -0.0129029155, 0.462701082 , 2.67        , 3           , 11          , 0.00993387  , 0.00993378647
-0.132534742, -0.0909665748, -9.780355   , -0.00642533367, -0.00305311382, -0.000450823252, 0.202440336 , -0.09586086 , 0.347445071 , 0.00766097475, -0.0129334116, 0.4626963   , 2.68        , 3           , 12          , 0.0487594567, 0
-0.101987392, -0.06616329 , -9.804631   , -0.00187849114, -0.00317547144, 7.63346761E-05, 0.202305511 , -0.09613051 , 0.3475799   , 0.007642184 , -0.0129651707, 0.4626968   , 2.69        , 3           , 50          , 0           , 0
-0.09789863 , -0.08286091 , -9.765038   , -0.00171533693, -0.00367765641, -0.0007191307, 0.202440336 , -0.09586086 , 0.347512484 , 0.00754735433, -0.0127789006, 0.4626906   , 2.7         , 3           , 11          , 0.01036758  , 0.0103675043
-0.118532196, -0.08122625 , -9.77469349 , 0.00110346579, 0.000164268029, -0.0007891644, 0.202103272 , -0.0960631  , 0.347512484 , 0.007558489 , -0.0127771981, 0.4626825   , 2.71        , 3           , 12          , 0.04970329  , 0
-0.126808271, -0.06648083 , -9.797184   , 0.0007587734, 0.00152273232, -5.60718145E-05, 0.202305511 , -0.0960631  , 0.347377658 , 0.007566082 , -0.0127619663, 0.462682247 , 2.72        , 3           , 50          , 0           , 0
-0.1041944  , -0.0407033563, -9.779966   , -0.00382402539, -0.00143627555, -0.000556554238, 0.202305511 , -0.0960631  , 0.347377658 , 0.007527914 , -0.0127762873, 0.462676525 , 2.73        , 3           , 11          , 0.01036758  , 0.0103675043
-0.0952652842, -0.054696925, -9.785917   , -0.0011006064, 0.000751502463, 0.0001359369, 0.202035859 , -0.0960631  , 0.347377658 , 0.0075168903, -0.0127687845, 0.462677956 , 2.74        , 3           , 12          , 0.04970329  , 0
-0.103294767, -0.07365239 , -9.820087   , -0.00127631426, -0.00161964912, 0.00103068142, 0.202170685 , -0.0960631  , 0.347512484 , 0.00750399753, -0.0127850557, 0.4626882   , 2.75        , 3           , 50          , 0           , 0
-0.102926545, -0.07600763 , -9.811077   , 0.000363557047, -0.00212434051, -0.0004691312, 0.2022381   , -0.0959282741, 0.347512484 , 0.00750769535, -0.0128062647, 0.462683439 , 2.76        , 3           , 11          , 0.01036758  , 0.0103675043
-0.09961891 , -0.0791605562, -9.772238   , 0.0006778295, 0.0008754521, 0.0002918144, 0.202305511 , -0.0959282741, 0.347445071 , 0.007514436 , -0.0127975317, 0.4626863   , 2.77        , 3           , 12          , 0.04970329  , 0
-0.108729258, -0.105506547, -9.789337   , -0.0001219098, -0.00076251186, 4.84817429E-05, 0.202305511 , -0.0959282741, 0.347445071 , 0.00751321064, -0.01280516 , 0.462686777 , 2.78        , 3           , 50          , 0           , 0
-0.108437717, -0.09749276 , -9.821765   , -0.000755919958, -0.000113126764, 0.000268640055, 0.202103272 , -0.0959282741, 0.347377658 , 0.00750561757, -0.0128063112, 0.4626894   , 2.79        , 3           , 11          , 0.01036758  , 0.0103675043
-0.106612548, -0.0636412352, -9.783867   , -0.00132744422, -0.00302518834, 0.00100862107, 0.202170685 , -0.0959282741, 0.347512484 , 0.00755349128, -0.0127919121, 0.462697983 , 2.8         , 3           , 12          , 0.05066194  , 0
-0.101827681, -0.06883787 , -9.765814   , -0.0020597328, 0.000576515566, -0.000231659578, 0.202103272 , -0.09586086 , 0.3475799   , 0.00753292348, -0.0127861276, 0.462695837 , 2.81        , 3           , 50          , 0           , 0
-0.117249064, -0.0938053  , -9.780247   , -0.002263717, 0.00171988038, 0.000356077566, 0.202305511 , -0.0959282741, 0.347512484 , 0.00751023972, -0.0127689568, 0.4626994   , 2.82        , 3           , 11          , 0.010551611 , 0.0105515523
-0.09564985 , -0.0846647844, -9.766844   , 0.00199820986, 0.00110593706, 8.72674063E-05, 0.202103272 , -0.0959282741, 0.347377658 , 0.007530208 , -0.0127579039, 0.462700367 , 2.83        , 3           , 12          , 0.05066194  , 0
-0.076379776, -0.08408153 , -9.752657   , 0.000413785048, -0.0007390148, -0.000163907273, 0.202103272 , -0.0959282741, 0.347377658 , 0.00753436843, -0.0127652809, 0.4626987   , 2.84        , 3           , 50          , 0           , 0
-0.116425857, -0.09037042 , -9.764841   , 0.0009303191, 0.00125622354, 0.000512175 , 0.2022381   , -0.0959282741, 0.347445071 , 0.00754360529, -0.0127527574, 0.462703943 , 2.85        , 3           , 11          , 0.010551611 , 0.0105515523
-0.123688638, -0.06922823 , -9.795833   , 0.00418734225, 0.0009927013, 0.002245733 , 0.202170685 , -0.09586086 , 0.3475799   , 0.0075851907, -0.012743   , 0.462726355 , 2.86        , 3           , 12          , 0.05066194  , 0
-0.123732239, -0.0572763756, -9.774917   , 0.00262889755, 0.00626178226, -0.000191887055, 0.202305511 , -0.09599569 , 0.3476473   , 0.007611498 , -0.0126803713, 0.462724924 , 2.87        , 3           , 50          , 0           , 0
-0.128090665, -0.05568122 , -9.793909   , -0.0016922293, 0.00235250546, 0.00108430488, 0.202170685 , -0.09586086 , 0.3475799   , 0.007594435 , -0.012656929, 0.4627359   , 2.88        , 3           , 11          , 0.010551611 , 0.0105515523
-0.101578712, -0.06890167 , -9.801949   , -0.0022379877, -0.00172747066, 0.00116491551, 0.202170685 , -0.09586086 , 0.3475799   , 0.00757190958, -0.01267429 , 0.462747574 , 2.89        , 3           , 12          , 0.05066194  , 0
-0.101160735, -0.05560101 , -9.781013   , -0.000780261529, -0.000740170537, 0.0005405791, 0.202035859 , -0.09579345 , 0.347377658 , 0.0074785566, -0.0123175466, 0.46275425  , 2.9         , 3           , 50          , 0           , 0
-0.101570033, -0.09673504 , -9.772006   , 0.00156671146, -0.00069300516, 0.000627298956, 0.202170685 , -0.0959282741, 0.3476473   , 0.007494145 , -0.0123245232, 0.462760448 , 2.91        , 3           , 11          , 0.0110705337, 0.0110704759
-0.124497972, -0.103604421, -9.785847   , 0.002423879 , -0.000202719981, 0.0009259068, 0.202103272 , -0.0959282741, 0.347782135 , 0.00751827052, -0.01232662 , 0.4627695   , 2.92        , 3           , 12          , 0.051634334 , 0
-0.114952855, -0.08396304 , -9.774692   , -0.00111600559, 0.0004890813, -0.000302317174, 0.202103272 , -0.0959282741, 0.3475799   , 0.00750714866, -0.012321705, 0.462766647 , 2.93        , 3           , 50          , 0           , 0
-0.115255058, -0.07482971 , -9.784978   , -0.00317365536, 0.0006571599, -0.000741898548, 0.202103272 , -0.0959282741, 0.3475799   , 0.00747550325, -0.01231508 , 0.462759256 , 2.94        , 3           , 11          , 0.0110705337, 0.0110704759
-0.0968777239, -0.07778782 , -9.77626    , -0.001540185, 0.000214515181, -0.00116755266, 0.202035859 , -0.09599569 , 0.347377658 , 0.0074602454, -0.0123128491, 0.462747574 , 2.95        , 3           , 12          , 0.051634334 , 0
-0.0999662  , -0.0660900548, -9.771186   , 0.00187488331, 0.000252764265, -0.00128903054, 0.201901034 , -0.09579345 , 0.3475799   , 0.00747915171, -0.0123102255, 0.4627347   , 2.96        , 3           , 50          , 0           , 0
-0.124482863, -0.09022727 , -9.77169    , 0.00130496756, 0.000539363653, -0.0006444149, 0.202035859 , -0.09599569 , 0.347512484 , 0.00749228057, -0.0123047857, 0.4627285   , 2.97        , 3           , 11          , 0.0110705337, 0.0110704759
-0.0877025053, -0.08472747 , -9.809231   , 0.001030837 , 0.00168473052, -0.0002001882, 0.201968446 , -0.09599569 , 0.3476473   , 0.00750261173, -0.0122879213, 0.462726355 , 2.98        , 3           , 12          , 0.051634334 , 0
-0.09670856 , -0.07396767 , -9.79609    , 0.000706570339, 0.00419911044, -0.000523516559, 0.2022381   , -0.09613051 , 0.347512484 , 0.00750973728, -0.0122458925, 0.4627216   , 2.99        , 3           , 50          , 0           , 0
-0.114864856, -0.07492557 , -9.776394   , -0.00202086079, 0.00242938474, 0.000357598183, 0.2022381   , -0.09613051 , 0.347512484 , 0.00749848876, -0.0116983131, 0.4627247   , 3           , 3           , 11          , 0.0107747838, 0.0107747447
-0.114305854, -0.07609834 , -9.793566   , -0.00117675425, 0.00170298817, 0.0004953865, 0.202103272 , -0.09579345 , 0.347512484 , 0.00748666329, -0.0116813211, 0.462729931 , 3.01        , 3           , 12          , 0.0526194647, 0
-0.09209262 , -0.06938168 , -9.806835   , -0.002750165, -0.0003389815, -0.00176206639, 0.202440336 , -0.09599569 , 0.347445071 , 0.007459367 , -0.0116845788, 0.4627123   , 3.02        , 3           , 50          , 0           , 0
-0.1093453  , -0.08191614 , -9.801719   , -0.00157733576, -0.00216285815, 0.0005084431, 0.202035859 , -0.0959282741, 0.3475799   , 0.007443536 , -0.0117062451, 0.462717056 , 3.03        , 3           , 11          , 0.0107747838, 0.0107747447
-0.114828743, -0.07620571 , -9.783183   , -0.0002578946, 0.00133345358, 0.0007103612, 0.202440336 , -0.09599569 , 0.347310245 , 0.00744087249, -0.0116929645, 0.462724447 , 3.04        , 3           , 12          , 0.0526194647, 0
-0.105925992, -0.08178208 , -9.775036   , -0.0008870875, 0.00198923727, 0.000215109467, 0.202440336 , -0.09599569 , 0.347310245 , 0.007431975 , -0.0116730882, 0.4627266   , 3.05        , 3           , 50          , 0           , 0
-0.106922962, -0.085483104, -9.765601   , -0.002257496, 0.000284127978, 0.000110388646, 0.202035859 , -0.0959282741, 0.347445071 , 0.007409387 , -0.0116702542, 0.4627278   , 3.06        , 3           , 11          , 0.0107747838, 0.0107747447
-0.0902667642, -0.09230947 , -9.773206   , -0.00134915591, -0.000875419239, 0.0005285091, 0.202103272 , -0.09599569 , 0.347445071 , 0.007395834 , -0.0116790468, 0.46273303  , 3.07        , 3           , 12          , 0.0526194647, 0
-0.10439457 , -0.0810719654, -9.800308   , -0.00182318944, -0.004532008, 0.00125967746, 0.2022381   , -0.09599569 , 0.347512484 , 0.00737746  , -0.0117244581, 0.4627452   , 3.08        , 3           , 50          , 0           , 0
-0.09418433 , -0.09295824 , -9.793575   , 0.000898380531, -0.003122724, 0.0008675764, 0.2022381   , -0.09586086 , 0.347512484 , 0.00738634448, -0.01175575 , 0.462753534 , 3.09        , 3           , 11          , 0.0107747838, 0.0107747447
-0.109898709, -0.0789542645, -9.78317    , -0.00117653061, -0.00190748868, 0.00129643758, 0.202170685 , -0.09613051 , 0.347377658 , 0.007599429 , -0.0115462542, 0.4627626   , 3.1         , 3           , 12          , 0.0536163822, 0
-0.12893559 , -0.0861057043, -9.773942   , 0.000354114338, 0.0009488913, 0.0007032994, 0.202170685 , -0.09613051 , 0.347377658 , 0.00760288769, -0.0115368189, 0.4627695   , 3.11        , 3           , 50          , 0           , 0
-0.113654025, -0.08271886 , -9.765632   , 0.0009820062, -0.0002730124, 0.000403253041, 0.202103272 , -0.0960631  , 0.347445071 , 0.00761266146, -0.0115395794, 0.462773561 , 3.12        , 3           , 11          , 0.010065861 , 0.0100658452
-0.110426359, -0.08485566 , -9.779178   , 0.00152406527, -0.00186649454, 0.00167146337, 0.202103272 , -0.09579345 , 0.3476473   , 0.0076277107, -0.0115583707, 0.462790251 , 3.13        , 3           , 12          , 0.0536163822, 0
-0.110820092, -0.07808816 , -9.779103   , -0.00161770754, 0.001982384 , -0.00043874298, 0.2022381   , -0.0960631  , 0.3475799   , 0.007611581 , -0.0115385149, 0.462785959 , 3.14        , 3           , 50          , 0           , 0
-0.09927257 , -0.0860006362, -9.765537   , -0.00404947251, 0.000788983947, -0.000471044419, 0.202170685 , -0.09599569 , 0.347445071 , 0.00757114  , -0.0115305884, 0.4627812   , 3.15        , 3           , 11          , 0.010065861 , 0.0100658452
-0.104295731, -0.0733533353, -9.805186   , -0.00105941424, 0.000974857 , -0.0005930056, 0.202170685 , -0.09599569 , 0.347445071 , 0.00756061357, -0.0115207983, 0.462775469 , 3.16        , 3           , 12          , 0.0536163822, 0
-0.0956829339, -0.0493015  , -9.784051   , -0.000362627761, 0.0008780716, 0.00141338247, 0.2022381   , -0.09599569 , 0.347377658 , 0.00755682355, -0.011512124, 0.462789536 , 3.17        , 3           , 50          , 0           , 0
-0.130124688, -0.0831756145, -9.793794   , -0.000289729331, 0.0009502737, 0.00127177231, 0.202103272 , -0.09579345 , 0.3475799   , 0.007553778 , -0.0115027167, 0.4628024   , 3.18        , 3           , 11          , 0.010065861 , 0.0100658452
-0.112268075, -0.09157936 , -9.78153    , -0.001755371, -0.00346701685, 5.38595377E-05, 0.202103272 , -0.09579345 , 0.3475799   , 0.007536222 , -0.0115373889, 0.462802649 , 3.19        , 3           , 12          , 0.0536163822, 0
-0.0938097  , -0.07215671 , -9.757196   , -0.00605323631, -0.00213937182, 0.0008330044, 0.2022381   , -0.09586086 , 0.347445071 , 0.00753432745, -0.011556888, 0.4628098   , 3.2         , 3           , 50          , 0           , 0
-0.09088793 , -0.06783659 , -9.78377    , -0.003928945, -0.00273740129, 0.00119521283, 0.2022381   , -0.09586086 , 0.347445071 , 0.007494902 , -0.01158435 , 0.462821484 , 3.21        , 3           , 11          , 0.0100446241, 0.0100446185
-0.117065065, -0.08373053 , -9.794583   , -0.0004164935, -0.00132454641, -0.0004799144, 0.202305511 , -0.09599569 , 0.347310245 , 0.007490793 , -0.0115975616, 0.462816477 , 3.22        , 3           , 12          , 0.0546242222, 0
-0.105665542, -0.0711451247, -9.799753   , 0.004659673 , 0.00141191063, 0.000306600356, 0.201968446 , -0.0959282741, 0.347445071 , 0.00753735425, -0.0115834633, 0.4628198   , 3.23        , 3           , 50          , 0           , 0
-0.1099925  , -0.0737563  , -9.763237   , 0.004138593 , -0.00023662165, 0.0009234732, 0.2022381   , -0.09579345 , 0.347445071 , 0.00757863373, -0.0115858987, 0.462828875 , 3.24        , 3           , 11          , 0.0100446241, 0.0100446185
-0.141442254, -0.07961068 , -9.780758   , -0.0007709414, -0.00139001978, -0.000769263366, 0.202103272 , -0.0959282741, 0.3476473   , 0.00757101364, -0.0115997391, 0.462821245 , 3.25        , 3           , 12          , 0.0546242222, 0
-0.09911503 , -0.06528317 , -9.763038   , 0.000797525165, -0.000271753874, 0.0006161333, 0.202035859 , -0.0959282741, 0.347310245 , 0.007578918 , -0.0116025042, 0.462827444 , 3.26        , 3           , 50          , 0           , 0
-0.119667739, -0.09404216 , -9.756332   , 0.00477412064, -0.00116618711, -1.6268792E-05, 0.202035859 , -0.0959282741, 0.347310245 , 0.00762666157, -0.0116141643, 0.462826967 , 3.27        , 3           , 11          , 0.0100446241, 0.0100446185
-0.117689   , -0.09779177 , -9.78662    , 0.00449215528, -0.000948363042, -1.48519975E-05, 0.202103272 , -0.0960631  , 0.347377658 , 0.0076715867, -0.0116236471, 0.462826967 , 3.28        , 3           , 12          , 0.0546242222, 0
-0.117478624, -0.08456067 , -9.80092049 , 0.00386480545, 0.0009797501, 0.00144028419, 0.201968446 , -0.0960631  , 0.347714722 , 0.00771006662, -0.0116139622, 0.462841272 , 3.29        , 3           , 50          , 0           , 0
-0.134429276, -0.07215017 , -9.809064   , 0.00409601443, 0.00194998179, 0.00145486684, 0.202170685 , -0.09599569 , 0.3475799   , 0.007906288 , -0.0116575118, 0.462853432 , 3.3         , 3           , 11          , 0.0104150614, 0.0104150577
-0.09272808 , -0.08034466 , -9.793417   , 0.004377504 , 0.00123768311, 0.000659195241, 0.202372923 , -0.0960631  , 0.347714722 , 0.007949986 , -0.0116451876, 0.4628601   , 3.31        , 3           , 12          , 0.0556421652, 0
-0.103920504, -0.07747832 , -9.799359   , 0.00295220315, 0.00160075689, 0.0017289602, 0.202372923 , -0.0960631  , 0.347714722 , 0.007979306 , -0.0116293179, 0.4628775   , 3.32        , 3           , 50          , 0           , 0
-0.104840524, -0.06637202 , -9.782978   , -0.000309354829, 0.00122331537, -0.000443233963, 0.2022381   , -0.09599569 , 0.347310245 , 0.007976262 , -0.0116170505, 0.46287322  , 3.33        , 3           , 11          , 0.0104150614, 0.0104150577
-0.09759503 , -0.06370028 , -9.785591   , -0.000849614851, -0.002214417, -6.706889E-05, 0.2022381   , -0.09586086 , 0.347512484 , 0.007967776 , -0.011639188, 0.462872267 , 3.34        , 3           , 12          , 0.0556421652, 0
-0.113560282, -0.0741177648, -9.768695   , -0.00390878972, -0.00218527345, 0.000129135078, 0.2022381   , -0.09599569 , 0.3475799   , 0.007928676 , -0.0116610518, 0.462873459 , 3.35        , 3           , 50          , 0           , 0
-0.111065537, -0.06664224 , -9.794783   , -0.000251794, 0.0004991063, 0.000333711418, 0.202305511 , -0.09586086 , 0.347512484 , 0.007926119 , -0.0116560878, 0.4628768   , 3.36        , 3           , 11          , 0.0104150614, 0.0104150577
-0.106106274, -0.0595531538, -9.786976   , -0.00187356421, 0.000886743248, -0.00110174366, 0.202440336 , -0.09599569 , 0.347512484 , 0.007907511 , -0.0116471332, 0.462866068 , 3.37        , 3           , 12          , 0.0556421652, 0
-0.115315594, -0.07759321 , -9.779591   , -0.00104493345, -0.0005656994, 9.872588E-05, 0.202440336 , -0.09599569 , 0.347512484 , 0.00789705  , -0.0116527993, 0.462867022 , 3.38        , 3           , 50          , 0           , 0
-0.133355826, -0.0743671656, -9.771588   , -0.0029603024, 0.000306504342, 0.000886632 , 0.202440336 , -0.09599569 , 0.347445071 , 0.007867343 , -0.0116498014, 0.462875843 , 3.39        , 3           , 11          , 0.0104150614, 0.0104150577
-0.111527093, -0.06799104 , -9.794803   , 0.000953998941, -0.005060672, 0.00147746422, 0.202103272 , -0.0959282741, 0.3475799   , 0.007871577 , -0.0117404433, 0.462890148 , 3.4         , 3           , 12          , 0.0566694327, 0
-0.102229252, -0.08166827 , -9.788551   , 0.0001251756, -0.004737268, -0.00167130656, 0.202305511 , -0.09586086 , 0.3476473   , 0.007873029 , -0.0117876818, 0.46287322  , 3.41        , 3           , 50          , 0           , 0
-0.116239674, -0.08563393 , -9.786015   , -0.0001422341, -0.001607604, 0.00123452884, 0.202305511 , -0.0960631  , 0.347445071 , 0.007871463 , -0.0118038561, 0.46288538  , 3.42        , 3           , 11          , 0.009987633 , 0.009987622
-0.0946727842, -0.07476236 , -9.765817   , 0.004447032 , 0.00150109222, 0.00102168822, 0.202305511 , -0.0960631  , 0.347445071 , 0.007915812 , -0.0117889242, 0.462895632 , 3.43        , 3           , 12          , 0.0566694327, 0
-0.0953996256, -0.0722629055, -9.787928   , 0.0004109652, -0.002480799, 0.00208392716, 0.202372923 , -0.09586086 , 0.347377658 , 0.007919678 , -0.0118138976, 0.462916374 , 3.44        , 3           , 50          , 0           , 0
-0.113010548, -0.0797560662, -9.789983   , 0.00530943274, 0.00178668112, 0.00017250987, 0.202372923 , -0.0959282741, 0.3476473   , 0.007972751 , -0.0117960433, 0.462918282 , 3.45        , 3           , 11          , 0.009987633 , 0.009987622
-0.106809795, -0.07418141 , -9.768181   , 0.003881187 , 0.0009465108, -0.0004209057, 0.2022381   , -0.09599569 , 0.347512484 , 0.008011611 , -0.0117865438, 0.462914    , 3.46        , 3           , 12          , 0.0566694327, 0
-0.10982687 , -0.07483805 , -9.788542   , 0.00245568715, 0.0006743798, -0.00043364623, 0.202372923 , -0.09599569 , 0.347445071 , 0.008036218 , -0.0117797693, 0.4629097   , 3.47        , 3           , 50          , 0           , 0
-0.120645195, -0.06541526 , -9.775434   , 0.00559883472, 0.00122599036, -0.00155110774, 0.202372923 , -0.09599569 , 0.347445071 , 0.008092387 , -0.0117673818, 0.46289444  , 3.48        , 3           , 11          , 0.009987633 , 0.009987622
-0.12603426 , -0.06445673 , -9.776375   , 0.00189918792, 0.00126099586, -0.00128721783, 0.202305511 , -0.09599569 , 0.347310245 , 0.008111529 , -0.0117546692, 0.462881565 , 3.49        , 3           , 12          , 0.0566694327, 0
-0.106769487, -0.0839126259, -9.785909   , 0.00041814326, -0.0007674195, 0.00125084864, 0.202170685 , -0.09599569 , 0.347512484 , 0.008076074 , -0.0117919873, 0.462894678 , 3.5         , 3           , 50          , 0           , 0
-0.09911743 , -0.092440024, -9.795874   , 0.00673551066, 0.003199034 , -0.0006561752, 0.201901034 , -0.09586086 , 0.347512484 , 0.008143504 , -0.0117599443, 0.462888479 , 3.51        , 3           , 11          , 0.0103848092, 0.010384799
-0.125827864, -0.0906518847, -9.773064   , 0.00326750451, -0.00135411706, -0.0004573485, 0.202372923 , -0.0960631  , 0.347512484 , 0.008176235 , -0.0117734466, 0.4628837   , 3.52        , 3           , 12          , 0.05770532  , 0
-0.115696177, -0.06813479 , -9.77813    , 0.0043917764, -0.00138359226, 0.00155265315, 0.201968446 , -0.09613051 , 0.347445071 , 0.008219969 , -0.011787408, 0.4628992   , 3.53        , 3           , 50          , 0           , 0
-0.102237955, -0.07188867 , -9.775339   , -0.00044011508, -0.00217628921, -0.000492143154, 0.201968446 , -0.09613051 , 0.347445071 , 0.0082156295, -0.011809133, 0.4628942   , 3.54        , 3           , 11          , 0.0103848092, 0.010384799
-0.08970983 , -0.09036943 , -9.786278   , -0.0007242898, -0.00132646 , 0.0009494841, 0.202372923 , -0.0960631  , 0.347377658 , 0.008208275 , -0.0118224742, 0.4629035   , 3.55        , 3           , 12          , 0.05770532  , 0
-0.1227671  , -0.104172625, -9.776352   , 0.002444173 , 0.000105364285, -0.002444769, 0.202305511 , -0.0959282741, 0.347377658 , 0.008233004 , -0.01182122 , 0.462878942 , 3.56        , 3           , 50          , 0           , 0
-0.127372414, -0.07599917 , -9.79233    , -0.0006863284, 0.0009815304, -0.0007341117, 0.202170685 , -0.0960631  , 0.3475799   , 0.008226227 , -0.011811343, 0.4628718   , 3.57        , 3           , 11          , 0.0103848092, 0.010384799
-0.08521321 , -0.0877467543, -9.782141   , -0.002947541, 0.00158804376, -0.00188412785, 0.202170685 , -0.0961979255, 0.347445071 , 0.008196972 , -0.0117953122, 0.4628532   , 3.58        , 3           , 12          , 0.05770532  , 0
-0.10250897 , -0.06760402 , -9.79607    , 0.004731496 , 0.0029198844, 0.000758477545, 0.202170685 , -0.0961979255, 0.347445071 , 0.008244195 , -0.0117661739, 0.462861061 , 3.59        , 3           , 50          , 0           , 0
-0.136873215, -0.07242572 , -9.781536   , 0.000313874159, 0.000804714451, -0.000158292751, 0.202035859 , -0.0960631  , 0.347310245 , 0.007957903 , -0.0114774341, 0.462863922 , 3.6         , 3           , 11          , 0.0107473126, 0.0107472809
-0.119799457, -0.08242204 , -9.788269   , -2.39193323E-05, -0.00349620217, 0.0003497189, 0.202170685 , -0.09586086 , 0.347512484 , 0.007957625 , -0.0115124229, 0.462867022 , 3.61        , 3           , 12          , 0.0587491468, 0
-0.104380332, -0.07526342 , -9.795272   , -0.0002800561, 0.0007772199, 0.00355841266, 0.202103272 , -0.09586086 , 0.347445071 , 0.007954415 , -0.0115049351, 0.462902784 , 3.62        , 3           , 50          , 0           , 0
-0.102178164, -0.06734575 , -9.778449   , 0.00172562012, 0.000211989012, 0.0004142552, 0.202170685 , -0.0960631  , 0.347445071 , 0.007971624 , -0.0115028471, 0.462906837 , 3.63        , 3           , 11          , 0.0107473126, 0.0107472809
-0.118176676, -0.051748015, -9.790159   , -0.003162948, -0.00319575425, 0.00233819312, 0.202305511 , -0.0959282741, 0.347310245 , 0.007939728 , -0.0115349935, 0.462929964 , 3.64        , 3           , 12          , 0.0587491468, 0
-0.114360176, -0.07662667 , -9.786346   , -0.00397170661, -0.000305936381, 0.0006578042, 0.202305511 , -0.0959282741, 0.347310245 , 0.007899935 , -0.0115381023, 0.46293664  , 3.65        , 3           , 50          , 0           , 0
-0.108538114, -0.07405445 , -9.77858448 , -0.000272059639, -0.000340941944, 0.00039391435, 0.202170685 , -0.0959282741, 0.347377658 , 0.007897171 , -0.0115415426, 0.462940454 , 3.66        , 3           , 11          , 0.0107473126, 0.0107472809
-0.104860172, -0.06462163 , -9.777989   , 0.000609321462, 0.00109864213, -0.00129706168, 0.202035859 , -0.09599569 , 0.3475799   , 0.007903413 , -0.0115304533, 0.46292758  , 3.67        , 3           , 12          , 0.0587491468, 0
-0.09404485 , -0.0647012  , -9.779245   , 0.00150554138, 0.00481550256, -0.00123766554, 0.2022381   , -0.09586086 , 0.347512484 , 0.007918607 , -0.0114822034, 0.462915659 , 3.68        , 3           , 50          , 0           , 0
-0.11748185 , -0.0707664862, -9.783596   , 0.001510503 , 0.004257701 , -0.00296299672, 0.202305511 , -0.0960631  , 0.347377658 , 0.007934048 , -0.0114393923, 0.462886333 , 3.69        , 3           , 11          , 0.0107473126, 0.0107472809
-0.1064838  , -0.0478643849, -9.783232   , -1.68334227E-05, -0.001788027, 0.0006611444, 0.202305511 , -0.0960631  , 0.347377658 , 0.007909094 , -0.0114773409, 0.462893248 , 3.7         , 3           , 12          , 0.05980029  , 0
-0.0973565  , -0.07560195 , -9.769466   , -0.0010954591, 0.002535016 , -0.0007139262, 0.2022381   , -0.0959282741, 0.347310245 , 0.007898219 , -0.0114519354, 0.462886333 , 3.71        , 3           , 50          , 0           , 0
-0.10499502 , -0.08485915 , -9.783193   , 0.00311089843, -0.00125689269, 0.00183299475, 0.202103272 , -0.09586086 , 0.3475799   , 0.007929118 , -0.011464647, 0.4629047   , 3.72        , 3           , 11          , 0.009967043 , 0.00996701047
-0.12231829 , -0.08256392 , -9.814945   , 0.00169255235, -0.0012373256, 0.00125209964, 0.202103272 , -0.09599569 , 0.347714722 , 0.0079459   , -0.0114771174, 0.462916851 , 3.73        , 3           , 12          , 0.05980029  , 0
-0.08718333 , -0.07349747 , -9.805483   , 0.000854093931, -0.000926720444, -0.00046585087, 0.2022381   , -0.09613051 , 0.3475799   , 0.007954496 , -0.0114863478, 0.462912321 , 3.74        , 3           , 50          , 0           , 0
-0.09666589 , -0.06811556 , -9.795119   , -0.00538405124, 9.386364E-06, -0.0019218449, 0.2022381   , -0.09613051 , 0.3475799   , 0.007900875 , -0.011486101, 0.462893    , 3.75        , 3           , 11          , 0.009967043 , 0.00996701047
-0.123901688, -0.0797926262, -9.777887   , 0.00201825355, 0.00135435443, -0.000425609, 0.202372923 , -0.09599569 , 0.347377658 , 0.007921104 , -0.0114725223, 0.462888956 , 3.76        , 3           , 12          , 0.05980029  , 0
-0.100747734, -0.06901596 , -9.792005   , 2.70118471E-06, -0.0009154921, -0.000757155067, 0.202170685 , -0.0959282741, 0.347445071 , 0.007921219 , -0.0114816176, 0.462881327 , 3.77        , 3           , 50          , 0           , 0
-0.08370857 , -0.06971746 , -9.782371   , 0.0008903936, 0.00222565024, -0.000419942051, 0.202305511 , -0.09599569 , 0.347512484 , 0.007930169 , -0.0114593273, 0.462877035 , 3.78        , 3           , 11          , 0.009967043 , 0.00996701047
-0.095100455, -0.08362655 , -9.779925   , -0.00511338841, 0.0011169801, 0.00210285862, 0.202103272 , -0.0960631  , 0.3475799   , 0.007878793 , -0.0114483247, 0.462898254 , 3.79        , 3           , 12          , 0.05980029  , 0
-0.117631577, -0.108832143, -9.808429   , -0.00280966051, 0.0008595376, -0.00132187 , 0.202170685 , -0.0960631  , 0.347242832 , 0.007870679 , -0.0113887126, 0.462884665 , 3.8         , 3           , 50          , 0           , 0
-0.0930385962, -0.08190725 , -9.815571   , 0.0008305623, -0.00235855253, 0.00180229917, 0.202170685 , -0.0960631  , 0.347242832 , 0.00787878  , -0.011412438, 0.462902546 , 3.81        , 3           , 11          , 0.0102345152, 0.0102344863
-0.106713973, -0.08249217 , -9.792215   , 0.00199941872, -0.0014822192, -0.00132613059, 0.202035859 , -0.0960631  , 0.347512484 , 0.007898928 , -0.0114271538, 0.4628892   , 3.82        , 3           , 12          , 0.06085818  , 0
-0.102213249, -0.0607225  , -9.765272   , 0.00111473713, -0.003208382, 0.000360671955, 0.202372923 , -0.0959282741, 0.347445071 , 0.007910037 , -0.0114592658, 0.462892532 , 3.83        , 3           , 50          , 0           , 0
-0.108156085, -0.08707173 , -9.784603   , 0.000255348044, -0.00207899231, 0.003233866 , 0.2022381   , -0.09599569 , 0.3476473   , 0.007912222 , -0.01148031 , 0.462924719 , 3.84        , 3           , 11          , 0.0102345152, 0.0102344863
-0.1223372  , -0.07101942 , -9.798099   , -0.00539216725, -0.00140196993, -0.00194300688, 0.202507749 , -0.09613051 , 0.3475799   , 0.007858527 , -0.0114941765, 0.462905169 , 3.85        , 3           , 12          , 0.06085818  , 0
-0.09040442 , -0.07580196 , -9.798311   , 0.006309183 , 0.00304690562, 0.0001971668, 0.202507749 , -0.09613051 , 0.3475799   , 0.007921592 , -0.0114637259, 0.462907553 , 3.86        , 3           , 50          , 0           , 0
-0.112128176, -0.08379785 , -9.79228    , 0.001710571 , -0.00120298855, -0.000179014562, 0.202103272 , -0.09599569 , 0.347512484 , 0.00793872  , -0.0114757381, 0.462905645 , 3.87        , 3           , 11          , 0.0102345152, 0.0102344863
-0.112190522, -0.08789955 , -9.788263   , 0.00148278417, 0.00339028682, -0.00068627944, 0.202305511 , -0.09586086 , 0.347445071 , 0.007953622 , -0.0114417849, 0.46289897  , 3.88        , 3           , 12          , 0.06085818  , 0
-0.09578987 , -0.0837405846, -9.810648   , 0.00105367589, -0.00752242561, 0.002015053 , 0.2022381   , -0.09599569 , 0.3476473   , 0.007963934 , -0.0115171652, 0.46291852  , 3.89        , 3           , 50          , 0           , 0
-0.08950287 , -0.0842657238, -9.80879    , 0.0003570733, 0.00371865137, -0.000403215265, 0.202372923 , -0.0960631  , 0.347512484 , 0.007993616 , -0.0113999471, 0.462914228 , 3.9         , 3           , 11          , 0.010525804 , 0.0105257761
-0.09266801 , -0.06867919 , -9.787861   , 0.00515543343, -4.83224539E-05, -0.00128683541, 0.202170685 , -0.0960631  , 0.3475799   , 0.008045319 , -0.011400328, 0.462901354 , 3.91        , 3           , 12          , 0.0619222671, 0
-0.10454005 , -0.09064259 , -9.790935   , 0.000274839142, -0.00259888754, 0.0009357871, 0.202170685 , -0.0960631  , 0.3475799   , 0.008047962 , -0.0114263911, 0.462910652 , 3.92        , 3           , 50          , 0           , 0
-0.093529135, -0.07217213 , -9.797847   , 0.00372193754, 0.000797708344, 0.00186492223, 0.202170685 , -0.09586086 , 0.3475799   , 0.008084968 , -0.0114185642, 0.462929249 , 3.93        , 3           , 11          , 0.010525804 , 0.0105257761
-0.114095926, -0.0539652444, -9.796923   , 0.003989877 , -0.000638077, 0.00184576784, 0.202305511 , -0.09599569 , 0.3475799   , 0.008124656 , -0.0114250965, 0.4629476   , 3.94        , 3           , 12          , 0.0619222671, 0
-0.120583832, -0.0666566938, -9.785836   , 0.00429577939, 0.000234127947, 0.0001430179, 0.202440336 , -0.09579345 , 0.3475799   , 0.008167597 , -0.0114227645, 0.462949276 , 3.95        , 3           , 50          , 0           , 0
-0.113947742, -0.07891415 , -9.783658   , 0.00572045939, -5.92207653E-05, -0.000711080735, 0.2022381   , -0.09579345 , 0.347377658 , 0.008224882 , -0.0114232991, 0.462942123 , 3.96        , 3           , 11          , 0.010525804 , 0.0105257761
-0.09209119 , -0.0909943  , -9.768239   , 0.00259545073, 0.00195302384, 0.00216092682, 0.2022381   , -0.09579345 , 0.347377658 , 0.008250588 , -0.0114039471, 0.46296382  , 3.97        , 3           , 12          , 0.0619222671, 0
-0.114013627, -0.08791773 , -9.785118   , 0.000333419564, 0.00199405756, 0.000144071571, 0.202170685 , -0.09586086 , 0.347445071 , 0.008253904 , -0.01138402 , 0.4629655   , 3.98        , 3           , 50          , 0           , 0
-0.106790155, -0.08750536 , -9.787305   , 0.000596132362, 0.000269133539, 0.000406907755, 0.202103272 , -0.0959282741, 0.347512484 , 0.008259819 , -0.0113813626, 0.462969542 , 3.99        , 3           , 11          , 0.010525804 , 0.0105257761
-0.113324821, -0.08176956 , -9.812142   , 1.22515494E-05, -0.00144736434, 0.00180898025, 0.202170685 , -0.09586086 , 0.3475799   , 0.008296095 , -0.0113708191, 0.462986946 , 4           , 3           , 12          , 0.0629920438, 0
-0.117981225, -0.08597239 , -9.795069   , -0.000273007579, -0.0020099543, 0.0009404279, 0.201901034 , -0.09613051 , 0.3475799   , 0.008293261 , -0.0113909962, 0.462996244 , 4.01        , 3           , 50          , 0           , 0
-0.109513126, -0.08706964 , -9.783712   , 0.0008925249, 0.000555139966, 0.00127100723, 0.201901034 , -0.09613051 , 0.3475799   , 0.008302039 , -0.01138555 , 0.463008881 , 4.02        , 3           , 11          , 0.0107214833, 0.0107214432
-0.09034282 , -0.08797461 , -9.756896   , -0.000750018749, 0.00432616146, -0.00183282117, 0.202035859 , -0.0959282741, 0.347377658 , 0.008294743 , -0.0113421371, 0.462991    , 4.03        , 3           , 12          , 0.0629920438, 0
-0.0828321949, -0.0804454163, -9.791972   , 0.006058379 , 0.003668295 , -8.306281E-05, 0.201901034 , -0.09586086 , 0.3475799   , 0.008355333 , -0.0113054486, 0.462990522 , 4.04        , 3           , 50          , 0           , 0
-0.114609674, -0.09080796 , -9.76754    , 0.00115386513, -0.00145380374, 0.00124350586, 0.202305511 , -0.09586086 , 0.347377658 , 0.008366731 , -0.0113200918, 0.46300292  , 4.05        , 3           , 11          , 0.0107214833, 0.0107214432
-0.117244862, -0.102256365, -9.791185   , -0.00369426049, -0.002832457, 0.0006211825, 0.202372923 , -0.0960631  , 0.347512484 , 0.008329721 , -0.0113484673, 0.463008642 , 4.06        , 3           , 12          , 0.0629920438, 0
-0.1134378  , -0.07214964 , -9.784027   , 0.00230152486, -0.0006056247, 0.00126288  , 0.202103272 , -0.0959282741, 0.347377658 , 0.00835259352, -0.011354628, 0.463021278 , 4.07        , 3           , 50          , 0           , 0
-0.1151992  , -0.03665939 , -9.81164    , 0.00142869388, -0.00344483065, -0.0007871435, 0.202103272 , -0.0959282741, 0.347377658 , 0.008366973 , -0.01138901 , 0.463013172 , 4.08        , 3           , 11          , 0.0107214833, 0.0107214432
-0.0883747861, -0.0492045358, -9.798889   , 0.004879093 , 0.00023834419, 0.000146165228, 0.201968446 , -0.0959282741, 0.347512484 , 0.008415749 , -0.0113866394, 0.4630146   , 4.09        , 3           , 12          , 0.0629920438, 0
-0.09081648 , -0.0686174259, -9.795072   , 0.00144353462, 0.0005783391, 0.0007050159, 0.202103272 , -0.09579345 , 0.347512484 , 0.006174268 , -0.009807067, 0.463047743 , 4.1         , 3           , 50          , 0           , 0
-0.135953575, -0.08842907 , -9.803844   , -0.0011612518, -0.00312374253, 0.0009215035, 0.201968446 , -0.09579345 , 0.347512484 , 0.006162568 , -0.009838362, 0.4630568   , 4.11        , 3           , 11          , 0.0108613381, 0.01086129
-0.108129852, -0.09326343 , -9.795966   , -0.00222034287, 0.0020718358, -0.00187186652, 0.202035859 , -0.09599569 , 0.347512484 , 0.00614054641, -0.009817529, 0.4630382   , 4.12        , 3           , 12          , 0.06406703  , 0
-0.117720105, -0.0951686054, -9.778912   , 0.0006080873, 0.00230392348, 0.00101108092, 0.202035859 , -0.09599569 , 0.347512484 , 0.006146526 , -0.009794551, 0.46304822  , 4.13        , 3           , 50          , 0           , 0
-0.115348518, -0.0763082355, -9.773252   , 0.0009291158, 0.00432500429, -0.0009611391, 0.202035859 , -0.0959282741, 0.347445071 , 0.00615590764, -0.009751241, 0.463038921 , 4.14        , 3           , 11          , 0.0108613381, 0.01086129
-0.08617266 , -0.0962867662, -9.784056   , 0.000287636183, -0.00197395775, -0.0010563836, 0.201901034 , -0.09586086 , 0.347512484 , 0.00615888927, -0.009770917, 0.4630282   , 4.15        , 3           , 12          , 0.06406703  , 0
-0.104668796, -0.106419437, -9.79157    , -0.005106558, -0.000212377519, 0.000366923225, 0.201901034 , -0.09579345 , 0.3475799   , 0.0061077876, -0.009773062, 0.463032    , 4.16        , 3           , 50          , 0           , 0
-0.115337133, -0.08875456 , -9.790108   , -0.000849039061, -0.0005499796, 0.00124694256, 0.202035859 , -0.0959282741, 0.347445071 , 0.00609917659, -0.009778637, 0.4630444   , 4.17        , 3           , 11          , 0.0108613381, 0.01086129
-0.126344889, -0.06379385 , -9.795794   , 0.00141576165, -0.001998314, 0.0003812901, 0.202035859 , -0.09599569 , 0.347445071 , 0.00611329637, -0.009798642, 0.463047981 , 4.18        , 3           , 12          , 0.06406703  , 0
-0.102066912, -0.08052936 , -9.81067    , -0.00483175274, -0.000228064717, 0.00179945654, 0.202035859 , -0.09599569 , 0.347445071 , 0.006064803 , -0.009801032, 0.4630661   , 4.19        , 3           , 50          , 0           , 0
-0.106344156, -0.079058215, -9.776363   , -0.00280515943, 0.000904163462, 0.0006833414, 0.201901034 , -0.09586086 , 0.3475799   , 0.00607513962, -0.009802832, 0.463072538 , 4.2         , 3           , 11          , 0.00654527359, 0.00654519442
-0.103935353, -0.0583603457, -9.773844   , -0.00279937848, 0.0009118419, -0.0001751506, 0.201833621 , -0.0959282741, 0.347512484 , 0.00604716269, -0.009793706, 0.463070869 , 4.21        , 3           , 12          , 0.06514678  , 0
-0.0985447839, -0.07667676 , -9.794332   , -0.00193726632, 0.00232583075, 0.0009955134, 0.201968446 , -0.09586086 , 0.347377658 , 0.0060276906, -0.009770506, 0.463080883 , 4.22        , 3           , 50          , 0           , 0
-0.113135174, -0.10175848 , -9.7988205  , -0.00191031257, 0.00433700345, 0.0004524   , 0.201968446 , -0.09599569 , 0.347512484 , 0.00600854075, -0.009727164, 0.463085651 , 4.23        , 3           , 11          , 0.00654527359, 0.00654519442
-0.107867934, -0.07461179 , -9.811106   , 0.003746041 , 0.00113195984, -0.000131568988, 0.201968446 , -0.09599569 , 0.347512484 , 0.00604601437, -0.009715837, 0.463084459 , 4.24        , 3           , 12          , 0.06514678  , 0
-0.0909552  , -0.0870803744, -9.797544   , -0.00226019812, -0.00167314964, -0.00020928563, 0.202035859 , -0.0959282741, 0.347377658 , 0.006023433 , -0.009732555, 0.4630823   , 4.25        , 3           , 50          , 0           , 0
-0.1157056  , -0.056575764, -9.762638   , 1.36598246E-05, -0.000851886347, 0.00153392612, 0.201968446 , -0.09586086 , 0.347445071 , 0.006023422 , -0.009741165, 0.463097572 , 4.26        , 3           , 11          , 0.00654527359, 0.00654519442
-0.112520181, -0.07346664 , -9.788099   , 0.001492248 , 0.002877111 , -0.000406398933, 0.201901034 , -0.09586086 , 0.347714722 , 0.00603838125, -0.009712373, 0.463093758 , 4.27        , 3           , 12          , 0.06514678  , 0
-0.116421975, -0.0921449959, -9.767572   , -0.00341501227, -0.00281302654, 0.0003394947, 0.202170685 , -0.09599569 , 0.347377658 , 0.00600420032, -0.009740522, 0.463096857 , 4.28        , 3           , 50          , 0           , 0
-0.106737524, -0.0789672  , -9.784495   , -0.0025058582, 0.00120321009, -0.00102775579, 0.202170685 , -0.09599569 , 0.347377658 , 0.005979241 , -0.009728427, 0.4630866   , 4.29        , 3           , 11          , 0.00654527359, 0.00654519442
-0.109760143, -0.06983939 , -9.792096   , -0.00193316431, 0.00117705052, 0.0004063958, 0.201968446 , -0.0960631  , 0.347310245 , 0.005995844 , -0.009736977, 0.463090658 , 4.3         , 3           , 12          , 0.0662308857, 0
-0.112178355, -0.07897821 , -9.779126   , -0.0033729726, 0.0003215231, 0.00152996415, 0.201968446 , -0.09586086 , 0.347512484 , 0.00596196437, -0.009733854, 0.463105917 , 4.31        , 3           , 50          , 0           , 0
-0.128667727, -0.07234144 , -9.795914   , 0.00319995452, 0.002271354 , 0.000453931047, 0.202035859 , -0.0959282741, 0.347512484 , 0.00599392  , -0.009711168, 0.463110447 , 4.32        , 3           , 11          , 0.00674002664, 0.0067399363
-0.08326054 , -0.07595663 , -9.789665   , -0.00104325579, 0.00319235236, -0.00156239711, 0.202305511 , -0.09586086 , 0.347512484 , 0.00598363625, -0.00967915 , 0.4630952   , 4.33        , 3           , 12          , 0.0662308857, 0
-0.07968203 , -0.07468851 , -9.78465    , -0.0008220693, -0.00197408115, -0.00106347958, 0.201968446 , -0.09599569 , 0.347445071 , 0.005975519 , -0.00969883 , 0.463084459 , 4.34        , 3           , 50          , 0           , 0
-0.09713751 , -0.0699249357, -9.79424    , 0.0006488109, 0.00174467848, -0.0018591485, 0.201968446 , -0.09599569 , 0.347445071 , 0.005982187 , -0.009681271, 0.463065863 , 4.35        , 3           , 11          , 0.00674002664, 0.0067399363
-0.13188459 , -0.08309703 , -9.799681   , -0.001111471, -0.00141339016, 0.000660138146, 0.202170685 , -0.09599569 , 0.347377658 , 0.005971009 , -0.009695444, 0.4630723   , 4.36        , 3           , 12          , 0.0662308857, 0
-0.120046735, -0.07231432 , -9.80532    , 0.006922703 , 0.0042424025, 0.00021925589, 0.201901034 , -0.09586086 , 0.347714722 , 0.00604021177, -0.009653034, 0.463074923 , 4.37        , 3           , 50          , 0           , 0
-0.122194506, -0.05655658 , -9.801092   , 0.00123556389, 0.00345581444, -0.00154451653, 0.202103272 , -0.09599569 , 0.3476473   , 0.00605271431, -0.009618381, 0.463059664 , 4.38        , 3           , 11          , 0.00674002664, 0.0067399363
-0.106166676, -0.06454212 , -9.784324   , -0.000212216866, 0.0017431092, -0.000719632837, 0.202170685 , -0.09599569 , 0.3476473   , 0.00605066  , -0.009600906, 0.4630525   , 4.39        , 3           , 12          , 0.0662308857, 0
-0.115849584, -0.08350429 , -9.774694   , -0.00418037269, 0.00432900665, 0.0021555745, 0.202170685 , -0.09599569 , 0.3476473   , 0.00601837737, -0.009580018, 0.463073969 , 4.4         , 3           , 50          , 0           , 0
-0.126183435, -0.08827731 , -9.783878   , 6.45230757E-05, 0.0005882883, -0.00102078449, 0.202305511 , -0.0960631  , 0.347242832 , 0.00601912  , -0.009574073, 0.463063955 , 4.41        , 3           , 11          , 0.006939089 , 0.006939001
-0.096778065, -0.07407411 , -9.786155   , -0.00160417845, 0.004888956 , 0.0007485223, 0.201833621 , -0.0959282741, 0.347512484 , 0.006003003 , -0.009525229, 0.463071585 , 4.42        , 3           , 12          , 0.06731896  , 0
-0.115530744, -0.0531919971, -9.783829   , -0.00619426463, 0.00121478015, 9.452403E-05, 0.201833621 , -0.09579345 , 0.347445071 , 0.00594105152, -0.009513088, 0.463072538 , 4.43        , 3           , 50          , 0           , 0
-0.109287888, -0.06758391 , -9.792519   , -0.00337544479, -0.0005412696, 0.0009451088, 0.202035859 , -0.09586086 , 0.3475799   , 0.00590720726, -0.009518555, 0.463082075 , 4.44        , 3           , 11          , 0.006939089 , 0.006939001
-0.102065049, -0.06761762 , -9.795162   , -0.00167403184, -0.0008477459, 0.00123737962, 0.202035859 , -0.0960631  , 0.347445071 , 0.00589034939, -0.009527106, 0.463094473 , 4.45        , 3           , 12          , 0.06731896  , 0
-0.118944876, -0.0744877756, -9.77191    , 0.00063533  , 0.0005850686, -0.00130352145, 0.202035859 , -0.0960631  , 0.347445071 , 0.005896826 , -0.009521177, 0.46308136  , 4.46        , 3           , 50          , 0           , 0
-0.103851877, -0.102994241, -9.775261   , -0.00394321745, -0.00109841046, -0.0002113211, 0.202103272 , -0.0959282741, 0.347512484 , 0.005857415 , -0.009532148, 0.4630792   , 4.47        , 3           , 11          , 0.006939089 , 0.006939001
-0.109923869, -0.08121848 , -9.782293   , 0.00205449527, 0.00113098114, 0.000144212478, 0.201901034 , -0.0959282741, 0.3475799   , 0.0058779465, -0.00952085 , 0.463080645 , 4.48        , 3           , 12          , 0.06731896  , 0
-0.115675643, -0.07389012 , -9.788133   , 0.00115386781, -0.002309538, 0.00123364583, 0.201901034 , -0.09586086 , 0.347512484 , 0.00588936871, -0.009544017, 0.463093042 , 4.49        , 3           , 50          , 0           , 0
-0.10813868 , -0.08125835 , -9.780019   , 0.00154027494, 0.004835791 , 0.00076732313, 0.202103272 , -0.0959282741, 0.347377658 , 0.00594806857, -0.009555118, 0.4631002   , 4.5         , 3           , 11          , 0.00713717472, 0.007137081
-0.124090843, -0.100558452, -9.775871   , 0.002695908 , 0.00654114876, 0.00108538207, 0.202103272 , -0.0959282741, 0.347377658 , 0.005974921 , -0.009489773, 0.463111639 , 4.51        , 3           , 12          , 0.068410635 , 0
-0.122193776, -0.101762339, -9.791225   , -0.001324455, 0.00145133282, -0.00216153334, 0.202170685 , -0.0959282741, 0.347445071 , 0.005961881 , -0.009475132, 0.463089943 , 4.52        , 3           , 50          , 0           , 0
-0.125698447, -0.088228   , -9.788842   , -0.002815424, -0.00285850139, 0.0006289368, 0.201833621 , -0.09599569 , 0.347512484 , 0.005933668 , -0.009503754, 0.463096142 , 4.53        , 3           , 11          , 0.00713717472, 0.007137081
-0.105442867, -0.0946445  , -9.795506   , 0.00292892125, 0.00223701145, 0.00131065631, 0.202035859 , -0.0959282741, 0.3475799   , 0.005962831 , -0.009481463, 0.463109255 , 4.54        , 3           , 12          , 0.068410635 , 0
-0.112039007, -0.08544178 , -9.807205   , 0.0023534412, 0.00166963262, 0.00129888242, 0.201968446 , -0.09586086 , 0.347714722 , 0.00598624069, -0.009464843, 0.463122368 , 4.55        , 3           , 50          , 0           , 0
-0.11945308 , -0.05963481 , -9.810588   , -0.00276977848, 0.00143506657, 0.00126386783, 0.201968446 , -0.09586086 , 0.347714722 , 0.00595842348, -0.009450569, 0.463135242 , 4.56        , 3           , 11          , 0.00713717472, 0.007137081
-0.106119789, -0.06714111 , -9.794291   , -0.00134536275, 0.0002947781, -0.00103357143, 0.202170685 , -0.0961979255, 0.347310245 , 0.005945068 , -0.009447559, 0.463125    , 4.57        , 3           , 12          , 0.068410635 , 0
-0.109533675, -0.09288786 , -9.787845   , 0.00117140869, -0.00232835766, 0.0009474355, 0.201833621 , -0.09579345 , 0.347445071 , 0.005956694 , -0.009470898, 0.46313405  , 4.58        , 3           , 50          , 0           , 0
-0.121678971, -0.0914293155, -9.787939   , -0.00194615813, -0.0011528146, 0.00123144616, 0.202170685 , -0.0959282741, 0.3476473   , 0.00593711529, -0.009482499, 0.463146448 , 4.59        , 3           , 11          , 0.00713717472, 0.007137081
-0.1079146  , -0.0764638  , -9.806611   , -0.004146745, 0.0020019107, 0.000405045052, 0.201968446 , -0.09586086 , 0.347512484 , 0.005988798 , -0.009543217, 0.463150024 , 4.6         , 3           , 12          , 0.0695055649, 0
-0.0882375538, -0.08218264 , -9.793848   , -0.0007821457, -0.00176597224, 0.00122984173, 0.202305511 , -0.0960631  , 0.3475799   , 0.00598086  , -0.009560951, 0.463162184 , 4.61        , 3           , 50          , 0           , 0
-0.0991941  , -0.08855123 , -9.78002    , 0.00182155624, 0.00052369  , -0.00129682524, 0.202305511 , -0.0960631  , 0.3475799   , 0.005999198 , -0.009555636, 0.4631493   , 4.62        , 3           , 11          , 0.007304661 , 0.00730457669
-0.111794338, -0.08130924 , -9.772373   , 0.00125869887, 0.00335942768, 0.00274777925, 0.202035859 , -0.0959282741, 0.347310245 , 0.00601152238, -0.009522208, 0.463176966 , 4.63        , 3           , 12          , 0.0695055649, 0
-0.114422992, -0.07182636 , -9.771384   , 0.000416675146, 0.00253651361, -0.000417685631, 0.201968446 , -0.09586086 , 0.3475799   , 0.00601572543, -0.009496817, 0.4631729   , 4.64        , 3           , 50          , 0           , 0
-0.115638345, -0.07427812 , -9.794009   , -0.00302273873, 0.00112549576, 0.00097170606, 0.2022381   , -0.0959282741, 0.3476473   , 0.00598540669, -0.009485622, 0.4631827   , 4.65        , 3           , 11          , 0.007304661 , 0.00730457669
-0.120292976, -0.08871628 , -9.789701   , -0.001610993, 0.0005327703, 0.00154425378, 0.201968446 , -0.0959282741, 0.347377658 , 0.005969149 , -0.009480386, 0.463198185 , 4.66        , 3           , 12          , 0.0695055649, 0
-0.140394583, -0.0664842  , -9.78601551 , -0.000462779077, 0.00109948916, 0.0009871266, 0.201968446 , -0.0959282741, 0.347377658 , 0.005964427 , -0.009469453, 0.4632082   , 4.67        , 3           , 50          , 0           , 0
-0.113561749, -0.07055892 , -9.764135   , -0.0030345656, 0.0002631988, 0.0012453493, 0.202170685 , -0.09579345 , 0.347377658 , 0.0059339623, -0.009466894, 0.4632206   , 4.68        , 3           , 11          , 0.007304661 , 0.00730457669
-0.0925055742, -0.08781953 , -9.769561   , 0.0041424334, 0.00592254149, 0.00137165491, 0.202103272 , -0.09599569 , 0.347445071 , 0.00597525435, -0.00940775 , 0.463234663 , 4.69        , 3           , 12          , 0.0695055649, 0
-0.103552319, -0.09140708 , -9.804485   , 0.0024311184, 0.00479079736, 0.00163079624, 0.201968446 , -0.0957260355, 0.3476473   , 0.00602971436, -0.009360549, 0.463251352 , 4.7         , 3           , 50          , 0           , 0
-0.103246309, -0.08851595 , -9.780057   , 0.00268422067, 0.00107773556, -0.000138730335, 0.201968446 , -0.09586086 , 0.347310245 , 0.006056568 , -0.009349762, 0.463249922 , 4.71        , 3           , 11          , 0.00746584125, 0.0074657537
-0.13402231 , -0.0784522444, -9.810488   , 0.00036332  , -0.002345776, 0.000655972166, 0.202035859 , -0.0960631  , 0.3475799   , 0.006060142 , -0.00937326 , 0.463256359 , 4.72        , 3           , 12          , 0.07060345  , 0
-0.113782182, -0.06619686 , -9.792092   , 0.00470114639, 0.00363160158, 0.000483153242, 0.202035859 , -0.0960631  , 0.3475799   , 0.00610710541, -0.009336974, 0.463261366 , 4.73        , 3           , 50          , 0           , 0
-0.118955411, -0.0660463646, -9.760067   , 0.000422719517, 0.002812649 , 0.00073109573, 0.201901034 , -0.0959282741, 0.347512484 , 0.006111264 , -0.009308893, 0.463269    , 4.74        , 3           , 11          , 0.00746584125, 0.0074657537
-0.121634796, -0.0775625259, -9.77739    , -0.0021501747, 0.00253927871, 0.00214232155, 0.202103272 , -0.0957260355, 0.3475799   , 0.00608955976, -0.009283631, 0.463290453 , 4.75        , 3           , 12          , 0.07060345  , 0
-0.09659638 , -0.06800911 , -9.805055   , -0.00134331966, -0.00232843822, 0.000645691762, 0.202103272 , -0.0959282741, 0.3476473   , 0.006076069 , -0.009306953, 0.4632969   , 4.76        , 3           , 50          , 0           , 0
-0.114241853, -0.08000648 , -9.807613   , -0.00301255146, 0.000278350082, -0.000471682841, 0.202305511 , -0.09599569 , 0.347445071 , 0.0060459883, -0.009304142, 0.463292122 , 4.77        , 3           , 11          , 0.00746584125, 0.0074657537
-0.12177109 , -0.05081486 , -9.790181   , -0.00103440671, -4.125398E-05, 0.0009669575, 0.202305511 , -0.09599569 , 0.347445071 , 0.00603555469, -0.009304615, 0.4633019   , 4.78        , 3           , 12          , 0.07060345  , 0
-0.119405054, -0.0591161624, -9.816905   , -0.00212705135, 0.002569993 , -0.00129164627, 0.201901034 , -0.0959282741, 0.347445071 , 0.006014401 , -0.009278836, 0.463289022 , 4.79        , 3           , 50          , 0           , 0
-0.119383633, -0.08915566 , -9.791506   , -0.006747899, -0.003136376, -0.00083022617, 0.202103272 , -0.0959282741, 0.3475799   , 0.00594712375, -0.009357299, 0.463279724 , 4.8         , 3           , 11          , 0.00769238733, 0.007692305
-0.119381145, -0.0757978559, -9.775542   , -0.00216467818, -0.0008822978, -0.00162791554, 0.201901034 , -0.09586086 , 0.3475799   , 0.00592562975, -0.009366024, 0.463263273 , 4.81        , 3           , 12          , 0.07170398  , 0
-0.1347849  , -0.05597654 , -9.803008   , 0.004669566 , 0.00103392906, 0.000731732638, 0.2022381   , -0.09586086 , 0.347445071 , 0.005972257 , -0.009355731, 0.4632709   , 4.82        , 3           , 50          , 0           , 0
-0.128816754, -0.08681397 , -9.792018   , 0.0009504077, -0.0017789402, -0.001049261, 0.2022381   , -0.09586086 , 0.347445071 , 0.00598186  , -0.009373457, 0.463260174 , 4.83        , 3           , 11          , 0.00769238733, 0.007692305
-0.135923818, -0.08971887 , -9.80973148 , -0.000475380715, -0.0009226713, 0.000957840937, 0.202103272 , -0.09599569 , 0.347310245 , 0.00597701548, -0.009382741, 0.4632697   , 4.84        , 3           , 12          , 0.07170398  , 0
-0.123218283, -0.07988454 , -9.81176    , -0.000464107667, 0.0002210858, 0.00126069889, 0.202103272 , -0.09599569 , 0.347310245 , 0.00597225642, -0.009380605, 0.463282347 , 4.85        , 3           , 50          , 0           , 0
-0.0981879756, -0.07815921 , -9.782601   , -0.00245793443, -0.000326726178, 0.0006680301, 0.202103272 , -0.09586086 , 0.347445071 , 0.005947614 , -0.009383912, 0.463289022 , 4.86        , 3           , 11          , 0.00769238733, 0.007692305
-0.08897545 , -0.0919671059, -9.764156   , 0.00244988  , 0.005081952 , -0.000654365052, 0.202103272 , -0.09586086 , 0.347445071 , 0.00597217  , -0.009333053, 0.463282824 , 4.87        , 3           , 12          , 0.07170398  , 0
-0.09774166 , -0.08796209 , -9.794003   , -0.000763939752, -0.0017718405, 8.511481E-05, 0.2022381   , -0.09599569 , 0.347445071 , 0.00596452272, -0.009350777, 0.463283539 , 4.88        , 3           , 50          , 0           , 0
-0.11451418 , -0.09244224 , -9.783368   , 0.0004010388, 0.00107471389, 0.0009921958, 0.2022381   , -0.09599569 , 0.347445071 , 0.005968441 , -0.009340088, 0.463293552 , 4.89        , 3           , 11          , 0.00769238733, 0.007692305
-0.1252397  , -0.08198699 , -9.782442   , 0.00385283143, 0.00104097  , -0.0009904334, 0.2022381   , -0.0959282741, 0.3475799   , 0.006082986 , -0.009381191, 0.463283539 , 4.9         , 3           , 12          , 0.072806865 , 0
-0.127018884, -0.0752609447, -9.777413   , 0.000123750069, -0.0006562969, 0.0006792355, 0.202103272 , -0.09599569 , 0.347714722 , 0.006084161 , -0.009387795, 0.4632902   , 4.91        , 3           , 50          , 0           , 0
-0.06949114 , -0.09150089 , -9.781136   , -0.00470594829, -0.0005994947, -0.0002083842, 0.202170685 , -0.09586086 , 0.347714722 , 0.00603712164, -0.009393777, 0.463288069 , 4.92        , 3           , 11          , 0.007894764 , 0.007894679
-0.0692601055, -0.07467706 , -9.79404    , 0.00298079615, 0.0007425836, 0.001289565 , 0.202035859 , -0.0960631  , 0.3476473   , 0.00606680755, -0.00938643 , 0.463300943 , 4.93        , 3           , 12          , 0.072806865 , 0
-0.0994834155, -0.072276   , -9.783448   , 0.0015674117, 0.000204349635, -0.00101666106, 0.202035859 , -0.0960631  , 0.3476473   , 0.00608257623, -0.009384325, 0.46329093  , 4.94        , 3           , 50          , 0           , 0
-0.106164023, -0.06720886 , -9.787969   , 0.00295357732, -0.0021155295, 0.000389337831, 0.202170685 , -0.0959282741, 0.347445071 , 0.00611207774, -0.009405503, 0.463294744 , 4.95        , 3           , 11          , 0.007894764 , 0.007894679
-0.129344761, -0.04261254 , -9.791964   , 0.000718476 , 0.00191201712, 0.001292552 , 0.202035859 , -0.09579345 , 0.347445071 , 0.006119138 , -0.009386463, 0.463307619 , 4.96        , 3           , 12          , 0.072806865 , 0
-0.107557461, -0.08462273 , -9.803088   , -0.000146382139, -7.00108358E-05, -0.000458786846, 0.202035859 , -0.0957260355, 0.3476473   , 0.006117717 , -0.00938713551, 0.4633031   , 4.97        , 3           , 50          , 0           , 0
-0.136668354, -0.0928365141, -9.770929   , -0.00641670777, -0.00143421581, -0.00108967733, 0.202035859 , -0.09586086 , 0.347512484 , 0.00605365261, -0.00940141 , 0.463292122 , 4.98        , 3           , 11          , 0.007894764 , 0.007894679
-0.09445147 , -0.06507561 , -9.786029   , 0.003578557 , 0.00275053713, 0.000463714649, 0.202035859 , -0.09586086 , 0.347445071 , 0.00608939258, -0.009373932, 0.4632969   , 4.99        , 3           , 12          , 0.072806865 , 0
-0.106050842, -0.0559071749, -9.790546   , 0.00072770915, 0.00163329078, 0.000143705169, 0.202035859 , -0.09586086 , 0.347445071 , 0.006111644 , -0.009365024, 0.463298321 , 5           , 3           , 50          , 0           , 0
-0.103551015, -0.06736785 , -9.775299   , 0.002171901 , 0.004187817 , 0.00133448991, 0.201968446 , -0.09586086 , 0.347377658 , 0.00613323739, -0.009323227, 0.4633119   , 5.01        , 3           , 11          , 0.008073414 , 0.008073321
-0.114237517, -0.06531046 , -9.790279   , 0.00643630838, 0.0032949734, 0.0002030143, 0.201833621 , -0.09559121 , 0.347445071 , 0.006197579 , -0.009290293, 0.4633143   , 5.02        , 3           , 12          , 0.07391185  , 0
-0.09808019 , -0.07309763 , -9.792027   , 0.00246433751, 0.00306676561, -0.00182829483, 0.201901034 , -0.0959282741, 0.3475799   , 0.00622239  , -0.009259511, 0.463296175 , 5.03        , 3           , 50          , 0           , 0
-0.102590419, -0.0810828  , -9.800744   , 0.0007532898, 0.00336044468, -0.000689745648, 0.202305511 , -0.09579345 , 0.3475799   , 0.006229984 , -0.009225865, 0.4632895   , 5.04        , 3           , 11          , 0.008073414 , 0.008073321
-0.110802479, -0.07672577 , -9.77999    , -0.00327673112, 0.000233171319, 0.000957342039, 0.202305511 , -0.09579345 , 0.3475799   , 0.00619712844, -0.00922359247, 0.463299036 , 5.05        , 3           , 12          , 0.07391185  , 0
-0.109499   , -0.07903561 , -9.77594    , 0.00302110217, 0.00332708913, 0.000468617567, 0.201968446 , -0.09599569 , 0.347445071 , 0.00622729445, -0.009190352, 0.4633038   , 5.06        , 3           , 50          , 0           , 0
-0.107636593, -0.09409175 , -9.803198   , 0.000419904041, -0.00121681334, -0.00133056345, 0.202170685 , -0.0959282741, 0.3475799   , 0.00623161672, -0.009202436, 0.463290453 , 5.07        , 3           , 11          , 0.008073414 , 0.008073321
-0.0828382447, -0.07333254 , -9.782405   , -0.00160061009, -0.00292885816, 6.322148E-05, 0.201901034 , -0.09626534 , 0.3476473   , 0.00621560542, -0.009231728, 0.46329093  , 5.08        , 3           , 12          , 0.07391185  , 0
