Acc X       , Acc Y       , Acc Z       , Gyro X      , Gyro Y      , Gyro Z      , Magn X      , Magn Y      , Magn Z      , Euler X     , Euler Y     , Euler Z     , Time        , Status      , LowRate X   , LowRate Y   , LowRate Z    
0.1548034   , -0.04724396 , -9.798437   , 0.00362724718, 0.0006350905, -0.0005064927, 0.108332209 , 0.163543209 , 0.710058    , 0.00246342248, 0.01504989  , -0.9366884  , 0           , 3           , 11          , 0.0346410163, 0.0346410163
0.157735735 , -0.0144191114, -9.791708   , 0.00278533273, 0.002210986 , 0.0005128956, 0.108467035 , 0.163880274 , 0.709923148 , 0.00249135331, 0.0150719862, -0.9366832  , 0.01        , 3           , 12          , 0.0346410163, 0
0.1308952   , -0.03864801 , -9.781846   , 0.000226613338, 0.0020975424, 6.614219E-05, 0.108467035 , 0.163880274 , 0.709923148 , 0.0024936304, 0.0150929606, -0.936682463, 0.02        , 3           , 50          , 0           , 0
0.161000311 , -0.0283212066, -9.759768   , -0.0004714193, 0.00282761361, -0.0006431176, 0.108601861 , 0.163678035 , 0.709855735 , 0.00248882  , 0.0151212513, -0.936688662, 0.03        , 3           , 11          , 0.0346410163, 0.0346410163
0.162068352 , -0.030298071, -9.786431   , 0.00193723943, 0.00250879419, 0.000225764874, 0.108534448 , 0.163745448 , 0.709923148 , 0.00250822725, 0.0151463328, -0.9366865  , 0.04        , 3           , 12          , 0.0346410163, 0
0.136845008 , -0.025642056, -9.779834   , 0.00134774076, 0.0002296185, -0.000669542234, 0.108467035 , 0.163610622 , 0.7101254   , 0.00252160337, 0.0151486453, -0.9366932  , 0.05        , 3           , 50          , 0           , 0
0.131880745 , -0.03407422 , -9.788559   , 0.0008088375, 0.0026738802, -0.0009236581, 0.108601861 , 0.163812861 , 0.710058    , 0.002529553 , 0.0151754068, -0.936702251, 0.06        , 3           , 11          , 0.0346410163, 0.0346410163
0.152590051 , -0.0217937026, -9.772869   , 0.0006908134, 0.005106129 , -0.000316711637, 0.108601861 , 0.163610622 , 0.709990561 , 0.00253641466, 0.0152264759, -0.936705351, 0.07        , 3           , 12          , 0.0346410163, 0
0.171942785 , -0.0184130948, -9.767232   , -0.00116162328, 0.00497906236, -4.37714334E-05, 0.108601861 , 0.163610622 , 0.709990561 , 0.00252479361, 0.0152762718, -0.9367056  , 0.08        , 3           , 50          , 0           , 0
0.148180187 , -0.0278446022, -9.793757   , -0.002311066, 0.003564124 , -0.0007869027, 0.108534448 , 0.163543209 , 0.709855735 , 0.0025015634, 0.0153119322, -0.936713457, 0.09        , 3           , 11          , 0.0346410163, 0.0346410163
0.151709139 , -0.0213107672, -9.775129   , -0.0003394058, 0.00181882828, -0.000370649563, 0.108601861 , 0.163812861 , 0.710058    , 0.00269799121, 0.0152229778, -0.936713934, 0.1         , 3           , 12          , 0.0346410163, 0
0.156676888 , -0.019550262, -9.775064   , 0.00217324658, -0.00165636581, 0.0007393446, 0.108399622 , 0.163745448 , 0.7101928   , 0.00271983561, 0.0152063947, -0.9367068  , 0.11        , 3           , 50          , 0           , 0
0.164359242 , -0.0151223671, -9.773587   , -0.0007042855, -0.004916731, -4.11950641E-05, 0.108736686 , 0.163812861 , 0.709990561 , 0.002712785 , 0.0151572293, -0.936707258, 0.12        , 3           , 11          , 0.0346410163, 0.0346410163
0.135569364 , -0.0237347446, -9.788406   , -0.00195731129, -0.00289255474, -0.0005920186, 0.108736686 , 0.163812861 , 0.709990561 , 0.00269312062, 0.01512832  , -0.9367132  , 0.13        , 3           , 12          , 0.0346410163, 0
0.140565068 , -0.02460225 , -9.795597   , -0.000242710448, -0.00106504466, 0.001448538 , 0.108601861 , 0.163543209 , 0.709855735 , 0.00269091316, 0.01511763  , -0.9366987  , 0.14        , 3           , 50          , 0           , 0
0.1532305   , -0.009487683, -9.785368   , 3.3889206E-05, -0.0015016424, 0.0018732372, 0.108669274 , 0.163947687 , 0.709923148 , 0.002691535 , 0.0151025616, -0.9366801  , 0.15        , 3           , 11          , 0.0346410163, 0.0346410163
0.14339073  , -0.0190939363, -9.8068     , -0.00136093551, -0.000180951276, 2.33847913E-05, 0.108534448 , 0.163610622 , 0.709923148 , 0.00267792982, 0.015100752 , -0.93667984 , 0.16        , 3           , 12          , 0.0346410163, 0
0.120745577 , -0.02622371 , -9.796701   , -0.00220888481, -0.000447343657, -0.001273667, 0.108601861 , 0.163812861 , 0.710058    , 0.00265564932, 0.0150963124, -0.9366925  , 0.17        , 3           , 50          , 0           , 0
0.156120867 , -0.03929426 , -9.783878   , -0.00392872468, -0.0015763226, -0.00130064134, 0.108736686 , 0.163610622 , 0.709923148 , 0.00261616544, 0.0150805824, -0.9367056  , 0.18        , 3           , 11          , 0.0346410163, 0.0346410163
0.132037655 , -0.02537636 , -9.8006525  , -0.00436212867, -0.00158094626, -0.000301637454, 0.108736686 , 0.163610622 , 0.709923148 , 0.00257249759, 0.0150647787, -0.9367087  , 0.19        , 3           , 12          , 0.0346410163, 0
0.124956667 , -0.00687488727, -9.795987   , -0.000788145931, -0.000508643861, -0.0009788157, 0.108736686 , 0.163745448 , 0.709990561 , 0.00257283472, 0.014264659 , -0.9367182  , 0.2         , 3           , 50          , 0           , 0
0.1306404   , -0.0178685617, -9.784769   , 0.0006732443, 0.0026331183, -0.00135358586, 0.108467035 , 0.163678035 , 0.710058    , 0.0025793747, 0.0142910257, -0.9367316  , 0.21        , 3           , 11          , 0.02232541  , 0.02232544
0.120090052 , -0.040333353, -9.784224   , -0.0003185866, 0.00321255066, -0.000921989558, 0.108669274 , 0.163812861 , 0.710058    , 0.00257605966, 0.014323175 , -0.9367409  , 0.22        , 3           , 12          , 0.0346698426, 0
0.148610637 , -0.0238726251, -9.786029   , 8.387724E-05, 0.0007774123, -0.00152722246, 0.108534448 , 0.163745448 , 0.709923148 , 0.00257668016, 0.0143309878, -0.936756134, 0.23        , 3           , 50          , 0           , 0
0.146388292 , -0.00733886845, -9.770049   , 0.00092123996, 4.205758E-05, -0.0003878601, 0.108534448 , 0.163745448 , 0.709923148 , 0.00258583645, 0.014331419 , -0.936759949, 0.24        , 3           , 11          , 0.02232541  , 0.02232544
0.1355171   , -0.0273758546, -9.785287   , 0.00138323638, 0.00318881427, -0.000196299254, 0.108669274 , 0.163678035 , 0.709923148 , 0.002599642 , 0.0143633112, -0.936761856, 0.25        , 3           , 12          , 0.0346698426, 0
0.148575008 , -0.0314944834, -9.790181   , 0.00311999721, 0.00504575949, -0.001446629, 0.108601861 , 0.163812861 , 0.709855735 , 0.00263063656, 0.0144138075, -0.936776161, 0.26        , 3           , 50          , 0           , 0
0.143615067 , -0.0252306145, -9.781573   , 0.00123415072, 0.00177016109, -0.00164884352, 0.108669274 , 0.163812861 , 0.710058    , 0.002642741 , 0.0144315548, -0.9367926  , 0.27        , 3           , 11          , 0.02232541  , 0.02232544
0.143936411 , -0.0503594354, -9.793604   , 6.930436E-05, -0.000652923831, -0.001834254, 0.108736686 , 0.163880274 , 0.7097883   , 0.00264316914, 0.01442507  , -0.936811   , 0.28        , 3           , 12          , 0.0346698426, 0
0.15022257  , -0.0468796566, -9.786731   , 0.00318741333, -0.00112225686, -0.0009631752, 0.108736686 , 0.163880274 , 0.7097883   , 0.00267490442, 0.0144138746, -0.9368205  , 0.29        , 3           , 50          , 0           , 0
0.1556866   , -0.01834455 , -9.760605   , 0.00324037438, 0.00103955134, -0.0009314914, 0.108467035 , 0.163745448 , 0.710058    , 0.00292224344, 0.0145193059, -0.9368267  , 0.3         , 3           , 11          , 0.0158621129, 0.0158620961
0.129877374 , -0.0118634645, -9.797355   , -0.000731331238, 0.00165828341, -0.00151945977, 0.108601861 , 0.163745448 , 0.710058    , 0.0029147102, 0.0145359356, -0.936841965, 0.31        , 3           , 12          , 0.0347559527, 0
0.143238515 , -0.008198731, -9.771442   , -0.00247909967, -0.0004954784, 0.0008713523, 0.108601861 , 0.163880274 , 0.7101254   , 0.00289004575, 0.014530954 , -0.936833143, 0.32        , 3           , 50          , 0           , 0
0.146228939 , -0.0178210028, -9.759782   , -0.000903948967, -7.382399E-05, 2.85442184E-05, 0.108601861 , 0.163745448 , 0.710058    , 0.00288101146, 0.0145302145, -0.936833143, 0.33        , 3           , 11          , 0.0158621129, 0.0158620961
0.11954347  , -0.034690246, -9.763384   , 0.00136828248, -0.00137119007, -0.00169351371, 0.108669274 , 0.163610622 , 0.709990561 , 0.00289444765, 0.014516552 , -0.936849833, 0.34        , 3           , 12          , 0.0347559527, 0
0.118896946 , -0.0334031731, -9.798608   , 0.00134352082, -0.00253286376, 6.7763267E-06, 0.108669274 , 0.163610622 , 0.709990561 , 0.00290788244, 0.0144912237, -0.9368501  , 0.35        , 3           , 50          , 0           , 0
0.15006955  , -0.0139257535, -9.789515   , 0.00380581059, 0.00131139345, 7.76829E-05 , 0.108669274 , 0.163745448 , 0.710058    , 0.002945951 , 0.014504334 , -0.9368491  , 0.36        , 3           , 11          , 0.0158621129, 0.0158620961
0.144321412 , -0.003921002, -9.792613   , 0.00554133067, 0.0033077884, -0.000741314, 0.108736686 , 0.163678035 , 0.7101254   , 0.00300125824, 0.014537435 , -0.9368565  , 0.37        , 3           , 12          , 0.0347559527, 0
0.149644732 , -0.00453507341, -9.781731   , 0.0029527673, 0.00117933168, -0.000215708, 0.108736686 , 0.163812861 , 0.7101254   , 0.003030755 , 0.014549234 , -0.936858654, 0.38        , 3           , 50          , 0           , 0
0.14506     , -0.0139697324, -9.78143    , 0.00137060718, -9.822077E-05, 0.0001853334, 0.108669274 , 0.163610622 , 0.710058    , 0.00304448861, 0.0145482505, -0.936856747, 0.39        , 3           , 11          , 0.0158621129, 0.0158620961
0.142885283 , -0.0271869618, -9.808704   , 0.00105579221, -0.000807934, 0.0001728517, 0.108669274 , 0.163610622 , 0.710058    , 0.00294884853, 0.0145586189, -0.936856747, 0.4         , 3           , 12          , 0.034898486 , 0
0.126734883 , -0.01894406 , -9.807403   , -0.000949174049, -0.00207603327, -1.00496891E-06, 0.108871512 , 0.163812861 , 0.709990561 , 0.00293935672, 0.0145378588, -0.936856747, 0.41        , 3           , 50          , 0           , 0
0.1157041   , -0.0196395963, -9.775893   , -0.002684827, -0.00449589826, 9.632163E-05, 0.108736686 , 0.163745448 , 0.709990561 , 0.002912521 , 0.0144928964, -0.9368558  , 0.42        , 3           , 11          , 0.0151770413, 0.015177031
0.143073648 , -0.034269   , -9.779425   , -0.00167636445, -0.00321896514, 0.0004072634, 0.108669274 , 0.163745448 , 0.7102602   , 0.00289581344, 0.0144606959, -0.936852   , 0.43        , 3           , 12          , 0.034898486 , 0
0.149370372 , -0.0392306075, -9.784392   , -0.0006188113, 0.00207391568, 0.000347388646, 0.108534448 , 0.163745448 , 0.709990561 , 0.00288967625, 0.0144814244, -0.9368484  , 0.44        , 3           , 50          , 0           , 0
0.152193427 , -0.04485462 , -9.808822   , 0.00166138168, 0.00262139738, 0.000655607 , 0.108467035 , 0.163880274 , 0.709855735 , 0.00290638767, 0.01450762  , -0.9368417  , 0.45        , 3           , 11          , 0.0151770413, 0.015177031
0.138150245 , -0.0381872542, -9.788549   , 0.00278580887, 0.00104005227, -7.59039249E-05, 0.108467035 , 0.163880274 , 0.709855735 , 0.00293423515, 0.0145180225, -0.936842442, 0.46        , 3           , 12          , 0.034898486 , 0
0.1533352   , -0.0362837538, -9.768062   , 0.00277646282, -0.000101145321, -0.0006649261, 0.108399622 , 0.163812861 , 0.709990561 , 0.00296190288, 0.01451703  , -0.9368491  , 0.47        , 3           , 50          , 0           , 0
0.142871752 , -0.009402359, -9.785011   , 0.00260165264, -0.00268275221, -0.000274098624, 0.108467035 , 0.163812861 , 0.709990561 , 0.00298787816, 0.0144902114, -0.936852   , 0.48        , 3           , 11          , 0.0151770413, 0.015177031
0.142361984 , -0.006818818, -9.773242   , 0.00246314215, -0.00211198837, 0.000162637763, 0.1088041   , 0.163678035 , 0.710058    , 0.0030125326, 0.0144690862, -0.9368503  , 0.49        , 3           , 12          , 0.034898486 , 0
0.144090608 , -0.0136222765, -9.771046   , 0.00261886674, 0.00104780612, -0.0006495088, 0.108736686 , 0.163678035 , 0.709855735 , 0.00293674949, 0.01448383  , -0.9368584  , 0.5         , 3           , 50          , 0           , 0
0.1581179   , -0.01808834 , -9.786325   , 0.00135291764, 0.001784936 , -0.00150527747, 0.108736686 , 0.163678035 , 0.709855735 , 0.00295006158, 0.0145017225, -0.936873436, 0.51        , 3           , 11          , 0.0149235586, 0.0149235511
0.156403273 , -0.00102533028, -9.778015   , 0.000303603039, -0.00180382631, 0.0002966227, 0.108601861 , 0.163812861 , 0.709990561 , 0.0029531396, 0.0144836754, -0.9368706  , 0.52        , 3           , 12          , 0.03509634  , 0
0.143392831 , -0.0106331967, -9.796764   , 0.000306216476, -0.0016592571, 0.000155627553, 0.108601861 , 0.163947687 , 0.709990561 , 0.00295622367, 0.0144670783, -0.9368689  , 0.53        , 3           , 50          , 0           , 0
0.1441353   , -0.0224565119, -9.788311   , 0.00121110713, 0.00206912076, -0.00107271434, 0.108601861 , 0.163812861 , 0.709923148 , 0.00296818046, 0.0144877993, -0.936879635, 0.54        , 3           , 11          , 0.0149235586, 0.0149235511
0.164347053 , -0.0240436941, -9.782724   , 0.00180651934, 0.004779444 , -0.000314229052, 0.108669274 , 0.163745448 , 0.709923148 , 0.00298620178, 0.0145356022, -0.9368825  , 0.55        , 3           , 12          , 0.03509634  , 0
0.148892224 , -0.0250251275, -9.763003   , 0.00148288917, 0.00162612414, 6.739472E-05, 0.108669274 , 0.163745448 , 0.709923148 , 0.00300104124, 0.014551864 , -0.9368818  , 0.56        , 3           , 50          , 0           , 0
0.169764817 , -0.017836133, -9.777182   , 0.0007173399, -0.00309520774, -5.752071E-06, 0.108601861 , 0.163745448 , 0.709855735 , 0.00300821266, 0.0145209078, -0.936882   , 0.57        , 3           , 11          , 0.0149235586, 0.0149235511
0.15469563  , 0.002694359 , -9.787022   , 0.00146557065, -0.0003722513, -0.000820312, 0.108399622 , 0.163947687 , 0.709990561 , 0.00302274828, 0.0145172123, -0.936890364, 0.58        , 3           , 12          , 0.03509634  , 0
0.14231427  , -0.025587501, -9.78926849 , 0.0005061977, 0.00236676331, -0.00150207034, 0.108467035 , 0.163812861 , 0.710058    , 0.00302759372, 0.0145409238, -0.936905146, 0.59        , 3           , 50          , 0           , 0
0.157150015 , -0.009726191, -9.766365   , -0.00265378412, 0.001391513 , -0.00110652181, 0.108601861 , 0.163745448 , 0.709923148 , 0.00295223878, 0.0145543758, -0.936917067, 0.6         , 3           , 11          , 0.01495554  , 0.0149555365
0.163016275 , -0.0186597854, -9.779061   , -0.00238969782, -4.93914849E-05, -0.0005533482, 0.108669274 , 0.163543209 , 0.709923148 , 0.00292826188, 0.0145538989, -0.93692255 , 0.61        , 3           , 12          , 0.03534817  , 0
0.158042878 , -0.0337829366, -9.794638   , -0.00112154521, -0.0009246917, -0.0002719945, 0.108669274 , 0.163543209 , 0.709923148 , 0.002917006 , 0.0145446621, -0.9369252  , 0.62        , 3           , 50          , 0           , 0
0.152783319 , -0.007253431, -9.783088   , 0.0009171074, 0.00335120875, 8.87663045E-05, 0.108534448 , 0.163947687 , 0.709923148 , 0.00292619155, 0.0145781683, -0.936924458, 0.63        , 3           , 11          , 0.01495554  , 0.0149555365
0.131559461 , -0.02274443 , -9.7934     , 0.00224343129, 0.0067861136, -0.0008550149, 0.108601861 , 0.163947687 , 0.709990561 , 0.00294850441, 0.0146460552, -0.9369328  , 0.64        , 3           , 12          , 0.03534817  , 0
0.116045021 , -0.0442933142, -9.790176   , -0.000217894471, 0.0029431365, -0.0010690036, 0.108601861 , 0.163745448 , 0.710058    , 0.00294617121, 0.0146755176, -0.9369433  , 0.65        , 3           , 50          , 0           , 0
0.1371941   , -0.03737437 , -9.779514   , -0.00208738516, 0.00166463433, -0.000240429566, 0.108601861 , 0.163678035 , 0.709923148 , 0.00292526116, 0.0146921705, -0.9369457  , 0.66        , 3           , 11          , 0.01495554  , 0.0149555365
0.130905539 , -0.03106488 , -9.774078   , -0.001933748, 0.00224274653, -0.000946635846, 0.108601861 , 0.163678035 , 0.709923148 , 0.002905785 , 0.0147146247, -0.936955   , 0.67        , 3           , 12          , 0.03534817  , 0
0.158032462 , -0.0275670271, -9.785533   , -0.00152234756, 0.0006660661, -0.00139626616, 0.108399622 , 0.163745448 , 0.709855735 , 0.00289035682, 0.0147213256, -0.936969042, 0.68        , 3           , 50          , 0           , 0
0.165789559 , -0.0145670958, -9.784409   , -0.000700654229, -0.00192437461, -0.00114252372, 0.108399622 , 0.163812861 , 0.709990561 , 0.00288318144, 0.0147021143, -0.9369805  , 0.69        , 3           , 11          , 0.01495554  , 0.0149555365
0.156143278 , -0.020564286, -9.764239   , 0.0015301659, -0.00202157558, -0.00113173283, 0.108332209 , 0.163812861 , 0.709990561 , 0.0027908   , 0.014854691 , -0.936993361, 0.7         , 3           , 12          , 0.0356524177, 0
0.1374711   , -0.0169190969, -9.794634   , 0.00367405242, -0.0010415006, -0.000961193058, 0.108669274 , 0.163745448 , 0.709923148 , 0.00282739731, 0.0148443012, -0.9370029  , 0.71        , 3           , 50          , 0           , 0
0.148481458 , -0.0307474956, -9.775721   , 0.00338314543, -0.00118829927, -0.0002495832, 0.108601861 , 0.163812861 , 0.709990561 , 0.002861191 , 0.0148324259, -0.9370053  , 0.72        , 3           , 11          , 0.0144973863, 0.0144973854
0.128737569 , -0.02780184 , -9.782191   , 0.00269156788, 0.000679129735, 5.942534E-05, 0.108601861 , 0.163812861 , 0.709990561 , 0.00288811652, 0.0148392143, -0.9370048  , 0.73        , 3           , 12          , 0.0356524177, 0
0.137236387 , -0.0364193246, -9.78447151 , 0.00157072884, 0.001418654 , -0.00122473238, 0.108467035 , 0.163812861 , 0.710058    , 0.00290364353, 0.0148534365, -0.9370172  , 0.74        , 3           , 50          , 0           , 0
0.14574872  , -0.03744886 , -9.779436   , 0.002987702 , 0.00111506728, -0.0009341749, 0.108601861 , 0.163745448 , 0.7101254   , 0.00293338066, 0.0148646142, -0.937026262, 0.75        , 3           , 11          , 0.0144973863, 0.0144973854
0.134473532 , -0.0467279255, -9.788229   , 0.00142987038, 0.0026917886, 0.000796339766, 0.108467035 , 0.163947687 , 0.710058    , 0.002947799 , 0.0148915071, -0.9370184  , 0.76        , 3           , 12          , 0.0356524177, 0
0.132800266 , -0.04785207 , -9.808132   , -0.001420166, 0.002148806 , 0.0006277767, 0.108601861 , 0.163812861 , 0.709990561 , 0.002933693 , 0.0149129778, -0.937011957, 0.77        , 3           , 50          , 0           , 0
0.156732649 , -0.0225807969, -9.786842   , 0.0008396848, 0.0002706031, -0.000244136056, 0.108601861 , 0.163812861 , 0.709990561 , 0.0029420522, 0.01491569  , -0.937014341, 0.78        , 3           , 11          , 0.0144973863, 0.0144973854
0.179652348 , -0.0148337865, -9.770733   , 0.003400741 , 0.0006693462, 0.0003498728, 0.108736686 , 0.163812861 , 0.710058    , 0.00297611253, 0.0149223739, -0.937010765, 0.79        , 3           , 12          , 0.0356524177, 0
0.14908509  , -0.0153819248, -9.779151   , 0.00110576511, 0.00132753607, 0.000343950844, 0.108467035 , 0.163880274 , 0.709923148 , 0.00292898458, 0.0150739476, -0.937008142, 0.8         , 3           , 50          , 0           , 0
0.110805526 , -0.0146171479, -9.777688   , -0.00115874712, 0.00164747017, -0.0008102388, 0.108399622 , 0.163812861 , 0.7101254   , 0.002917275 , 0.015090446 , -0.937016249, 0.81        , 3           , 11          , 0.0144587476, 0.014458742
0.150820568 , -0.0195041429, -9.774666   , -0.000579280662, 0.00264343852, -0.000649122638, 0.108601861 , 0.163745448 , 0.709990561 , 0.00291138585, 0.0151169021, -0.9370227  , 0.82        , 3           , 12          , 0.03600735  , 0
0.16122736  , -0.04444339 , -9.812349   , -0.00331790443, 8.27190452E-05, 0.0002986123, 0.108601861 , 0.163745448 , 0.709990561 , 0.00287825172, 0.01511772  , -0.9370196  , 0.83        , 3           , 50          , 0           , 0
0.1566652   , -0.0258000363, -9.781008   , -0.005295641, 0.0006850628, -0.000706608465, 0.108601861 , 0.163880274 , 0.709855735 , 0.00282518938, 0.0151245883, -0.937026739, 0.84        , 3           , 11          , 0.0144587476, 0.014458742
0.143757656 , -0.008542255, -9.781832   , -0.00299357646, 0.00239037885, -0.00166943413, 0.108399622 , 0.163880274 , 0.7101254   , 0.00279500056, 0.0151485391, -0.9370434  , 0.85        , 3           , 12          , 0.03600735  , 0
0.128126159 , -0.0396182276, -9.773299   , -0.0017325771, 0.00122338079, -0.000819926, 0.108467035 , 0.163880274 , 0.7101928   , 0.0027775506, 0.0151607972, -0.937051535, 0.86        , 3           , 50          , 0           , 0
0.125550613 , -0.0304991975, -9.780446   , -0.000748864, 0.0003509701, -0.0005402856, 0.108467035 , 0.163745448 , 0.7101254   , 0.002769981 , 0.0151643213, -0.937057   , 0.87        , 3           , 11          , 0.0144587476, 0.014458742
0.138670743 , -0.0282905921, -9.786623   , 0.00052863505, 0.000616867444, 0.000330090144, 0.108467035 , 0.163812861 , 0.709923148 , 0.00277531636, 0.0151704792, -0.937053442, 0.88        , 3           , 12          , 0.03600735  , 0
0.159720153 , -0.0366588943, -9.780202   , -0.0001585341, 0.00220795558, -0.0005097309, 0.108467035 , 0.163812861 , 0.709923148 , 0.002773655 , 0.0151925739, -0.9370587  , 0.89        , 3           , 50          , 0           , 0
0.141116381 , -0.0425051  , -9.766891   , -0.0009841427, 0.00168426812, -0.001238291, 0.108601861 , 0.163812861 , 0.709990561 , 0.00282480125, 0.015280812 , -0.937070131, 0.9         , 3           , 11          , 0.0147843827, 0.0147843789
0.164634421 , -0.03943165 , -9.77793    , -0.00012931721, 0.002383089 , -0.000221143113, 0.108399622 , 0.163880274 , 0.7101928   , 0.002823475 , 0.0153046492, -0.937072039, 0.91        , 3           , 12          , 0.0364110842, 0
0.15092136  , -0.001099268, -9.766774   , -0.00171450048, 0.0006782271, -0.000112525981, 0.108534448 , 0.163745448 , 0.710058    , 0.002806314 , 0.015311433 , -0.937073231, 0.92        , 3           , 50          , 0           , 0
0.1293309   , -0.0518722  , -9.767106   , -0.003897577, -0.00345805823, 0.00010027134, 0.108601861 , 0.163745448 , 0.7101254   , 0.002767353 , 0.0152768474, -0.9370723  , 0.93        , 3           , 11          , 0.0147843827, 0.0147843789
0.142542854 , -0.0286016949, -9.760844   , -0.00118618342, -0.002767782, -1.60995914E-05, 0.108601861 , 0.163745448 , 0.7101254   , 0.00275548641, 0.015249175 , -0.9370725  , 0.94        , 3           , 12          , 0.0364110842, 0
0.162654757 , -0.0113978256, -9.783045   , 0.00128531957, 0.00179420249, -7.78412E-05, 0.108601861 , 0.163812861 , 0.709990561 , 0.00276832841, 0.0152671179, -0.937073231, 0.95        , 3           , 50          , 0           , 0
0.16941759  , -0.03013821 , -9.807138   , -0.000281990477, 0.00180625613, 0.000341981126, 0.108332209 , 0.163880274 , 0.709990561 , 0.00276556215, 0.0152851716, -0.9370699  , 0.96        , 3           , 11          , 0.0147843827, 0.0147843789
0.150424585 , -0.03054543 , -9.796026   , -0.001570907, 0.000960801844, 0.000178668241, 0.108197384 , 0.163812861 , 0.7101254   , 0.00274988124, 0.0152947726, -0.937068   , 0.97        , 3           , 12          , 0.0364110842, 0
0.147909835 , -0.0115403328, -9.799895   , 0.000286346854, 0.00109426724, -0.000809681835, 0.108601861 , 0.163947687 , 0.710058    , 0.00275262026, 0.0153057389, -0.9370761  , 0.98        , 3           , 50          , 0           , 0
0.157694608 , -0.02605556 , -9.799973   , 0.000424712925, 0.00108770328, -0.0002364971, 0.108399622 , 0.163678035 , 0.709923148 , 0.00275683147, 0.0153166214, -0.9370785  , 0.99        , 3           , 11          , 0.0147843827, 0.0147843789
0.150035366 , -0.025106458, -9.798225   , -0.000148656371, 0.00280393614, 0.000497773639, 0.108399622 , 0.163678035 , 0.709923148 , 0.00272019953, 0.0156223113, -0.937073946, 1           , 3           , 12          , 0.036861632 , 0
0.151431367 , -0.008133806, -9.784014   , 0.00198327075, 0.0024982444, 0.000220286674, 0.108332209 , 0.163812861 , 0.710058    , 0.002740068 , 0.0156472884, -0.937071562, 1.01        , 3           , 50          , 0           , 0
0.118534029 , -0.0110088009, -9.783899   , 0.00126213778, 0.001222261 , -0.0005181877, 0.108399622 , 0.163880274 , 0.710058    , 0.00275260746, 0.01565953  , -0.9370768  , 1.02        , 3           , 11          , 0.0149974339, 0.0149974292
0.117365293 , -0.02966229 , -9.767863   , -0.000445875252, 0.000955579162, -0.000818805536, 0.108601861 , 0.163745448 , 0.7101254   , 0.00274802046, 0.0156691056, -0.9370849  , 1.03        , 3           , 12          , 0.036861632 , 0
0.1462892   , -0.0221800525, -9.773834   , -0.000145898535, 0.00238430547, -0.00065314275, 0.108601861 , 0.163812861 , 0.709990561 , 0.0027464598, 0.0156929679, -0.9370916  , 1.04        , 3           , 50          , 0           , 0
0.159086511 , -0.00285732374, -9.777559   , 0.000113381888, -5.06674041E-05, -0.00111615041, 0.108601861 , 0.163812861 , 0.709990561 , 0.00274741813, 0.01569249  , -0.937102556, 1.05        , 3           , 11          , 0.0149974339, 0.0149974292
0.139845237 , -0.041926302, -9.777736   , 0.0010980583, -0.000921798346, -0.000979592, 0.108399622 , 0.163812861 , 0.710058    , 0.00275824475, 0.0156832971, -0.93711257 , 1.06        , 3           , 12          , 0.036861632 , 0
0.149948955 , -0.0283547342, -9.789681   , 0.000830937468, 0.00107946666, -9.35986E-05, 0.108534448 , 0.163812861 , 0.7103276   , 0.00276653864, 0.0156940985, -0.9371135  , 1.07        , 3           , 50          , 0           , 0
0.151462838 , -0.005859919, -9.785795   , -0.0004644464, 8.432385E-05, 0.00045641177, 0.108669274 , 0.163880274 , 0.710058    , 0.00276196585, 0.0156949274, -0.937108755, 1.08        , 3           , 11          , 0.0149974339, 0.0149974292
0.143291071 , -0.0228076428, -9.79690552 , 0.00111482339, 0.00135803723, 0.00048461635, 0.108736686 , 0.163678035 , 0.7102602   , 0.002773191 , 0.0157084931, -0.937104   , 1.09        , 3           , 12          , 0.036861632 , 0
0.1542931   , -0.0473319665, -9.789862   , 0.00328930514, 0.00150793674, 0.0006468213, 0.108736686 , 0.163678035 , 0.7102602   , 0.0026121682, 0.015251358 , -0.9371004  , 1.1         , 3           , 50          , 0           , 0
0.160388023 , -0.04770622 , -9.759996   , 0.00170921616, -0.000331256277, -0.000248222379, 0.108534448 , 0.163812861 , 0.709923148 , 0.00262922235, 0.0152480528, -0.937103033, 1.11        , 3           , 11          , 0.0126211848, 0.0126211839
0.147648364 , -0.03909397 , -9.795698   , 0.00300294976, 0.000520596863, -0.00080031954, 0.108669274 , 0.163947687 , 0.709855735 , 0.00265912968, 0.0152532784, -0.9371109  , 1.12        , 3           , 12          , 0.0373569131, 0
0.127129242 , -0.0136919422, -9.792885   , 0.0035748526, 0.000942126731, -0.000504468451, 0.108736686 , 0.163880274 , 0.7101928   , 0.002694801 , 0.0152627137, -0.9371159  , 1.13        , 3           , 50          , 0           , 0
0.1410428   , -0.018332215, -9.791906   , 0.00276113232, 0.004389745 , -0.0004595262, 0.108534448 , 0.163812861 , 0.710058    , 0.002722344 , 0.0153066209, -0.9371202  , 1.14        , 3           , 11          , 0.0126211848, 0.0126211839
0.135997608 , -0.0259980243, -9.787976   , 0.00306179537, 0.005960482 , -0.000148694366, 0.1088041   , 0.163880274 , 0.7101254   , 0.0027529404, 0.0153662292, -0.9371216  , 1.15        , 3           , 12          , 0.0373569131, 0
0.141810432 , -0.02789133 , -9.78433    , 0.0004542512, 0.0026780304, 0.00121870951, 0.1088041   , 0.163880274 , 0.7101254   , 0.002757673 , 0.0153929768, -0.937109232, 1.16        , 3           , 50          , 0           , 0
0.168280035 , -0.0282677878, -9.770541   , 0.0002892083, 0.000532691134, 0.00090038724, 0.108467035 , 0.163880274 , 0.710058    , 0.00276070414, 0.015398277 , -0.9371004  , 1.17        , 3           , 11          , 0.0126211848, 0.0126211839
0.144133478 , -0.0237947013, -9.789682   , 1.50895175E-05, 0.0006903882, -0.0003869774, 0.108534448 , 0.163880274 , 0.709923148 , 0.002760796 , 0.0154051911, -0.9371042  , 1.18        , 3           , 12          , 0.0373569131, 0
0.14099744  , -0.0215175822, -9.789233   , -0.0032453842, 0.00172536622, -0.0002489921, 0.108534448 , 0.163812861 , 0.7101254   , 0.00272830413, 0.0154224513, -0.9371066  , 1.19        , 3           , 50          , 0           , 0
0.150401682 , -0.0150008388, -9.773714   , -0.00171793625, 0.000238337918, 2.555006E-05, 0.108669274 , 0.163812861 , 0.7101928   , 0.00268007535, 0.0153650865, -0.937106848, 1.2         , 3           , 11          , 0.009995576 , 0.009995555
0.153662786 , -0.0041775126, -9.776269   , 0.000535170664, -0.00164882338, 0.000155211266, 0.108669274 , 0.163812861 , 0.7101928   , 0.00268545  , 0.0153485946, -0.9371054  , 1.21        , 3           , 12          , 0.0378947966, 0
0.145884275 , -0.0189907514, -9.776512   , 0.001657804 , -0.002809258, 0.000431534747, 0.108534448 , 0.163745448 , 0.710058    , 0.00270209275, 0.0153204892, -0.9371011  , 1.22        , 3           , 50          , 0           , 0
0.151108608 , -0.04824505 , -9.786287   , 0.00224552024, -0.00109684211, 0.000603084743, 0.108534448 , 0.1640151   , 0.7102602   , 0.00272464077, 0.0153095042, -0.9370949  , 1.23        , 3           , 11          , 0.009995576 , 0.009995555
0.159303591 , -0.02814583 , -9.774688   , 0.000840241264, -0.0003544282, -0.000682786456, 0.108736686 , 0.163812861 , 0.7101254   , 0.00273293746, 0.0153059792, -0.937101841, 1.24        , 3           , 12          , 0.0378947966, 0
0.128456444 , 0.00139482319, -9.771017   , 0.000126118364, -0.000774513348, -0.0009794943, 0.108534448 , 0.163745448 , 0.7101928   , 0.00273404829, 0.0152982594, -0.9371116  , 1.25        , 3           , 50          , 0           , 0
0.150890231 , -0.0100496355, -9.773201   , -0.001294564, -0.00104024552, -0.00170764478, 0.108534448 , 0.163745448 , 0.7101928   , 0.00272084121, 0.0152879031, -0.9371288  , 1.26        , 3           , 11          , 0.009995576 , 0.009995555
0.138745591 , -0.0335175842, -9.803846   , -0.000135354276, 0.0008109604, -0.00167366315, 0.108467035 , 0.163745448 , 0.710058    , 0.002719231 , 0.0152960578, -0.9371455  , 1.27        , 3           , 12          , 0.0378947966, 0
0.132163331 , -0.0118298326, -9.802302   , 0.00345052  , 0.00448373239, 0.000262076181, 0.108467035 , 0.163610622 , 0.7101928   , 0.00275377743, 0.015340887 , -0.9371426  , 1.28        , 3           , 50          , 0           , 0
0.146962    , -3.152713E-05, -9.778993   , 0.00274038361, 0.004492236 , 0.000114710667, 0.108399622 , 0.163947687 , 0.7102602   , 0.002781201 , 0.0153858066, -0.9371414  , 1.29        , 3           , 11          , 0.009995576 , 0.009995555
0.153653949 , -0.0291185454, -9.805467   , -0.00190163485, 0.00109404686, -0.000106643267, 0.108669274 , 0.163812861 , 0.7101928   , 0.002679403 , 0.0153860673, -0.9371438  , 1.3         , 3           , 12          , 0.038473133 , 0
0.136958241 , -0.0281394254, -9.799284   , -0.0019144254, 0.000230470192, 0.000310082163, 0.108601861 , 0.163745448 , 0.7102602   , 0.00266030664, 0.015388363 , -0.937140465, 1.31        , 3           , 50          , 0           , 0
0.149828672 , -0.0240876079, -9.767049   , 0.000232628634, 0.00107365451, -0.000236874854, 0.108601861 , 0.163745448 , 0.7102602   , 0.002662596 , 0.0153991049, -0.9371431  , 1.32        , 3           , 11          , 0.0102711311, 0.0102711115
0.14928183  , -0.02556706 , -9.754874   , -0.000608310744, 0.00166316028, -0.00109216 , 0.1082648   , 0.163880274 , 0.710058    , 0.00265634526, 0.0154157663, -0.9371538  , 1.33        , 3           , 12          , 0.038473133 , 0
0.147507578 , -0.0290715341, -9.76306248 , -0.00104088418, 0.0012363462, -0.0009579084, 0.108332209 , 0.163745448 , 0.7101928   , 0.00264578871, 0.0154281538, -0.937163353, 1.34        , 3           , 50          , 0           , 0
0.127507269 , -0.02270914 , -9.793437   , -0.00134526833, 8.39609638E-05, 2.52581685E-05, 0.108669274 , 0.163812861 , 0.7102602   , 0.002632341 , 0.0154289929, -0.9371631  , 1.35        , 3           , 11          , 0.0102711311, 0.0102711115
0.152618885 , -0.0168530941, -9.771006   , -0.00105615542, 0.0006516701, 0.0003214827, 0.108669274 , 0.163745448 , 0.710058    , 0.00262182928, 0.0154355019, -0.9371598  , 1.36        , 3           , 12          , 0.038473133 , 0
0.1731303   , -0.009078622, -9.797377   , -0.00277516455, -0.000899499, -0.0005702442, 0.108669274 , 0.163745448 , 0.710058    , 0.00259398855, 0.0154265249, -0.937165737, 1.37        , 3           , 50          , 0           , 0
0.136731163 , -0.00553700142, -9.803994   , -0.00292604417, -0.001897242, -0.00101495429, 0.108467035 , 0.163678035 , 0.7101928   , 0.00256457017, 0.0154075753, -0.937176   , 1.38        , 3           , 11          , 0.0102711311, 0.0102711115
0.121232517 , -0.027061699, -9.80303    , -0.000477508, 0.00108215841, -0.000384240324, 0.108601861 , 0.163812861 , 0.7101254   , 0.0025597366, 0.01541841  , -0.9371798  , 1.39        , 3           , 12          , 0.038473133 , 0
0.14772284  , -0.0122718867, -9.773707   , 0.00209814287, 0.000817091146, -0.000367921835, 0.108467035 , 0.163947687 , 0.7103276   , 0.0026048806, 0.015058442 , -0.937183142, 1.4         , 3           , 50          , 0           , 0
0.164859027 , -0.0203919932, -9.787194   , 0.00380795  , 0.0006628627, -0.00107513834, 0.108669274 , 0.163678035 , 0.7101254   , 0.002642798 , 0.0150651   , -0.937193632, 1.41        , 3           , 11          , 0.0107626421, 0.0107626254
0.164551109 , -0.0108222831, -9.796121   , -0.000605819456, 0.00027778314, -0.00110795617, 0.108601861 , 0.163745448 , 0.7101254   , 0.00263657258, 0.0150679061, -0.937204838, 1.42        , 3           , 12          , 0.03908976  , 0
0.1338683   , -0.0128828147, -9.789651   , -0.00292232423, -0.00243439944, 0.000269508164, 0.108601861 , 0.163745448 , 0.7101254   , 0.00260738865, 0.0150435558, -0.9372022  , 1.43        , 3           , 50          , 0           , 0
0.108965196 , -0.0364732631, -9.798735   , -0.0003296414, 0.0005461157, 0.000614914752, 0.108467035 , 0.163678035 , 0.7101928   , 0.00260418421, 0.0150489993, -0.937196   , 1.44        , 3           , 11          , 0.0107626421, 0.0107626254
0.122143485 , -0.0217118952, -9.797991   , 0.0009518561, 0.000252931932, -9.695848E-05, 0.108467035 , 0.163745448 , 0.7102602   , 0.002613689 , 0.0150515325, -0.93719697 , 1.45        , 3           , 12          , 0.03908976  , 0
0.1370373   , -0.00487137027, -9.782303   , 0.00379542541, 0.000646226166, 0.0007849278, 0.108669274 , 0.163812861 , 0.709990561 , 0.00265176268, 0.0150579754, -0.9371891  , 1.46        , 3           , 50          , 0           , 0
0.1417369   , -0.03557123 , -9.783066   , 0.0043876823, 0.00250577112, 0.0005293185, 0.108669274 , 0.163678035 , 0.7101928   , 0.00269572  , 0.0150830187, -0.9371836  , 1.47        , 3           , 11          , 0.0107626421, 0.0107626254
0.138906017 , -0.03797161 , -9.76731    , 0.00195234607, 0.000672686845, -8.47012852E-05, 0.108669274 , 0.163678035 , 0.7101928   , 0.00271523115, 0.0150897475, -0.9371846  , 1.48        , 3           , 12          , 0.03908976  , 0
0.140035    , -0.0207143854, -9.779296   , 0.00194340979, -0.0001857708, -0.000240303925, 0.108534448 , 0.163812861 , 0.7102602   , 0.00273462851, 0.015087896 , -0.937186956, 1.49        , 3           , 50          , 0           , 0
0.133253172 , -0.0135765746, -9.766628   , 0.00191481912, -0.00135145057, 2.90079479E-05, 0.108534448 , 0.163745448 , 0.7101928   , 0.00273328368, 0.0150487982, -0.937186956, 1.5         , 3           , 11          , 0.0107653243, 0.0107653048
0.145246342 , -0.04331154 , -9.7790575  , 0.0007626191, -0.0023467585, 0.000436793023, 0.108399622 , 0.163880274 , 0.7103276   , 0.002740975 , 0.0150253195, -0.937182665, 1.51        , 3           , 12          , 0.039742548 , 0
0.135955051 , -0.0340756252, -9.791683   , -0.0009579076, -0.003617747, 0.000264649774, 0.1088041   , 0.163678035 , 0.7101254   , 0.00273143454, 0.0149891339, -0.937180042, 1.52        , 3           , 50          , 0           , 0
0.152231991 , -0.0327769481, -9.799649   , -0.00139887538, -0.004196809, 0.00139838865, 0.1088041   , 0.163678035 , 0.7101254   , 0.00271765259, 0.0149471294, -0.9371662  , 1.53        , 3           , 11          , 0.0107653243, 0.0107653048
0.143803656 , -0.0367636457, -9.757765   , -0.00123822817, -0.00276279845, 0.00113394915, 0.1082648   , 0.163812861 , 0.710058    , 0.00270543876, 0.0149194691, -0.937155   , 1.54        , 3           , 12          , 0.039742548 , 0
0.1413962   , -0.0153685063, -9.774252   , -0.001619773, -0.000158775467, -0.00112037128, 0.108399622 , 0.163880274 , 0.7101254   , 0.002689074 , 0.0149179129, -0.9371662  , 1.55        , 3           , 50          , 0           , 0
0.14635928  , -0.0332010761, -9.797449   , 0.00108116609, -4.67766331E-05, -0.0006727612, 0.108467035 , 0.163880274 , 0.7101928   , 0.00269978517, 0.0149174612, -0.9371729  , 1.56        , 3           , 11          , 0.0107653243, 0.0107653048
0.142794728 , -0.03578321 , -9.806094   , 0.0006173756, -0.00277262274, 0.000143512036, 0.108197384 , 0.163745448 , 0.7102602   , 0.00270597846, 0.0148897311, -0.9371717  , 1.57        , 3           , 12          , 0.039742548 , 0
0.16928792  , -0.0281111058, -9.785887   , -0.003789517, -0.002725274, -0.000169209612, 0.108332209 , 0.163745448 , 0.709990561 , 0.00266805664, 0.0148624815, -0.937173367, 1.58        , 3           , 50          , 0           , 0
0.169037089 , -0.0409590453, -9.765261   , -0.0043330933, -0.0008516113, -0.0007178364, 0.108332209 , 0.163745448 , 0.709990561 , 0.002624619 , 0.0148539841, -0.9371805  , 1.59        , 3           , 11          , 0.0107653243, 0.0107653048
0.14380677  , -0.04833234 , -9.772352   , 8.746938E-05, -0.00101670937, 0.000594614 , 0.108197384 , 0.163812861 , 0.7101928   , 0.00265935017, 0.0148966   , -0.9371741  , 1.6         , 3           , 12          , 0.0404294021, 0
0.16740492  , -0.030446725, -9.776898   , 0.00249846466, -0.00105022942, 0.00161075173, 0.107860319 , 0.163880274 , 0.7102602   , 0.00268457644, 0.0148860533, -0.937157869, 1.61        , 3           , 50          , 0           , 0
0.140672028 , -0.0155357644, -9.800008   , 0.00108810363, -0.00116115436, -0.000403050217, 0.108534448 , 0.163745448 , 0.7101928   , 0.00269539678, 0.0148744518, -0.9371619  , 1.62        , 3           , 11          , 0.0113024376, 0.0113024227
0.140548542 , -0.0228470266, -9.791059   , 0.00136952067, -0.0015913531, -0.0006937612, 0.1082648   , 0.163745448 , 0.7102602   , 0.002708988 , 0.0148585569, -0.937168837, 1.63        , 3           , 12          , 0.0404294021, 0
0.1341208   , -0.026098473, -9.777154   , 0.0005010623, -0.00174389046, 0.00130216021, 0.1082648   , 0.163745448 , 0.7102602   , 0.00271419063, 0.0148410825, -0.937155962, 1.64        , 3           , 50          , 0           , 0
0.144580111 , -0.0149014937, -9.778283   , -0.00391600747, -0.00241554924, 0.00126516877, 0.1082648   , 0.163745448 , 0.7102602   , 0.00267521758, 0.0148168914, -0.9371433  , 1.65        , 3           , 11          , 0.0113024376, 0.0113024227
0.1644624   , -0.0180803128, -9.79214    , -0.00433455035, -0.00211823685, 0.000551362 , 0.108467035 , 0.163880274 , 0.7102602   , 0.00263195322, 0.0147956945, -0.937137842, 1.66        , 3           , 12          , 0.0404294021, 0
0.153937265 , -0.0267073642, -9.778334   , -0.0007553965, -0.000429763139, 2.549259E-05, 0.108197384 , 0.163745448 , 0.710462451 , 0.00262440182, 0.0147913964, -0.937137842, 1.67        , 3           , 50          , 0           , 0
0.15235737  , -0.0125539219, -9.793091   , -0.00158299156, 0.0007418592, -0.00182301959, 0.108601861 , 0.163812861 , 0.710395038 , 0.00260830252, 0.0147988629, -0.937155962, 1.68        , 3           , 11          , 0.0113024376, 0.0113024227
0.156178489 , -0.0294130426, -9.780151   , -0.0006864787, -0.001279985, -0.00113125576, 0.108399622 , 0.163543209 , 0.7101928   , 0.00260126963, 0.0147860935, -0.9371674  , 1.69        , 3           , 12          , 0.0404294021, 0
0.153824344 , -0.030886475, -9.767091   , 0.0018686573, 0.00338618783, -0.00126298331, 0.108399622 , 0.163543209 , 0.7101928   , 0.00263723987, 0.0148708075, -0.937179565, 1.7         , 3           , 50          , 0           , 0
0.150950849 , -0.009511637, -9.781324   , 0.00138798973, 0.006235921 , 0.00113660656, 0.108062558 , 0.163812861 , 0.7103276   , 0.00265129213, 0.0149331409, -0.9371681  , 1.71        , 3           , 11          , 0.0119398106, 0.0119398013
0.12296997  , -0.0204976648, -9.785773   , -0.0007123488, 0.00232600467, -6.316691E-06, 0.1082648   , 0.163947687 , 0.7102602   , 0.00264416868, 0.0149563979, -0.9371681  , 1.72        , 3           , 12          , 0.04114828  , 0
0.1482165   , -0.03357572 , -9.806019   , -0.000230663136, 0.000676956959, -0.000456562033, 0.1082648   , 0.163745448 , 0.7101928   , 0.00264179381, 0.014963178 , -0.937172651, 1.73        , 3           , 50          , 0           , 0
0.155487612 , -0.0259682257, -9.806316   , 0.000546319759, 0.000379871868, -0.000169859733, 0.1082648   , 0.163812861 , 0.709990561 , 0.0026472318, 0.0149669815, -0.9371743  , 1.74        , 3           , 11          , 0.0119398106, 0.0119398013
0.145477623 , -0.0309387054, -9.797431   , -0.00170828216, -0.00354459556, 0.000474885426, 0.1082648   , 0.163812861 , 0.709990561 , 0.00263021863, 0.0149315223, -0.937169552, 1.75        , 3           , 12          , 0.04114828  , 0
0.132053971 , -0.0111070555, -9.785583   , 0.0005435678, 0.000305667723, 0.000115260911, 0.108129971 , 0.163947687 , 0.709990561 , 0.00263567083, 0.0149345752, -0.93716836 , 1.76        , 3           , 50          , 0           , 0
0.135988623 , -0.023340987, -9.783429   , 0.00220117369, 0.00158825668, -0.0009292212, 0.108332209 , 0.163745448 , 0.7101254   , 0.00265754457, 0.0149504822, -0.937177658, 1.77        , 3           , 11          , 0.0119398106, 0.0119398013
0.129325032 , -0.0173575133, -9.789292   , -0.00209362037, -0.000240121837, 1.95238736E-05, 0.108129971 , 0.164082512 , 0.7103276   , 0.00263661169, 0.0149480812, -0.9371774  , 1.78        , 3           , 12          , 0.04114828  , 0
0.149218887 , -0.0120610613, -9.79447    , -0.0026845145, 0.00328849279, -0.00122094341, 0.108197384 , 0.163812861 , 0.710395038 , 0.00260958378, 0.0149809988, -0.9371896  , 1.79        , 3           , 50          , 0           , 0
0.159372538 , -0.0169118978, -9.770944   , 0.00146506377, 0.00163128716, -0.00157920038, 0.108197384 , 0.163812861 , 0.710395038 , 0.00234988285, 0.0150476377, -0.9372096  , 1.8         , 3           , 11          , 0.0124639785, 0.0124639729
0.147688076 , -0.0123251155, -9.76874    , 0.00323407  , 0.00188380911, 0.000224206917, 0.1082648   , 0.163880274 , 0.7101254   , 0.00238225819, 0.01506647  , -0.93720746 , 1.81        , 3           , 12          , 0.0418972   , 0
0.1402319   , -0.00349770859, -9.786774   , 0.00187253207, 0.0008254224, -8.57464838E-05, 0.108399622 , 0.163745448 , 0.7102602   , 0.00240097055, 0.0150747234, -0.9372082  , 1.82        , 3           , 50          , 0           , 0
0.139226958 , -0.0245711356, -9.797416   , -0.00224971562, 0.00101125136, -0.000180044968, 0.108332209 , 0.163947687 , 0.710462451 , 0.00237844721, 0.0150848394, -0.937209845, 1.83        , 3           , 11          , 0.0124639785, 0.0124639729
0.152526826 , -0.0334640369, -9.777973   , -0.001121723, 0.000563425361, 0.00053595833, 0.108129971 , 0.163880274 , 0.710395038 , 0.00236730976, 0.0150904655, -0.9372046  , 1.84        , 3           , 12          , 0.0418972   , 0
0.12568678  , -0.01159502 , -9.777064   , 0.003519396 , 0.002658134 , 0.00145359454, 0.108399622 , 0.163745448 , 0.7103276   , 0.002402725 , 0.0151170082, -0.9371898  , 1.85        , 3           , 50          , 0           , 0
0.125053287 , -0.04881788 , -9.79602    , 0.00563929649, 0.0008549403, 0.0003672454, 0.108399622 , 0.163745448 , 0.7103276   , 0.00245917332, 0.0151255475, -0.937186   , 1.86        , 3           , 11          , 0.0124639785, 0.0124639729
0.148415327 , -0.035300117, -9.77170849 , 0.002720083 , -0.000178594913, -0.0009537058, 0.108332209 , 0.163880274 , 0.7101928   , 0.00248622987, 0.0151237855, -0.9371958  , 1.87        , 3           , 12          , 0.0418972   , 0
0.145963877 , -0.0184237268, -9.787346   , -0.00153676106, 0.00128868688, 4.303504E-05, 0.107995145 , 0.163812861 , 0.7103276   , 0.00247086957, 0.0151366713, -0.9371953  , 1.88        , 3           , 50          , 0           , 0
0.136062682 , -0.0129895154, -9.781502   , 0.00207293336, 3.00434986E-05, 0.000476389367, 0.107995145 , 0.163812861 , 0.710462451 , 0.002491671 , 0.01513696  , -0.9371903  , 1.89        , 3           , 11          , 0.0124639785, 0.0124639729
0.13228935  , -0.0230135527, -9.769005   , -0.00081716245, 0.003770692 , -0.00163354329, 0.108332209 , 0.163880274 , 0.7101928   , 0.00243098941, 0.0151195722, -0.93720746 , 1.9         , 3           , 12          , 0.0426742621, 0
0.153425381 , -0.03258458 , -9.776599   , 0.002182103 , 0.00516812829, -0.001022357, 0.108332209 , 0.163880274 , 0.7101928   , 0.002452657 , 0.0151712811, -0.9372177  , 1.91        , 3           , 50          , 0           , 0
0.151804417 , -0.018494036, -9.785485   , 0.00167622592, -0.000223932977, 0.00147229515, 0.107995145 , 0.163610622 , 0.7103276   , 0.00246964325, 0.015169004 , -0.937203169, 1.92        , 3           , 11          , 0.0118888561, 0.01188884
0.1549821   , -0.0202621873, -9.791349   , -0.00304225949, -0.00282007316, 0.000618468 , 0.108197384 , 0.163947687 , 0.7102602   , 0.00243931171, 0.0151407905, -0.93719697 , 1.93        , 3           , 12          , 0.0426742621, 0
0.133277923 , -0.0277829748, -9.78757    , -0.00374503084, -0.00287233619, -0.0007461379, 0.108197384 , 0.163880274 , 0.7103276   , 0.00240174634, 0.0151120825, -0.9372046  , 1.94        , 3           , 50          , 0           , 0
0.148240328 , -0.0299781561, -9.805074   , -0.00159104029, -0.000891153468, -0.000346367742, 0.108399622 , 0.163880274 , 0.7101254   , 0.00238578324, 0.015103179 , -0.937207937, 1.95        , 3           , 11          , 0.0118888561, 0.01188884
0.149596587 , -0.0144017693, -9.786814   , 0.000554219 , 0.0003729413, 0.000114509661, 0.108399622 , 0.163812861 , 0.7102602   , 0.00239134347, 0.0151069062, -0.937207   , 1.96        , 3           , 12          , 0.0426742621, 0
0.151439279 , -0.00233493932, -9.778075   , -0.00196047616, -0.00217586826, -0.0005103724, 0.108399622 , 0.163812861 , 0.7102602   , 0.00237165974, 0.0150851589, -0.937212   , 1.97        , 3           , 50          , 0           , 0
0.146143392 , -0.05044679 , -9.787262   , -0.00168717687, -0.002899045, -8.98468E-05, 0.108129971 , 0.163812861 , 0.710395038 , 0.002354773 , 0.0150561705, -0.937212944, 1.98        , 3           , 11          , 0.0118888561, 0.01188884
0.127719149 , -0.04488971 , -9.786012   , -0.00275238766, -0.002392454, 0.0005549007, 0.108399622 , 0.1640151   , 0.710395038 , 0.002327332 , 0.0150322337, -0.93720746 , 1.99        , 3           , 12          , 0.0426742621, 0
0.142899185 , -0.0147019383, -9.795461   , -0.00250479113, -0.00167010608, -0.000790530641, 0.1082648   , 0.163880274 , 0.7101928   , 0.00244899  , 0.0148867872, -0.9372132  , 2           , 3           , 50          , 0           , 0
0.161907524 , -0.00536853634, -9.797888   , -0.00274775433, -0.004035416, -0.0004685423, 0.108669274 , 0.163745448 , 0.7102602   , 0.00242144219, 0.0148464441, -0.937217951, 2.01        , 3           , 11          , 0.0123620834, 0.01236207
0.1423156   , -0.02692085 , -9.79109    , -0.00228099665, -0.006198135, 0.000433187757, 0.108669274 , 0.163745448 , 0.7102602   , 0.00239869254, 0.0147844525, -0.937213659, 2.02        , 3           , 12          , 0.043477647 , 0
0.146508157 , -0.03455681 , -9.755457   , 0.000520131842, -0.003437921, 0.00113445427, 0.108399622 , 0.163880274 , 0.710395038 , 0.00240406138, 0.0147500467, -0.937202454, 2.03        , 3           , 50          , 0           , 0
0.16461584  , -0.03456363 , -9.769293   , 0.00162129907, -0.000863146037, 0.000463031261, 0.108399622 , 0.163880274 , 0.7103276   , 0.00242034136, 0.0147414049, -0.9371979  , 2.04        , 3           , 11          , 0.0123620834, 0.01236207
0.149315357 , -0.0199257433, -9.818047   , 0.00256766635, 0.0004970321, -0.0004416089, 0.1082648   , 0.163745448 , 0.710395038 , 0.0024459525, 0.0147463847, -0.9372022  , 2.05        , 3           , 12          , 0.043477647 , 0
0.1450687   , -0.0237493273, -9.794642   , 0.00224058144, 0.00272547151, -0.0008406518, 0.108534448 , 0.163947687 , 0.7103276   , 0.00246823579, 0.01477366  , -0.93721056 , 2.06        , 3           , 50          , 0           , 0
0.164405271 , -0.02528997 , -9.792675   , -0.00118005672, 0.002327079 , -0.000509767851, 0.108534448 , 0.163947687 , 0.7103276   , 0.0024563605, 0.0147969443, -0.937215567, 2.07        , 3           , 11          , 0.0123620834, 0.01236207
0.163950071 , -0.0150555382, -9.779462   , -0.000135820228, 0.000452198816, -0.0003873886, 0.108467035 , 0.163745448 , 0.7101928   , 0.00245494535, 0.0148014762, -0.9372194  , 2.08        , 3           , 12          , 0.043477647 , 0
0.152245551 , -0.01361542 , -9.778198   , 0.00228604465, 0.000785861 , -0.000367607776, 0.1082648   , 0.163880274 , 0.7103276   , 0.002477751 , 0.014809344 , -0.9372232  , 2.09        , 3           , 50          , 0           , 0
0.1382532   , -0.0251206625, -9.787494   , 0.00149859267, -0.00299297785, 0.000430845568, 0.108197384 , 0.1640151   , 0.7101254   , 0.00244611222, 0.0148120672, -0.9372196  , 2.1         , 3           , 11          , 0.0126976846, 0.0126976725
0.129321769 , -0.0151368547, -9.786105   , -0.00465524849, -0.000417442265, -0.0001422304, 0.108332209 , 0.163812861 , 0.710395038 , 0.00239954  , 0.0148078958, -0.93722105 , 2.11        , 3           , 12          , 0.0443056077, 0
0.129845649 , -0.009686355, -9.790103   , 0.00241543748, 0.00251500169, 0.0005163262, 0.108534448 , 0.163610622 , 0.709990561 , 0.00242377236, 0.0148330331, -0.9372158  , 2.12        , 3           , 50          , 0           , 0
0.1669906   , -0.0156984124, -9.764084   , -0.000357713638, 0.00247281021, 0.000355495256, 0.108534448 , 0.163610622 , 0.709990561 , 0.00242024846, 0.0148577532, -0.9372122  , 2.13        , 3           , 11          , 0.0126976846, 0.0126976725
0.143773    , -0.0430424325, -9.761      , -0.00337802013, -0.0005046501, 0.0001506005, 0.108467035 , 0.163880274 , 0.7101928   , 0.00238649151, 0.0148527026, -0.9372108  , 2.14        , 3           , 12          , 0.0443056077, 0
0.1390279   , -0.03644955 , -9.7831     , -0.000970390742, -0.00103648426, 0.0008017296, 0.108399622 , 0.1640151   , 0.710395038 , 0.00237690541, 0.0148423184, -0.9372027  , 2.15        , 3           , 50          , 0           , 0
0.134751737 , -0.0253805257, -9.802434   , -0.001959114, -0.00129951234, -0.000710802, 0.108601861 , 0.163880274 , 0.7101928   , 0.00235720887, 0.01482934  , -0.937209845, 2.16        , 3           , 11          , 0.0126976846, 0.0126976725
0.131588161 , -0.015578323, -9.788799   , -0.002372658, 0.00112090854, 0.00153987424, 0.108601861 , 0.163610622 , 0.710395038 , 0.0023337123, 0.0148405125, -0.9371946  , 2.17        , 3           , 12          , 0.0443056077, 0
0.1567966   , -0.0126899052, -9.784018   , -0.0003940195, -0.000185725512, 0.00117538217, 0.108601861 , 0.163610622 , 0.710395038 , 0.00232994533, 0.0148386275, -0.937182665, 2.18        , 3           , 50          , 0           , 0
0.15223     , -0.0180905983, -9.781412   , 0.0006458266, -0.00326576969, -0.000150796215, 0.108736686 , 0.163678035 , 0.7102602   , 0.00233637984, 0.0148059735, -0.937184334, 2.19        , 3           , 11          , 0.0126976846, 0.0126976725
0.1325209   , -0.00351817161, -9.778714   , -0.00219365838, -0.0014241318, 9.586699E-07, 0.108736686 , 0.163812861 , 0.7102602   , 0.00228790729, 0.01483293  , -0.9371846  , 2.2         , 3           , 12          , 0.045156505 , 0
0.157263249 , -0.0122235613, -9.785814   , 0.000243134724, -0.0005767984, -0.00133123586, 0.108669274 , 0.163745448 , 0.710395038 , 0.002290141 , 0.0148271928, -0.9371979  , 2.21        , 3           , 50          , 0           , 0
0.156183824 , -0.0347464941, -9.787439   , -0.000750694657, 0.0002821747, -0.00010851516, 0.108736686 , 0.164082512 , 0.710462451 , 0.002282619 , 0.0148300156, -0.9371991  , 2.22        , 3           , 11          , 0.01317051  , 0.0131705
0.158481658 , -0.04448763 , -9.80605    , -0.00249702227, 0.002740637 , -0.0005845358, 0.108736686 , 0.163812861 , 0.7103276   , 0.002257562 , 0.0148574347, -0.937204838, 2.23        , 3           , 12          , 0.045156505 , 0
0.156687319 , -0.0257661566, -9.78417    , -0.00373235857, 0.0002485496, -0.0009860412, 0.108736686 , 0.163812861 , 0.7103276   , 0.002220091 , 0.0148599418, -0.9372146  , 2.24        , 3           , 50          , 0           , 0
0.143068552 , -0.0333865434, -9.777607   , 0.000249385776, 0.0004191899, -0.000529677549, 0.108669274 , 0.163947687 , 0.7101928   , 0.0022225068, 0.0148641448, -0.937219858, 2.25        , 3           , 11          , 0.01317051  , 0.0131705
0.15895848  , -0.0204136111, -9.780474   , -0.000663433864, 0.00213717832, 0.000705992046, 0.108332209 , 0.163947687 , 0.7101928   , 0.002215978 , 0.014885501 , -0.937212944, 2.26        , 3           , 12          , 0.045156505 , 0
0.138495    , 0.00418336131, -9.786701   , -0.00102406635, 0.00128745148, -2.40802365E-05, 0.108669274 , 0.163947687 , 0.7102602   , 0.00220573321, 0.0148983747, -0.9372132  , 2.27        , 3           , 50          , 0           , 0
0.157250345 , -0.019365482, -9.792673   , 0.001264575 , 0.00318658655, 0.00137707731, 0.108601861 , 0.163812861 , 0.7101928   , 0.00221858546, 0.014930211 , -0.937199354, 2.28        , 3           , 11          , 0.01317051  , 0.0131705
0.171507686 , -0.0304045882, -9.784086   , -0.0005848268, 0.002499159 , 0.000210850383, 0.108601861 , 0.163812861 , 0.7101928   , 0.00221276935, 0.0149551975, -0.93719697 , 2.29        , 3           , 12          , 0.045156505 , 0
0.134664878 , -0.0197268166, -9.782948   , -0.004430522, -0.00108653423, -0.000438594725, 0.108332209 , 0.1640151   , 0.710395038 , 0.00223044562, 0.0151227145, -0.937200546, 2.3         , 3           , 50          , 0           , 0
0.123843841 , -0.019210862, -9.780331   , -0.003686633, 0.00212449813, 0.000256510015, 0.1082648   , 0.163947687 , 0.7103276   , 0.00219361763, 0.0151439533, -0.9371979  , 2.31        , 3           , 11          , 0.0135529051, 0.0135528967
0.1614295   , -0.0368149169, -9.76709    , -0.00186045712, -0.000111433525, -0.000193943837, 0.108467035 , 0.1640151   , 0.7103276   , 0.00217498373, 0.0151428422, -0.937199831, 2.32        , 3           , 12          , 0.0460287742, 0
0.167330831 , -0.02699916 , -9.761954   , -0.00103951665, -0.00305561884, -0.000446205348, 0.108399622 , 0.163745448 , 0.7102602   , 0.00216452056, 0.0151122957, -0.9372041  , 2.33        , 3           , 50          , 0           , 0
0.160658687 , -0.02726063 , -9.774213   , 0.00168699177, -0.000228796765, 0.0008995452, 0.108399622 , 0.163745448 , 0.7102602   , 0.00218152581, 0.015109987 , -0.9371953  , 2.34        , 3           , 11          , 0.0135529051, 0.0135528967
0.168660611 , 0.00570013747, -9.784147   , -0.000410616951, 0.00202730112, -0.0005833215, 0.108467035 , 0.163812861 , 0.7103276   , 0.00217733183, 0.0151302721, -0.937201   , 2.35        , 3           , 12          , 0.0460287742, 0
0.133420169 , -0.00441813655, -9.77962    , -0.000356211531, 0.000452313223, -0.00082047045, 0.108601861 , 0.163947687 , 0.7102602   , 0.00217364565, 0.0151348123, -0.937209368, 2.36        , 3           , 50          , 0           , 0
0.127731308 , -0.047541894, -9.791012   , -0.0008495797, 0.0006748639, -0.00110650284, 0.108399622 , 0.164082512 , 0.710462451 , 0.00216498319, 0.0151415849, -0.937220335, 2.37        , 3           , 11          , 0.0135529051, 0.0135528967
0.120242953 , -0.0276354142, -9.79085    , -0.00157251279, 0.000313625962, 2.86528812E-05, 0.108534448 , 0.163678035 , 0.7103276   , 0.00214926316, 0.0151447225, -0.937219858, 2.38        , 3           , 12          , 0.0460287742, 0
0.137982517 , -0.002139911, -9.785423   , -0.002376184, -0.000553522143, 0.00172840466, 0.108467035 , 0.163812861 , 0.710395038 , 0.002125762 , 0.0151391523, -0.9372027  , 2.39        , 3           , 50          , 0           , 0
0.146866962 , -0.007299242, -9.774109   , -0.0015887419, -0.0005913033, 0.000444776844, 0.108467035 , 0.163812861 , 0.710395038 , 0.001965913 , 0.0150547409, -0.937200546, 2.4         , 3           , 11          , 0.0138096781, 0.0138096679
0.118180551 , -0.000173471868, -9.78468    , -0.00230300357, -0.000941023463, 0.000292194425, 0.108467035 , 0.163947687 , 0.710395038 , 0.00194292713, 0.0150453243, -0.9371977  , 2.41        , 3           , 12          , 0.04692093  , 0
0.118294463 , -0.0340775736, -9.777391   , -0.001963404, 0.00195131311, -0.002955243, 0.1082648   , 0.163947687 , 0.7102602   , 0.00192284922, 0.0150648952, -0.937227249, 2.42        , 3           , 50          , 0           , 0
0.13905853  , -0.0301707312, -9.779865   , -0.005849699, -0.000469915278, -0.00029529084, 0.108669274 , 0.163947687 , 0.710395038 , 0.00186430686, 0.0150602   , -0.9372301  , 2.43        , 3           , 11          , 0.0138096781, 0.0138096679
0.169297576 , -0.0187485348, -9.775843   , -0.00335816946, -0.000138895237, -6.04585948E-05, 0.108669274 , 0.163947687 , 0.7101928   , 0.00183071569, 0.0150588118, -0.9372308  , 2.44        , 3           , 12          , 0.04692093  , 0
0.153202385 , -0.02778126 , -9.803648   , -0.00141227583, 0.00163975824, -0.000809759542, 0.108669274 , 0.163947687 , 0.7101928   , 0.00181647064, 0.0150752291, -0.937238932, 2.45        , 3           , 50          , 0           , 0
0.109525956 , -0.0225087777, -9.797665   , 8.241273E-05, 0.00141477236, -0.00137622247, 0.108669274 , 0.163812861 , 0.7102602   , 0.001817087 , 0.0150893992, -0.93725276 , 2.46        , 3           , 11          , 0.0138096781, 0.0138096679
0.112013265 , -0.03621432 , -9.783346   , -0.00120424549, 0.00163055235, -2.152351E-05, 0.108467035 , 0.163812861 , 0.7103276   , 0.00180504262, 0.0151057048, -0.93725276 , 2.47        , 3           , 12          , 0.04692093  , 0
0.164381534 , -0.03111304 , -9.796355   , -0.000294111029, 5.00946953E-05, -0.000611237367, 0.108669274 , 0.1640151   , 0.710462451 , 0.001802009 , 0.015106217 , -0.937258959, 2.48        , 3           , 50          , 0           , 0
0.145510256 , -0.0139736505, -9.781426   , 0.00105278764, -0.00053358986, -0.0009691509, 0.108601861 , 0.163880274 , 0.710462451 , 0.0018123897, 0.0151008973, -0.937268734, 2.49        , 3           , 11          , 0.0138096781, 0.0138096679
0.119900331 , -0.00654537976, -9.780672   , 0.0007195265, 0.00289450912, -6.287924E-05, 0.108399622 , 0.163812861 , 0.7101928   , 0.00179648958, 0.0151162595, -0.9372697  , 2.5         , 3           , 12          , 0.04783159  , 0
0.145479113 , -0.0229240153, -9.787853   , 0.00134192058, 0.001030362 , -0.000658480043, 0.108399622 , 0.163812861 , 0.7101928   , 0.00180980982, 0.0151265748, -0.9372761  , 2.51        , 3           , 50          , 0           , 0
0.127428517 , -0.0272811055, -9.787618   , 0.0007244322, -0.00297916634, -0.00036263137, 0.108332209 , 0.163880274 , 0.7103276   , 0.0018169987, 0.0150967911, -0.93727994 , 2.52        , 3           , 11          , 0.0139976814, 0.0139976684
0.11307469  , -0.0199508481, -9.786762   , 0.001340963 , 0.0005352472, -0.00138119375, 0.108736686 , 0.1640151   , 0.710395038 , 0.00183019962, 0.0151021667, -0.937293768, 2.53        , 3           , 12          , 0.04783159  , 0
0.133106709 , -0.0284903347, -9.763639   , 0.00290310686, 0.0009396246, -0.000292394834, 0.108736686 , 0.163947687 , 0.7103276   , 0.0018591868, 0.0151115693, -0.9372964  , 2.54        , 3           , 50          , 0           , 0
0.145609349 , -0.04255882 , -9.765494   , 0.000160690965, 0.00319582573, -0.00106370647, 0.108669274 , 0.163812861 , 0.7101928   , 0.00186063373, 0.0151435472, -0.9373071  , 2.55        , 3           , 11          , 0.0139976814, 0.0139976684
0.141337082 , -0.03326441 , -9.78755951 , -0.0020150987, -0.000225291165, -0.0006973934, 0.108669274 , 0.163812861 , 0.7101928   , 0.00184037723, 0.0151413083, -0.937314034, 2.56        , 3           , 12          , 0.04783159  , 0
0.1468928   , -0.01838801 , -9.791401   , -0.00499317 , -0.005711041, -0.0009383783, 0.108669274 , 0.163880274 , 0.710058    , 0.00179030269, 0.0150842145, -0.937323332, 2.57        , 3           , 50          , 0           , 0
0.14429681  , -0.0173126832, -9.805415   , -0.003277123, -0.00388161186, 0.00088755507, 0.108669274 , 0.163880274 , 0.7103276   , 0.00175766263, 0.015045383 , -0.937314749, 2.58        , 3           , 11          , 0.0139976814, 0.0139976684
0.135430261 , -0.0470947437, -9.796807   , -0.00173389853, 0.000190809951, 0.000526777236, 0.108332209 , 0.1640151   , 0.710395038 , 0.00174040254, 0.01504728  , -0.937309265, 2.59        , 3           , 12          , 0.04783159  , 0
0.146691024 , -0.0391732156, -9.787578   , 3.02738281E-05, 0.000260380475, 0.0006209997, 0.108467035 , 0.163947687 , 0.7103276   , 0.003180878 , 0.0144749163, -0.9372823  , 2.6         , 3           , 50          , 0           , 0
0.1680347   , -0.0190473646, -9.788957   , -0.00119729957, -0.001022064, 0.001167265 , 0.108467035 , 0.163947687 , 0.7103276   , 0.003169073 , 0.0144646615, -0.9372709  , 2.61        , 3           , 11          , 0.014279021 , 0.014279006
0.1189785   , 0.003222702 , -9.765662   , -0.00083961233, -0.00137558149, 0.000234156716, 0.108467035 , 0.163947687 , 0.7101254   , 0.00316071  , 0.0144508956, -0.9372685  , 2.62        , 3           , 12          , 0.04875945  , 0
0.122165516 , -0.007878995, -9.784281   , 0.00137090974, -0.000331622636, 0.00119311921, 0.108669274 , 0.163745448 , 0.7101928   , 0.00317459181, 0.0144475419, -0.9372566  , 2.63        , 3           , 50          , 0           , 0
0.154449075 , -0.0324037  , -9.794205   , -0.00183131057, -0.0003726788, 0.00138742325, 0.108399622 , 0.1640151   , 0.710395038 , 0.00315647875, 0.0144437691, -0.937242746, 2.64        , 3           , 11          , 0.014279021 , 0.014279006
0.146673948 , -0.051663097, -9.800369   , -0.00179699808, 0.00207156269, 0.0004928652, 0.108601861 , 0.163745448 , 0.7103276   , 0.00313858129, 0.0144644687, -0.93723774 , 2.65        , 3           , 12          , 0.04875945  , 0
0.145144224 , -0.06038307 , -9.785127   , -0.00113837083, 0.00314805121, -0.000417662, 0.108601861 , 0.163880274 , 0.710058    , 0.00312713813, 0.0144959651, -0.9372418  , 2.66        , 3           , 50          , 0           , 0
0.160308227 , -0.0257685054, -9.786846   , 0.000380048761, -0.0002447452, 0.000615837635, 0.108601861 , 0.163880274 , 0.710058    , 0.0031310278, 0.014493499 , -0.937235832, 2.67        , 3           , 11          , 0.014279021 , 0.014279006
0.163395688 , -0.0174367931, -9.7673     , -0.00253153522, -0.0004921075, -0.000479013135, 0.108669274 , 0.163880274 , 0.7102602   , 0.003105641 , 0.0144885927, -0.9372406  , 2.68        , 3           , 12          , 0.04875945  , 0
0.138474554 , -0.0472867042, -9.781424   , -0.00175482954, -0.0006484625, 9.593994E-05, 0.108467035 , 0.164082512 , 0.7103276   , 0.00308810757, 0.0144821052, -0.937239647, 2.69        , 3           , 50          , 0           , 0
0.130499184 , -0.0243167263, -9.772198   , -0.00235753576, -0.000356625445, -0.000404056773, 0.108736686 , 0.163880274 , 0.710529864 , 0.00312960264, 0.0144663788, -0.937242746, 2.7         , 3           , 11          , 0.0109262085, 0.0109262848
0.121879    , -0.039922338, -9.781943   , 0.0004242807, 0.000190918538, -0.0006651681, 0.108871512 , 0.163812861 , 0.710462451 , 0.003133749 , 0.0144683085, -0.9372494  , 2.71        , 3           , 12          , 0.04970328  , 0
0.132148147 , -0.01140796 , -9.799587   , 0.000221055467, 0.00119419314, -0.0004372228, 0.108871512 , 0.163812861 , 0.710462451 , 0.00313589629, 0.0144802639, -0.9372537  , 2.72        , 3           , 50          , 0           , 0
0.149681509 , -0.0191681758, -9.804935   , -0.00279512 , -0.00191887817, -0.00150269631, 0.108871512 , 0.163745448 , 0.7101928   , 0.003107727 , 0.0144611215, -0.937269   , 2.73        , 3           , 11          , 0.0109262085, 0.0109262848
0.154779449 , -0.0486160219, -9.796646   , 0.001056701 , 0.000103813778, 0.00033921763, 0.108669274 , 0.163947687 , 0.7102602   , 0.00311834249, 0.01446215  , -0.9372654  , 2.74        , 3           , 12          , 0.04970328  , 0
0.1358967   , -0.0421774052, -9.793133   , -0.00103669974, -0.00266810344, 0.000143021593, 0.108736686 , 0.163745448 , 0.7102602   , 0.003107994 , 0.0144354627, -0.9372642  , 2.75        , 3           , 50          , 0           , 0
0.134846225 , -0.006985335, -9.793638   , -0.000124777172, -0.004175636, -0.000588730967, 0.108736686 , 0.1640151   , 0.710462451 , 0.00310666044, 0.0143937264, -0.9372699  , 2.76        , 3           , 11          , 0.0109262085, 0.0109262848
0.157629564 , -0.03906408 , -9.806447   , 0.001464531 , -0.00211255066, -0.0006921312, 0.108736686 , 0.1640151   , 0.710462451 , 0.00312120444, 0.0143726217, -0.9372771  , 2.77        , 3           , 12          , 0.04970328  , 0
0.1508483   , -0.0430537462, -9.807459   , 0.00175619079, -0.00161200715, -0.000897737045, 0.108669274 , 0.163812861 , 0.7102602   , 0.0031386367, 0.0143565293, -0.937286139, 2.78        , 3           , 50          , 0           , 0
0.149876565 , -0.0213434678, -9.77063    , 0.00171955384, -0.00532921776, -0.001882026, 0.108467035 , 0.1640151   , 0.7103276   , 0.0031555593, 0.0143032968, -0.9373052  , 2.79        , 3           , 11          , 0.0109262085, 0.0109262848
0.150024608 , -0.0122140693, -9.780913   , 0.00127044041, -0.00525841 , -2.367301E-05, 0.108601861 , 0.163947687 , 0.7103276   , 0.00314475643, 0.01427576  , -0.9373057  , 2.8         , 3           , 12          , 0.0506619364, 0
0.153090954 , -0.0239456948, -9.782826   , 0.00138726248, -0.0007538291, 0.000972521433, 0.108669274 , 0.163947687 , 0.710462451 , 0.00315876747, 0.0142681934, -0.9372959  , 2.81        , 3           , 50          , 0           , 0
0.13309364  , -0.00155394524, -9.79404449 , 0.00148677139, 0.00125854113, 0.000215213557, 0.108534448 , 0.163880274 , 0.7101254   , 0.00317366677, 0.0142807672, -0.937293768, 2.82        , 3           , 11          , 0.011244135 , 0.0112442067
0.1277743   , -0.004939949, -9.810394   , 0.00192361407, 0.001479379 , -0.0009237423, 0.108534448 , 0.163880274 , 0.7101254   , 0.00319277146, 0.0142955957, -0.9373033  , 2.83        , 3           , 12          , 0.0506619364, 0
0.140047371 , -0.02781758 , -9.789767   , -0.0005054044, 0.000854018843, -0.000375368516, 0.108534448 , 0.163880274 , 0.7103276   , 0.003187664 , 0.0143041452, -0.937306643, 2.84        , 3           , 50          , 0           , 0
0.1532237   , -0.0121689234, -9.787658   , 0.000545714865, -0.00108226819, -0.00139868865, 0.108399622 , 0.163947687 , 0.710462451 , 0.003192921 , 0.0142933661, -0.937320948, 2.85        , 3           , 11          , 0.011244135 , 0.0112442067
0.138484627 , -0.0214535389, -9.751313   , 0.00373698748, -0.000632459356, 0.0007741208, 0.108601861 , 0.163812861 , 0.710395038 , 0.00323040155, 0.0142870173, -0.9373131  , 2.86        , 3           , 12          , 0.0506619364, 0
0.154845223 , -0.03738694 , -9.792451   , 0.00205324264, 0.00124956248, 0.000576345366, 0.108601861 , 0.163610622 , 0.7102602   , 0.00325101614, 0.0142994924, -0.937307358, 2.87        , 3           , 50          , 0           , 0
0.146481961 , -0.0103113409, -9.787247   , -0.000506157638, 0.000500274 , -0.0008813726, 0.108601861 , 0.163610622 , 0.7102602   , 0.00324582937, 0.0143045252, -0.9373162  , 2.88        , 3           , 11          , 0.011244135 , 0.0112442067
0.135123283 , -0.01838286 , -9.782475   , -0.0006591743, -0.00014756342, -0.000390832633, 0.108534448 , 0.163745448 , 0.7102602   , 0.00323918159, 0.0143030621, -0.93732    , 2.89        , 3           , 12          , 0.0506619364, 0
0.142512828 , -0.03443443 , -9.763622   , -0.0007441076, 0.0006367108, -0.0009524758, 0.108601861 , 0.163880274 , 0.710395038 , 0.00317146862, 0.0142877419, -0.9373305  , 2.9         , 3           , 50          , 0           , 0
0.156976938 , -0.02334531 , -9.757941   , -0.00231939647, 0.000285421382, 3.44576838E-05, 0.108669274 , 0.163947687 , 0.7103276   , 0.00314828125, 0.0142905973, -0.93733    , 2.91        , 3           , 11          , 0.01163545  , 0.0116355261
0.156641752 , -0.0245005414, -9.776025   , 0.000405057857, 0.00219237921, 7.890632E-05, 0.108736686 , 0.163880274 , 0.710395038 , 0.00315234251, 0.0143125169, -0.937329054, 2.92        , 3           , 12          , 0.051634334 , 0
0.139453083 , -0.0409431458, -9.784955   , 0.0001642321, -0.000522836344, -0.0005343553, 0.108669274 , 0.163745448 , 0.7102602   , 0.003153908 , 0.0143073043, -0.937334538, 2.93        , 3           , 50          , 0           , 0
0.1396991   , -0.0200902  , -9.7951     , -0.0006742984, 6.986868E-05, -0.00174734532, 0.108669274 , 0.163745448 , 0.7102602   , 0.0031469157, 0.0143080577, -0.937351942, 2.94        , 3           , 11          , 0.01163545  , 0.0116355261
0.147500381 , -0.0366498232, -9.77128    , -0.002931741, 0.00195127109, -0.00123313768, 0.108467035 , 0.163880274 , 0.710395038 , 0.00311742374, 0.014327608 , -0.93736434 , 2.95        , 3           , 12          , 0.051634334 , 0
0.148900062 , -0.04237336 , -9.785336   , -4.14801434E-05, 0.0012531738, 0.00142205134, 0.108534448 , 0.163880274 , 0.710462451 , 0.00311721349, 0.0143400962, -0.937350035, 2.96        , 3           , 50          , 0           , 0
0.172253817 , -0.0395515338, -9.772894   , -0.00117957755, 0.0006998924, 0.000476817571, 0.108736686 , 0.163880274 , 0.710462451 , 0.00310548651, 0.01434708  , -0.937345266, 2.97        , 3           , 11          , 0.01163545  , 0.0116355261
0.164431289 , -0.0154571375, -9.784431   , -0.000918104546, -0.0008855815, 0.00117098645, 0.108601861 , 0.163947687 , 0.7101928   , 0.00309647317, 0.0143381916, -0.9373338  , 2.98        , 3           , 12          , 0.051634334 , 0
0.147994459 , 0.00194328849, -9.795674   , 0.00180305  , 0.0007347972, 0.00121126161, 0.108601861 , 0.163947687 , 0.7101928   , 0.0031146768, 0.0143454988, -0.9373214  , 2.99        , 3           , 50          , 0           , 0
0.1500669   , -0.011259025, -9.785871   , -9.48896559E-05, 0.00241152267, 0.0008617565, 0.108399622 , 0.163880274 , 0.7103276   , 0.00229442772, 0.0145579586, -0.9373243  , 3           , 3           , 11          , 0.0119012455, 0.0119013228
0.1466294   , -0.0450543426, -9.785839   , 0.00104047323, 0.00140909478, -0.0005052763, 0.108129971 , 0.163812861 , 0.7103276   , 0.002304759 , 0.0145720616, -0.9373293  , 3.01        , 3           , 12          , 0.0526194721, 0
0.146146119 , -0.04153996 , -9.77677    , 0.000411413115, 0.00248834863, -0.00027885774, 0.108332209 , 0.163745448 , 0.710462451 , 0.00230883271, 0.0145969531, -0.9373319  , 3.02        , 3           , 50          , 0           , 0
0.17648153  , -0.0241834261, -9.779452   , 0.000811872131, 0.0008265858, 0.0007728295, 0.108669274 , 0.163745448 , 0.7103276   , 0.00231706467, 0.0146051981, -0.9373243  , 3.03        , 3           , 11          , 0.0119012455, 0.0119013228
0.172581732 , -0.0141217653, -9.789309   , 0.0008992166, 0.001411819 , -0.00064921513, 0.108669274 , 0.163745448 , 0.7103276   , 0.00232596113, 0.0146193346, -0.9373305  , 3.04        , 3           , 12          , 0.0526194721, 0
0.126429155 , -0.02119283 , -9.765877   , -0.00152932014, 0.0007870987, -0.000172382337, 0.108871512 , 0.163880274 , 0.7101928   , 0.00231064251, 0.0146272071, -0.9373324  , 3.05        , 3           , 50          , 0           , 0
0.135536447 , -0.0224497747, -9.782067   , -0.00465313159, 0.000472818443, -0.0015557257, 0.108534448 , 0.163745448 , 0.710462451 , 0.00226388336, 0.0146319708, -0.9373479  , 3.06        , 3           , 11          , 0.0119012455, 0.0119013228
0.163760245 , -0.0224684253, -9.76103    , -0.002872774, 0.00109316257, -0.000820216432, 0.108197384 , 0.164082512 , 0.710395038 , 0.00223503588, 0.01464292  , -0.937356234, 3.07        , 3           , 12          , 0.0526194721, 0
0.145385817 , -0.0150544923, -9.764729   , -0.0016379765, -0.00173126417, 0.001078409 , 0.108736686 , 0.163880274 , 0.7102602   , 0.0022188134, 0.0146255828, -0.937345266, 3.08        , 3           , 50          , 0           , 0
0.152628735 , -0.0119415186, -9.766431   , 0.000418992364, -0.00253518741, 0.000507025863, 0.108601861 , 0.163812861 , 0.7103276   , 0.00222307723, 0.01460022  , -0.93734026 , 3.09        , 3           , 11          , 0.0119012455, 0.0119013228
0.151758343 , -0.0198999923, -9.780533   , -0.00492512155, -0.003040713, -0.000105915096, 0.108601861 , 0.163812861 , 0.7103276   , 0.00215453561, 0.014589591 , -0.9373417  , 3.1         , 3           , 12          , 0.053616412 , 0
0.164382637 , -0.02799539 , -9.792707   , -0.00176012027, 0.000150236971, 0.000102966515, 0.108534448 , 0.163947687 , 0.7102602   , 0.00213694945, 0.0145910894, -0.9373405  , 3.11        , 3           , 50          , 0           , 0
0.151425391 , -0.0148199666, -9.791318   , 0.0009988791, -0.00194283819, -0.001341406, 0.108601861 , 0.163880274 , 0.710395038 , 0.00214674231, 0.0145716891, -0.937353849, 3.12        , 3           , 11          , 0.0107896319, 0.0107896551
0.154931784 , -0.02479061 , -9.789595   , 0.00134334923, -0.0019611672, 0.0003061787, 0.108601861 , 0.163812861 , 0.710462451 , 0.00216021948, 0.0145520689, -0.937351   , 3.13        , 3           , 12          , 0.053616412 , 0
0.140241072 , -0.0221792944, -9.810929   , 0.000132193076, 0.00357552362, -0.000408142019, 0.108669274 , 0.163678035 , 0.7103276   , 0.002161483 , 0.0145878345, -0.937355042, 3.14        , 3           , 50          , 0           , 0
0.132147923 , -0.006956968, -9.794116   , -0.00352900033, 0.0008150201, -0.000112974776, 0.108669274 , 0.163678035 , 0.7103276   , 0.00212617684, 0.0145959854, -0.937356   , 3.15        , 3           , 11          , 0.0107896319, 0.0107896551
0.141389385 , -0.0180497356, -9.776543   , -0.00162271771, 0.00014239343, 0.00081923313, 0.108467035 , 0.163678035 , 0.710395038 , 0.00211007032, 0.0145973936, -0.9373479  , 3.16        , 3           , 12          , 0.053616412 , 0
0.157492563 , -0.0170171931, -9.759669   , -0.00321888528, -0.003834625, -0.00139485009, 0.108399622 , 0.163947687 , 0.7103276   , 0.00207767682, 0.0145590752, -0.937361956, 3.17        , 3           , 50          , 0           , 0
0.165354013 , -0.0176566057, -9.790319   , -0.003829862, -0.00139092107, -0.00150631217, 0.108399622 , 0.163947687 , 0.7101928   , 0.00203915942, 0.0145451976, -0.937377   , 3.18        , 3           , 11          , 0.0107896319, 0.0107896551
0.141961634 , -0.0187570862, -9.795065   , -0.0007706867, -0.00142006506, -0.00170251622, 0.108399622 , 0.163947687 , 0.710395038 , 0.002031204 , 0.01453103  , -0.937394142, 3.19        , 3           , 12          , 0.053616412 , 0
0.139548734 , -0.0332293846, -9.789382   , -0.00407235231, -0.002265466, 5.366617E-05, 0.108669274 , 0.163745448 , 0.7102602   , 0.00196937239, 0.0145013146, -0.9373939  , 3.2         , 3           , 50          , 0           , 0
0.154624254 , -0.0103238449, -9.792592   , -0.003368683, -0.0024236578, 0.000914354867, 0.108669274 , 0.163745448 , 0.7102602   , 0.001935817 , 0.0144770583, -0.937384844, 3.21        , 3           , 11          , 0.01115178  , 0.0111517981
0.157687277 , -0.0060357675, -9.774447   , -0.001559638, -0.000918621139, -0.00112771429, 0.108467035 , 0.163812861 , 0.710395038 , 0.00192005711, 0.0144678932, -0.937396049, 3.22        , 3           , 12          , 0.0546242557, 0
0.141484216 , -0.006331036, -9.775954   , -0.000132626548, -0.000432835543, -0.0009687617, 0.108736686 , 0.1640151   , 0.710529864 , 0.00191859063, 0.0144635821, -0.9374058  , 3.23        , 3           , 50          , 0           , 0
0.1366074   , 0.005401766 , -9.772702   , 0.00362251536, -0.00112424453, -2.541666E-05, 0.108736686 , 0.163880274 , 0.7103276   , 0.00195481163, 0.0144523419, -0.937406063, 3.24        , 3           , 11          , 0.01115178  , 0.0111517981
0.150652036 , -0.004824467, -9.797535   , 0.000887131144, -0.00410395442, -0.000300139043, 0.108601861 , 0.1640151   , 0.710395038 , 0.00196363847, 0.01441131  , -0.937409163, 3.25        , 3           , 12          , 0.0546242557, 0
0.154222056 , -0.04165407 , -9.772632   , 0.00176678458, -0.00203172513, -0.0006224457, 0.108601861 , 0.1640151   , 0.710395038 , 0.001981216 , 0.0143910022, -0.937415361, 3.26        , 3           , 50          , 0           , 0
0.1594367   , -0.0114719961, -9.77359    , 0.002091926 , 0.00133524963, -0.000857857231, 0.108534448 , 0.163947687 , 0.7102602   , 0.00200201129, 0.014404376 , -0.937423944, 3.27        , 3           , 11          , 0.01115178  , 0.0111517981
0.157926321 , 0.00278789178, -9.798283   , 0.00344514777, 0.00146545342, -0.000919172831, 0.108467035 , 0.164082512 , 0.7103276   , 0.00203632959, 0.0144190472, -0.937433   , 3.28        , 3           , 12          , 0.0546242557, 0
0.135900319 , -0.0510745645, -9.804527   , 0.00266788783, 0.00190326851, -0.000917624449, 0.108467035 , 0.163880274 , 0.710395038 , 0.00206287648, 0.0144381   , -0.9374423  , 3.29        , 3           , 50          , 0           , 0
0.12827304  , -0.0451800227, -9.801367   , 0.00194583158, 0.0038328527, -0.00153694791, 0.108736686 , 0.1640151   , 0.7102602   , 0.002343594 , 0.0144284163, -0.937454   , 3.3         , 3           , 11          , 0.0105178729, 0.010517885
0.152724221 , -0.01357579 , -9.782258   , 0.00477186544, 0.00307407114, -2.788686E-05, 0.108736686 , 0.1640151   , 0.7102602   , 0.002391309 , 0.0144591611, -0.937454462, 3.31        , 3           , 12          , 0.0556422025, 0
0.159869716 , -0.007941257, -9.76677    , 0.00376994628, -0.002945578, 0.0010950974, 0.108399622 , 0.163678035 , 0.7103276   , 0.00242916471, 0.0144296773, -0.9374435  , 3.32        , 3           , 50          , 0           , 0
0.124213964 , -0.0340269133, -9.786822   , 0.00101543835, -0.00239861431, -0.0008459114, 0.1088041   , 0.163880274 , 0.710462451 , 0.00243919645, 0.0144057134, -0.9374521  , 3.33        , 3           , 11          , 0.0105178729, 0.010517885
0.1162407   , -0.0279687811, -9.798569   , 0.00136836886, -0.00205296068, 0.000163021221, 0.108736686 , 0.1640151   , 0.710395038 , 0.00245290273, 0.0143851778, -0.9374504  , 3.34        , 3           , 12          , 0.0556422025, 0
0.145927459 , -0.0104671009, -9.772348   , -0.001263454, -0.002379976, -0.0003588317, 0.1088041   , 0.163947687 , 0.710462451 , 0.00244021555, 0.0143613881, -0.937454   , 3.35        , 3           , 50          , 0           , 0
0.155171186 , -0.0291236416, -9.764348   , 0.00224190438, -0.00055324944, -0.000239173649, 0.108736686 , 0.163880274 , 0.7101928   , 0.00246259943, 0.0143558579, -0.937456369, 3.36        , 3           , 11          , 0.0105178729, 0.010517885
0.132315457 , -0.0269797686, -9.777632   , 0.0009836511, 0.00118178839, -0.0005080067, 0.108736686 , 0.163880274 , 0.7101928   , 0.00247236271, 0.0143676894, -0.9374616  , 3.37        , 3           , 12          , 0.0556422025, 0
0.122501612 , -0.0245277025, -9.788083   , -0.00125012128, -0.0008101897, 0.000379532779, 0.108467035 , 0.163880274 , 0.7101928   , 0.00245991559, 0.01435958  , -0.9374578  , 3.38        , 3           , 50          , 0           , 0
0.138720468 , -0.0242082588, -9.788835   , 0.000928836234, 0.00247403653, -0.0007042772, 0.108467035 , 0.1640151   , 0.710529864 , 0.00246910285, 0.0143843358, -0.937464952, 3.39        , 3           , 11          , 0.0105178729, 0.010517885
0.155637234 , -0.0291033834, -9.766602   , -0.0005592065, -0.0030363258, -0.000435471855, 0.108467035 , 0.1640151   , 0.710462451 , 0.00246368069, 0.0143412817, -0.937469244, 3.4         , 3           , 12          , 0.0566694736, 0
0.164459169 , -0.004286118, -9.77481651 , -0.00111847522, -0.001042409, 0.00159346417, 0.108534448 , 0.163880274 , 0.7103276   , 0.00245272438, 0.014330822 , -0.9374535  , 3.41        , 3           , 50          , 0           , 0
0.134039789 , -0.00505290367, -9.804917   , -0.000829627563, -0.00132163975, 0.000446347985, 0.108534448 , 0.163880274 , 0.7103276   , 0.00244449149, 0.0143175917, -0.937449   , 3.42        , 3           , 11          , 0.0104893511, 0.01048937
0.104621232 , -0.0335205719, -9.818163   , 0.00147862674, 0.0006740949, -0.000941550243, 0.108601861 , 0.163745448 , 0.7103276   , 0.00245914352, 0.0143243559, -0.9374583  , 3.43        , 3           , 12          , 0.0566694736, 0
0.1473446   , -0.0241762847, -9.798691   , -0.0005726951, -0.00305424235, 0.0015676762, 0.108871512 , 0.163812861 , 0.710529864 , 0.00245363964, 0.0142937768, -0.937443   , 3.44        , 3           , 50          , 0           , 0
0.1684075   , -0.0249565989, -9.784955   , 0.004036371 , 0.00177392876, 0.00137987663, 0.108467035 , 0.163947687 , 0.7102602   , 0.0024942013, 0.01431148  , -0.9374292  , 3.45        , 3           , 11          , 0.0104893511, 0.01048937
0.150817513 , -0.0217344668, -9.77695    , 0.00176388584, 0.00123668509, -7.29976746E-05, 0.108467035 , 0.163745448 , 0.7103276   , 0.0025118296, 0.0143238511, -0.937429667, 3.46        , 3           , 12          , 0.0566694736, 0
0.1468268   , -0.0251661185, -9.790126   , 0.00202659913, -0.000488238962, 0.000189838538, 0.108399622 , 0.163812861 , 0.7103276   , 0.00253212266, 0.0143189626, -0.937428   , 3.47        , 3           , 50          , 0           , 0
0.144702226 , -0.0178304054, -9.799546   , 0.0034672257, 0.0009327682, -6.689083E-05, 0.108399622 , 0.163812861 , 0.7103276   , 0.00256678555, 0.01432829  , -0.9374287  , 3.48        , 3           , 11          , 0.0104893511, 0.01048937
0.132821232 , -0.0255632456, -9.783935   , 5.94383455E-05, 0.00210352219, 0.00107389851, 0.1082648   , 0.163947687 , 0.710462451 , 0.002567534 , 0.0143492976, -0.937417746, 3.49        , 3           , 12          , 0.0566694736, 0
0.149432525 , -0.0191043727, -9.768802   , 0.00231695268, -0.000213789128, -9.040501E-05, 0.108534448 , 0.163812861 , 0.710462451 , 0.00259249867, 0.0143161966, -0.9374187  , 3.5         , 3           , 50          , 0           , 0
0.141566873 , -0.0289062485, -9.815512   , 0.004930266 , 0.00406401139, -0.000584709458, 0.108601861 , 0.163947687 , 0.710395038 , 0.00264172046, 0.0143568516, -0.9374244  , 3.51        , 3           , 11          , 0.0105844261, 0.0105844485
0.151274532 , -0.0306307022, -9.788793   , 0.0005698944, -0.004200881, -0.00101760682, 0.108467035 , 0.163745448 , 0.7102602   , 0.00264727138, 0.01431487  , -0.9374347  , 3.52        , 3           , 12          , 0.05770536  , 0
0.133297682 , -0.006386282, -9.764287   , -0.000843778835, -0.003610715, -0.001303991, 0.108467035 , 0.163745448 , 0.7102602   , 0.00263864547, 0.0142787984, -0.9374478  , 3.53        , 3           , 50          , 0           , 0
0.138263673 , -0.0197630245, -9.782462   , -0.00136590574, 0.00012571222, -0.00182548957, 0.108534448 , 0.163812861 , 0.710395038 , 0.00262472639, 0.0142801   , -0.9374659  , 3.54        , 3           , 11          , 0.0105844261, 0.0105844485
0.126607388 , -0.0222552363, -9.792988   , 0.0005987516, -0.000211808525, 0.00161629869, 0.108467035 , 0.163880274 , 0.710462451 , 0.0026309446, 0.0142779415, -0.937449932, 3.55        , 3           , 12          , 0.05770536  , 0
0.122057907 , -0.02896511 , -9.794462   , -0.000240814668, 0.0006617168, 0.001051351 , 0.1082648   , 0.1640151   , 0.710395038 , 0.00262868661, 0.0142845307, -0.9374392  , 3.56        , 3           , 50          , 0           , 0
0.144956157 , -0.0346049443, -9.791606   , -0.000219907, 0.0018182717, -7.661082E-05, 0.108467035 , 0.163745448 , 0.710395038 , 0.00262647658, 0.0143027157, -0.937440157, 3.57        , 3           , 11          , 0.0105844261, 0.0105844485
0.146312147 , -0.0261511058, -9.782011   , -0.00473271962, 0.005019436 , -0.00034428027, 0.108467035 , 0.163745448 , 0.710395038 , 0.00257910183, 0.0143529167, -0.9374435  , 3.58        , 3           , 12          , 0.05770536  , 0
0.138134927 , -0.0355398878, -9.783098   , 0.00206303177, 0.00293379277, 0.000812282553, 0.108399622 , 0.163880274 , 0.7101254   , 0.00259985123, 0.0143822338, -0.93743515 , 3.59        , 3           , 50          , 0           , 0
0.137280166 , -0.0274496078, -9.77985    , 4.60835727E-05, -0.0007728058, 0.000460079464, 0.108332209 , 0.163812861 , 0.710462451 , 0.00264104619, 0.0143641178, -0.937430143, 3.6         , 3           , 11          , 0.0107793072, 0.0107793314
0.1554024   , -0.00295177288, -9.76585    , 0.00287728338, -0.00194801867, 0.000460519252, 0.108467035 , 0.163812861 , 0.710462451 , 0.002669884 , 0.0143446289, -0.9374254  , 3.61        , 3           , 12          , 0.0587491952, 0
0.1418617   , -0.0295933429, -9.793836   , -0.00337902317, -0.00160042732, 0.0007131621, 0.108601861 , 0.163880274 , 0.710395038 , 0.00263619586, 0.0143286027, -0.9374182  , 3.62        , 3           , 50          , 0           , 0
0.154927626 , -0.03013858 , -9.795528   , -0.0007648671, 0.00126751233, -0.002377486, 0.1088041   , 0.163812861 , 0.7101928   , 0.00262820534, 0.0143413432, -0.937442064, 3.63        , 3           , 11          , 0.0107793072, 0.0107793314
0.16303961  , -0.0177337769, -9.781308   , -0.00511069037, -0.003591703, 0.000959831 , 0.1088041   , 0.163812861 , 0.7101928   , 0.00257723453, 0.0143053988, -0.9374325  , 3.64        , 3           , 12          , 0.0587491952, 0
0.126151368 , -0.008015886, -9.77476    , -0.00366895529, -0.00273361616, -0.000449901476, 0.108669274 , 0.163947687 , 0.7103276   , 0.00254047965, 0.0142780738, -0.9374373  , 3.65        , 3           , 50          , 0           , 0
0.155807167 , -0.0154891154, -9.774574   , -0.0016737564, -0.0019017848, 0.000433105 , 0.108601861 , 0.163947687 , 0.710462451 , 0.002523803 , 0.014259045 , -0.937433   , 3.66        , 3           , 11          , 0.0107793072, 0.0107793314
0.144458517 , -0.03467361 , -9.784837   , -0.004215843, -0.0001588627, 0.0007288896, 0.108534448 , 0.163880274 , 0.710529864 , 0.002481748 , 0.0142574394, -0.9374256  , 3.67        , 3           , 12          , 0.0587491952, 0
0.127389014 , -0.0331283659, -9.789041   , 0.0009645835, 0.00438462943, -0.0003181488, 0.108534448 , 0.163745448 , 0.7101928   , 0.00249134982, 0.01430129  , -0.9374287  , 3.68        , 3           , 50          , 0           , 0
0.135780022 , -0.0468074381, -9.781895   , 0.00265609683, 0.00321841449, -3.83985462E-05, 0.108534448 , 0.163745448 , 0.7101928   , 0.00251790672, 0.0143334754, -0.9374292  , 3.69        , 3           , 11          , 0.0107793072, 0.0107793314
0.136676222 , -0.0245651621, -9.754076   , -0.00364538142, -0.00387846236, -0.00132465851, 0.108601861 , 0.163880274 , 0.7103276   , 0.00256687542, 0.0142775932, -0.937441349, 3.7         , 3           , 12          , 0.0598003455, 0
0.1372473   , -0.0145910941, -9.759377   , -0.00446184864, -0.000998883, -0.00186039123, 0.108534448 , 0.163880274 , 0.710529864 , 0.002521991 , 0.0142676514, -0.937459946, 3.71        , 3           , 50          , 0           , 0
0.15308696  , -0.0199456159, -9.77736    , 0.004636643 , -0.00024953016, 0.000210106009, 0.1088041   , 0.1640151   , 0.710529864 , 0.00256838766, 0.0142651489, -0.9374578  , 3.72        , 3           , 11          , 0.010970654 , 0.0109706772
0.132257208 , -0.0373070538, -9.781817   , 0.0006225913, -0.00363778719, -0.00100862 , 0.108601861 , 0.163880274 , 0.7103276   , 0.00257446826, 0.0142287984, -0.937468052, 3.73        , 3           , 12          , 0.0598003455, 0
0.121002063 , -0.04343947 , -9.78967    , -0.00282453117, -0.005059043, 0.00152542768, 0.108736686 , 0.163745448 , 0.7101928   , 0.002546437 , 0.014178168 , -0.9374528  , 3.74        , 3           , 50          , 0           , 0
0.140119925 , -0.0254807882, -9.797418   , -0.00646008225, -0.001270354, -0.00130423065, 0.108736686 , 0.163745448 , 0.7101928   , 0.00248165079, 0.0141654955, -0.9374659  , 3.75        , 3           , 11          , 0.010970654 , 0.0109706772
0.120926186 , -0.0297565572, -9.76196    , 0.00266317069, 0.0006406727, -0.0009340232, 0.108467035 , 0.163880274 , 0.710395038 , 0.00250815041, 0.0141719254, -0.9374752  , 3.76        , 3           , 12          , 0.0598003455, 0
0.141325086 , -0.02126415 , -9.77116    , -0.00106921059, -0.00134317344, 0.000731472042, 0.108467035 , 0.163880274 , 0.710395038 , 0.00249756267, 0.0141584761, -0.9374678  , 3.77        , 3           , 50          , 0           , 0
0.151499316 , -0.045669347, -9.774509   , -0.00129451684, 0.0029712012, -0.0006384584, 0.108601861 , 0.163880274 , 0.710395038 , 0.002484528 , 0.014188204 , -0.937474251, 3.78        , 3           , 11          , 0.010970654 , 0.0109706772
0.156788841 , -0.009140726, -9.778557   , -0.00303552859, -0.00016127227, -0.0009808117, 0.108467035 , 0.163880274 , 0.710462451 , 0.00245403429, 0.0141866151, -0.937484   , 3.79        , 3           , 12          , 0.0598003455, 0
0.134908378 , -0.023805216, -9.823194   , -0.000213131221, 0.000107563523, 0.000184865261, 0.108467035 , 0.163880274 , 0.710462451 , 0.00240204786, 0.0142482966, -0.9374826  , 3.8         , 3           , 50          , 0           , 0
0.151760936 , -0.04571379 , -9.812449   , 0.0017837293, 9.501471E-05, -0.000661633, 0.108332209 , 0.163812861 , 0.7102602   , 0.00241979072, 0.0142492633, -0.9374893  , 3.81        , 3           , 11          , 0.0111641129, 0.0111641334
0.149494916 , -0.0403752737, -9.803827   , -0.000503905932, 0.000384234649, 0.0016181455, 0.108467035 , 0.163812861 , 0.7103276   , 0.0024149823, 0.0142530659, -0.937473059, 3.82        , 3           , 12          , 0.0608582422, 0
0.150497571 , -0.0117380489, -9.783613   , 0.002903593 , 0.000341880659, 0.00249719829, 0.108467035 , 0.163947687 , 0.7105973   , 0.002444374 , 0.0142564252, -0.937448263, 3.83        , 3           , 50          , 0           , 0
0.132188767 , -0.00244307332, -9.794515   , 0.002013154 , -0.00336730084, 0.00157931016, 0.108534448 , 0.163812861 , 0.7102602   , 0.002464729 , 0.0142227132, -0.9374325  , 3.84        , 3           , 11          , 0.0111641129, 0.0111641334
0.146238    , -0.034277074, -9.781202   , -0.00109313976, -0.00104800076, 0.00216617878, 0.108534448 , 0.163812861 , 0.7102602   , 0.002454106 , 0.01421218  , -0.9374106  , 3.85        , 3           , 12          , 0.0608582422, 0
0.152458265 , -0.03980089 , -9.775789   , 0.005782101 , 0.002615856 , 0.00140306447, 0.108467035 , 0.163812861 , 0.710395038 , 0.002512127 , 0.0142383026, -0.937396765, 3.86        , 3           , 50          , 0           , 0
0.151175767 , -0.0267757755, -9.769778   , 0.00206650747, 0.0009365053, 0.001069585 , 0.108467035 , 0.163880274 , 0.710395038 , 0.00253294455, 0.014247641 , -0.9373858  , 3.87        , 3           , 11          , 0.0111641129, 0.0111641334
0.152826786 , -0.0169798024, -9.801269   , 0.00153696188, 0.00353429513, -0.000327100017, 0.108669274 , 0.1640151   , 0.710529864 , 0.00254826853, 0.0142829912, -0.937389135, 3.88        , 3           , 12          , 0.0608582422, 0
0.163744688 , -0.008889843, -9.807398   , -0.00366656459, -0.00301525067, 0.000690723653, 0.108601861 , 0.163745448 , 0.7105973   , 0.00251169945, 0.0142528228, -0.9373822  , 3.89        , 3           , 50          , 0           , 0
0.139184    , -0.0121732131, -9.776043   , 7.236679E-05, 0.002749437 , -0.0009211197, 0.108534448 , 0.163947687 , 0.7102602   , 0.00240654033, 0.0144411959, -0.9373927  , 3.9         , 3           , 11          , 0.011379363 , 0.0113793816
0.1424537   , -0.00890399 , -9.789074   , 0.002656534 , 0.00416656444, -0.0020294874, 0.108534448 , 0.163947687 , 0.7102602   , 0.00243281247, 0.0144829107, -0.937413   , 3.91        , 3           , 12          , 0.06192233  , 0
0.156245679 , -0.033316344, -9.79465    , -0.002838587, -0.00267178984, -0.0004452228, 0.1088041   , 0.163745448 , 0.710395038 , 0.0024043622, 0.0144562023, -0.937417269, 3.92        , 3           , 50          , 0           , 0
0.156657666 , -0.0267018434, -9.781019   , 0.002564954 , -0.00329217268, -0.00127950753, 0.108601861 , 0.164149925 , 0.710529864 , 0.00242982642, 0.0144233117, -0.937430143, 3.93        , 3           , 11          , 0.011379363 , 0.0113793816
0.135146379 , -0.0130058695, -9.779252   , 0.00172206422, -0.000729886233, 0.00161455432, 0.108669274 , 0.163812861 , 0.710529864 , 0.00244727987, 0.0144159738, -0.937414169, 3.94        , 3           , 12          , 0.06192233  , 0
0.119434029 , -0.013688216, -9.787083   , 0.00290108565, 0.00185312482, -5.80143533E-05, 0.108601861 , 0.163947687 , 0.710395038 , 0.00247628265, 0.0144345062, -0.937414646, 3.95        , 3           , 50          , 0           , 0
0.150889963 , -0.0171721932, -9.781865   , 0.00259766518, 0.0007020192, 0.0007820702, 0.108601861 , 0.163947687 , 0.710395038 , 0.00250237249, 0.014441506 , -0.9374068  , 3.96        , 3           , 11          , 0.011379363 , 0.0113793816
0.133673966 , -0.0305407159, -9.783081   , 0.00145496672, -0.000703960948, -0.000962635153, 0.108399622 , 0.1640151   , 0.7101254   , 0.00251678261, 0.01443449  , -0.9374163  , 3.97        , 3           , 12          , 0.06192233  , 0
0.142253846 , -0.0305765048, -9.786616   , 0.00175205269, 0.000720926153, -0.000367726083, 0.108669274 , 0.163880274 , 0.710462451 , 0.0025342505, 0.01444171  , -0.9374201  , 3.98        , 3           , 50          , 0           , 0
0.145746827 , -0.0249880031, -9.763936   , 0.00229234085, -0.002426986, -0.00155486423, 0.108332209 , 0.164082512 , 0.710395038 , 0.002556948 , 0.0144174788, -0.937435865, 3.99        , 3           , 11          , 0.011379363 , 0.0113793816
0.1433527   , -0.0169265177, -9.798644   , -0.00253955787, -0.00124102249, -0.000136488263, 0.108467035 , 0.163880274 , 0.7103276   , 0.002531575 , 0.0144149791, -0.937437057, 4           , 3           , 12          , 0.0629921   , 0
0.1309937   , -0.0496254824, -9.809525   , -0.0034126786, -0.00295182876, -0.000166669648, 0.108601861 , 0.163880274 , 0.7103276   , 0.002497424 , 0.0143854655, -0.9374387  , 4.01        , 3           , 50          , 0           , 0
0.137650549 , -0.0351431221, -9.777678   , 0.002889009 , 0.000147208542, -0.00122772215, 0.108601861 , 0.163880274 , 0.7103276   , 0.00252613728, 0.0143869715, -0.9374511  , 4.02        , 3           , 11          , 0.0113893151, 0.0113893347
0.1346471   , -0.03043727 , -9.793461   , -0.0007952457, 0.00217802986, 0.000210038532, 0.108467035 , 0.163812861 , 0.710462451 , 0.00251821522, 0.0144087439, -0.937449   , 4.03        , 3           , 12          , 0.0629921   , 0
0.128843531 , -0.0240784679, -9.792988   , 0.00262434548, 0.00384491263, 0.00225878833, 0.108601861 , 0.163880274 , 0.710529864 , 0.00254478632, 0.0144471359, -0.9374263  , 4.04        , 3           , 50          , 0           , 0
0.14429298  , -0.00396454148, -9.788548   , -0.002508485, 0.00162220956, 0.0001914111, 0.108669274 , 0.163745448 , 0.710529864 , 0.00251972885, 0.0144633511, -0.9374244  , 4.05        , 3           , 11          , 0.0113893151, 0.0113893347
0.1541967   , -0.0214135181, -9.809437   , -0.00365366437, 0.000495129963, -0.000690628658, 0.108736686 , 0.163947687 , 0.710395038 , 0.002483093 , 0.01446832  , -0.9374311  , 4.06        , 3           , 12          , 0.0629921   , 0
0.149481922 , -0.03371814 , -9.793813   , 0.00571250124, -0.00103824236, -8.2626284E-05, 0.108736686 , 0.163947687 , 0.710395038 , 0.0025402063, 0.0144579383, -0.937432051, 4.07        , 3           , 50          , 0           , 0
0.155813277 , -0.0364010371, -9.801012   , 0.00146818184, 0.0004456763, -0.000945951557, 0.108601861 , 0.163812861 , 0.710395038 , 0.00255475054, 0.0144624189, -0.9374416  , 4.08        , 3           , 11          , 0.0113893151, 0.0113893347
0.138113081 , -0.0284512062, -9.771273   , -0.00112725841, -0.00211520819, -0.000140441887, 0.108399622 , 0.163812861 , 0.710395038 , 0.00254345615, 0.01444127  , -0.937443   , 4.09        , 3           , 12          , 0.0629921   , 0
0.1410887   , -0.0262743067, -9.808259   , 0.00312071713, -0.00388318021, 0.000146425911, 0.108534448 , 0.163812861 , 0.710529864 , 0.002584185 , 0.0143944994, -0.9374416  , 4.1         , 3           , 50          , 0           , 0
0.152903482 , -0.0527214035, -9.790839   , 0.0014094041, -0.004436441, -0.000158365539, 0.1088041   , 0.163678035 , 0.710462451 , 0.00259825517, 0.01435014  , -0.937443256, 4.11        , 3           , 11          , 0.0116676446, 0.0116676679
0.139990509 , -0.0279046744, -9.781638   , 0.004073879 , 0.00329566514, -0.00231957156, 0.1088041   , 0.163678035 , 0.710462451 , 0.002638662 , 0.0143831577, -0.9374664  , 4.12        , 3           , 12          , 0.06406709  , 0
0.1550991   , 0.003063934 , -9.779787   , 0.00659558875, 0.00209006853, 0.00139928691, 0.108736686 , 0.163745448 , 0.7102602   , 0.00270481873, 0.0144040193, -0.9374521  , 4.13        , 3           , 50          , 0           , 0
0.150588244 , -0.005367307, -9.7889595  , 0.00264259824, 0.00301585579, -0.00147382 , 0.108601861 , 0.163812861 , 0.710529864 , 0.00273103477, 0.0144342193, -0.93746686 , 4.14        , 3           , 11          , 0.0116676446, 0.0116676679
0.143695265 , -0.0242175087, -9.791949   , 4.193095E-05, 0.000165832913, -0.000386319967, 0.108534448 , 0.163880274 , 0.710462451 , 0.002731398 , 0.0144358873, -0.9374707  , 4.15        , 3           , 12          , 0.06406709  , 0
0.151240125 , -0.0373604223, -9.792032   , -0.000519795169, 0.000463310338, -0.00095790124, 0.108736686 , 0.163812861 , 0.710462451 , 0.002726061 , 0.0144405467, -0.93748045 , 4.16        , 3           , 50          , 0           , 0
0.1594657   , -0.0225559231, -9.791334   , -0.00254498236, -0.00181933364, 0.000141372759, 0.108601861 , 0.163745448 , 0.7103276   , 0.002700631 , 0.0144223487, -0.937479   , 4.17        , 3           , 11          , 0.0116676446, 0.0116676679
0.167614251 , -0.00875970349, -9.780711   , 0.00203301059, 0.000145605576, -0.00037432625, 0.108601861 , 0.163745448 , 0.7103276   , 0.00272090733, 0.0144238137, -0.937482834, 4.18        , 3           , 12          , 0.06406709  , 0
0.154226139 , -0.0225070771, -9.74982548 , -0.005101643, -0.00150674779, 0.000130125729, 0.108669274 , 0.163745448 , 0.710395038 , 0.00266990927, 0.0144087439, -0.9374814  , 4.19        , 3           , 50          , 0           , 0
0.157128081 , -0.0257846173, -9.78281    , -0.00256210682, -0.003808394, -0.0010325372, 0.108601861 , 0.163947687 , 0.710462451 , 0.0026386918, 0.0143919038, -0.9374919  , 4.2         , 3           , 11          , 0.011903977 , 0.0119039994
0.168835267 , -0.029891463, -9.787719   , -0.00251234183, 0.00133723312, 0.00047340634, 0.108601861 , 0.163947687 , 0.710395038 , 0.00261363736, 0.0144052645, -0.9374871  , 4.21        , 3           , 12          , 0.06514685  , 0
0.139510617 , -0.0288364422, -9.778492   , 0.00172896532, -0.00156166486, -0.0006872841, 0.1088041   , 0.163880274 , 0.7102602   , 0.00263082772, 0.0143896667, -0.93749404 , 4.22        , 3           , 50          , 0           , 0
0.138746947 , -0.0232774019, -9.79153252 , 0.002337445 , 0.00187150564, -0.0006337749, 0.1088041   , 0.163880274 , 0.7102602   , 0.00265411031, 0.0144083975, -0.937500238, 4.23        , 3           , 11          , 0.011903977 , 0.0119039994
0.128417119 , -0.0204769671, -9.7920475  , 0.00290659047, 0.00271266676, 0.0008129926, 0.108669274 , 0.163812861 , 0.710395038 , 0.0026832947, 0.0144355018, -0.937492132, 4.24        , 3           , 12          , 0.06514685  , 0
0.160265    , -0.0204931162, -9.774138   , 0.00113614288, -0.00215207925, 0.001876418 , 0.108669274 , 0.163947687 , 0.710462451 , 0.002694927 , 0.0144139314, -0.937473536, 4.25        , 3           , 50          , 0           , 0
0.157950535 , -0.0321438462, -9.779263   , 0.000572225 , -0.00270410138, 0.000147660248, 0.108601861 , 0.163745448 , 0.710395038 , 0.00270066853, 0.0143868858, -0.9374721  , 4.26        , 3           , 11          , 0.011903977 , 0.0119039994
0.171639726 , -0.005274849, -9.772504   , -0.00109700754, -9.731315E-05, -0.000969714369, 0.108669274 , 0.163678035 , 0.710462451 , 0.00268955948, 0.0143859377, -0.937481642, 4.27        , 3           , 12          , 0.06514685  , 0
0.146735668 , -0.0226348788, -9.773837   , -0.0008750018, -0.00469826674, 0.0003960425, 0.108669274 , 0.163678035 , 0.710462451 , 0.00268086512, 0.0143389478, -0.9374778  , 4.28        , 3           , 50          , 0           , 0
0.139191449 , -0.0344185  , -9.804304   , -0.001393275, -0.00095672044, -0.000697784359, 0.108669274 , 0.163947687 , 0.7102602   , 0.002666832 , 0.0143293971, -0.937485   , 4.29        , 3           , 11          , 0.011903977 , 0.0119039994
0.1498544   , -0.0329508856, -9.781605   , 0.00176236907, -0.00184259762, -0.0018357347, 0.108601861 , 0.163880274 , 0.710395038 , 0.00277764071, 0.01429624  , -0.937502146, 4.3         , 3           , 12          , 0.06623096  , 0
0.1594928   , -0.0211790167, -9.793576   , 3.152166E-05, -0.00326839415, -0.000722226745, 0.108332209 , 0.164082512 , 0.7106647   , 0.002777851 , 0.0142635731, -0.937509537, 4.31        , 3           , 50          , 0           , 0
0.1549165   , -0.0221432336, -9.784144   , 9.340205E-05, 0.00161113043, -0.00150976854, 0.108399622 , 0.1640151   , 0.710462451 , 0.00277857017, 0.0142797278, -0.937524557, 4.32        , 3           , 11          , 0.0122015039, 0.012201529
0.147786856 , -0.0161800366, -9.787754   , -0.001038312, 0.00247730734, -0.0009317736, 0.108467035 , 0.163812861 , 0.7105973   , 0.0027680546, 0.0143045262, -0.937533855, 4.33        , 3           , 12          , 0.06623096  , 0
0.1369997   , -0.0231794734, -9.799227   , 0.0011888158, -0.00240741717, -0.00213367259, 0.108467035 , 0.163812861 , 0.7105973   , 0.00277963723, 0.01428051  , -0.9375553  , 4.34        , 3           , 50          , 0           , 0
0.128330827 , -0.0259507541, -9.78624    , 0.00150844781, 0.00130498421, -0.000933047151, 0.108669274 , 0.163812861 , 0.7102602   , 0.002794589 , 0.0142935859, -0.9375646  , 4.35        , 3           , 11          , 0.0122015039, 0.012201529
0.141708225 , -0.0311638024, -9.773529   , -0.000219364709, -0.0006811726, -0.00125870644, 0.108399622 , 0.163880274 , 0.7105973   , 0.00279221521, 0.0142868124, -0.937577248, 4.36        , 3           , 12          , 0.06623096  , 0
0.156818837 , -0.05830787 , -9.777769   , 0.006372254 , 0.00355105335, -0.0011566953, 0.108601861 , 0.163745448 , 0.710462451 , 0.00285577355, 0.0143223535, -0.93758893 , 4.37        , 3           , 50          , 0           , 0
0.1500678   , -0.0290629864, -9.807756   , 0.0006471552, 0.000456475129, -0.00123687217, 0.108534448 , 0.163812861 , 0.710395038 , 0.00286206859, 0.0143269505, -0.9376011  , 4.38        , 3           , 11          , 0.0122015039, 0.012201529
0.152943343 , -0.0101242829, -9.809771   , 0.00430390146, -0.00330405962, -0.00155501766, 0.108534448 , 0.163812861 , 0.710395038 , 0.00290488428, 0.0142939547, -0.9376166  , 4.39        , 3           , 12          , 0.06623096  , 0
0.114662148 , -0.0585750565, -9.803002   , -0.001403151, -0.00292140245, -0.00330257136, 0.108399622 , 0.163678035 , 0.710395038 , 0.00278096483, 0.0143405311, -0.9376509  , 4.4         , 3           , 50          , 0           , 0
0.127751231 , -0.0421697572, -9.787335   , 0.002596859 , 0.000730398 , 0.000495804 , 0.108601861 , 0.1640151   , 0.710529864 , 0.002807006 , 0.0143478224, -0.937646151, 4.41        , 3           , 11          , 0.0118748005, 0.0118748257
0.13163355  , -0.000819403736, -9.777337   , 4.075303E-05, 0.000761523668, -9.194459E-05, 0.108534448 , 0.163880274 , 0.710462451 , 0.0028074   , 0.0143554369, -0.937646866, 4.42        , 3           , 12          , 0.06731904  , 0
0.162957579 , -0.0200850815, -9.772303   , -0.004515249, 0.00136555883, 0.00160597218, 0.108871512 , 0.163880274 , 0.710462451 , 0.00276247784, 0.0143690491, -0.9376309  , 4.43        , 3           , 50          , 0           , 0
0.163029179 , -0.0115178786, -9.772203   , -0.00192611886, 0.002224885 , -0.00122772681, 0.108669274 , 0.163812861 , 0.7102602   , 0.00274304138, 0.01439133  , -0.9376428  , 4.44        , 3           , 11          , 0.0118748005, 0.0118748257
0.1549693   , -0.0296296142, -9.800942   , -0.003379681, 0.000504500931, 0.000455649133, 0.108669274 , 0.163812861 , 0.7102602   , 0.00270931  , 0.0143963639, -0.9376383  , 4.45        , 3           , 12          , 0.06731904  , 0
0.160628885 , -0.03754437 , -9.782463   , 0.00461407332, 0.00215586415, -0.000902154541, 0.108601861 , 0.163745448 , 0.710395038 , 0.00275532226, 0.0144179491, -0.937647343, 4.46        , 3           , 50          , 0           , 0
0.1379036   , -0.01605992 , -9.791005   , -0.00422336627, 0.0005259674, -0.0009803111, 0.108534448 , 0.163812861 , 0.7106647   , 0.00271294732, 0.0144232335, -0.9376571  , 4.47        , 3           , 11          , 0.0118748005, 0.0118748257
0.149105936 , -0.0278137289, -9.797361   , -0.000287140574, -0.00267965533, 0.000428587664, 0.1088041   , 0.163812861 , 0.7105973   , 0.002710137 , 0.0143964244, -0.9376528  , 4.48        , 3           , 12          , 0.06731904  , 0
0.166181579 , -0.0248982832, -9.78858948 , 0.003423225 , -0.001289444, 0.00104405743, 0.108871512 , 0.163812861 , 0.710395038 , 0.00274451822, 0.0143835032, -0.937642336, 4.49        , 3           , 50          , 0           , 0
0.164769739 , -0.016522551, -9.769534   , 0.005476426 , 0.004197877 , 0.000562824949, 0.108871512 , 0.163812861 , 0.710395038 , 0.00278430316, 0.0146197872, -0.937636852, 4.5         , 3           , 11          , 0.0118826469, 0.0118826739
0.1617073   , -0.0319381058, -9.801359   , 0.00266750646, 0.006813664 , -0.0002752392, 0.108938925 , 0.163947687 , 0.7102602   , 0.00281094061, 0.0146879321, -0.9376395  , 4.51        , 3           , 12          , 0.06841072  , 0
0.15269801  , -0.0508104339, -9.758748   , 0.0003182794, 0.00109495979, 0.000772238942, 0.108534448 , 0.163812861 , 0.710395038 , 0.00281423656, 0.0146988593, -0.937631845, 4.52        , 3           , 50          , 0           , 0
0.142291427 , -0.02384194 , -9.783829   , -0.00169616565, -0.00173780683, -0.000712310139, 0.108534448 , 0.163880274 , 0.7107321   , 0.00279717031, 0.0146815013, -0.93763876 , 4.53        , 3           , 11          , 0.0118826469, 0.0118826739
0.136332631 , -0.03419084 , -9.781292   , -0.0008062808, 0.00225283462, 0.0007820796, 0.1088041   , 0.163812861 , 0.710462451 , 0.0027892238, 0.01470401  , -0.9376309  , 4.54        , 3           , 12          , 0.06841072  , 0
0.1334552   , -0.0406687036, -9.763778   , -0.000520732952, 0.00168702507, -0.000369210145, 0.1088041   , 0.163812861 , 0.710462451 , 0.00278396276, 0.01472089  , -0.9376347  , 4.55        , 3           , 50          , 0           , 0
0.158135265 , -0.0238484945, -9.795877   , 0.000303441222, -0.00118231645, -0.0009781333, 0.108534448 , 0.163745448 , 0.710462451 , 0.00278685382, 0.0147090945, -0.937644243, 4.56        , 3           , 11          , 0.0118826469, 0.0118826739
0.141993076 , -0.028056737, -9.810982   , 0.0005724657, -0.00120568217, 0.00131289219, 0.108467035 , 0.163880274 , 0.710395038 , 0.00279277121, 0.014697    , -0.93763113 , 4.57        , 3           , 12          , 0.06841072  , 0
0.1334183   , -0.0173298866, -9.795127   , 0.00230909372, 0.00022779245, -0.000659107871, 0.108467035 , 0.163812861 , 0.710529864 , 0.00281576533, 0.0146992952, -0.9376378  , 4.58        , 3           , 50          , 0           , 0
0.136852309 , -0.0202892646, -9.774352   , -0.00113966654, -0.002324423, 0.000141261626, 0.108669274 , 0.163880274 , 0.7102602   , 0.00280438852, 0.0146760475, -0.9376366  , 4.59        , 3           , 11          , 0.0118826469, 0.0118826739
0.161376685 , -0.011274768, -9.793446   , -0.003989415, -0.001735765, 0.0009909074, 0.108736686 , 0.163947687 , 0.710395038 , 0.00274326932, 0.0146388439, -0.9376271  , 4.6         , 3           , 12          , 0.06950566  , 0
0.166344434 , -0.009514272, -9.793379   , 0.00226166518, -0.002372495, 0.001020255 , 0.108736686 , 0.163947687 , 0.710395038 , 0.0027660355, 0.0146150915, -0.9376166  , 4.61        , 3           , 50          , 0           , 0
0.144585013 , -0.0367055424, -9.805636   , 0.000590241048, -0.0006152061, -0.00125429616, 0.108534448 , 0.163880274 , 0.7103276   , 0.00277175382, 0.0146089736, -0.937629461, 4.62        , 3           , 11          , 0.0117759751, 0.0117759975
0.130566865 , -0.0255484581, -9.783504   , 1.47611136E-05, -0.00118258526, -0.00126607 , 0.108467035 , 0.163947687 , 0.7105973   , 0.002771716 , 0.0145971831, -0.937641859, 4.63        , 3           , 12          , 0.06950566  , 0
0.12246237  , -0.023252409, -9.780842   , 0.00289820647, 0.00250892877, -0.000622352, 0.108601861 , 0.163880274 , 0.710462451 , 0.00280061  , 0.0146222888, -0.937648058, 4.64        , 3           , 50          , 0           , 0
0.145059839 , -0.0233177673, -9.79283    , -0.003666459, 0.00028787565, -0.00126747647, 0.108601861 , 0.163812861 , 0.710462451 , 0.002763761 , 0.0146252029, -0.937660933, 4.65        , 3           , 11          , 0.0117759751, 0.0117759975
0.168498725 , -0.004340753, -9.772974   , 0.0006009601, 0.0008100111, -0.000374936324, 0.108601861 , 0.163812861 , 0.710462451 , 0.00276971515, 0.014633311 , -0.9376645  , 4.66        , 3           , 12          , 0.06950566  , 0
0.150533661 , -0.0130181815, -9.790402   , 0.004037074 , 0.00193444965, -0.00176850136, 0.108736686 , 0.163745448 , 0.7103276   , 0.00280982745, 0.0146527076, -0.937682152, 4.67        , 3           , 50          , 0           , 0
0.134102926 , -0.03458344 , -9.784931   , -0.002507526, 0.00227981154, -0.000945244, 0.108332209 , 0.163880274 , 0.710462451 , 0.002784614 , 0.0146755306, -0.93769145 , 4.68        , 3           , 11          , 0.0117759751, 0.0117759975
0.154932946 , -0.010099439, -9.77181    , 0.00124903908, 0.0076821316, -0.000271344732, 0.108399622 , 0.163947687 , 0.710395038 , 0.00279706856, 0.0147523573, -0.9376941  , 4.69        , 3           , 12          , 0.06950566  , 0
0.177501619 , -0.01510541 , -9.785662   , 0.00205568131, 0.004816222 , -0.000308133051, 0.108467035 , 0.163812861 , 0.710462451 , 0.002769031 , 0.01483085  , -0.937697649, 4.7         , 3           , 50          , 0           , 0
0.153763711 , -0.0314244926, -9.758966   , -0.0011014851, 0.00255281478, -7.420464E-05, 0.108601861 , 0.163745448 , 0.710462451 , 0.002758006 , 0.0148563841, -0.9376981  , 4.71        , 3           , 11          , 0.0119461128, 0.0119461333
0.1459186   , -0.0100355446, -9.770536   , -0.000835471961, 0.00111446972, 0.0001928051, 0.108601861 , 0.163745448 , 0.710462451 , 0.00274968031, 0.01486752  , -0.9376962  , 4.72        , 3           , 12          , 0.07060354  , 0
0.134174064 , -0.0171142463, -9.773888   , 0.00197344716, -0.0015013176, 0.00103086908, 0.108534448 , 0.163812861 , 0.710395038 , 0.00276956661, 0.0148524782, -0.937685966, 4.73        , 3           , 50          , 0           , 0
0.148008481 , -0.031223515, -9.773021   , 0.00341188186, -0.000929809641, -0.000383036735, 0.108669274 , 0.163880274 , 0.7105973   , 0.002803627 , 0.0148431947, -0.9376898  , 4.74        , 3           , 11          , 0.0119461128, 0.0119461333
0.164840087 , -0.0204210225, -9.784485   , 0.0002885343, 0.0002380547, 0.0007594661, 0.108467035 , 0.163745448 , 0.710529864 , 0.002806626 , 0.0148455538, -0.937682152, 4.75        , 3           , 12          , 0.07060354  , 0
0.142009363 , -0.02536098 , -9.810046   , -0.00257263053, -0.00201288471, -0.00072187616, 0.108601861 , 0.163880274 , 0.710462451 , 0.002780792 , 0.0148254447, -0.937689543, 4.76        , 3           , 50          , 0           , 0
0.138113424 , -0.03512769 , -9.77948    , -0.00225437223, 0.00141549692, 0.00018841165, 0.108601861 , 0.163880274 , 0.710462451 , 0.00275827735, 0.0148395943, -0.937687635, 4.77        , 3           , 11          , 0.0119461128, 0.0119461333
0.136039183 , -0.0232635662, -9.790653   , 0.00455732644, 0.0010442097, 0.00194234343, 0.108601861 , 0.163812861 , 0.7106647   , 0.00280413916, 0.0148499813, -0.9376681  , 4.78        , 3           , 12          , 0.07060354  , 0
0.140293837 , -0.0158666074, -9.810857   , -0.0013721718, 0.00342056062, -0.000635725446, 0.108399622 , 0.163947687 , 0.7105973   , 0.00279032462, 0.0148842037, -0.9376743  , 4.79        , 3           , 50          , 0           , 0
0.1526028   , -0.0239998344, -9.777411   , -0.0046272967, -0.005448364, 7.43376E-05 , 0.108601861 , 0.163880274 , 0.7105973   , 0.00267793681, 0.0147967245, -0.9376743  , 4.8         , 3           , 11          , 0.012121601 , 0.0121216187
0.140373453 , -0.0217797849, -9.7644     , 0.000243110146, -0.00262913737, -0.000140963355, 0.1088041   , 0.163880274 , 0.710529864 , 0.002680346 , 0.014770438 , -0.937675953, 4.81        , 3           , 12          , 0.0717040747, 0
0.12742123  , -0.0210603662, -9.778963   , 0.00168400165, -0.0003611903, 0.00104564778, 0.1088041   , 0.163880274 , 0.710529864 , 0.00269734114, 0.0147667965, -0.937665462, 4.82        , 3           , 50          , 0           , 0
0.156419128 , -0.0148001919, -9.797144   , 0.0003008714, 0.001398328 , -0.00179951789, 0.108871512 , 0.163880274 , 0.7101928   , 0.00270008412, 0.01478083  , -0.937683344, 4.83        , 3           , 11          , 0.012121601 , 0.0121216187
0.142456383 , -0.0115707088, -9.792719   , -0.00172101613, -0.000597736856, -0.0006960704, 0.108601861 , 0.163812861 , 0.710529864 , 0.00268277084, 0.0147748711, -0.9376905  , 4.84        , 3           , 12          , 0.0717040747, 0
0.134049773 , -0.04579316 , -9.790933   , 0.000556696 , 0.000228645469, 0.0004748134, 0.108534448 , 0.163880274 , 0.710395038 , 0.00268840743, 0.0147771444, -0.9376857  , 4.85        , 3           , 50          , 0           , 0
0.146458775 , -0.0453156456, -9.761453   , -0.00342792156, -0.00142733892, -0.00214969134, 0.108467035 , 0.163947687 , 0.7102602   , 0.002653811 , 0.01476293  , -0.9377072  , 4.86        , 3           , 11          , 0.012121601 , 0.0121216187
0.141096026 , -0.0274017341, -9.745486   , 0.002297997 , 0.00223271875, -0.00120267575, 0.108467035 , 0.163812861 , 0.710395038 , 0.00267661433, 0.0147852879, -0.9377191  , 4.87        , 3           , 12          , 0.0717040747, 0
0.161271065 , -0.0216746368, -9.790855   , 0.000800982 , -0.002931734, 0.00100294582, 0.108467035 , 0.163812861 , 0.710395038 , 0.00268477132, 0.0147559447, -0.9377091  , 4.88        , 3           , 50          , 0           , 0
0.1491726   , -0.009016009, -9.784045   , -0.000871550059, -0.000611524738, -0.000118602191, 0.108534448 , 0.163947687 , 0.710462451 , 0.0026760383, 0.0147498325, -0.9377105  , 4.89        , 3           , 11          , 0.012121601 , 0.0121216187
0.134594738 , -0.03185288 , -9.787605   , 0.00193085324, -0.00150349946, 0.00103033613, 0.108467035 , 0.1640151   , 0.710462451 , 0.00260483474, 0.014760376 , -0.9377012  , 4.9         , 3           , 12          , 0.07280696  , 0
0.1318547   , -0.0439070277, -9.79680252 , 0.00281086168, -0.000347935, -0.000950977439, 0.108534448 , 0.163880274 , 0.710462451 , 0.00263280352, 0.0147569207, -0.9377105  , 4.91        , 3           , 50          , 0           , 0
0.133292153 , -0.0219744258, -9.782534   , -0.00345919887, -0.0008652001, -0.000138527175, 0.108467035 , 0.163947687 , 0.710395038 , 0.00259819  , 0.0147482716, -0.9377122  , 4.92        , 3           , 11          , 0.0121088568, 0.0121088708
0.159413949 , -0.0235254876, -9.785022   , 0.00452381326, 0.0013362855, 0.0010874921, 0.108467035 , 0.163947687 , 0.710395038 , 0.002643589 , 0.01476161  , -0.9377012  , 4.93        , 3           , 12          , 0.07280696  , 0
0.140987366 , -0.0219781566, -9.788336   , 0.00276162731, -0.00379968225, 0.000429760228, 0.108534448 , 0.163678035 , 0.710462451 , 0.00267126737, 0.014723598 , -0.9376972  , 4.94        , 3           , 50          , 0           , 0
0.149812162 , -0.0223323777, -9.762511   , 0.00336076133, -0.00150770938, -0.00010575277, 0.108467035 , 0.163947687 , 0.710462451 , 0.002704859 , 0.0147085236, -0.9376981  , 4.95        , 3           , 11          , 0.0121088568, 0.0121088708
0.14864096  , -0.0109173264, -9.774588   , -0.000875585, 0.000833387137, -0.000670393463, 0.108601861 , 0.163880274 , 0.710395038 , 0.00269600423, 0.0147168767, -0.9377048  , 4.96        , 3           , 12          , 0.07280696  , 0
0.144010723 , -0.0328854136, -9.783013   , -0.000879992731, 0.00110972836, 0.0004784361, 0.108534448 , 0.163947687 , 0.710462451 , 0.00268727448, 0.0147279613, -0.937700033, 4.97        , 3           , 50          , 0           , 0
0.134207338 , -0.0250756945, -9.788434   , -0.005196623, -0.00483949436, -0.00249654916, 0.108534448 , 0.163745448 , 0.710395038 , 0.002634939 , 0.0146796359, -0.937725067, 4.98        , 3           , 11          , 0.0121088568, 0.0121088708
0.139989108 , -0.0127722789, -9.762943   , 0.0019971414, 0.00309968344, -0.0009060353, 0.108534448 , 0.163745448 , 0.710395038 , 0.00265477714, 0.0147106536, -0.9377341  , 4.99        , 3           , 12          , 0.07280696  , 0
0.148924991 , -0.0356581658, -9.780741   , -0.002030136, -0.000298311177, -0.00126635737, 0.108534448 , 0.163880274 , 0.710462451 , 0.002605986 , 0.0146998689, -0.93774724 , 5           , 3           , 50          , 0           , 0
0.1554358   , -0.0131387226, -9.783133   , 0.00169068307, 0.00167017779, -0.00121486851, 0.108332209 , 0.1640151   , 0.7106647   , 0.00262271543, 0.0147166019, -0.937759161, 5.01        , 3           , 11          , 0.0121175   , 0.0121175144
0.145201549 , -0.03225182 , -9.759055   , 0.00682105636, 0.00219644187, -0.0017480083, 0.108399622 , 0.163880274 , 0.710529864 , 0.002690669 , 0.0147386128, -0.9377768  , 5.02        , 3           , 12          , 0.07391197  , 0
0.132326275 , -0.0282986183, -9.780809   , 0.005935002 , 0.000186259131, -0.000351543131, 0.108601861 , 0.163812861 , 0.710395038 , 0.00274996646, 0.0147404838, -0.937780142, 5.03        , 3           , 50          , 0           , 0
0.14261499  , -0.04273551 , -9.788559   , 0.00023548372, -0.00118116569, -0.00126517087, 0.108601861 , 0.163812861 , 0.710395038 , 0.00275213621, 0.0147287063, -0.9377928  , 5.04        , 3           , 11          , 0.0121175   , 0.0121175144
0.130945    , -0.036791157, -9.786792   , -0.00260783173, 0.0002601502, 0.001027875 , 0.108736686 , 0.163812861 , 0.710395038 , 0.00272620982, 0.0147312805, -0.9377825  , 5.05        , 3           , 12          , 0.07391197  , 0
0.139533058 , -0.03547906 , -9.78986    , 0.00283311587, 0.00222921814, -0.0009135037, 0.108534448 , 0.163947687 , 0.710529864 , 0.00275440863, 0.0147535969, -0.9377916  , 5.06        , 3           , 50          , 0           , 0
0.1680555   , -0.006106587, -9.776159   , -0.00175752328, -0.0011634978, -0.0009910004, 0.108669274 , 0.1640151   , 0.7105973   , 0.0027366865, 0.0147419889, -0.937801361, 5.07        , 3           , 11          , 0.0121175   , 0.0121175144
0.141469136 , -0.008134659, -9.775975   , 0.0019399079, -7.26628859E-05, 0.00105111569, 0.108601861 , 0.163880274 , 0.710462451 , 0.00275623961, 0.0147412326, -0.9377909  , 5.08        , 3           , 12          , 0.07391197  , 0
