Acc X       , Acc Y       , Acc Z       , Gyro X      , Gyro Y      , Gyro Z      , Magn X      , Magn Y      , Magn Z      , Euler X     , Euler Y     , Euler Z     , Time        , Status      , LowRate X   , LowRate Y   , LowRate Z    
-0.1157661  , -0.08471184 , -9.788259   , 0.000572649762, 0.00181210961, 0.0002587657, 0.202305511 , -0.0960631  , 0.347175419 , 0.00824137  , -0.0112030255, 0.4625044   , 0           , 3           , 11          , 0.0346410163, 0.0346410163
-0.118641369, -0.096528   , -9.777582   , -0.00140715786, 0.00297609437, 0.0005496301, 0.202440336 , -0.09586086 , 0.347445071 , 0.008227232 , -0.01117331 , 0.4625101   , 0.01        , 3           , 12          , 0.0346410163, 0
-0.0949421152, -0.07848756 , -9.796577   , -0.00195485237, 0.00399769843, -0.00087000936, 0.202305511 , -0.09599569 , 0.347377658 , 0.008207777 , -0.011133261, 0.462501764 , 0.02        , 3           , 50          , 0           , 0
-0.0955789  , -0.0881171748, -9.781337   , -0.00112119981, 0.002693024 , -0.0001682401, 0.202305511 , -0.09599569 , 0.347377658 , 0.008196581 , -0.0111063169, 0.462500334 , 0.03        , 3           , 11          , 0.0346410163, 0.0346410163
-0.1195373  , -0.0862751454, -9.765728   , 0.00185826584, 0.002370985 , 0.000417905045, 0.202372923 , -0.0960631  , 0.347310245 , 0.008215115 , -0.0110826436, 0.462504625 , 0.04        , 3           , 12          , 0.0346410163, 0
-0.108496919, -0.07621705 , -9.78719    , 0.0009880367, 0.000664018269, -4.152236E-05, 0.202372923 , -0.0960631  , 0.347512484 , 0.00822499953, -0.0110760005, 0.462504148 , 0.05        , 3           , 50          , 0           , 0
-0.107395649, -0.0607827939, -9.797391   , -0.0005974234, -0.0009001135, 0.000355345575, 0.202575162 , -0.09586086 , 0.347445071 , 0.008218986 , -0.0110850288, 0.462507725 , 0.06        , 3           , 11          , 0.0346410163, 0.0346410163
-0.121469527, -0.07196779 , -9.794487   , 0.00112048944, 0.000226305841, 0.0006684841, 0.202305511 , -0.0960631  , 0.347377658 , 0.008230116 , -0.0110828215, 0.4625144   , 0.07        , 3           , 12          , 0.0346410163, 0
-0.125188753, -0.07701251 , -9.78374    , 0.003285283 , 0.00236293557, -0.0002889381, 0.202305511 , -0.0960631  , 0.347377658 , 0.008262998 , -0.0110591669, 0.462511778 , 0.08        , 3           , 50          , 0           , 0
-0.108128384, -0.085248746, -9.786387   , 0.00199925737, 0.00152132055, -0.000881497, 0.2022381   , -0.09599569 , 0.347242832 , 0.008283088 , -0.0110438811, 0.462502956 , 0.09        , 3           , 11          , 0.0346410163, 0.0346410163
-0.08983061 , -0.0887738839, -9.766837   , 0.000689157634, -0.0006252806, 0.000224121672, 0.2022381   , -0.09613051 , 0.347445071 , 0.008432811 , -0.0110515226, 0.462503672 , 0.1         , 3           , 12          , 0.0346410163, 0
-0.121806242, -0.11076501 , -9.793132   , 0.00111140963, -0.000353273877, 0.0013755213, 0.202170685 , -0.0959282741, 0.3475799   , 0.008443774 , -0.01105517 , 0.462517262 , 0.11        , 3           , 50          , 0           , 0
-0.114166312, -0.105066672, -9.783962   , 0.00123547972, -0.00193090388, 0.00135342369, 0.202642575 , -0.09613051 , 0.347310245 , 0.008455981 , -0.0110745942, 0.462530851 , 0.12        , 3           , 11          , 0.0346410163, 0.0346410163
-0.095848754, -0.06914136 , -9.784283   , 0.00324224029, -0.00108371535, 0.0005194459, 0.202642575 , -0.09613051 , 0.347310245 , 0.008488344 , -0.011085473, 0.462535858 , 0.13        , 3           , 12          , 0.0346410163, 0
-0.107804269, -0.0898972154, -9.773791   , 0.004394718 , -0.0002291376, -0.00017658982, 0.202372923 , -0.0960631  , 0.347377658 , 0.008532311 , -0.0110877492, 0.462533951 , 0.14        , 3           , 50          , 0           , 0
-0.09887229 , -0.0856359154, -9.75785    , 0.002534031 , -0.00107265217, 8.591652E-05, 0.202372923 , -0.09613051 , 0.347512484 , 0.008557643 , -0.0110984826, 0.462534666 , 0.15        , 3           , 11          , 0.0346410163, 0.0346410163
-0.0928581  , -0.0832146  , -9.778094   , -0.000438292685, 0.0005287553, 0.000663208368, 0.202372923 , -0.0959282741, 0.347512484 , 0.008553186 , -0.0110932533, 0.46254158  , 0.16        , 3           , 12          , 0.0346410163, 0
-0.114097871, -0.09650429 , -9.783411   , -0.00156161212, 0.00154718  , 0.000241716087, 0.202305511 , -0.0961979255, 0.3475799   , 0.008537542 , -0.0110778017, 0.462543964 , 0.17        , 3           , 50          , 0           , 0
-0.101685256, -0.06149757 , -9.7774725  , -0.0030020948, -0.0004380271, -0.000511475664, 0.202440336 , -0.0961979255, 0.347512484 , 0.008507578 , -0.0110821389, 0.462538958 , 0.18        , 3           , 11          , 0.0346410163, 0.0346410163
-0.119640566, -0.106464282, -9.775446   , -0.0031894187, -0.004023941, 7.82652E-06 , 0.202440336 , -0.0961979255, 0.347512484 , 0.008475687 , -0.0111223776, 0.462538481 , 0.19        , 3           , 12          , 0.0346410163, 0
-0.127148226, -0.09148388 , -9.778504   , 0.0006921092, -0.0014944037, 0.0004976585, 0.202440336 , -0.0959282741, 0.347377658 , 0.008844058 , -0.0113043124, 0.462539434 , 0.2         , 3           , 50          , 0           , 0
-0.118852422, -0.07835238 , -9.790021   , 0.00116318662, 0.00194661  , -0.000165099045, 0.202507749 , -0.09626534 , 0.3475799   , 0.008855708 , -0.011284831, 0.462538    , 0.21        , 3           , 11          , 0.0282869637, 0.02828698
-0.0954807  , -0.08084461 , -9.786673   , 0.000593487348, 0.0013869094, -0.00103536493, 0.202372923 , -0.09599569 , 0.3475799   , 0.008861759 , -0.0112708714, 0.462527752 , 0.22        , 3           , 12          , 0.0346698463, 0
-0.1160425  , -0.0612947121, -9.784829   , 0.00457125064, 0.0006351259, -0.001594139, 0.202507749 , -0.09613051 , 0.347512484 , 0.00890765  , -0.0112643782, 0.462511778 , 0.23        , 3           , 50          , 0           , 0
-0.104397118, -0.0806307346, -9.799399   , 0.00583651336, -0.000244013616, -0.000883539557, 0.202507749 , -0.09613051 , 0.347512484 , 0.008966114 , -0.0112667391, 0.462502956 , 0.24        , 3           , 11          , 0.0282869637, 0.02828698
-0.09818787 , -0.08038472 , -9.785337   , 0.00230520964, 0.002222911 , -0.0002971539, 0.2022381   , -0.0960631  , 0.347242832 , 0.008989197 , -0.0112444833, 0.4625001   , 0.25        , 3           , 12          , 0.0346698463, 0
-0.109606765, -0.0725236461, -9.75237751 , 0.000335856952, 0.00396517245, -0.000570270466, 0.202305511 , -0.0959282741, 0.347512484 , 0.008992616 , -0.0112047819, 0.46249485  , 0.26        , 3           , 50          , 0           , 0
-0.110094622, -0.09082781 , -9.769306   , -0.0006992828, 0.0005363361, -0.000626349763, 0.202440336 , -0.09613051 , 0.3475799   , 0.008985693 , -0.0111993626, 0.462488651 , 0.27        , 3           , 11          , 0.0282869637, 0.02828698
-0.117549188, -0.07621122 , -9.780498   , -0.000288159383, -0.0008996144, -0.0007877294, 0.202372923 , -0.09626534 , 0.347714722 , 0.00898290053, -0.0112082865, 0.462480783 , 0.28        , 3           , 12          , 0.0346698463, 0
-0.111088611, -0.06044569 , -9.783871   , 0.00312814373, -0.000506980636, -0.000474744331, 0.202372923 , -0.09613051 , 0.347310245 , 0.009014237 , -0.0112133138, 0.462475777 , 0.29        , 3           , 50          , 0           , 0
-0.103995971, -0.08427093 , -9.796728   , 0.004371242 , -0.0006625473, -0.0007548545, 0.202372923 , -0.09613051 , 0.347310245 , 0.008518253 , -0.01124657 , 0.462474346 , 0.3         , 3           , 11          , 0.026155483 , 0.0261555091
-0.112389088, -0.08553283 , -9.756618   , -0.0008932342, -0.000894388766, -0.000933807867, 0.202575162 , -0.09613051 , 0.347512484 , 0.008509427 , -0.0112554347, 0.4624648   , 0.31        , 3           , 12          , 0.0347559564, 0
-0.108453691, -0.08149243 , -9.799898   , -0.003318405, -0.001020795, -9.196658E-05, 0.2022381   , -0.0960631  , 0.3475799   , 0.008476254 , -0.0112656327, 0.462463856 , 0.32        , 3           , 50          , 0           , 0
-0.108673647, -0.09251254 , -9.781508   , -0.000304963934, 0.0005365671, -0.00133875955, 0.202372923 , -0.09599569 , 0.347445071 , 0.008473354 , -0.0112601509, 0.4624505   , 0.33        , 3           , 11          , 0.026155483 , 0.0261555091
-0.104638025, -0.102366127, -9.791072   , 0.003280922 , 0.003221669 , -0.00113461143, 0.202440336 , -0.0960631  , 0.347512484 , 0.008506288 , -0.01122784 , 0.4624393   , 0.34        , 3           , 12          , 0.0347559564, 0
-0.113759622, -0.0750649646, -9.806196   , 0.001989646 , 0.004066255 , 0.002018003 , 0.202440336 , -0.0960631  , 0.347512484 , 0.00852595549, -0.0111873522, 0.4624598   , 0.35        , 3           , 50          , 0           , 0
-0.12173716 , -0.09018305 , -9.77798748 , 0.0005608462, 0.00350754452, 0.00200108881, 0.202440336 , -0.09626534 , 0.347377658 , 0.008531337 , -0.0111524481, 0.4624803   , 0.36        , 3           , 11          , 0.026155483 , 0.0261555091
-0.105765648, -0.06595683 , -9.778917   , 0.00240256358, 0.00220939377, 0.0008487889, 0.202372923 , -0.0959282741, 0.3475799   , 0.008555265 , -0.0111304261, 0.4624889   , 0.37        , 3           , 12          , 0.0347559564, 0
-0.09202884 , -0.0868926048, -9.772256   , -0.000602892658, 0.00052154  , 0.000662675069, 0.202372923 , -0.09626534 , 0.347714722 , 0.008549159 , -0.0111252666, 0.462495565 , 0.38        , 3           , 50          , 0           , 0
-0.1012204  , -0.105795778, -9.768495   , 0.0004128683, 0.00152597111, -0.000604458561, 0.202507749 , -0.09613051 , 0.347310245 , 0.008553355 , -0.0111099565, 0.4624896   , 0.39        , 3           , 11          , 0.026155483 , 0.0261555091
-0.09787838 , -0.095738776, -9.783705   , 0.00182134029, -0.00148971356, -0.0007830744, 0.202507749 , -0.09613051 , 0.347310245 , 0.008767637 , -0.0110603059, 0.462479353 , 0.4         , 3           , 12          , 0.03489849  , 0
-0.11269626 , -0.07774254 , -9.767824   , -0.0009035298, -0.00318557629, -0.0003951469, 0.202305511 , -0.0960631  , 0.347242832 , 0.008758651 , -0.0110921264, 0.4624753   , 0.41        , 3           , 50          , 0           , 0
-0.102365658, -0.0707488656, -9.755452   , -0.000875480066, -0.000749653438, -0.0003596719, 0.2022381   , -0.0960631  , 0.347445071 , 0.008749936 , -0.0110995919, 0.462471724 , 0.42        , 3           , 11          , 0.0236632   , 0.0236631818
-0.113543764, -0.07587302 , -9.773231   , 0.0006969128, 9.163157E-05, -5.15636E-05, 0.202372923 , -0.0960631  , 0.347445071 , 0.008756909 , -0.0110986717, 0.462471    , 0.43        , 3           , 12          , 0.03489849  , 0
-0.109889619, -0.0838368  , -9.790454   , 0.001416949 , 0.000942865154, 0.000108322478, 0.202507749 , -0.0960631  , 0.347512484 , 0.008771067 , -0.0110892514, 0.4624722   , 0.44        , 3           , 50          , 0           , 0
-0.102307245, -0.07644613 , -9.770876   , 0.00113167812, 0.001367945 , 0.000971361471, 0.202305511 , -0.0961979255, 0.347377658 , 0.008782275 , -0.0110756578, 0.4624822   , 0.45        , 3           , 11          , 0.0236632   , 0.0236631818
-0.121816456, -0.06557377 , -9.801644   , 0.0002893544, 0.002661101 , 0.00155733014, 0.202305511 , -0.0961979255, 0.347377658 , 0.008784993 , -0.0110491849, 0.46249795  , 0.46        , 3           , 12          , 0.03489849  , 0
-0.119706236, -0.0764925256, -9.794524   , 0.000131321227, 0.00137165992, 0.00168077461, 0.2022381   , -0.0961979255, 0.347445071 , 0.00878612  , -0.0110356174, 0.462514877 , 0.47        , 3           , 50          , 0           , 0
-0.105214812, -0.06847747 , -9.796556   , 0.00138586469, -0.0009326969, 0.00151201442, 0.202170685 , -0.0959282741, 0.3475799   , 0.008799812 , -0.0110450769, 0.4625299   , 0.48        , 3           , 11          , 0.0236632   , 0.0236631818
-0.09144237 , -0.08179139 , -9.785743   , 0.00282278215, -8.100875E-05, 0.0008176921, 0.202372923 , -0.0960631  , 0.3476473   , 0.008827951 , -0.0110459561, 0.462538    , 0.49        , 3           , 12          , 0.03489849  , 0
-0.0963669941, -0.08660177 , -9.79578    , 0.00355620729, 0.002676495 , 0.000575238 , 0.202372923 , -0.09613051 , 0.3475799   , 0.008782698 , -0.0107267611, 0.462544918 , 0.5         , 3           , 50          , 0           , 0
-0.12285649 , -0.0800239444, -9.79911    , 0.0005810047, 0.003286393 , -0.000149815562, 0.202372923 , -0.09613051 , 0.3475799   , 0.00878852047, -0.0106938854, 0.462543726 , 0.51        , 3           , 11          , 0.0228146017, 0.0228145923
-0.1076297  , -0.06826341 , -9.772636   , -0.00243132818, 0.00116611039, -5.60256922E-05, 0.2022381   , -0.09633275 , 0.347377658 , 0.008764214 , -0.0106822178, 0.462543249 , 0.52        , 3           , 12          , 0.0350963473, 0
-0.122978643, -0.088668555, -9.791984   , 0.0011505828, 0.00243495358, -0.00173281122, 0.202305511 , -0.0960631  , 0.3476473   , 0.008775902 , -0.01065772 , 0.462526083 , 0.53        , 3           , 50          , 0           , 0
-0.124344349, -0.09268592 , -9.794753   , 0.00330121326, 0.00342398672, -0.00256384537, 0.202305511 , -0.09599569 , 0.347512484 , 0.008809184 , -0.0106232567, 0.4625008   , 0.54        , 3           , 11          , 0.0228146017, 0.0228145923
-0.09843191 , -0.09055141 , -9.762421   , 0.00267360848, -0.000598978833, -0.000765635865, 0.202170685 , -0.0961979255, 0.3476473   , 0.008836001 , -0.010629179, 0.462493181 , 0.55        , 3           , 12          , 0.0350963473, 0
-0.116440214, -0.09395347 , -9.767141   , 0.00149830873, -0.0036003408, -0.0003870655, 0.2022381   , -0.0961979255, 0.347445071 , 0.00885103  , -0.0106651466, 0.4624889   , 0.56        , 3           , 50          , 0           , 0
-0.1044235  , -0.08378707 , -9.799436   , -0.00119617488, -0.00257498119, 0.000183592667, 0.2022381   , -0.0961979255, 0.347445071 , 0.00883905  , -0.0106909117, 0.462490559 , 0.57        , 3           , 11          , 0.0228146017, 0.0228145923
-0.0991987  , -0.08499723 , -9.775011   , -0.00160894857, -0.00128232059, 0.000342885527, 0.202170685 , -0.09633275 , 0.347445071 , 0.008822924 , -0.0107037649, 0.4624939   , 0.58        , 3           , 12          , 0.0350963473, 0
-0.103113823, -0.08386173 , -9.793553   , -0.000163504781, 0.000145085374, -0.00062925386, 0.202305511 , -0.09613051 , 0.347377658 , 0.008821357 , -0.010702258, 0.462487459 , 0.59        , 3           , 50          , 0           , 0
-0.104561716, -0.09957842 , -9.798717   , -1.80962161E-05, 0.00144689565, -0.00103878707, 0.202170685 , -0.0960631  , 0.347512484 , 0.00873726  , -0.0106310714, 0.462478161 , 0.6         , 3           , 11          , 0.021010099 , 0.0210100934
-0.1059534  , -0.101855077, -9.795593   , 0.000552987854, 0.00130294578, -0.00160977524, 0.202372923 , -0.09599569 , 0.347377658 , 0.008742958 , -0.0106179006, 0.4624622   , 0.61        , 3           , 12          , 0.03534818  , 0
-0.1302926  , -0.0680498555, -9.816205   , 0.00211616745, 0.00142650306, -0.0011690188, 0.202372923 , -0.09599569 , 0.347377658 , 0.008764243 , -0.0106035369, 0.462450743 , 0.62        , 3           , 50          , 0           , 0
-0.107199565, -0.08298756 , -9.787708   , 0.003706156 , 0.004125434 , -0.0002614545, 0.202372923 , -0.09613051 , 0.347242832 , 0.008801328 , -0.0105622616, 0.462448359 , 0.63        , 3           , 11          , 0.021010099 , 0.0210100934
-0.111973964, -0.0904870257, -9.757575   , 0.003871897 , 0.00542511325, -0.001529555, 0.202170685 , -0.0959282741, 0.347512484 , 0.008840203 , -0.0105078779, 0.462433577 , 0.64        , 3           , 12          , 0.03534818  , 0
-0.114931241, -0.08660072 , -9.781046   , 0.0002750037, 0.002443194 , -0.0005932204, 0.202170685 , -0.09613051 , 0.347377658 , 0.008843013 , -0.0104833925, 0.462427855 , 0.65        , 3           , 50          , 0           , 0
-0.13538225 , -0.0713324547, -9.80048    , -0.00245261262, 0.0001792916, -0.000785967859, 0.202372923 , -0.0960631  , 0.347377658 , 0.00881857052, -0.0104815308, 0.46242     , 0.66        , 3           , 11          , 0.021010099 , 0.0210100934
-0.104038864, -0.08567204 , -9.792227   , -0.0007527056, -0.0008346744, -0.001505705, 0.202372923 , -0.0960631  , 0.347377658 , 0.008811201 , -0.0104897451, 0.462404966 , 0.67        , 3           , 12          , 0.03534818  , 0
-0.09656851 , -0.10026443 , -9.783293   , 0.000681177 , 0.000577374536, -0.0007608604, 0.202305511 , -0.0960631  , 0.347310245 , 0.008818091 , -0.0104839038, 0.462397337 , 0.68        , 3           , 50          , 0           , 0
-0.135193676, -0.09443901 , -9.790808   , -0.000866465969, 0.0018854331, -0.00103766716, 0.202305511 , -0.09613051 , 0.347445071 , 0.008809534 , -0.0104649588, 0.462387085 , 0.69        , 3           , 11          , 0.021010099 , 0.0210100934
-0.118184969, -0.0624439642, -9.802026   , -0.00155345537, 0.000752117368, -0.001198804, 0.202305511 , -0.09599569 , 0.347445071 , 0.008948978 , -0.0110764373, 0.4623735   , 0.7         , 3           , 12          , 0.0356524251, 0
-0.08473076 , -0.0872562155, -9.786196   , -0.0014013357, 0.00161041  , -0.0011854266, 0.202305511 , -0.0960631  , 0.347377658 , 0.008935095 , -0.0110602276, 0.4623618   , 0.71        , 3           , 50          , 0           , 0
-0.09609599 , -0.09088644 , -9.77505    , -0.000957212, 0.00304025086, -0.00130507094, 0.2022381   , -0.0961979255, 0.347242832 , 0.008925664 , -0.0110297091, 0.462348938 , 0.72        , 3           , 11          , 0.0175330862, 0.0175330788
-0.113063574, -0.09319128 , -9.79872    , 0.0003168547, 0.00259609916, -0.001160539, 0.2022381   , -0.0961979255, 0.347242832 , 0.008928959 , -0.0110036451, 0.462337732 , 0.73        , 3           , 12          , 0.0356524251, 0
-0.119901583, -0.09949354 , -9.79434    , 0.000148090563, 0.0008691108, -0.000184862831, 0.202170685 , -0.0961979255, 0.3470406   , 0.008930461 , -0.0109949382, 0.462335825 , 0.74        , 3           , 50          , 0           , 0
-0.109923735, -0.08344397 , -9.785029   , 0.000702807156, -0.0002842647, -5.50481564E-05, 0.202170685 , -0.09599569 , 0.347512484 , 0.008937494 , -0.0109977769, 0.462335348 , 0.75        , 3           , 11          , 0.0175330862, 0.0175330788
-0.1090385  , -0.09460347 , -9.796442   , 0.00227300776, -0.0002924791, -0.0009041165, 0.2022381   , -0.0960631  , 0.3475799   , 0.008960325 , -0.01100062 , 0.4623263   , 0.76        , 3           , 12          , 0.0356524251, 0
-0.118733086, -0.0763890743, -9.804903   , -0.0005628653, 0.000312134944, -0.00119906734, 0.2022381   , -0.0961979255, 0.347310245 , 0.008954829 , -0.01099739 , 0.462314367 , 0.77        , 3           , 50          , 0           , 0
-0.101765878, -0.07898127 , -9.787161   , -0.00142416963, 0.000451295724, 0.000228699224, 0.2022381   , -0.0961979255, 0.347310245 , 0.008940561 , -0.0109928986, 0.4623165   , 0.78        , 3           , 11          , 0.0175330862, 0.0175330788
-0.0972355  , -0.08164849 , -9.794377   , 0.00341116544, 0.000966372143, 0.001267748 , 0.2022381   , -0.0960631  , 0.347175419 , 0.008974532 , -0.0109833488, 0.4623294   , 0.79        , 3           , 12          , 0.0356524251, 0
-0.114296645, -0.0832063854, -9.803585   , 0.0023641556, 5.677757E-05, 0.000388484768, 0.202170685 , -0.0960631  , 0.347377658 , 0.008834304 , -0.0107117658, 0.462334871 , 0.8         , 3           , 50          , 0           , 0
-0.119621575, -0.05143536 , -9.776166   , 0.00150011643, -0.00135977077, -0.000496015069, 0.202372923 , -0.0959282741, 0.347310245 , 0.008849358 , -0.0107253185, 0.462329865 , 0.81        , 3           , 11          , 0.0161456373, 0.0161456261
-0.104474112, -0.0700654462, -9.775339   , 0.00251807  , 0.0004941597, -0.000605972251, 0.2022381   , -0.09613051 , 0.347175419 , 0.008874603 , -0.0107203219, 0.4623239   , 0.82        , 3           , 12          , 0.0360073522, 0
-0.112620056, -0.07272935 , -9.772734   , -0.00147330319, -0.000183113123, -0.000497311645, 0.202305511 , -0.0961979255, 0.347377658 , 0.008859922 , -0.0107221091, 0.4623189   , 0.83        , 3           , 50          , 0           , 0
-0.115909256, -0.09027271 , -9.77432251 , -0.004032023, -0.000296556769, -0.0009440648, 0.202305511 , -0.0961979255, 0.347377658 , 0.008819704 , -0.0107249916, 0.462309361 , 0.84        , 3           , 11          , 0.0161456373, 0.0161456261
-0.102676071, -0.07453697 , -9.780342   , -0.00186984218, 0.00169550371, -0.00176049164, 0.202170685 , -0.0960631  , 0.347310245 , 0.008801192 , -0.0107078813, 0.462291956 , 0.85        , 3           , 12          , 0.0360073522, 0
-0.110339925, -0.0700338259, -9.773585   , 0.000849524 , 0.00324295834, -0.00157817814, 0.202305511 , -0.09586086 , 0.347242832 , 0.008809852 , -0.0106753139, 0.462276459 , 0.86        , 3           , 50          , 0           , 0
-0.114656188, -0.06525816 , -9.7948     , 0.00226222188, 0.00363918231, 0.0005828792, 0.202305511 , -0.09613051 , 0.347377658 , 0.008832411 , -0.0106389737, 0.462282419 , 0.87        , 3           , 11          , 0.0161456373, 0.0161456261
-0.09098731 , -0.06442775 , -9.765212   , 0.00266151875, 0.00134093442, 0.0006951431, 0.2022381   , -0.09613051 , 0.347310245 , 0.008858951 , -0.0106256278, 0.462289572 , 0.88        , 3           , 12          , 0.0360073522, 0
-0.127434254, -0.0774293  , -9.78512    , 0.0005018309, -0.00191769621, -0.001082687, 0.2022381   , -0.09613051 , 0.347310245 , 0.008864086 , -0.0106447078, 0.4622786   , 0.89        , 3           , 50          , 0           , 0
-0.108830996, -0.07425466 , -9.801625   , 0.000330979179, -0.00156013691, 0.000211273116, 0.202103272 , -0.09586086 , 0.3470406   , 0.008794657 , -0.01084206 , 0.462281466 , 0.9         , 3           , 11          , 0.0142787918, 0.0142787863
-0.07642532 , -0.0647621453, -9.787667   , 0.0007871946, 0.00157894089, 0.00126132625, 0.202170685 , -0.09586086 , 0.347310245 , 0.00880239  , -0.0108263809, 0.4622941   , 0.91        , 3           , 12          , 0.036411088 , 0
-0.102773592, -0.09516249 , -9.791422   , -0.00334199 , 0.000626771653, 0.00022030063, 0.202372923 , -0.0960631  , 0.347310245 , 0.008768946 , -0.0108201336, 0.462296247 , 0.92        , 3           , 50          , 0           , 0
-0.126612037, -0.0793375447, -9.776101   , -0.004771609, -0.0004974183, -0.000663452549, 0.2022381   , -0.0960631  , 0.347175419 , 0.008721301 , -0.01082505 , 0.462289572 , 0.93        , 3           , 11          , 0.0142787918, 0.0142787863
-0.117773913, -0.09302536 , -9.768499   , -0.00233021565, 0.00120261381, -0.00119617535, 0.2022381   , -0.0960631  , 0.347175419 , 0.008698128 , -0.0108129187, 0.4622779   , 0.94        , 3           , 12          , 0.036411088 , 0
-0.109000765, -0.07852087 , -9.782253   , 0.0006697365, 0.0027420593, -0.000439820229, 0.2022381   , -0.0960631  , 0.347108    , 0.008704871 , -0.0107854614, 0.4622736   , 0.95        , 3           , 50          , 0           , 0
-0.10887529 , -0.06052336 , -9.77843    , 0.00207267818, 0.00171434623, 0.0006987953, 0.202372923 , -0.0960631  , 0.347175419 , 0.008725521 , -0.0107683782, 0.46228075  , 0.96        , 3           , 11          , 0.0142787918, 0.0142787863
-0.112542652, -0.0668240339, -9.776731   , 0.0006071693, -0.00227947463, 0.000202552837, 0.202170685 , -0.09613051 , 0.347242832 , 0.008731573 , -0.0107911881, 0.462282419 , 0.97        , 3           , 12          , 0.036411088 , 0
-0.109097853, -0.0826758  , -9.773269   , 0.00203281362, -0.00257154345, -0.0007946278, 0.2022381   , -0.09613051 , 0.347242832 , 0.008751988 , -0.0108168349, 0.4622743   , 0.98        , 3           , 50          , 0           , 0
-0.08968098 , -0.07385528 , -9.770278   , 0.00361290225, -0.0007323506, 0.000100415811, 0.2022381   , -0.09599569 , 0.347108    , 0.008788108 , -0.0108241644, 0.462275267 , 0.99        , 3           , 11          , 0.0142787918, 0.0142787863
-0.1314845  , -0.07828131 , -9.786522   , 0.00174957281, 0.000160819589, 0.0011033566, 0.2022381   , -0.09599569 , 0.347108    , 0.008761109 , -0.0107632345, 0.462286949 , 1           , 3           , 12          , 0.0368616357, 0
-0.12821877 , -0.0594384558, -9.779951   , 0.002917177 , 0.00216427376, 0.00013785089, 0.201968446 , -0.09599569 , 0.347175419 , 0.008790265 , -0.0107416045, 0.46228838  , 1.01        , 3           , 50          , 0           , 0
-0.113111377, -0.0727883354, -9.766867   , 0.00292460783, 0.00231524184, -0.0007185544, 0.202035859 , -0.0960631  , 0.347242832 , 0.008819584 , -0.0107183885, 0.462281466 , 1.02        , 3           , 11          , 0.014158681 , 0.0141586736
-0.110597372, -0.0900140256, -9.760719   , -0.0006630727, 5.105003E-05, 8.513189E-05, 0.202035859 , -0.09599569 , 0.347310245 , 0.008812944 , -0.0107178874, 0.462282181 , 1.03        , 3           , 12          , 0.0368616357, 0
-0.09461774 , -0.0760134757, -9.775316   , 0.00132567063, -0.0002544767, -5.01298928E-05, 0.2022381   , -0.09613051 , 0.347108    , 0.008826206 , -0.0107204244, 0.462281942 , 1.04        , 3           , 50          , 0           , 0
-0.0971001238, -0.07253844 , -9.802853   , -0.000243422081, -0.0008091827, -0.00035406457, 0.2022381   , -0.09613051 , 0.347108    , 0.00882381  , -0.0107284868, 0.462278128 , 1.05        , 3           , 11          , 0.014158681 , 0.0141586736
-0.120112628, -0.08131791 , -9.806779   , -0.00194470258, -7.923627E-05, 7.533492E-05, 0.202305511 , -0.09613051 , 0.347175419 , 0.008804357 , -0.0107292859, 0.462279081 , 1.06        , 3           , 12          , 0.0368616357, 0
-0.102666631, -0.08609599 , -9.795834   , 0.000198220325, 0.000899559236, 0.0003889567, 0.202372923 , -0.09613051 , 0.347242832 , 0.008806296 , -0.0107203219, 0.4622829   , 1.07        , 3           , 50          , 0           , 0
-0.09860036 , -0.08967078 , -9.802161   , -0.0009457301, 0.0006206992, 0.0008071756, 0.202575162 , -0.09599569 , 0.347175419 , 0.0087967515, -0.01071419 , 0.462291    , 1.08        , 3           , 11          , 0.014158681 , 0.0141586736
-0.1004351  , -0.08436519 , -9.790824   , -7.60430339E-05, 0.00162145623, 0.000111513145, 0.2022381   , -0.0961979255, 0.347310245 , 0.008795978 , -0.0106979841, 0.4622922   , 1.09        , 3           , 12          , 0.0368616357, 0
-0.09393267 , -0.05874266 , -9.78821    , 0.003627192 , 0.00290007587, 9.37481E-06 , 0.202440336 , -0.0960631  , 0.3470406   , 0.008808825 , -0.0106114689, 0.4622929   , 1.1         , 3           , 50          , 0           , 0
-0.0854443759, -0.0589187369, -9.778649   , 0.00334672676, 0.004319224 , 0.001888595 , 0.202440336 , -0.0960631  , 0.3470406   , 0.00884209  , -0.0105684446, 0.462311983 , 1.11        , 3           , 11          , 0.0144279432, 0.0144279348
-0.125651285, -0.08370444 , -9.790145   , 0.002769043 , 0.00389001542, 0.002451236 , 0.202440336 , -0.0960631  , 0.3470406   , 0.008869518 , -0.0105297621, 0.462337017 , 1.12        , 3           , 12          , 0.03735692  , 0
-0.13947387 , -0.09094346 , -9.818812   , 0.002620512 , 0.002189902 , 0.0004221901, 0.202170685 , -0.0960631  , 0.347242832 , 0.008895676 , -0.0105079012, 0.4623413   , 1.13        , 3           , 50          , 0           , 0
-0.1004603  , -0.09820294 , -9.804083   , 0.00165825989, 0.003937407 , -0.00156191364, 0.202372923 , -0.0960631  , 0.347175419 , 0.008912419 , -0.010468388, 0.46232605  , 1.14        , 3           , 11          , 0.0144279432, 0.0144279348
-0.102627911, -0.0646702647, -9.77526    , 0.00252574333, 0.005076335 , -0.00168316136, 0.202575162 , -0.09613051 , 0.347242832 , 0.008937847 , -0.0104174763, 0.462309837 , 1.15        , 3           , 12          , 0.03735692  , 0
-0.105561912, -0.08948526 , -9.771959   , 0.00404821569, 0.0023238624, -0.0001394842, 0.202575162 , -0.09613051 , 0.347242832 , 0.008978342 , -0.0103942277, 0.4623084   , 1.16        , 3           , 50          , 0           , 0
-0.111789279, -0.09376523 , -9.788326   , 0.002731105 , -0.000393315, 0.000671649 , 0.202372923 , -0.0960631  , 0.3470406   , 0.009005584 , -0.0103982193, 0.462315321 , 1.17        , 3           , 11          , 0.0144279432, 0.0144279348
-0.119440712, -0.08479178 , -9.77790451 , -0.000949139765, 9.075584E-05, -0.00120443071, 0.202305511 , -0.0960631  , 0.347310245 , 0.00899621751, -0.0103972051, 0.462303162 , 1.18        , 3           , 12          , 0.03735692  , 0
-0.131002   , -0.09158981 , -9.807449   , 0.000509913662, 0.00294721848, -0.00172645657, 0.202305511 , -0.09599569 , 0.347242832 , 0.009001493 , -0.010367577, 0.462286234 , 1.19        , 3           , 50          , 0           , 0
-0.104024924, -0.09855959 , -9.809992   , 0.00332260621, -0.000531012251, -0.000325421774, 0.202440336 , -0.0960631  , 0.347310245 , 0.009068112 , -0.0106686326, 0.462282419 , 1.2         , 3           , 11          , 0.0140321255, 0.014032118
-0.1029498  , -0.0972128958, -9.768412   , 0.002585793 , -0.00267441152, -0.000217924753, 0.202440336 , -0.0960631  , 0.347310245 , 0.009093996 , -0.0106953559, 0.462280035 , 1.21        , 3           , 12          , 0.037894804 , 0
-0.0970418155, -0.09406396 , -9.772386   , 0.000607912953, -0.00150786783, -0.0002132244, 0.202305511 , -0.09626534 , 0.347108    , 0.009100099 , -0.0107104145, 0.4622779   , 1.22        , 3           , 50          , 0           , 0
-0.101527624, -0.09800547 , -9.779699   , -0.00039024037, -0.00164232356, -7.82260249E-05, 0.2022381   , -0.09599569 , 0.347175419 , 0.009096208 , -0.01072683 , 0.462276936 , 1.23        , 3           , 11          , 0.0140321255, 0.014032118
-0.08930527 , -0.08688223 , -9.77539349 , -0.0003874943, -0.00107428432, 0.0005024491, 0.202170685 , -0.0961979255, 0.347310245 , 0.009092279 , -0.01073762 , 0.462281942 , 1.24        , 3           , 12          , 0.037894804 , 0
-0.103233047, -0.08805054 , -9.781406   , -0.00108703249, -0.001051703, -0.00121881848, 0.2022381   , -0.09599569 , 0.347108    , 0.009081541 , -0.010748025, 0.462269545 , 1.25        , 3           , 50          , 0           , 0
-0.109081507, -0.09377908 , -9.789206   , -0.00205616071, 0.00026337395, -0.002923018, 0.2022381   , -0.0960631  , 0.3470406   , 0.009061294 , -0.0107451249, 0.462240458 , 1.26        , 3           , 11          , 0.0140321255, 0.014032118
-0.113099888, -0.08746016 , -9.786459   , 0.003373214 , 0.00320475479, -0.00141582172, 0.2022381   , -0.0960631  , 0.3470406   , 0.009095175 , -0.0107129514, 0.4622264   , 1.27        , 3           , 12          , 0.037894804 , 0
-0.111607909, -0.06945021 , -9.784883   , 0.006946864 , 0.00474482  , -0.00137145 , 0.2022381   , -0.09613051 , 0.347108    , 0.009164785 , -0.0106653795, 0.462213278 , 1.28        , 3           , 50          , 0           , 0
-0.109280966, -0.0671282  , -9.792965   , 0.00321683055, 0.00205860287, -0.00129029062, 0.202372923 , -0.0960631  , 0.347175419 , 0.009197089 , -0.0106446771, 0.4622004   , 1.29        , 3           , 11          , 0.0140321255, 0.014032118
-0.105768576, -0.0704126656, -9.7839365  , -0.00342330383, -0.0015054259, -0.000949282548, 0.2022381   , -0.09613051 , 0.347310245 , 0.008774233 , -0.0107449023, 0.46219492  , 1.3         , 3           , 12          , 0.03847314  , 0
-0.1379918  , -0.10747239 , -9.792791   , -0.003405287, -0.0003527104, -0.00164799846, 0.2022381   , -0.0959282741, 0.347108    , 0.008740357 , -0.0107482849, 0.462178469 , 1.31        , 3           , 50          , 0           , 0
-0.112931296, -0.07251253 , -9.792609   , 0.0005720559, -0.0003995639, -0.000908600865, 0.2022381   , -0.0959282741, 0.347108    , 0.008746176 , -0.0107522011, 0.4621694   , 1.32        , 3           , 11          , 0.0139489379, 0.0139489286
-0.09897564 , -0.0601732172, -9.776981   , 0.000268502656, -0.00197413936, -0.000790186867, 0.202305511 , -0.09626534 , 0.346973181 , 0.008748948 , -0.0107718734, 0.4621613   , 1.33        , 3           , 12          , 0.03847314  , 0
-0.109897636, -0.08741018 , -9.793655   , -0.00186218391, -0.00180789793, -0.0009440325, 0.202170685 , -0.0961979255, 0.347242832 , 0.00873043  , -0.01078987 , 0.462151766 , 1.34        , 3           , 50          , 0           , 0
-0.08313874 , -0.0606355146, -9.788584   , -0.00271083065, -0.00122863019, -0.000654661562, 0.202170685 , -0.0960631  , 0.347242832 , 0.008703393 , -0.0108020995, 0.4621451   , 1.35        , 3           , 11          , 0.0139489379, 0.0139489286
-0.105778448, -0.07532424 , -9.78851    , -0.000445354963, -0.00154728477, 0.000356446079, 0.202305511 , -0.09586086 , 0.347108    , 0.008698901 , -0.0108176023, 0.462148428 , 1.36        , 3           , 12          , 0.03847314  , 0
-0.08424492 , -0.09121184 , -9.796175   , -0.002865841, -0.00209076214, -0.000238792883, 0.202305511 , -0.0960631  , 0.3470406   , 0.008670271 , -0.0108384881, 0.4621458   , 1.37        , 3           , 50          , 0           , 0
-0.0907386243, -0.08966785 , -9.766856   , -0.002845487, -0.000652747345, -0.0007902532, 0.202305511 , -0.0960631  , 0.3470406   , 0.008641902 , -0.0108449468, 0.462137938 , 1.38        , 3           , 11          , 0.0139489379, 0.0139489286
-0.106285013, -0.06116232 , -9.763056   , 0.00158395164, 0.00158741826, 0.000128184663, 0.202170685 , -0.09599569 , 0.347108    , 0.008657726 , -0.0108290846, 0.462139368 , 1.39        , 3           , 12          , 0.03847314  , 0
-0.110824853, -0.0838822  , -9.785493   , 0.00481806556, 0.001690286 , 0.0008657561, 0.201901034 , -0.0960631  , 0.347108    , 0.008641902 , -0.0108137708, 0.4621489   , 1.4         , 3           , 50          , 0           , 0
-0.111387812, -0.104081921, -9.793862   , 0.004378205 , 0.000548303768, 0.000846491836, 0.2022381   , -0.09599569 , 0.347242832 , 0.008685593 , -0.0108083626, 0.462157249 , 1.41        , 3           , 11          , 0.0133831985, 0.0133831715
-0.123736843, -0.09066846 , -9.81505    , -0.000747062266, -0.00109996169, -0.00135562045, 0.201968446 , -0.09613051 , 0.347108    , 0.008678271 , -0.0108192442, 0.46214366  , 1.42        , 3           , 12          , 0.03908977  , 0
-0.101702414, -0.07176195 , -9.787528   , -0.00261283154, -0.00279681478, -0.00182104472, 0.201968446 , -0.09613051 , 0.347108    , 0.008652342 , -0.0108470526, 0.4621253   , 1.43        , 3           , 50          , 0           , 0
-0.0896332  , -0.06888564 , -9.771123   , 0.0002310023, -0.00155658077, 0.000504182244, 0.202372923 , -0.09599569 , 0.3470406   , 0.008654598 , -0.0108626634, 0.46213007  , 1.44        , 3           , 11          , 0.0133831985, 0.0133831715
-0.105316773, -0.07620093 , -9.791226   , 0.000476108 , -0.00415148027, 0.00189915381, 0.202035859 , -0.09599569 , 0.347108    , 0.008659157 , -0.01090434 , 0.462148666 , 1.45        , 3           , 12          , 0.03908977  , 0
-0.127893537, -0.08634187 , -9.794713   , 0.00233803526, -0.003447416, 0.00120531477, 0.202103272 , -0.09599569 , 0.347175419 , 0.008682407 , -0.0109389173, 0.462160349 , 1.46        , 3           , 50          , 0           , 0
-0.09328158 , -0.07515729 , -9.772133   , 0.00553824566, 0.0019773196, 1.57211616E-05, 0.2022381   , -0.0960631  , 0.347108    , 0.008737785 , -0.0109191434, 0.462160826 , 1.47        , 3           , 11          , 0.0133831985, 0.0133831715
-0.08739232 , -0.07648839 , -9.77887    , 0.00356132956, 0.00314514339, -0.0001226605, 0.2022381   , -0.0960631  , 0.347108    , 0.00877341  , -0.0108876843, 0.462159872 , 1.48        , 3           , 12          , 0.03908977  , 0
-0.133661628, -0.08170927 , -9.801488   , -0.000443797326, 0.001603014 , 0.0005458076, 0.202035859 , -0.0961979255, 0.346973181 , 0.00876891147, -0.0108717019, 0.4621656   , 1.49        , 3           , 50          , 0           , 0
-0.121150061, -0.08463578 , -9.791018   , -0.00207200414, -2.558545E-06, -5.11725375E-05, 0.202035859 , -0.0960631  , 0.3470406   , 0.00865080953, -0.0114938021, 0.462166071 , 1.5         , 3           , 11          , 0.013906342 , 0.0139063159
-0.117596447, -0.0785093  , -9.776461   , -0.0029063432, 0.00116010546, -0.000898110564, 0.202103272 , -0.0959282741, 0.347445071 , 0.00862185  , -0.011482127, 0.462157249 , 1.51        , 3           , 12          , 0.0397425555, 0
-0.1052553  , -0.0796678662, -9.804365   , -0.005339897, -0.000106218708, -0.0007883734, 0.202305511 , -0.0959282741, 0.347175419 , 0.00856854  , -0.0114831207, 0.462149382 , 1.52        , 3           , 50          , 0           , 0
-0.105469085, -0.0884527862, -9.78414249 , -0.004383547, -0.0032725425, -0.0003990394, 0.201901034 , -0.09613051 , 0.3470406   , 0.008524754 , -0.0115158083, 0.4621451   , 1.53        , 3           , 11          , 0.013906342 , 0.0139063159
-0.10795141 , -0.07340424 , -9.797542   , -0.00270372815, -0.00487758359, 0.0008760246, 0.201901034 , -0.09613051 , 0.3470406   , 0.008497618 , -0.0115646571, 0.462153435 , 1.54        , 3           , 12          , 0.0397425555, 0
-0.119295023, -0.07967214 , -9.79275    , -0.00266632065, -0.00228813244, -0.000231069775, 0.202103272 , -0.0960631  , 0.347108    , 0.008470985 , -0.0115875192, 0.462151051 , 1.55        , 3           , 50          , 0           , 0
-0.120744772, -0.082928   , -9.782412   , 0.000362656836, 0.000700845441, -0.001313913, 0.201968446 , -0.0960631  , 0.3470406   , 0.00847476348, -0.0115803983, 0.462137938 , 1.56        , 3           , 11          , 0.013906342 , 0.0139063159
-0.102771126, -0.0818046853, -9.775458   , 0.0006193122, -0.000891027041, 9.56660442E-05, 0.202035859 , -0.0960631  , 0.347377658 , 0.008480946 , -0.0115893157, 0.4621389   , 1.57        , 3           , 12          , 0.0397425555, 0
-0.116255   , -0.082986556, -9.780564   , -0.0006770235, -0.00287511945, -0.000942832965, 0.202035859 , -0.09599569 , 0.346973181 , 0.00847428851, -0.0116179856, 0.462129116 , 1.58        , 3           , 50          , 0           , 0
-0.09282799 , -0.0911809057, -9.792188   , -0.0007947704, -0.000583601, -0.000624137465, 0.202035859 , -0.09599569 , 0.346973181 , 0.008466412 , -0.0116237691, 0.462122917 , 1.59        , 3           , 11          , 0.013906342 , 0.0139063159
-0.117887743, -0.07292031 , -9.792659   , -0.0024225344, 0.00158830232, 0.00025124778, 0.202035859 , -0.0960631  , 0.3470406   , 0.008553081 , -0.01132635 , 0.4621241   , 1.6         , 3           , 12          , 0.04042941  , 0
-0.122358486, -0.07505821 , -9.799952   , -0.001161391, -0.000142896315, 9.08348957E-05, 0.2022381   , -0.09613051 , 0.347175419 , 0.008541457 , -0.0113277864, 0.462125063 , 1.61        , 3           , 50          , 0           , 0
-0.10900449 , -0.06739825 , -9.768123   , 0.000242659153, -0.00173352985, 7.644744E-05, 0.2022381   , -0.09586086 , 0.347108    , 0.008543877 , -0.0113451285, 0.462125778 , 1.62        , 3           , 11          , 0.0129196178, 0.012919575
-0.1131922  , -0.07424752 , -9.756947   , 0.0003967059, -0.000872677541, -0.000196339315, 0.202103272 , -0.0961979255, 0.3470406   , 0.008547867 , -0.0113538355, 0.462123632 , 1.63        , 3           , 12          , 0.04042941  , 0
-0.112491049, -0.07520251 , -9.794443   , 0.00197280827, 0.0005379265, 0.000549362041, 0.202103272 , -0.0961979255, 0.347175419 , 0.008567532 , -0.0113485064, 0.462129116 , 1.64        , 3           , 50          , 0           , 0
-0.100669689, -0.06266458 , -9.795544   , -3.57345925E-05, -0.0008760216, 0.000659582554, 0.202103272 , -0.0961979255, 0.347175419 , 0.008567099 , -0.0113573205, 0.4621358   , 1.65        , 3           , 11          , 0.0129196178, 0.012919575
-0.1019307  , -0.0934779942, -9.781005   , -0.00246969773, -0.00242508552, 0.000335900317, 0.202305511 , -0.0959282741, 0.3470406   , 0.008542367 , -0.0113816  , 0.4621389   , 1.66        , 3           , 12          , 0.04042941  , 0
-0.105378255, -0.0727340057, -9.778089   , -0.0014463733, -0.000846216455, -0.00106596842, 0.202103272 , -0.09599569 , 0.347242832 , 0.008528026 , -0.0113899708, 0.462128162 , 1.67        , 3           , 50          , 0           , 0
-0.07602989 , -0.06796597 , -9.783634   , -0.00186133874, -0.000403054961, -0.00206385227, 0.201833621 , -0.0961979255, 0.3470406   , 0.008509646 , -0.0113938246, 0.46210742  , 1.68        , 3           , 11          , 0.0129196178, 0.012919575
-0.08987937 , -0.09908665 , -9.772378   , -0.00133082957, -0.0029995644, -0.0008102492, 0.202103272 , -0.09613051 , 0.347108    , 0.0084964335, -0.0114237489, 0.462099075 , 1.69        , 3           , 12          , 0.04042941  , 0
-0.11400383 , -0.0692071244, -9.763672   , 0.000723878737, -0.000112485213, -0.0007572173, 0.202103272 , -0.09613051 , 0.347108    , 0.00855816  , -0.0113510517, 0.462090731 , 1.7         , 3           , 50          , 0           , 0
-0.0946257338, -0.06801331 , -9.764383   , 0.00344791776, 0.00200556731, -0.0002803926, 0.202170685 , -0.0961979255, 0.346838355 , 0.008592669 , -0.0113309724, 0.4620881   , 1.71        , 3           , 11          , 0.0127236154, 0.0127235884
-0.0868558362, -0.082592085, -9.79881    , 0.001989828 , -0.0008496155, 9.855112E-05, 0.202170685 , -0.09599569 , 0.3470406   , 0.008612555 , -0.0113394773, 0.462089062 , 1.72        , 3           , 12          , 0.0411482863, 0
-0.112976082, -0.08682538 , -9.803615   , -0.0006915827, 0.000404755672, -0.0009015626, 0.202103272 , -0.09613051 , 0.347108    , 0.008605742 , -0.0113353543, 0.46208024  , 1.73        , 3           , 50          , 0           , 0
-0.116280749, -0.08569683 , -9.780145   , 0.000302921369, 0.000675462245, -0.000247523247, 0.2022381   , -0.09599569 , 0.347175419 , 0.0086087985, -0.0113285771, 0.462077856 , 1.74        , 3           , 11          , 0.0127236154, 0.0127235884
-0.118441917, -0.0797525644, -9.785968   , -0.00155830721, -0.0008742622, -0.00114010659, 0.2022381   , -0.09599569 , 0.347175419 , 0.008593344 , -0.01133722 , 0.462066174 , 1.75        , 3           , 12          , 0.0411482863, 0
-0.12576896 , -0.09367758 , -9.785292   , -0.00012874302, -0.000949477, -0.0023487804, 0.202170685 , -0.09626534 , 0.346838355 , 0.008592324 , -0.0113465125, 0.46204257  , 1.76        , 3           , 50          , 0           , 0
-0.117649861, -0.09684159 , -9.791126   , 0.0008167875, 0.00132672628, -0.00152287248, 0.202035859 , -0.0960631  , 0.347108    , 0.00860066153, -0.0113331154, 0.46202755  , 1.77        , 3           , 11          , 0.0127236154, 0.0127235884
-0.106750421, -0.0861091  , -9.791354   , 5.21795264E-05, 0.00269848318, -0.00179392379, 0.201901034 , -0.09613051 , 0.347242832 , 0.008601384 , -0.0113059776, 0.4620099   , 1.78        , 3           , 12          , 0.0411482863, 0
-0.119485095, -0.09420756 , -9.782982   , -0.000449510582, 0.00248668622, -0.00158542942, 0.201833621 , -0.09599569 , 0.347175419 , 0.008597067 , -0.0112809744, 0.461994171 , 1.79        , 3           , 50          , 0           , 0
-0.114520475, -0.08087836 , -9.768328   , -0.0009127391, 0.002741519 , -0.00101203646, 0.202103272 , -0.0960631  , 0.3470406   , 0.008650365 , -0.0113096973, 0.461983681 , 1.8         , 3           , 11          , 0.0132328859, 0.0132328607
-0.0758613348, -0.108018219, -9.791775   , -0.001689728, 0.003532439 , -0.000432943, 0.202103272 , -0.0960631  , 0.3470406   , 0.008633514 , -0.011274334, 0.461979628 , 1.81        , 3           , 12          , 0.0418972038, 0
-0.08414079 , -0.08882667 , -9.808342   , -0.00301708165, -0.000115480681, 0.000293085177, 0.201833621 , -0.09613051 , 0.347108    , 0.00860331  , -0.0112755178, 0.4619825   , 1.82        , 3           , 50          , 0           , 0
-0.154883   , -0.0838424638, -9.79583549 , -0.00228638086, 0.0009615653, -0.0007600958, 0.201901034 , -0.0960631  , 0.347108    , 0.008580531 , -0.0112658348, 0.4619751   , 1.83        , 3           , 11          , 0.0132328859, 0.0132328607
-0.1205744  , -0.07821572 , -9.801327   , -0.00196341518, -0.00211893325, -0.00123206538, 0.201968446 , -0.0960631  , 0.347310245 , 0.008561037 , -0.0112869181, 0.461962461 , 1.84        , 3           , 12          , 0.0418972038, 0
-0.110303879, -0.08288752 , -9.794511   , 0.00123837742, -0.0008791122, 0.00073759834, 0.202170685 , -0.0959282741, 0.3470406   , 0.00857333653, -0.0112957731, 0.461969852 , 1.85        , 3           , 50          , 0           , 0
-0.119768806, -0.07614322 , -9.785035   , 0.001709587 , 0.00298537174, 0.0007965111, 0.202170685 , -0.0959282741, 0.3470406   , 0.00859034  , -0.0112659875, 0.461977959 , 1.86        , 3           , 11          , 0.0132328859, 0.0132328607
-0.108604215, -0.07860706 , -9.774572   , 0.000215668988, 0.0020825977, -0.0007284093, 0.201968446 , -0.0961979255, 0.3470406   , 0.008592577 , -0.0112451  , 0.4619708   , 1.87        , 3           , 12          , 0.0418972038, 0
-0.110478513, -0.09072228 , -9.778794   , -0.00194713194, 0.000160262411, 0.000303683948, 0.202170685 , -0.09613051 , 0.346973181 , 0.00857307  , -0.011243524, 0.4619739   , 1.88        , 3           , 50          , 0           , 0
-0.102398127, -0.06031212 , -9.803212   , -0.00171061372, -0.00371592469, 0.0007498417, 0.202035859 , -0.0960631  , 0.347242832 , 0.008555883 , -0.0112807462, 0.461981058 , 1.89        , 3           , 11          , 0.0132328859, 0.0132328607
-0.110168777, -0.05552745 , -9.780643   , -0.003310165, 0.00019204276, -0.0009185287, 0.202103272 , -0.09599569 , 0.347108    , 0.008106499 , -0.0111339437, 0.461976767 , 1.9         , 3           , 12          , 0.0426742621, 0
-0.117614858, -0.0896658  , -9.78743    , 0.000224693853, 0.003962777 , -0.00184381451, 0.201833621 , -0.09613051 , 0.346838355 , 0.008108948 , -0.01109417 , 0.4619584   , 1.91        , 3           , 50          , 0           , 0
-0.116433896, -0.09394378 , -9.768044   , 0.0015583866, 0.00272661052, -0.00135262636, 0.201833621 , -0.09613051 , 0.346838355 , 0.008124679 , -0.0110667963, 0.4619453   , 1.92        , 3           , 11          , 0.0135727823, 0.013572759
-0.09966231 , -0.08323323 , -9.770929   , -0.001685083, -0.000896685058, -0.00121049164, 0.201833621 , -0.09599569 , 0.347175419 , 0.008107962 , -0.0110756615, 0.4619329   , 1.93        , 3           , 12          , 0.0426742621, 0
-0.104380555, -0.07081243 , -9.789801   , -0.00320005929, -0.00189797906, 0.000268266827, 0.201968446 , -0.0960631  , 0.347108    , 0.008075934 , -0.0110946624, 0.461935759 , 1.94        , 3           , 50          , 0           , 0
-0.122081652, -0.0820047557, -9.783317   , 0.000306539 , -0.0002107025, -4.340791E-05, 0.202035859 , -0.0960631  , 0.3470406   , 0.00807900447, -0.0110967662, 0.461935282 , 1.95        , 3           , 11          , 0.0135727823, 0.013572759
-0.122504741, -0.09442297 , -9.802436   , 0.00151795615, -0.000290148979, -0.0005379564, 0.2022381   , -0.09613051 , 0.346973181 , 0.008094245 , -0.0110996244, 0.4619298   , 1.96        , 3           , 12          , 0.0426742621, 0
-0.108877815, -0.08545472 , -9.808531   , -0.00127403741, -0.00155670044, -1.11484724E-06, 0.2022381   , -0.09613051 , 0.346973181 , 0.008081506 , -0.0111151915, 0.46192956  , 1.97        , 3           , 50          , 0           , 0
-0.108027346, -0.07129486 , -9.783968   , -0.001137803, -0.00170719367, 0.0006415241, 0.201901034 , -0.09613051 , 0.3470406   , 0.008070059 , -0.0111323167, 0.461936    , 1.98        , 3           , 11          , 0.0135727823, 0.013572759
-0.09542272 , -0.07763989 , -9.791151   , 9.217322E-05, 7.228498E-05, 0.0006033496, 0.202035859 , -0.09599569 , 0.347108    , 0.008070914 , -0.0111316415, 0.461941957 , 1.99        , 3           , 12          , 0.0426742621, 0
-0.08239128 , -0.07111579 , -9.779213   , -0.000469346618, 0.00117596227, -0.000101536243, 0.201901034 , -0.09599569 , 0.347242832 , 0.008049924 , -0.0109600946, 0.461941242 , 2           , 3           , 50          , 0           , 0
-0.112242304, -0.0888691  , -9.781951   , -0.00118250027, 0.0002633219, -0.00140712166, 0.201968446 , -0.09613051 , 0.347108    , 0.00803825352, -0.0109573482, 0.461927176 , 2.01        , 3           , 11          , 0.01305745  , 0.0130574275
-0.124903932, -0.09195923 , -9.778038   , -0.00391569873, -0.00137305388, 0.00034112818, 0.201968446 , -0.09613051 , 0.347108    , 0.007999061 , -0.0109711047, 0.4619305   , 2.02        , 3           , 12          , 0.043477647 , 0
-0.08740491 , -0.09030679 , -9.793934   , -0.00136509025, -0.002046423, 0.0006333224, 0.202035859 , -0.0960631  , 0.346838355 , 0.00798534  , -0.0109916227, 0.4619367   , 2.03        , 3           , 50          , 0           , 0
-0.109771   , -0.0800940841, -9.803056   , -0.0010761763, -0.002113919, -0.000152958644, 0.201901034 , -0.0960631  , 0.347108    , 0.007974598 , -0.011012746, 0.461935043 , 2.04        , 3           , 11          , 0.01305745  , 0.0130574275
-0.119528435, -0.06865291 , -9.810693   , 0.00274256873, 0.00193538587, -0.0005000293, 0.201968446 , -0.0959282741, 0.347175419 , 0.008002076 , -0.0109933531, 0.461930037 , 2.05        , 3           , 12          , 0.043477647 , 0
-0.11123509 , -0.07535945 , -9.780882   , 0.0024042048, 0.00351390382, -0.000336134661, 0.202035859 , -0.09613051 , 0.347175419 , 0.008026152 , -0.0109581873, 0.461927176 , 2.06        , 3           , 50          , 0           , 0
-0.117292918, -0.08897597 , -9.767996   , -0.000132771471, -0.000475479872, -0.0001233923, 0.202170685 , -0.09613051 , 0.346973181 , 0.008024838 , -0.0109629324, 0.461925745 , 2.07        , 3           , 11          , 0.01305745  , 0.0130574275
-0.108807   , -0.104735374, -9.777134   , -0.0007643671, -0.000316730351, -0.00112673466, 0.202170685 , -0.09613051 , 0.346973181 , 0.008017318 , -0.0109660085, 0.461914539 , 2.08        , 3           , 12          , 0.043477647 , 0
-0.09421093 , -0.0916636  , -9.788142   , -0.0009664242, 0.0008291939, -0.0008251616, 0.202103272 , -0.0960631  , 0.346973181 , 0.008007743 , -0.0109576536, 0.461906433 , 2.09        , 3           , 50          , 0           , 0
-0.09551366 , -0.0911331847, -9.794471   , 0.00198264816, -0.0015054933, -0.0006286152, 0.201901034 , -0.09599569 , 0.347310245 , 0.008141478 , -0.0108607821, 0.4618988   , 2.1         , 3           , 11          , 0.0129868742, 0.0129868565
-0.100852147, -0.0785236955, -9.788501   , 0.000616708247, -0.00278137415, -0.0006555347, 0.2016988   , -0.0960631  , 0.347108    , 0.008147718 , -0.01088854 , 0.4618919   , 2.11        , 3           , 12          , 0.0443056151, 0
-0.109297141, -0.07204943 , -9.796636   , 0.00566122634, 0.00346512068, 0.000324759516, 0.202170685 , -0.0961979255, 0.347108    , 0.00820429251, -0.0108539173, 0.461895466 , 2.12        , 3           , 50          , 0           , 0
-0.101798959, -0.08704436 , -9.792222   , -0.000131339955, 0.000728848856, 0.000320912339, 0.202170685 , -0.0961979255, 0.347108    , 0.008202944 , -0.0108466549, 0.461898565 , 2.13        , 3           , 11          , 0.0129868742, 0.0129868565
-0.116287149, -0.0719074756, -9.762369   , -0.000114767834, 0.0018796447, -0.00016318055, 0.201901034 , -0.0961979255, 0.3470406   , 0.008201812 , -0.0108278459, 0.461897135 , 2.14        , 3           , 12          , 0.0443056151, 0
-0.123446122, -0.0851299763, -9.785172   , -0.000356839766, -0.000202285679, 0.0005206864, 0.202170685 , -0.09599569 , 0.347108    , 0.008198188 , -0.0108299116, 0.46190238  , 2.15        , 3           , 50          , 0           , 0
-0.132763878, -0.102197476, -9.826108   , -0.00221359474, -0.00181661616, -0.00115989149, 0.201901034 , -0.0959282741, 0.347175419 , 0.008176179 , -0.010847982, 0.4618907   , 2.16        , 3           , 11          , 0.0129868742, 0.0129868565
-0.119288221, -0.08856443 , -9.804597   , -0.000136970455, -0.00033686473, -0.000696312462, 0.2022381   , -0.09599569 , 0.347175419 , 0.008174883 , -0.0108512929, 0.461883783 , 2.17        , 3           , 12          , 0.0443056151, 0
-0.0942732841, -0.09576529 , -9.784124   , -0.00316992844, -0.004248266, -0.0006286072, 0.202035859 , -0.09613051 , 0.346973181 , 0.008143256 , -0.0108937258, 0.4618771   , 2.18        , 3           , 50          , 0           , 0
-0.09598623 , -0.08671216 , -9.785841   , -0.00209042151, -0.003183791, -0.0006780722, 0.202035859 , -0.09613051 , 0.346973181 , 0.008122429 , -0.0109255062, 0.4618702   , 2.19        , 3           , 11          , 0.0129868742, 0.0129868565
-0.127522767, -0.0891383439, -9.786612   , -0.00126330089, -0.00143374165, -0.000219737965, 0.202035859 , -0.0959282741, 0.346973181 , 0.008161923 , -0.0108609637, 0.461867332 , 2.2         , 3           , 12          , 0.04515651  , 0
-0.116243079, -0.08118777 , -9.780092   , 0.00215582014, -0.0007551687, 0.0001689616, 0.202103272 , -0.0960631  , 0.347242832 , 0.00818346348, -0.0108685289, 0.461868763 , 2.21        , 3           , 50          , 0           , 0
-0.09450667 , -0.07317256 , -9.78793    , 0.000956374337, -0.000377625081, -0.0006200544, 0.2022381   , -0.0959282741, 0.347175419 , 0.008193094 , -0.0108722523, 0.461862564 , 2.22        , 3           , 11          , 0.01313506  , 0.0131350458
-0.124691613, -0.0796154141, -9.793702   , -0.000669791945, -0.00070131704, -0.00263827131, 0.202170685 , -0.09613051 , 0.3470406   , 0.008186684 , -0.0108790491, 0.4618361   , 2.23        , 3           , 12          , 0.04515651  , 0
-0.130525231, -0.07908934 , -9.796008   , -0.00116826617, 0.000643234758, -0.00018905141, 0.202170685 , -0.09613051 , 0.3470406   , 0.008175021 , -0.0108726006, 0.4618342   , 2.24        , 3           , 50          , 0           , 0
-0.108753033, -0.09753057 , -9.776146   , -9.052019E-06, -0.00211586384, 0.00249714  , 0.202035859 , -0.0961979255, 0.347108    , 0.00817466  , -0.0108939623, 0.461859    , 2.25        , 3           , 11          , 0.01313506  , 0.0131350458
-0.116721891, -0.09057544 , -9.787432   , 0.0012592515, -0.0040491987, 0.000902777 , 0.201968446 , -0.09599569 , 0.347242832 , 0.008187158 , -0.0109345261, 0.4618678   , 2.26        , 3           , 12          , 0.04515651  , 0
-0.101758786, -0.069177486, -9.776207   , -0.00141315616, -0.00172463479, 0.0004191008, 0.201968446 , -0.09613051 , 0.347175419 , 0.008172982 , -0.010951804, 0.461871862 , 2.27        , 3           , 50          , 0           , 0
-0.0986512452, -0.0830717  , -9.786728   , -0.00325528928, -0.000215389082, 0.00200377684, 0.202170685 , -0.0959282741, 0.347108    , 0.008140208 , -0.0109541221, 0.4618919   , 2.28        , 3           , 11          , 0.01313506  , 0.0131350458
-0.119340725, -0.08775456 , -9.796005   , -0.0001256853, -0.000881100132, 0.0007970367, 0.202170685 , -0.0959282741, 0.347108    , 0.008138863 , -0.0109629966, 0.461899757 , 2.29        , 3           , 12          , 0.04515651  , 0
-0.09502071 , -0.07371148 , -9.779358   , -0.001596834, -0.000482764153, -0.00149359845, 0.202103272 , -0.09626534 , 0.3470406   , 0.00839375053, -0.0113703767, 0.4618814   , 2.3         , 3           , 50          , 0           , 0
-0.122035749, -0.089946866, -9.799669   , 5.92543547E-05, 0.0010800052, -0.00181849685, 0.201766208 , -0.09599569 , 0.347108    , 0.008394548 , -0.0113594243, 0.461863279 , 2.31        , 3           , 11          , 0.0133700073, 0.0133699887
-0.111601852, -0.0765630752, -9.794451   , -0.00123688788, 0.000224952644, -0.0009086948, 0.201968446 , -0.09599569 , 0.347310245 , 0.008382282 , -0.0113570988, 0.461854219 , 2.32        , 3           , 12          , 0.046028778 , 0
-0.109034508, -0.07323099 , -9.7709     , 0.0003822805, -0.00129492348, -0.00106383592, 0.202103272 , -0.0960631  , 0.347175419 , 0.008386227 , -0.0113699576, 0.4618435   , 2.33        , 3           , 50          , 0           , 0
-0.1219201  , -0.06528738 , -9.786284   , 0.002663708 , -0.000393057067, -0.000321154715, 0.202035859 , -0.0960631  , 0.347175419 , 0.008412903 , -0.0113738617, 0.4618404   , 2.34        , 3           , 11          , 0.0133700073, 0.0133699887
-0.109944545, -0.0848112  , -9.7836895  , 0.00212137215, 0.00134115526, -0.00130111433, 0.202035859 , -0.0960631  , 0.347175419 , 0.008434262 , -0.01136034 , 0.461827517 , 2.35        , 3           , 12          , 0.046028778 , 0
-0.105096377, -0.09213655 , -9.777407   , 0.004114927 , 0.00153586234, -0.00128599047, 0.202103272 , -0.0960631  , 0.347108    , 0.008475556 , -0.01134487 , 0.461814642 , 2.36        , 3           , 50          , 0           , 0
-0.11382664 , -0.105239943, -9.768151   , 0.00123923807, -0.00045217335, -0.000116142088, 0.201901034 , -0.0960631  , 0.347242832 , 0.008487961 , -0.0113493819, 0.46181345  , 2.37        , 3           , 11          , 0.0133700073, 0.0133699887
-0.103315681, -0.09084792 , -9.772858   , -0.0036145302, -0.00190887006, -2.409879E-05, 0.201968446 , -0.09613051 , 0.347108    , 0.008451822 , -0.0113684693, 0.4618132   , 2.38        , 3           , 12          , 0.046028778 , 0
-0.09119503 , -0.08032556 , -9.754558   , -0.001853834, -0.0030783657, 0.0005422438, 0.202103272 , -0.0959282741, 0.347175419 , 0.008433224 , -0.0113992961, 0.461818218 , 2.39        , 3           , 50          , 0           , 0
-0.09969768 , -0.08373252 , -9.766418   , -0.00468710251, -0.002662501, -0.0007575336, 0.202103272 , -0.0959282741, 0.347175419 , 0.008383228 , -0.0113927117, 0.46181035  , 2.4         , 3           , 11          , 0.0115405908, 0.0115405824
-0.127329737, -0.07014707 , -9.791359   , -0.00319166621, -0.00203990727, 4.780325E-05, 0.2022381   , -0.09613051 , 0.347175419 , 0.008351309 , -0.011413116, 0.461810827 , 2.41        , 3           , 12          , 0.0469209366, 0
-0.112591416, -0.07713681 , -9.78226948 , -0.000749586266, -0.000197865258, -0.000339750928, 0.201833621 , -0.09613051 , 0.347175419 , 0.00834385  , -0.0114150643, 0.4618075   , 2.42        , 3           , 50          , 0           , 0
-0.0828310847, -0.07732778 , -9.788322   , -0.00390805351, -0.00302739139, -0.00090112054, 0.201901034 , -0.09599569 , 0.347175419 , 0.008304875 , -0.0114452625, 0.4617982   , 2.43        , 3           , 11          , 0.0115405908, 0.0115405824
-0.12380033 , -0.07251522 , -9.783675   , -0.00360168284, -0.00116687687, -0.0009438202, 0.202035859 , -0.09599569 , 0.347175419 , 0.008268968 , -0.0114568518, 0.461788654 , 2.44        , 3           , 12          , 0.0469209366, 0
-0.122950055, -0.07927696 , -9.784649   , 0.0022538756, 0.00127569435, -0.000228308214, 0.202035859 , -0.09599569 , 0.346973181 , 0.00829153  , -0.011444075, 0.4617865   , 2.45        , 3           , 50          , 0           , 0
-0.114899829, -0.0705278  , -9.765955   , 0.00233551231, 0.00157114945, -0.00129682128, 0.202035859 , -0.09599569 , 0.346973181 , 0.008315033 , -0.0114282575, 0.461773634 , 2.46        , 3           , 11          , 0.0115405908, 0.0115405824
-0.1170417  , -0.07123098 , -9.782694   , -0.00104585313, -0.00105727254, -6.782086E-05, 0.201833621 , -0.0960631  , 0.3470406   , 0.008304583 , -0.0114388233, 0.46177268  , 2.47        , 3           , 12          , 0.0469209366, 0
-0.11437431 , -0.0846607  , -9.794117   , -0.00113442063, -0.00298456079, -0.0008118306, 0.202035859 , -0.0959282741, 0.347242832 , 0.008293333 , -0.0114686005, 0.461764336 , 2.48        , 3           , 50          , 0           , 0
-0.125163078, -0.07207675 , -9.78142452 , 0.0029779938, -0.003818392, -0.000369217625, 0.202035859 , -0.0960631  , 0.347377658 , 0.00832316  , -0.0115067521, 0.461760283 , 2.49        , 3           , 11          , 0.0115405908, 0.0115405824
-0.09656777 , -0.102043852, -9.785573   , 0.00214830157, -0.0003218921, -0.00110968552, 0.2022381   , -0.09613051 , 0.347175419 , 0.008301474 , -0.0115683107, 0.4617498   , 2.5         , 3           , 12          , 0.0478316   , 0
-0.1001101  , -0.08144502 , -9.769106   , 0.0008328307, 0.00220835954, -0.00208288 , 0.2022381   , -0.09613051 , 0.347175419 , 0.008310042 , -0.0115460558, 0.46172905  , 2.51        , 3           , 50          , 0           , 0
-0.108844928, -0.0613671169, -9.78386    , -0.001355966, -0.00123003393, 0.0002150403, 0.201968446 , -0.09613051 , 0.347108    , 0.008296457 , -0.0115583716, 0.4617312   , 2.52        , 3           , 11          , 0.0120629035, 0.0120628914
-0.120314822, -0.0816276  , -9.777877   , 0.00143403432, -0.000177777241, -0.000396472256, 0.201968446 , -0.09599569 , 0.347377658 , 0.008310844 , -0.0115601141, 0.461727142 , 2.53        , 3           , 12          , 0.0478316   , 0
-0.136496514, -0.0801095441, -9.780266   , 1.31354227E-05, 0.000402790523, 0.000390258851, 0.201968446 , -0.09586086 , 0.347175419 , 0.008310929 , -0.01155612 , 0.461730957 , 2.54        , 3           , 50          , 0           , 0
-0.101415381, -0.06889986 , -9.76039    , -0.00167720357, 0.001217819 , -0.0006816595, 0.202170685 , -0.0960631  , 0.347175419 , 0.008294234 , -0.0115438849, 0.461724281 , 2.55        , 3           , 11          , 0.0120629035, 0.0120628914
-0.0918899  , -0.07288065 , -9.775255   , -0.00154811132, -0.000212042258, -0.00120245747, 0.202170685 , -0.0960631  , 0.347175419 , 0.008278892 , -0.0115459049, 0.461712122 , 2.56        , 3           , 12          , 0.0478316   , 0
-0.125852585, -0.0583917275, -9.795275   , -0.00357653853, -0.0020756952, 0.00111927406, 0.2022381   , -0.09613051 , 0.347108    , 0.008242999 , -0.0115667535, 0.4617231   , 2.57        , 3           , 50          , 0           , 0
-0.117747605, -0.058016222, -9.79474449 , -0.001069051, -0.00101798936, 0.000219884 , 0.202103272 , -0.0960631  , 0.347242832 , 0.00823228247, -0.0115769515, 0.461725473 , 2.58        , 3           , 11          , 0.0120629035, 0.0120628914
-0.104826182, -0.07436252 , -9.794814   , 0.00152653374, 0.0009786951, -0.00159554672, 0.202170685 , -0.0959282741, 0.347310245 , 0.008247732 , -0.0115670329, 0.4617095   , 2.59        , 3           , 12          , 0.0478316   , 0
-0.09646326 , -0.09476163 , -9.791811   , 0.0014908216, -0.00167547318, 8.225714E-05, 0.202103272 , -0.09613051 , 0.347310245 , 0.008134479 , -0.0114146732, 0.461711884 , 2.6         , 3           , 50          , 0           , 0
-0.116558746, -0.06806889 , -9.783558   , 0.00111146783, -0.00233842013, 0.002503119 , 0.202035859 , -0.0961979255, 0.347242832 , 0.008145312 , -0.0114382589, 0.461736679 , 2.61        , 3           , 11          , 0.0124102989, 0.0124102859
-0.10593123 , -0.09024767 , -9.784618   , -0.00106790394, -0.00129508192, 0.0005012994, 0.202035859 , -0.0961979255, 0.347242832 , 0.008134576 , -0.0114512518, 0.4617417   , 2.62        , 3           , 12          , 0.04875946  , 0
-0.0964567959, -0.0854039043, -9.781313   , 0.00165367243, -0.0003796333, -0.0007565975, 0.202170685 , -0.0961979255, 0.347310245 , 0.0081512   , -0.0114549855, 0.461734056 , 2.63        , 3           , 50          , 0           , 0
-0.13421905 , -0.08632086 , -9.791609   , 0.00109607121, 0.00027606808, -0.00132296176, 0.202035859 , -0.09599569 , 0.347310245 , 0.008162312 , -0.011452117, 0.4617207   , 2.64        , 3           , 11          , 0.0124102989, 0.0124102859
-0.105873384, -0.0848174542, -9.786363   , 0.000103343838, 0.001065956 , -0.000387448381, 0.202103272 , -0.09586086 , 0.347445071 , 0.008163389 , -0.0114414264, 0.461717129 , 2.65        , 3           , 12          , 0.04875946  , 0
-0.1088322  , -0.0751468  , -9.802538   , -4.6650126E-05, 0.0008454276, 0.0003955158, 0.202035859 , -0.09599569 , 0.347310245 , 0.008162875 , -0.0114330025, 0.461721182 , 2.66        , 3           , 50          , 0           , 0
-0.111630447, -0.08595468 , -9.801786   , 0.00182120642, -0.00361733371, 0.000485473458, 0.202035859 , -0.09599569 , 0.347310245 , 0.00818103552, -0.0114692152, 0.4617257   , 2.67        , 3           , 11          , 0.0124102989, 0.0124102859
-0.105962396, -0.0991980359, -9.791045   , -0.002234328, -0.004143556, -0.000191158557, 0.201968446 , -0.09626534 , 0.347310245 , 0.008158718 , -0.0115106339, 0.461723328 , 2.68        , 3           , 12          , 0.04875946  , 0
-0.09627312 , -0.0686526448, -9.787443   , -0.00248204684, -0.00169322558, -0.00144513487, 0.202170685 , -0.09613051 , 0.347445071 , 0.008134064 , -0.0115274489, 0.461708784 , 2.69        , 3           , 50          , 0           , 0
-0.09671826 , -0.06953119 , -9.789264   , -0.001635687, -6.03847839E-05, -0.00284788478, 0.201968446 , -0.0959282741, 0.347377658 , 0.008046945 , -0.0114204409, 0.461681128 , 2.7         , 3           , 11          , 0.0117100487, 0.0117100393
-0.08943896 , -0.0859483853, -9.820101   , 0.001933543 , 0.00274369167, 7.69078251E-05, 0.202305511 , -0.09599569 , 0.347377658 , 0.008066269 , -0.0113930106, 0.461682081 , 2.71        , 3           , 12          , 0.04970329  , 0
-0.131072432, -0.0854658559, -9.789763   , -0.000562316563, 0.0019130772, -0.00037985103, 0.202103272 , -0.09599569 , 0.347310245 , 0.008060687 , -0.0113738505, 0.4616785   , 2.72        , 3           , 50          , 0           , 0
-0.117316812, -0.06072075 , -9.795223   , -0.00351055432, -0.0005699906, 0.000138396237, 0.202103272 , -0.09599569 , 0.347310245 , 0.008025565 , -0.0113795614, 0.461679935 , 2.73        , 3           , 11          , 0.0117100487, 0.0117100393
-0.09363283 , -0.08345929 , -9.796622   , 0.001284611 , 0.0023855702, 0.000783245661, 0.2022381   , -0.09613051 , 0.347377658 , 0.008038321 , -0.0113557689, 0.4616878   , 2.74        , 3           , 12          , 0.04970329  , 0
-0.1067671  , -0.09370192 , -9.798217   , -0.0003813112, 0.000174798333, 0.001456459 , 0.202035859 , -0.0959282741, 0.347512484 , 0.008034343 , -0.0113541391, 0.4617026   , 2.75        , 3           , 50          , 0           , 0
-0.119394265, -0.07848877 , -9.776929   , 0.00319543947, 0.00136623764, 0.000422498735, 0.2022381   , -0.0960631  , 0.347445071 , 0.008066248 , -0.0113405092, 0.461706877 , 2.76        , 3           , 11          , 0.0117100487, 0.0117100393
-0.117169   , -0.0905666947, -9.787888   , 0.00176003948, 0.000234369058, 0.000397237658, 0.2022381   , -0.09613051 , 0.347445071 , 0.008083801 , -0.0113382  , 0.4617107   , 2.77        , 3           , 12          , 0.04970329  , 0
-0.08007848 , -0.07682782 , -9.795067   , 0.002019597 , -0.002341334, -0.0003540208, 0.2022381   , -0.09613051 , 0.347445071 , 0.008104039 , -0.0113615822, 0.461707115 , 2.78        , 3           , 50          , 0           , 0
-0.138020262, -0.0640896  , -9.800873   , 0.00161114149, 0.00043859065, 0.00175879034, 0.202103272 , -0.0961979255, 0.347310245 , 0.008119949 , -0.0113573382, 0.461724758 , 2.79        , 3           , 11          , 0.0117100487, 0.0117100393
-0.13280265 , -0.07287804 , -9.784665   , -0.00268300832, -0.000794067746, 0.00208099582, 0.202035859 , -0.0959282741, 0.347377658 , 0.007767121 , -0.0119267358, 0.461749077 , 2.8         , 3           , 12          , 0.0506619476, 0
-0.0955610648, -0.0912057757, -9.787696   , -0.00033913058, -0.00089211145, 0.00238025212, 0.202170685 , -0.0961979255, 0.347512484 , 0.00776344631, -0.01193584 , 0.461772919 , 2.81        , 3           , 50          , 0           , 0
-0.08250034 , -0.0886430442, -9.784836   , 0.000917462341, 0.00233370042, 0.000860584259, 0.2022381   , -0.09613051 , 0.347445071 , 0.00777251553, -0.0119125722, 0.46178174  , 2.82        , 3           , 11          , 0.0119074108, 0.0119073931
-0.104032904, -0.07898587 , -9.784923   , 0.000712327659, 0.00185291073, -0.00122269359, 0.2022381   , -0.09613051 , 0.347445071 , 0.00777978171, -0.0118939476, 0.461769581 , 2.83        , 3           , 12          , 0.0506619476, 0
-0.1186398  , -0.102312341, -9.784875   , 0.00102112407, -0.00188134948, -0.000702479854, 0.202035859 , -0.09613051 , 0.347242832 , 0.00779007841, -0.0119127063, 0.461762428 , 2.84        , 3           , 50          , 0           , 0
-0.125409886, -0.102723815, -9.783135   , 0.003047899 , -0.00427745469, 0.000491707644, 0.202103272 , -0.0960631  , 0.347445071 , 0.007820503 , -0.0119555183, 0.461766958 , 2.85        , 3           , 11          , 0.0119074108, 0.0119073931
-0.10182213 , -0.0786223263, -9.778574   , 0.004384738 , 0.000441297248, 0.0002105762, 0.202035859 , -0.09613051 , 0.347310245 , 0.007864325 , -0.0119511206, 0.4617691   , 2.86        , 3           , 12          , 0.0506619476, 0
-0.12797308 , -0.07533536 , -9.769743   , 0.00292401854, 0.003039519 , -0.00019010331, 0.202103272 , -0.0960631  , 0.347310245 , 0.007893585 , -0.01192071 , 0.461767435 , 2.87        , 3           , 50          , 0           , 0
-0.124716222, -0.0930070952, -9.806504   , -2.27749752E-05, 0.000558370841, 0.000113521019, 0.202035859 , -0.0961979255, 0.347445071 , 0.007893343 , -0.0119151361, 0.461768627 , 2.88        , 3           , 11          , 0.0119074108, 0.0119073931
-0.11245241 , -0.07692389 , -9.802141   , -0.00041951405, -0.00231468654, 0.00128584111, 0.202035859 , -0.0961979255, 0.347445071 , 0.007888995 , -0.0119383819, 0.461781263 , 2.89        , 3           , 12          , 0.0506619476, 0
-0.112392   , -0.07193491 , -9.804792   , 0.00166327343, -0.00142650213, -0.000692576054, 0.201968446 , -0.09613051 , 0.347242832 , 0.007899745 , -0.011885439, 0.461774349 , 2.9         , 3           , 50          , 0           , 0
-0.119263195, -0.08407475 , -9.802737   , 0.000178978153, -0.001328809, -0.00191672519, 0.202035859 , -0.09586086 , 0.347377658 , 0.007901763 , -0.0118985744, 0.461755276 , 2.91        , 3           , 11          , 0.0111381039, 0.0111380713
-0.120651945, -0.08189555 , -9.794595   , 0.000116648356, 0.00108224107, 0.0009799616, 0.201968446 , -0.09613051 , 0.347512484 , 0.007902813 , -0.0118878307, 0.461765051 , 2.92        , 3           , 12          , 0.0516343527, 0
-0.136408612, -0.0688466  , -9.779232   , -0.000718648371, 0.00174979039, -0.00058969 , 0.2022381   , -0.09626534 , 0.347310245 , 0.007895695 , -0.0118702855, 0.461759329 , 2.93        , 3           , 50          , 0           , 0
-0.10987331 , -0.0811410546, -9.789518   , -0.00148291315, 0.00319255283, -0.0007881573, 0.2022381   , -0.09626534 , 0.347310245 , 0.007880956 , -0.0118382992, 0.4617517   , 2.94        , 3           , 11          , 0.0111381039, 0.0111380713
-0.122955278, -0.076169014, -9.780096   , -0.000158223251, 0.000886193535, -0.00081340695, 0.202103272 , -0.09613051 , 0.347445071 , 0.007879466 , -0.0118293725, 0.4617436   , 2.95        , 3           , 12          , 0.0516343527, 0
-0.132189378, -0.09157623 , -9.765904   , 0.00266664755, -0.0005090729, -0.000243769275, 0.202170685 , -0.0960631  , 0.347512484 , 0.007906162 , -0.0118344454, 0.4617412   , 2.96        , 3           , 50          , 0           , 0
-0.124502182, -0.0951533541, -9.774909   , 0.0007005285, 0.00130803289, -0.0008735475, 0.202103272 , -0.0959282741, 0.347377658 , 0.00791327  , -0.0118212961, 0.461732626 , 2.97        , 3           , 11          , 0.0111381039, 0.0111380713
-0.107942142, -0.112365074, -9.78128    , 0.00208628457, -0.00129458588, 9.9031764E-05, 0.202440336 , -0.09599569 , 0.3475799   , 0.007934121 , -0.0118342489, 0.461733341 , 2.98        , 3           , 12          , 0.0516343527, 0
-0.109023407, -0.09279986 , -9.796421   , 0.00351074245, -0.000247799529, 0.00162561052, 0.202103272 , -0.09599569 , 0.347310245 , 0.007969037 , -0.0118368575, 0.461749554 , 2.99        , 3           , 50          , 0           , 0
-0.102134518, -0.09309664 , -9.816236   , -0.000348579139, -0.00110125728, -0.0004195502, 0.202103272 , -0.09599569 , 0.347310245 , 0.008383293 , -0.0116508929, 0.461740255 , 3           , 3           , 11          , 0.0108080106, 0.0108079771
-0.0859438255, -0.08569819 , -9.804257   , 0.000377714285, 0.000252129947, -0.0003239013, 0.202305511 , -0.09613051 , 0.347445071 , 0.00838710647, -0.0116483439, 0.461736917 , 3.01        , 3           , 12          , 0.052619487 , 0
-0.107560284, -0.0913040638, -9.810844   , -0.0001829759, 0.000268787146, -0.00154352514, 0.202035859 , -0.09613051 , 0.347445071 , 0.008385455 , -0.0116455276, 0.46172142  , 3.02        , 3           , 50          , 0           , 0
-0.104732968, -0.06843302 , -9.801069   , -0.00232652458, -0.000146448088, -0.000775684835, 0.2022381   , -0.0960631  , 0.3475799   , 0.008362282 , -0.0116469273, 0.4617138   , 3.03        , 3           , 11          , 0.0108080106, 0.0108079771
-0.110667408, -0.06093922 , -9.780259   , -0.000946758839, 0.00171218871, -0.00181353325, 0.2022381   , -0.09613051 , 0.347445071 , 0.008353024 , -0.0116296541, 0.461695671 , 3.04        , 3           , 12          , 0.052619487 , 0
-0.118149333, -0.0982484445, -9.785727   , -0.0005520085, -0.000239352448, -0.000408314459, 0.2022381   , -0.09613051 , 0.347445071 , 0.00834755  , -0.0116320141, 0.461691618 , 3.05        , 3           , 50          , 0           , 0
-0.111160479, -0.07613546 , -9.792635   , -0.00278508826, -0.00258315564, -0.000241401955, 0.202372923 , -0.09626534 , 0.347377658 , 0.008319731 , -0.0116578229, 0.461689    , 3.06        , 3           , 11          , 0.0108080106, 0.0108079771
-0.104436256, -0.08158093 , -9.794894   , -7.4315496E-05, -0.00182315416, -0.00014210651, 0.202035859 , -0.09599569 , 0.347445071 , 0.008319005 , -0.0116760414, 0.461687326 , 3.07        , 3           , 12          , 0.052619487 , 0
-0.120767847, -0.07673146 , -9.771501   , -0.00535612274, -0.003065701, 0.0005228249, 0.2022381   , -0.0960631  , 0.3476473   , 0.008265385 , -0.0117067406, 0.461692333 , 3.08        , 3           , 50          , 0           , 0
-0.112182766, -0.0914487243, -9.793724   , -0.00467612362, 0.000649486959, 0.00101018185, 0.202440336 , -0.09599569 , 0.347445071 , 0.00821850449, -0.0117003294, 0.4617026   , 3.09        , 3           , 11          , 0.0108080106, 0.0108079771
-0.111129217, -0.112836912, -9.776796   , -0.00520963 , -0.000908062, 0.0008399955, 0.202440336 , -0.09599569 , 0.347445071 , 0.008282248 , -0.0116839046, 0.4617095   , 3.1         , 3           , 12          , 0.05361642  , 0
-0.114275277, -0.09944683 , -9.761313   , 0.00241179182, -5.14177154E-05, 0.0006132288, 0.2022381   , -0.09626534 , 0.347377658 , 0.008306296 , -0.0116844708, 0.46171546  , 3.11        , 3           , 50          , 0           , 0
-0.103662238, -0.07955683 , -9.774086   , 0.00186603365, -0.00413139351, 0.000693839451, 0.202170685 , -0.09613051 , 0.347445071 , 0.008324877 , -0.0117258411, 0.461722136 , 3.12        , 3           , 11          , 0.009623297 , 0.009623292
-0.09454663 , -0.0701178238, -9.77841    , 0.00105286727, -0.0009652351, 0.000162280136, 0.202103272 , -0.09613051 , 0.3476473   , 0.008335389 , -0.0117355045, 0.461723566 , 3.13        , 3           , 12          , 0.05361642  , 0
-0.124282554, -0.07745676 , -9.785091   , 0.000531222846, 0.002771832 , -0.0004307597, 0.202103272 , -0.09613051 , 0.347512484 , 0.008340748 , -0.0117077511, 0.4617195   , 3.14        , 3           , 50          , 0           , 0
-0.126203626, -0.08919847 , -9.782083   , -0.0009897995, 0.000915919838, 0.0004631501, 0.202170685 , -0.09626534 , 0.347377658 , 0.008330795 , -0.0116986325, 0.461724281 , 3.15        , 3           , 11          , 0.009623297 , 0.009623292
-0.124272846, -0.08189321 , -9.791918   , 0.00173653208, -0.00298427162, 0.000781217939, 0.202170685 , -0.09626534 , 0.347377658 , 0.008348072 , -0.0117285373, 0.4617319   , 3.16        , 3           , 12          , 0.05361642  , 0
-0.142001122, -0.08066343 , -9.76632    , -0.000566367758, 0.0003429063, -4.341399E-05, 0.202103272 , -0.0960631  , 0.347377658 , 0.008342411 , -0.0117251035, 0.461731434 , 3.17        , 3           , 50          , 0           , 0
-0.1171741  , -0.08968423 , -9.78607    , 0.00236200448, 0.0008947644, -0.0009475378, 0.2022381   , -0.0960631  , 0.347512484 , 0.00836614147, -0.0117160771, 0.461722136 , 3.18        , 3           , 11          , 0.009623297 , 0.009623292
-0.122008123, -0.0743248463, -9.784582   , 7.100912E-05, 0.000191835221, 0.000101436381, 0.201833621 , -0.09599569 , 0.3476473   , 0.008366839 , -0.0117141707, 0.4617231   , 3.19        , 3           , 12          , 0.05361642  , 0
-0.127278745, -0.0970253944, -9.766374   , -0.002662776, -0.00186440628, -0.0005887249, 0.201968446 , -0.09613051 , 0.347445071 , 0.008313372 , -0.01175909 , 0.461717367 , 3.2         , 3           , 50          , 0           , 0
-0.09472209 , -0.09932023 , -9.788686   , -0.00105433818, -0.00382182957, 0.00010836577, 0.201968446 , -0.09613051 , 0.347445071 , 0.008302819 , -0.01179732 , 0.461718321 , 3.21        , 3           , 11          , 0.009537869 , 0.009537873
-0.102053232, -0.06359334 , -9.791954   , -0.0007215609, -0.000162516546, -0.000766741345, 0.202170685 , -0.09599569 , 0.347377658 , 0.008295693 , -0.0117988782, 0.4617107   , 3.22        , 3           , 12          , 0.05462427  , 0
-0.125934169, -0.0696450248, -9.797213   , 0.0012825022, 0.00180987269, 0.0007768282, 0.201968446 , -0.09613051 , 0.347849548 , 0.008308425 , -0.0117808459, 0.461718559 , 3.23        , 3           , 50          , 0           , 0
-0.116728984, -0.100379251, -9.798386   , 0.00174789841, -0.00162453589, -0.000343370746, 0.202103272 , -0.0960631  , 0.3475799   , 0.008325946 , -0.0117970612, 0.461714983 , 3.24        , 3           , 11          , 0.009537869 , 0.009537873
-0.114096262, -0.09071511 , -9.776568   , -0.000459672825, -0.00195908523, -0.0005049485, 0.2022381   , -0.0960631  , 0.347445071 , 0.008321411 , -0.0118166106, 0.461709738 , 3.25        , 3           , 12          , 0.05462427  , 0
-0.0970389247, -0.101181671, -9.781502   , -0.00136505568, -0.000583963934, -0.0009914798, 0.2022381   , -0.0960631  , 0.347512484 , 0.008307879 , -0.0118223652, 0.461699724 , 3.26        , 3           , 50          , 0           , 0
-0.115343183, -0.0816417  , -9.78054    , 0.00177574949, 0.000176182133, -0.00139040116, 0.2022381   , -0.0960631  , 0.347512484 , 0.0083258   , -0.0118204886, 0.4616859   , 3.27        , 3           , 11          , 0.009537869 , 0.009537873
-0.1298927  , -0.0906359553, -9.771293   , 0.00175538973, -0.0007679977, 2.68549011E-05, 0.201968446 , -0.0960631  , 0.347445071 , 0.008343352 , -0.01182817 , 0.461686134 , 3.28        , 3           , 12          , 0.05462427  , 0
-0.08839014 , -0.07618448 , -9.76442051 , 0.002248752 , -0.000496713445, 0.0011786829, 0.202103272 , -0.09613051 , 0.347512484 , 0.0083657   , -0.0118332356, 0.461697817 , 3.29        , 3           , 50          , 0           , 0
-0.09454158 , -0.08257383 , -9.794363   , 0.00299951318, 0.00253474386, -6.10393545E-05, 0.202103272 , -0.0960631  , 0.347512484 , 0.008387341 , -0.011766633, 0.461697578 , 3.3         , 3           , 11          , 0.009802153 , 0.009802151
-0.117710456, -0.08580605 , -9.768867   , 0.00229466986, 0.00304412167, -0.000129560125, 0.202305511 , -0.09613051 , 0.347512484 , 0.0084103   , -0.0117361816, 0.461696625 , 3.31        , 3           , 12          , 0.0556422174, 0
-0.119892962, -0.07010152 , -9.759671   , 0.0004858531, -0.000294885278, -0.00133396394, 0.202305511 , -0.09613051 , 0.347512484 , 0.008415316 , -0.0117390174, 0.461683273 , 3.32        , 3           , 50          , 0           , 0
-0.09518918 , -0.0908845961, -9.775946   , -0.000225047814, 0.0003475437, -0.0002557419, 0.2022381   , -0.0960631  , 0.347310245 , 0.008413094 , -0.01173552 , 0.461680651 , 3.33        , 3           , 11          , 0.009802153 , 0.009802151
-0.08144756 , -0.07639902 , -9.791913   , -0.00224982551, -0.00165236043, 0.00127695152, 0.2022381   , -0.0961979255, 0.347512484 , 0.008390449 , -0.0117521528, 0.461693525 , 3.34        , 3           , 12          , 0.0556422174, 0
-0.117503121, -0.07480528 , -9.78545    , -0.003771938, -0.00442685746, 0.0007264773, 0.202103272 , -0.0961979255, 0.3475799   , 0.00835264847, -0.0117964791, 0.4617002   , 3.35        , 3           , 50          , 0           , 0
-0.126630977, -0.0793665648, -9.773392   , -0.0006054922, -0.00123398774, 0.00072073593, 0.202103272 , -0.0959282741, 0.3476473   , 0.008346509 , -0.0118088787, 0.461707354 , 3.36        , 3           , 11          , 0.009802153 , 0.009802151
-0.110472545, -0.08403611 , -9.77149    , -0.0013774531, -0.0007891341, -6.466663E-05, 0.202103272 , -0.0959282741, 0.3476473   , 0.008332744 , -0.0118167615, 0.461706638 , 3.37        , 3           , 12          , 0.0556422174, 0
-0.113089189, -0.08655351 , -9.7869     , 0.0009267589, -0.00453786226, -0.000176328045, 0.202170685 , -0.09613051 , 0.347242832 , 0.008342037 , -0.0118621252, 0.4617045   , 3.38        , 3           , 50          , 0           , 0
-0.121239014, -0.0874428153, -9.781566   , 0.001759438 , -0.000739676936, -0.00111789093, 0.202103272 , -0.09599569 , 0.3476473   , 0.008359765 , -0.0118694268, 0.4616933   , 3.39        , 3           , 11          , 0.009802153 , 0.009802151
-0.130257487, -0.08115336 , -9.77209    , -0.00218091626, -0.00379055645, -0.000900192244, 0.202170685 , -0.09613051 , 0.347512484 , 0.008356945 , -0.0119243292, 0.46168375  , 3.4         , 3           , 12          , 0.0566694923, 0
-0.1251843  , -0.08991459 , -9.80015    , -0.00197728164, -0.004511091, -0.000694718, 0.202035859 , -0.09613051 , 0.3476473   , 0.00833726  , -0.011969381, 0.461676359 , 3.41        , 3           , 50          , 0           , 0
-0.103221171, -0.0978252739, -9.795071   , -0.00276011159, -0.00443342 , -0.000483763462, 0.201968446 , -0.09613051 , 0.347377658 , 0.008309721 , -0.0120136729, 0.4616711   , 3.42        , 3           , 11          , 0.0101701692, 0.010170158
-0.08603411 , -0.08717188 , -9.792982   , -0.00165867351, -0.00150554022, -0.000577641535, 0.201968446 , -0.09613051 , 0.347377658 , 0.008293205 , -0.01202868 , 0.4616654   , 3.43        , 3           , 12          , 0.0566694923, 0
-0.10213881 , -0.0708465353, -9.78842449 , 0.000115626121, -0.0007521445, 0.0013046104, 0.2022381   , -0.0960631  , 0.347377658 , 0.008294205 , -0.01203631 , 0.461678267 , 3.44        , 3           , 50          , 0           , 0
-0.127032742, -0.0761724338, -9.77652    , 0.00228228071, 0.00117530988, -0.000299810781, 0.201968446 , -0.09599569 , 0.347445071 , 0.008317063 , -0.0120245321, 0.4616754   , 3.45        , 3           , 11          , 0.0101701692, 0.010170158
-0.09761524 , -0.076195   , -9.79793    , -0.0020145725, -0.001079098, 0.000213428109, 0.202170685 , -0.09599569 , 0.347512484 , 0.008296893 , -0.01203534 , 0.461677551 , 3.46        , 3           , 12          , 0.0566694923, 0
-0.100043811, -0.0929169655, -9.79272652 , 0.002546367 , -0.0002655945, 0.000253363 , 0.202305511 , -0.0960631  , 0.3475799   , 0.008322326 , -0.0120380148, 0.461679935 , 3.47        , 3           , 50          , 0           , 0
-0.103143327, -0.07544936 , -9.779002   , 0.00172330055, 0.00204082648, -0.00029071694, 0.202305511 , -0.0960631  , 0.3475799   , 0.00833959  , -0.0120175835, 0.4616773   , 3.48        , 3           , 11          , 0.0101701692, 0.010170158
-0.129529759, -0.05803043 , -9.784012   , -2.32272432E-05, -0.0002523855, 0.00166876253, 0.202440336 , -0.0961979255, 0.347445071 , 0.008339157 , -0.0120202461, 0.461693764 , 3.49        , 3           , 12          , 0.0566694923, 0
-0.115700148, -0.08950728 , -9.803671   , 0.00192170183, -0.00114750047, 0.00109658239, 0.202103272 , -0.09599569 , 0.3476473   , 0.008262562 , -0.0120801944, 0.461706161 , 3.5         , 3           , 50          , 0           , 0
-0.09205026 , -0.100279436, -9.785511   , 0.002018509 , 0.006600375 , 6.461188E-05, 0.202103272 , -0.09599569 , 0.3476473   , 0.008282732 , -0.0120141972, 0.461707354 , 3.51        , 3           , 11          , 0.0104473475, 0.0104473317
-0.0974112451, -0.0926008746, -9.78231    , -0.000888590061, 0.001184267 , -3.1819196E-05, 0.202035859 , -0.0961979255, 0.3475799   , 0.008273849 , -0.0120023508, 0.461707115 , 3.52        , 3           , 12          , 0.0577053763, 0
-0.0945739  , -0.08084279 , -9.787567   , 0.001065082 , -0.00142541085, 0.0010872687, 0.2022381   , -0.09626534 , 0.347512484 , 0.00828436948, -0.0120166987, 0.461717844 , 3.53        , 3           , 50          , 0           , 0
-0.09647152 , -0.09388401 , -9.789542   , 0.0036445763, -0.0005788824, -0.000315610116, 0.2022381   , -0.09626534 , 0.347512484 , 0.008320855 , -0.012022458, 0.4617145   , 3.54        , 3           , 11          , 0.0104473475, 0.0104473317
-0.09971844 , -0.08509976 , -9.7650795  , 0.000796322769, -0.000555105158, 0.000239583984, 0.202103272 , -0.09599569 , 0.3476473   , 0.008328788 , -0.0120280283, 0.4617169   , 3.55        , 3           , 12          , 0.0577053763, 0
-0.09322434 , -0.0701731443, -9.774334   , 0.00107553578, -0.0008471335, 0.0005232878, 0.202103272 , -0.09613051 , 0.347512484 , 0.008339481 , -0.0120365415, 0.461722136 , 3.56        , 3           , 50          , 0           , 0
-0.110062368, -0.07875982 , -9.75923    , -0.000629730755, -0.0005457761, 0.000803345058, 0.202035859 , -0.0960631  , 0.3476473   , 0.008333088 , -0.0120420652, 0.46173     , 3.57        , 3           , 11          , 0.0104473475, 0.0104473317
-0.112523153, -0.089496024, -9.807255   , -0.00486826943, 0.00094582123, -0.00091847236, 0.202305511 , -0.09626534 , 0.347512484 , 0.008284514 , -0.0120325312, 0.461720943 , 3.58        , 3           , 12          , 0.0577053763, 0
-0.108953804, -0.09491889 , -9.809092   , 0.0031312427, 0.004580203 , 0.000328414753, 0.202305511 , -0.09626534 , 0.347512484 , 0.008315782 , -0.0119867567, 0.46172452  , 3.59        , 3           , 50          , 0           , 0
-0.103060074, -0.07220593 , -9.787094   , -0.00369705935, 0.00067670556, -0.002060965, 0.202035859 , -0.09613051 , 0.347512484 , 0.008350065 , -0.0119338743, 0.461703062 , 3.6         , 3           , 11          , 0.0106819905, 0.0106819682
-0.09749327 , -0.09495218 , -9.773303   , 0.000831145735, -0.000528642558, -0.0006194248, 0.201968446 , -0.0960631  , 0.3476473   , 0.008358449 , -0.0119391084, 0.461696863 , 3.61        , 3           , 12          , 0.0587492064, 0
-0.104985863, -0.0781681538, -9.77634048 , 0.00168583891, -0.0002532918, -0.000323947024, 0.202170685 , -0.0961979255, 0.347714722 , 0.008375348 , -0.0119416136, 0.461693525 , 3.62        , 3           , 50          , 0           , 0
-0.104146793, -0.0885081142, -9.780065   , -0.000873566954, -0.0005087453, -0.0009158691, 0.2022381   , -0.0960631  , 0.347714722 , 0.008366721 , -0.0119466232, 0.461684465 , 3.63        , 3           , 11          , 0.0106819905, 0.0106819682
-0.08649855 , -0.08140297 , -9.783886   , -0.003237102, -0.006810846, 0.00126791815, 0.2022381   , -0.0960631  , 0.347714722 , 0.008334205 , -0.0120148351, 0.4616964   , 3.64        , 3           , 12          , 0.0587492064, 0
-0.101097278, -0.09180802 , -9.769235   , -0.000890066847, -0.00194164121, -0.0009367368, 0.2022381   , -0.09613051 , 0.347512484 , 0.008325418 , -0.0120341731, 0.46168685  , 3.65        , 3           , 50          , 0           , 0
-0.108212389, -0.0982863  , -9.790153   , 0.00253694318, 0.000863879744, 0.0019871993, 0.202103272 , -0.09613051 , 0.3476473   , 0.008350549 , -0.0120257018, 0.461706877 , 3.66        , 3           , 11          , 0.0106819905, 0.0106819682
-0.115337573, -0.07985259 , -9.779166   , 0.000250439276, -0.00138516026, -0.000349208131, 0.202035859 , -0.0959282741, 0.3475799   , 0.0083530955, -0.0120395236, 0.4617033   , 3.67        , 3           , 12          , 0.0587492064, 0
-0.09672847 , -0.06776627 , -9.78563    , 0.00026612  , -0.0005177443, -0.00119517965, 0.201968446 , -0.09599569 , 0.347714722 , 0.008355902 , -0.0120446021, 0.46169138  , 3.68        , 3           , 50          , 0           , 0
-0.108469829, -0.07484013 , -9.789432   , 0.003700838 , 0.0022980147, 0.000584100548, 0.202103272 , -0.09626534 , 0.3476473   , 0.008392837 , -0.012021671, 0.46169734  , 3.69        , 3           , 11          , 0.0106819905, 0.0106819682
-0.09500252 , -0.08347656 , -9.793925   , -0.0009118015, -0.0019192379, -0.0006504972, 0.202103272 , -0.09626534 , 0.3476473   , 0.008334122 , -0.011978237, 0.461691618 , 3.7         , 3           , 12          , 0.05980036  , 0
-0.09245202 , -0.0536589622, -9.800785   , -0.00061112683, -0.00133617164, -0.00207125652, 0.201833621 , -0.09613051 , 0.347445071 , 0.008328259 , -0.0119914226, 0.461670637 , 3.71        , 3           , 50          , 0           , 0
-0.110692605, -0.07477698 , -9.793518   , 0.00107597816, -0.00222604442, -0.000642676954, 0.201901034 , -0.09599569 , 0.3475799   , 0.008339098 , -0.01201363 , 0.4616642   , 3.72        , 3           , 11          , 0.0108406087, 0.0108405882
-0.122179039, -0.09328224 , -9.782996   , 0.0013334644, -0.00424010772, -9.785027E-05, 0.2022381   , -0.0959282741, 0.3476473   , 0.008352447 , -0.0120560229, 0.461662769 , 3.73        , 3           , 12          , 0.05980036  , 0
-0.106673   , -0.08020379 , -9.79535    , -0.002931473, -0.005041143, -0.00185305579, 0.202170685 , -0.0960631  , 0.3475799   , 0.008323363 , -0.012106277, 0.461643934 , 3.74        , 3           , 50          , 0           , 0
-0.108581886, -0.08302417 , -9.783204   , -0.00346104172, -0.000468014157, 0.000213441992, 0.202170685 , -0.0960631  , 0.3475799   , 0.008288727 , -0.0121109728, 0.461645842 , 3.75        , 3           , 11          , 0.0108406087, 0.0108405882
-0.102803476, -0.09164718 , -9.782799   , 0.002247557 , 0.00119366834, 0.0002727511, 0.201901034 , -0.0961979255, 0.347512484 , 0.008311169 , -0.0120990584, 0.4616487   , 3.76        , 3           , 12          , 0.05980036  , 0
-0.103588581, -0.07410242 , -9.778088   , -7.553524E-05, -0.00307934242, -8.972311E-05, 0.201833621 , -0.09613051 , 0.347714722 , 0.008310427 , -0.0121298442, 0.4616475   , 3.77        , 3           , 50          , 0           , 0
-0.106400058, -0.08537572 , -9.775985   , -4.61007E-05, -0.00134707009, -0.00149550184, 0.202170685 , -0.0960631  , 0.347782135 , 0.008310149 , -0.01214319 , 0.4616325   , 3.78        , 3           , 11          , 0.0108406087, 0.0108405882
-0.128789157, -0.0827655047, -9.791067   , -0.00175440311, -0.0004853519, 0.000223722338, 0.202103272 , -0.09613051 , 0.3475799   , 0.008292577 , -0.0121480627, 0.461634636 , 3.79        , 3           , 12          , 0.05980036  , 0
-0.125518456, -0.07415315 , -9.797712   , -2.40694517E-05, 0.000899735547, -3.11014956E-05, 0.202035859 , -0.09626534 , 0.347512484 , 0.008305901 , -0.0122239944, 0.461634159 , 3.8         , 3           , 50          , 0           , 0
-0.1017831  , -0.0638730749, -9.766209   , 0.000232043734, -0.00139834685, 0.000223387658, 0.202035859 , -0.09626534 , 0.347512484 , 0.008308194 , -0.0122379959, 0.4616363   , 3.81        , 3           , 11          , 0.0109069794, 0.0109069543
-0.08013533 , -0.076914914, -9.786938   , -0.002897615, -0.00193204067, -0.0006622988, 0.201968446 , -0.09613051 , 0.3475799   , 0.008279301 , -0.0122572612, 0.461629629 , 3.82        , 3           , 12          , 0.0608582571, 0
-0.11404606 , -0.0839611962, -9.775587   , 0.00221652351, -0.00199173251, 0.000227034354, 0.201833621 , -0.0959282741, 0.347782135 , 0.008301441 , -0.0122771962, 0.461631536 , 3.83        , 3           , 50          , 0           , 0
-0.10194163 , -0.08993365 , -9.775093   , -0.000380001147, -0.005965036, -0.00127763581, 0.201833621 , -0.09613051 , 0.347782135 , 0.008297805 , -0.0123367384, 0.461618423 , 3.84        , 3           , 11          , 0.0109069794, 0.0109069543
-0.105898507, -0.07550812 , -9.771349   , -0.000626503141, -0.00167881651, 0.0005002379, 0.202170685 , -0.09613051 , 0.3475799   , 0.00829148  , -0.0123535693, 0.4616232   , 3.85        , 3           , 12          , 0.0608582571, 0
-0.09638256 , -0.09107697 , -9.798994   , 0.0039842003, 0.004280315 , 0.00204611663, 0.202170685 , -0.09613051 , 0.3475799   , 0.008331066 , -0.012310937, 0.461643934 , 3.86        , 3           , 50          , 0           , 0
-0.105506487, -0.08583931 , -9.77553    , 0.00310915452, 0.00256694853, 0.002302099 , 0.201968446 , -0.0960631  , 0.347512484 , 0.00836187  , -0.0122854607, 0.4616673   , 3.87        , 3           , 11          , 0.0109069794, 0.0109069543
-0.12151131 , -0.07025124 , -9.786339   , 0.00309212413, -0.0005598271, -0.0006054499, 0.201968446 , -0.09599569 , 0.3476473   , 0.008392867 , -0.0122910067, 0.4616611   , 3.88        , 3           , 12          , 0.0608582571, 0
-0.09932007 , -0.06579396 , -9.799182   , 0.00273038843, -0.00545693748, 0.002469691 , 0.201901034 , -0.09613051 , 0.347714722 , 0.00841987  , -0.0123457806, 0.461685419 , 3.89        , 3           , 50          , 0           , 0
-0.09459874 , -0.06441089 , -9.763889   , 0.00171686651, 0.00495469943, 0.00175316189, 0.202103272 , -0.0959282741, 0.347714722 , 0.00769433  , -0.011334029, 0.4617157   , 3.9         , 3           , 11          , 0.01085568  , 0.01085565
-0.0949790552, -0.08477604 , -9.798908   , 0.0057072877, 0.00464302255, 5.599187E-05, 0.202103272 , -0.0959282741, 0.347714722 , 0.007751392 , -0.0112876035, 0.461716652 , 3.91        , 3           , 12          , 0.06192235  , 0
-0.0887095258, -0.0773155242, -9.784763   , -4.695711E-05, -0.00131222873, -0.0006382482, 0.201901034 , -0.0961979255, 0.3475799   , 0.007750997 , -0.0113006756, 0.4617102   , 3.92        , 3           , 50          , 0           , 0
-0.115461417, -0.0804873556, -9.762009   , 0.00391566847, -0.00222521834, 0.000804038835, 0.201968446 , -0.09613051 , 0.3476473   , 0.007790064 , -0.0113229891, 0.461717844 , 3.93        , 3           , 11          , 0.01085568  , 0.01085565
-0.117830724, -0.06348516 , -9.789388   , 0.003911549 , -0.00307727768, -6.697391E-05, 0.201901034 , -0.09613051 , 0.347714722 , 0.00782919  , -0.0113537582, 0.461717129 , 3.94        , 3           , 12          , 0.06192235  , 0
-0.08467408 , -0.0711445957, -9.774717   , -0.00115007907, 0.002696081 , 0.00113031152, 0.201901034 , -0.09613051 , 0.3476473   , 0.00781756  , -0.0113268867, 0.461728573 , 3.95        , 3           , 50          , 0           , 0
-0.126255885, -0.0928396  , -9.778964   , 0.0008324971, 0.000124795784, -0.00204306049, 0.202035859 , -0.09626534 , 0.3475799   , 0.007826114 , -0.0113254786, 0.461708069 , 3.96        , 3           , 11          , 0.01085568  , 0.01085565
-0.114839971, -0.07978391 , -9.785935   , -0.0005919181, 0.00126508437, 0.0002543788, 0.202035859 , -0.09626534 , 0.3475799   , 0.007820165 , -0.011312847, 0.4617107   , 3.97        , 3           , 12          , 0.06192235  , 0
-0.09502771 , -0.060368184, -9.76204    , -0.000320678053, 0.000115878094, 0.000239398069, 0.201833621 , -0.0960631  , 0.347445071 , 0.00781693  , -0.0113117089, 0.4617133   , 3.98        , 3           , 50          , 0           , 0
-0.133753389, -0.0911976546, -9.799791   , 0.000807470351, -0.00188381784, -0.00178611116, 0.201901034 , -0.09599569 , 0.347782135 , 0.00782521  , -0.0113304043, 0.4616952   , 3.99        , 3           , 11          , 0.01085568  , 0.01085565
-0.115605973, -0.08980818 , -9.817677   , -0.00168975932, -0.00230910513, 0.00134193792, 0.201968446 , -0.09613051 , 0.347782135 , 0.008041901 , -0.0117193572, 0.4617045   , 4           , 3           , 12          , 0.06299212  , 0
-0.11702387 , -0.0858931243, -9.803189   , -0.00394299859, -0.00084541383, 0.000490606355, 0.202035859 , -0.0960631  , 0.3476473   , 0.008002414 , -0.01172785 , 0.461709261 , 4.01        , 3           , 50          , 0           , 0
-0.114847772, -0.08780828 , -9.79461    , -0.0008028857, 0.000266557356, 0.000812311831, 0.202035859 , -0.0960631  , 0.3476473   , 0.007994289 , -0.0117252488, 0.461717367 , 4.02        , 3           , 11          , 0.008479654 , 0.00847961847
-0.0986974239, -0.08225215 , -9.779039   , -0.00277635828, 0.00115676026, -0.00033181734, 0.202103272 , -0.09613051 , 0.347445071 , 0.007966564 , -0.0117136585, 0.461714029 , 4.03        , 3           , 12          , 0.06299212  , 0
-0.09250146 , -0.0940451  , -9.777764   , 0.00207068329, 0.00112299388, -0.00201967359, 0.201968446 , -0.0961979255, 0.347512484 , 0.007987506 , -0.0117022675, 0.461694    , 4.04        , 3           , 50          , 0           , 0
-0.106279738, -0.0780693  , -9.784482   , 0.00122010917, 0.00169970188, -0.00144413859, 0.202103272 , -0.09613051 , 0.347782135 , 0.007999874 , -0.0116851553, 0.4616797   , 4.05        , 3           , 11          , 0.008479654 , 0.00847961847
-0.08533065 , -0.0587445647, -9.794906   , -0.00192963879, 0.000574933132, -0.000335024233, 0.201901034 , -0.0960631  , 0.3475799   , 0.007980617 , -0.0116793783, 0.461676359 , 4.06        , 3           , 12          , 0.06299212  , 0
-0.0839343145, -0.09187473 , -9.776756   , 0.00374485319, -6.625572E-05, 0.0008355527, 0.201968446 , -0.0961979255, 0.3475799   , 0.008017967 , -0.0116801085, 0.461684942 , 4.07        , 3           , 50          , 0           , 0
-0.122561216, -0.089613   , -9.788378   , 0.00178072776, 0.00196514465, 0.0002804456, 0.201968446 , -0.0961979255, 0.3475799   , 0.00803574  , -0.0116604809, 0.4616878   , 4.08        , 3           , 11          , 0.008479654 , 0.00847961847
-0.139610082, -0.08447504 , -9.791185   , 0.0017870625, 0.00169136317, -0.001154548, 0.202170685 , -0.0961979255, 0.3476473   , 0.008053744 , -0.0116434731, 0.461676359 , 4.09        , 3           , 12          , 0.06299212  , 0
-0.115931049, -0.09698307 , -9.779368   , 0.0008956111, -0.00208128081, -0.0003552406, 0.201901034 , -0.0960631  , 0.347782135 , 0.008091433 , -0.0117949769, 0.461672068 , 4.1         , 3           , 50          , 0           , 0
-0.105836689, -0.08565152 , -9.792695   , -0.0011084032, -0.00236043 , 0.00105941214, 0.201901034 , -0.0959282741, 0.347849548 , 0.008080226 , -0.0118186651, 0.46168232  , 4.11        , 3           , 11          , 0.008081253 , 0.008081215
-0.1095245  , -0.074623324, -9.766855   , 0.00210597063, 0.00421190262, -0.00025656927, 0.202170685 , -0.0961979255, 0.347714722 , 0.008101313 , -0.0117765255, 0.461680174 , 4.12        , 3           , 12          , 0.06406711  , 0
-0.114564858, -0.09029415 , -9.773407   , 0.00322118448, 0.00191282923, -0.000855432, 0.202170685 , -0.0961979255, 0.347714722 , 0.008133622 , -0.0117573282, 0.4616716   , 4.13        , 3           , 50          , 0           , 0
-0.10548716 , -0.08091322 , -9.772311   , 0.0029381176, 0.00219973852, -0.0005668078, 0.201766208 , -0.09613051 , 0.347512484 , 0.00816306751, -0.0117352856, 0.461666346 , 4.14        , 3           , 11          , 0.008081253 , 0.008081215
-0.08845593 , -0.08741356 , -9.768617   , -0.00163768348, 0.00108429883, 0.00110606768, 0.201968446 , -0.0961979255, 0.347782135 , 0.00814656  , -0.0117245317, 0.4616773   , 4.15        , 3           , 12          , 0.06406711  , 0
-0.103780665, -0.0993240848, -9.781091   , -0.000259756169, -0.002939698, 0.00077004137, 0.201833621 , -0.09613051 , 0.347782135 , 0.008143875 , -0.0117539912, 0.461684942 , 4.16        , 3           , 50          , 0           , 0
-0.112066336, -0.08236772 , -9.79949    , 0.00233209552, 0.000463007251, 0.00198020018, 0.201901034 , -0.0961979255, 0.347782135 , 0.008166962 , -0.0117495209, 0.461704731 , 4.17        , 3           , 11          , 0.008081253 , 0.008081215
-0.110294506, -0.0806475058, -9.793131   , -0.000214110434, 0.00135387038, 0.0014049724, 0.201901034 , -0.0961979255, 0.347782135 , 0.008164655 , -0.0117360977, 0.4617188   , 4.18        , 3           , 12          , 0.06406711  , 0
-0.115541324, -0.0997505039, -9.773976   , -0.00224698242, -0.00291435164, 0.000185719487, 0.202170685 , -0.0961979255, 0.3476473   , 0.008142166 , -0.0117652547, 0.461720467 , 4.19        , 3           , 50          , 0           , 0
-0.117117219, -0.08959714 , -9.7942     , 0.000668463937, 0.0008050271, -0.00231850822, 0.202035859 , -0.0960631  , 0.3476473   , 0.008178958 , -0.0117578087, 0.461696863 , 4.2         , 3           , 11          , 0.008174787 , 0.008174754
-0.1184062  , -0.0859297439, -9.798687   , -0.001075318, -0.000920145831, 0.000221646449, 0.202103272 , -0.0959282741, 0.347849548 , 0.008168181 , -0.0117670288, 0.461699    , 4.21        , 3           , 12          , 0.06514687  , 0
-0.122266486, -0.0880746  , -9.763966   , -0.000768597238, 0.0005175389, -0.0006142645, 0.202035859 , -0.09599569 , 0.347849548 , 0.008160566 , -0.0117618022, 0.461693048 , 4.22        , 3           , 50          , 0           , 0
-0.09319104 , -0.06656104 , -9.774743   , 0.00150306872, 0.0004893029, -2.82293458E-05, 0.201901034 , -0.0960631  , 0.3476473   , 0.008175599 , -0.0117569072, 0.461692572 , 4.23        , 3           , 11          , 0.008174787 , 0.008174754
-0.110740393, -0.07974663 , -9.792672   , 0.000650302449, 0.00021651166, -0.000609871058, 0.201901034 , -0.0960631  , 0.3476473   , 0.008182174 , -0.0117546925, 0.4616866   , 4.24        , 3           , 12          , 0.06514687  , 0
-0.126798183, -0.0660202652, -9.798082   , -0.00479724538, -0.00232571457, 0.00132316072, 0.202170685 , -0.09599569 , 0.3475799   , 0.008134047 , -0.0117780548, 0.461699724 , 4.25        , 3           , 50          , 0           , 0
-0.09430686 , -0.0630735755, -9.804524   , -0.00076777814, 0.00108301884, 0.000252574566, 0.201901034 , -0.0960631  , 0.347714722 , 0.00812634  , -0.0117672458, 0.461702347 , 4.26        , 3           , 11          , 0.008174787 , 0.008174754
-0.10717275 , -0.0633606  , -9.767607   , -0.000472884334, 0.00165840646, -0.000309693, 0.202440336 , -0.0960631  , 0.347714722 , 0.008121645 , -0.0117506366, 0.461699247 , 4.27        , 3           , 12          , 0.06514687  , 0
-0.12874487 , -0.07112421 , -9.783254   , -0.006785844, -0.00258438778, 0.000448501349, 0.202035859 , -0.09613051 , 0.3475799   , 0.008053737 , -0.0117765162, 0.461703539 , 4.28        , 3           , 50          , 0           , 0
-0.131169543, -0.0896207839, -9.780778   , -0.00225323159, -0.004066077, 0.000741212047, 0.202035859 , -0.09613051 , 0.3475799   , 0.008031121 , -0.0118172346, 0.4617107   , 4.29        , 3           , 11          , 0.008174787 , 0.008174754
-0.124285609, -0.0796870738, -9.787375   , 9.085616E-05, 0.0007756429, 0.0002535123, 0.202170685 , -0.0961979255, 0.347512484 , 0.008056219 , -0.0118435808, 0.461712837 , 4.3         , 3           , 12          , 0.0662309751, 0
-0.117411353, -0.0653169  , -9.78714752 , 0.000355495955, -0.0009467215, 0.0002301845, 0.202103272 , -0.0960631  , 0.347782135 , 0.00805974752, -0.0118530672, 0.461714983 , 4.31        , 3           , 50          , 0           , 0
-0.1139893  , -0.0816486  , -9.78098    , 0.000116990763, 0.00222133612, -0.00115644012, 0.202170685 , -0.09613051 , 0.347714722 , 0.008061051 , -0.01183076 , 0.461703539 , 4.32        , 3           , 11          , 0.008417917 , 0.00841787551
-0.12009038 , -0.08998976 , -9.755386   , 0.00157055189, 0.00394172035, -0.002839816, 0.2022381   , -0.0960631  , 0.347782135 , 0.008077087 , -0.0117911147, 0.4616754   , 4.33        , 3           , 12          , 0.0662309751, 0
-0.103222243, -0.08936938 , -9.784584   , 0.0003890495, 0.00163760979, -0.000304581743, 0.202440336 , -0.09626534 , 0.3476473   , 0.00808101147, -0.0117747132, 0.461672544 , 4.34        , 3           , 50          , 0           , 0
-0.0998192057, -0.07387731 , -9.80199    , 0.00519564934, -0.00042524634, 0.0005538233, 0.202440336 , -0.09626534 , 0.3476473   , 0.008132903 , -0.01177901 , 0.461678028 , 4.35        , 3           , 11          , 0.008417917 , 0.00841787551
-0.111585461, -0.0760928243, -9.796251   , 0.00118708913, -0.00267742481, 0.0004964475, 0.202035859 , -0.09613051 , 0.3476473   , 0.008144718 , -0.0118058259, 0.4616828   , 4.36        , 3           , 12          , 0.0662309751, 0
-0.112935461, -0.0778605  , -9.798542   , 0.00408951566, 0.002168084 , 0.0002983675, 0.202372923 , -0.09599569 , 0.3476473   , 0.008185576 , -0.01178417 , 0.4616859   , 4.37        , 3           , 50          , 0           , 0
-0.125807032, -0.0596573539, -9.80342    , 0.00150508294, -9.598306E-05, -3.66053428E-05, 0.202372923 , -0.0960631  , 0.3476473   , 0.008200632 , -0.0117851263, 0.461685658 , 4.38        , 3           , 11          , 0.008417917 , 0.00841787551
-0.1287432  , -0.07913406 , -9.793283   , -0.000179829949, 0.00164338888, -0.000308008515, 0.202305511 , -0.09613051 , 0.3475799   , 0.008198868 , -0.011768668, 0.461682558 , 4.39        , 3           , 12          , 0.0662309751, 0
-0.114760146, -0.0836678743, -9.80224    , 0.000620211242, -0.00241987733, 0.000211340172, 0.202305511 , -0.09613051 , 0.3475799   , 0.008195818 , -0.0118999612, 0.461684465 , 4.4         , 3           , 50          , 0           , 0
-0.104849122, -0.0703914762, -9.786638   , 0.00289599644, -0.00159605488, 0.00166838791, 0.202103272 , -0.0961979255, 0.3476473   , 0.00822458  , -0.0119160572, 0.461701155 , 4.41        , 3           , 11          , 0.008632358 , 0.008632322
-0.108642526, -0.08356217 , -9.775081   , -0.00134034944, 0.0007450419, 0.00110374717, 0.201968446 , -0.0960631  , 0.347714722 , 0.008211045 , -0.011908696, 0.461712122 , 4.42        , 3           , 12          , 0.06731907  , 0
-0.08476612 , -0.08775551 , -9.781685   , -0.001041867, 0.000478608767, -0.00147418876, 0.201901034 , -0.0960631  , 0.3476473   , 0.008200801 , -0.01190379 , 0.461697578 , 4.43        , 3           , 50          , 0           , 0
-0.1051208  , -0.09618018 , -9.778809   , -0.000456221867, 0.00275266543, -6.553826E-06, 0.202103272 , -0.09626534 , 0.347782135 , 0.008196235 , -0.0118762655, 0.461697578 , 4.44        , 3           , 11          , 0.008632358 , 0.008632322
-0.117630035, -0.08924393 , -9.784715   , 0.00176869018, -0.00100621884, 0.00109755329, 0.202103272 , -0.09626534 , 0.347782135 , 0.008213793 , -0.0118864151, 0.461708546 , 4.45        , 3           , 12          , 0.06731907  , 0
-0.109364942, -0.0685922  , -9.782594   , 0.00237938575, 0.00130111119, -0.00115494372, 0.201968446 , -0.09626534 , 0.3476473   , 0.008237722 , -0.01187331 , 0.4616971   , 4.46        , 3           , 50          , 0           , 0
-0.11478693 , -0.06634869 , -9.777198   , -0.0018830956, 0.00219651451, -0.0003096319, 0.2022381   , -0.0961979255, 0.3476473   , 0.00821892451, -0.01185132 , 0.461694241 , 4.47        , 3           , 11          , 0.008632358 , 0.008632322
-0.107582651, -0.0615143627, -9.771203   , 0.003164491 , -0.0033133002, 0.001072732 , 0.201968446 , -0.09599569 , 0.347714722 , 0.008250445 , -0.0118845394, 0.4617045   , 4.48        , 3           , 12          , 0.06731907  , 0
-0.100119367, -0.0859105438, -9.773224   , 0.001452889 , -0.00273816125, 0.002787783 , 0.202170685 , -0.0961979255, 0.347782135 , 0.008264647 , -0.0119121484, 0.4617324   , 4.49        , 3           , 50          , 0           , 0
-0.103580445, -0.07275454 , -9.777619   , 0.005808313 , 0.00354984053, 0.0009020598, 0.2022381   , -0.09613051 , 0.347512484 , 0.008330612 , -0.011851348, 0.4617417   , 4.5         , 3           , 11          , 0.008587822 , 0.00858778
-0.10203623 , -0.06267701 , -9.793299   , 0.007815075 , 0.00439702952, 6.808202E-05, 0.2022381   , -0.09613051 , 0.347512484 , 0.00840875  , -0.011807383, 0.46174264  , 4.51        , 3           , 12          , 0.06841075  , 0
-0.105928704, -0.09068889 , -9.785527   , 0.0009519493, 0.000467069476, -0.0014622889, 0.202170685 , -0.0960631  , 0.3476473   , 0.008418441 , -0.0118025895, 0.4617281   , 4.52        , 3           , 50          , 0           , 0
-0.08881634 , -0.07703399 , -9.768951   , -0.0008234358, -0.005815215, -0.002136715, 0.201833621 , -0.09586086 , 0.347714722 , 0.008410465 , -0.01186056 , 0.461706161 , 4.53        , 3           , 11          , 0.008587822 , 0.00858778
-0.108159885, -0.0621500537, -9.753599   , -0.00301893661, 0.00165128137, -0.00118341844, 0.201901034 , -0.0960631  , 0.347714722 , 0.008380415 , -0.0118439486, 0.461694479 , 4.54        , 3           , 12          , 0.06841075  , 0
-0.116140209, -0.0658957  , -9.7763     , 0.0006961013, 0.00361209176, -0.000273437472, 0.2022381   , -0.0960631  , 0.347782135 , 0.00838740449, -0.0118078068, 0.4616921   , 4.55        , 3           , 50          , 0           , 0
-0.112786248, -0.0974662453, -9.778893   , -0.00216287118, 0.00221065152, -0.0005976031, 0.2022381   , -0.0960631  , 0.347782135 , 0.008365844 , -0.0117856516, 0.461686373 , 4.56        , 3           , 11          , 0.008587822 , 0.00858778
-0.102521934, -0.104373217, -9.77391    , -0.00137473154, -0.00296412082, 0.000190905514, 0.202305511 , -0.0960631  , 0.3476473   , 0.008352078 , -0.0118153067, 0.461688042 , 4.57        , 3           , 12          , 0.06841075  , 0
-0.08810806 , -0.0566116646, -9.781357   , -0.00191335846, -0.000660588965, -0.000351461029, 0.201968446 , -0.09626534 , 0.347782135 , 0.008332986 , -0.0118218847, 0.461684465 , 4.58        , 3           , 50          , 0           , 0
-0.102703668, -0.07858544 , -9.781293   , -0.00137940468, -0.003534719, -0.000103605555, 0.202103272 , -0.09599569 , 0.347782135 , 0.008319206 , -0.01185722 , 0.461683035 , 4.59        , 3           , 11          , 0.008587822 , 0.00858778
-0.10498222 , -0.0754917562, -9.7736     , -0.0005277738, -0.0038141564, -0.000675001356, 0.201968446 , -0.0961979255, 0.347782135 , 0.008307318 , -0.0118634263, 0.461676359 , 4.6         , 3           , 12          , 0.06950569  , 0
-0.110558957, -0.08728439 , -9.762945   , -0.000762449, 0.00133436045, 0.0008292289, 0.201968446 , -0.0961979255, 0.3475799   , 0.008299594 , -0.0118501522, 0.4616847   , 4.61        , 3           , 50          , 0           , 0
-0.0983547941, -0.103342175, -9.789217   , 0.003253818 , 0.00359677686, -0.000258051383, 0.201968446 , -0.0961979255, 0.3475799   , 0.00833216  , -0.0118141649, 0.46168232  , 4.62        , 3           , 11          , 0.008822584 , 0.00882253
-0.107389972, -0.07279273 , -9.812888   , 0.000161832257, 0.00649947347, -0.000807491364, 0.201968446 , -0.09613051 , 0.3475799   , 0.008333868 , -0.0117491037, 0.461674929 , 4.63        , 3           , 12          , 0.06950569  , 0
-0.127966419, -0.0820021853, -9.778854   , 0.00122836547, 0.000467193167, -0.000602118031, 0.202103272 , -0.09599569 , 0.347782135 , 0.008346223 , -0.0117443828, 0.46166873  , 4.64        , 3           , 50          , 0           , 0
-0.112705305, -0.086659044, -9.777412   , 0.00119261956, -0.002966638, -0.00122452853, 0.202170685 , -0.09626534 , 0.347782135 , 0.008358296 , -0.0117739458, 0.461656332 , 4.65        , 3           , 11          , 0.008822584 , 0.00882253
-0.104045384, -0.06965718 , -9.771716   , 0.00265027676, 0.001581145 , 0.00142629107, 0.202103272 , -0.0961979255, 0.3476473   , 0.008384628 , -0.011758253, 0.461670637 , 4.66        , 3           , 12          , 0.06950569  , 0
-0.107268348, -0.08487342 , -9.780052   , 0.00291135162, -0.00127473858, -4.45508267E-05, 0.202103272 , -0.0961979255, 0.3476473   , 0.008413749 , -0.0117709953, 0.46167016  , 4.67        , 3           , 50          , 0           , 0
-0.117916293, -0.07073837 , -9.785859   , -0.00700938655, 0.0008478094, -0.00179228908, 0.2022381   , -0.09626534 , 0.3476473   , 0.008343864 , -0.0117623694, 0.461652279 , 4.68        , 3           , 11          , 0.008822584 , 0.00882253
-0.117507629, -0.07347675 , -9.783176   , 0.000396483578, 0.003326296 , 0.001151461 , 0.202035859 , -0.0960631  , 0.347782135 , 0.008347691 , -0.0117292022, 0.4616642   , 4.69        , 3           , 12          , 0.06950569  , 0
-0.09259929 , -0.0964206  , -9.7665     , -0.000123066071, 0.006791508 , -0.00137722411, 0.202035859 , -0.0961979255, 0.347782135 , 0.008323428 , -0.0116689578, 0.461651325 , 4.7         , 3           , 50          , 0           , 0
-0.09076973 , -0.08704468 , -9.759147   , 0.00236785924, 0.00159427838, -6.1073074E-06, 0.202103272 , -0.09599569 , 0.347714722 , 0.008347103 , -0.0116530163, 0.461651564 , 4.71        , 3           , 11          , 0.009019465 , 0.009019408
-0.113994576, -0.0901142061, -9.790564   , -0.00223901472, -0.00238439324, 0.001338869 , 0.202103272 , -0.09599569 , 0.347714722 , 0.008324562 , -0.01167697 , 0.461664677 , 4.72        , 3           , 12          , 0.07060357  , 0
-0.112068273, -0.08148042 , -9.798124   , 0.00150105089, 0.0015850307, 0.00199190062, 0.202035859 , -0.0961979255, 0.347445071 , 0.008339336 , -0.0116612874, 0.4616847   , 4.73        , 3           , 50          , 0           , 0
-0.124043308, -0.0911378339, -9.771245   , 0.00118389959, -0.00240627117, -7.139036E-05, 0.201968446 , -0.09613051 , 0.3476473   , 0.008351188 , -0.0116853425, 0.46168375  , 4.74        , 3           , 11          , 0.009019465 , 0.009019408
-0.08657498 , -0.08196516 , -9.773504   , -0.00196088664, -0.004088841, -0.0006876069, 0.2022381   , -0.09586086 , 0.347714722 , 0.008331663 , -0.0117261717, 0.4616766   , 4.75        , 3           , 12          , 0.07060357  , 0
-0.10706716 , -0.06453429 , -9.784332   , -0.004508754, -0.00235359767, 0.000466669735, 0.2022381   , -0.09613051 , 0.3476473   , 0.008286522 , -0.0117497463, 0.461681128 , 4.76        , 3           , 50          , 0           , 0
-0.1170474  , -0.07079458 , -9.781335   , -0.0002333617, -0.0009742845, 0.00165789446, 0.202170685 , -0.09613051 , 0.347445071 , 0.008283994 , -0.0117596248, 0.461697578 , 4.77        , 3           , 11          , 0.009019465 , 0.009019408
-0.0931116045, -0.07534206 , -9.796976   , 0.0009079865, -0.00182766363, -0.000350920716, 0.202170685 , -0.09613051 , 0.347445071 , 0.008293117 , -0.0117778713, 0.461694    , 4.78        , 3           , 12          , 0.07060357  , 0
-0.09515819 , -0.09128228 , -9.780917   , -0.0052911127, 0.002828853 , -0.001180331, 0.202035859 , -0.0961979255, 0.347714722 , 0.008240343 , -0.0117494874, 0.46168232  , 4.79        , 3           , 50          , 0           , 0
-0.120382711, -0.101317436, -9.792107   , -0.005633374, -0.00260222168, -0.0006892475, 0.202170685 , -0.0960631  , 0.347782135 , 0.008211267 , -0.0117251519, 0.461674929 , 4.8         , 3           , 11          , 0.009194355 , 0.009194302
-0.109370932, -0.07527836 , -9.789898   , -0.00249629514, -0.0009298898, 0.001071625 , 0.202035859 , -0.0961979255, 0.3476473   , 0.00818618  , -0.0117345387, 0.461685419 , 4.81        , 3           , 12          , 0.0717041045, 0
-0.0882041  , -0.06922251 , -9.782858   , 0.00235568383, 0.000453882327, 0.00112162041, 0.202305511 , -0.09599569 , 0.347512484 , 0.008209605 , -0.0117300907, 0.461696863 , 4.82        , 3           , 50          , 0           , 0
-0.0969421  , -0.104149319, -9.79915    , -0.000210321741, -0.000374729483, 0.00052135135, 0.202305511 , -0.09599569 , 0.347512484 , 0.00820744  , -0.0117338812, 0.46170187  , 4.83        , 3           , 11          , 0.009194355 , 0.009194302
-0.09866537 , -0.09110575 , -9.794499   , 0.000640251732, -0.0009514375, -5.41835871E-05, 0.2022381   , -0.0960631  , 0.347512484 , 0.008213852 , -0.0117433928, 0.4617014   , 4.84        , 3           , 12          , 0.0717041045, 0
-0.09847629 , -0.05654087 , -9.779644   , 0.000361038663, -0.00065940927, -0.000337887439, 0.2016988   , -0.0960631  , 0.3476473   , 0.00821750052, -0.0117499577, 0.461697817 , 4.85        , 3           , 50          , 0           , 0
-0.0776528344, -0.06456169 , -9.805292   , -0.000218294779, -0.00123190752, 0.000222666727, 0.202103272 , -0.0959282741, 0.3475799   , 0.008215293 , -0.011762294, 0.461699963 , 4.86        , 3           , 11          , 0.009194355 , 0.009194302
-0.101263151, -0.07979507 , -9.795748   , 0.00121628563, -0.00066551863, -0.0006189113, 0.202170685 , -0.0961979255, 0.347714722 , 0.00822753  , -0.011768898, 0.461693764 , 4.87        , 3           , 12          , 0.0717041045, 0
-0.09508754 , -0.07648466 , -9.773068   , -0.00282279286, -0.00606239 , -0.00158068782, 0.202170685 , -0.09613051 , 0.347512484 , 0.008199494 , -0.0118293893, 0.4616773   , 4.88        , 3           , 50          , 0           , 0
-0.100512244, -0.0831479654, -9.778163   , 0.00119152409, -0.00182719249, 0.00108137855, 0.202170685 , -0.09613051 , 0.347512484 , 0.008211282 , -0.0118477521, 0.46168828  , 4.89        , 3           , 11          , 0.009194355 , 0.009194302
-0.1188262  , -0.08454408 , -9.801384   , 0.00231179921, -0.00270027388, 0.002506433 , 0.201901034 , -0.09613051 , 0.3475799   , 0.008240626 , -0.0118399188, 0.461713076 , 4.9         , 3           , 12          , 0.072807    , 0
-0.126703739, -0.0591986254, -9.803422   , 0.00150111364, 0.0001869841, 0.00111220789, 0.201833621 , -0.09599569 , 0.347714722 , 0.008255505 , -0.0118381409, 0.461724043 , 4.91        , 3           , 50          , 0           , 0
-0.09688662 , -0.08892981 , -9.788586   , -0.00306228246, -0.00232295878, -0.00152824412, 0.202103272 , -0.09586086 , 0.347714722 , 0.008225066 , -0.0118612442, 0.461708784 , 4.92        , 3           , 11          , 0.009379492 , 0.009379443
-0.0970684141, -0.0927693  , -9.766951   , 0.00491769332, 0.000438887771, 0.00113694207, 0.202103272 , -0.0961979255, 0.3475799   , 0.008274107 , -0.011856948, 0.461720228 , 4.93        , 3           , 12          , 0.072807    , 0
-0.10362459 , -0.0866213143, -9.788169   , 0.002401476 , 0.00278056343, -0.001420566, 0.202103272 , -0.0961979255, 0.3475799   , 0.008298288 , -0.0118290279, 0.461706161 , 4.94        , 3           , 50          , 0           , 0
-0.08580388 , -0.06634312 , -9.80087    , 0.000923441548, -0.00122989435, -5.674253E-05, 0.201901034 , -0.09599569 , 0.347512484 , 0.00830753148, -0.01184132 , 0.461705446 , 4.95        , 3           , 11          , 0.009379492 , 0.009379443
-0.0888818949, -0.09271407 , -9.778618   , 0.0009333414, -0.0003701569, -4.42219243E-05, 0.202103272 , -0.0960631  , 0.3475799   , 0.00831687  , -0.0118450159, 0.461704969 , 4.96        , 3           , 12          , 0.072807    , 0
-0.110849835, -0.07679835 , -9.773216   , -0.000480066054, 0.00106694887, 0.00111273467, 0.202103272 , -0.0959282741, 0.3476473   , 0.008311935 , -0.01183444 , 0.461716175 , 4.97        , 3           , 50          , 0           , 0
-0.110147543, -0.06306219 , -9.792926   , -0.0008186787, -0.00379944732, 0.00075390737, 0.201901034 , -0.09599569 , 0.3475799   , 0.008303662 , -0.0118724974, 0.461723566 , 4.98        , 3           , 11          , 0.009379492 , 0.009379443
-0.1015623  , -0.0684314147, -9.803749   , 0.00407648925, 0.000181453652, -0.0011616837, 0.201901034 , -0.09599569 , 0.3475799   , 0.008344565 , -0.0118705863, 0.461711884 , 4.99        , 3           , 12          , 0.072807    , 0
-0.113390572, -0.0814251  , -9.802201   , -0.00195505144, -0.00116321538, -7.363668E-05, 0.202035859 , -0.0960631  , 0.3475799   , 0.008214061 , -0.0117592923, 0.4617133   , 5           , 3           , 50          , 0           , 0
-0.131708011, -0.0826298  , -9.759473   , 0.00373071362, -0.000660647056, 0.00139979832, 0.202035859 , -0.09613051 , 0.3475799   , 0.008251203 , -0.0117660137, 0.461727142 , 5.01        , 3           , 11          , 0.00957411  , 0.009574051
-0.128398433, -0.0801897943, -9.779289   , 0.004593115 , -0.000375058269, 0.00055062  , 0.201968446 , -0.0960631  , 0.3475799   , 0.008297072 , -0.0117698107, 0.461732626 , 5.02        , 3           , 12          , 0.073912    , 0
-0.100147434, -0.09263058 , -9.777366   , 0.002682896 , 0.00567868864, -0.00109071366, 0.202103272 , -0.0960631  , 0.347512484 , 0.008324023 , -0.0117129348, 0.461722136 , 5.03        , 3           , 50          , 0           , 0
-0.102186196, -0.07091912 , -9.781651   , 0.00377390138, 0.0019364818, -0.000565787952, 0.202035859 , -0.0959282741, 0.3476473   , 0.008361827 , -0.0116935233, 0.461716652 , 5.04        , 3           , 11          , 0.00957411  , 0.009574051
-0.109548837, -0.080892466, -9.770994   , 0.0006115087, -0.000616063655, -4.986906E-05, 0.202035859 , -0.0959282741, 0.3476473   , 0.008367948 , -0.01169968 , 0.461716175 , 5.05        , 3           , 12          , 0.073912    , 0
-0.119981036, -0.09071254 , -9.772106   , -0.001071212, 0.001972808 , 0.0008359044, 0.201968446 , -0.0959282741, 0.347512484 , 0.00835713651, -0.011680021, 0.461724758 , 5.06        , 3           , 50          , 0           , 0
-0.126729414, -0.08218814 , -9.762584   , -0.0036278714, 0.00228539365, 0.000824657443, 0.202103272 , -0.0960631  , 0.347714722 , 0.00832076  , -0.0116572371, 0.4617331   , 5.07        , 3           , 11          , 0.00957411  , 0.009574051
-0.0972482041, -0.0678688139, -9.775698   , -0.00195642468, -0.001447235, -0.000363974221, 0.2022381   , -0.09613051 , 0.3476473   , 0.00830123853, -0.0116716782, 0.4617293   , 5.08        , 3           , 12          , 0.073912    , 0
