Acc X       , Acc Y       , Acc Z       , Gyro X      , Gyro Y      , Gyro Z      , Magn X      , Magn Y      , Magn Z      , Euler X     , Euler Y     , Euler Z     , Time        , Status      , LowRate X   , LowRate Y   , LowRate Z    
0.14527671  , -0.0441552922, -9.784487   , 0.002073512 , 0.0019222931, 0.0007425911, 0.108534448 , 0.163745448 , 0.7103276   , 0.00272460049, 0.0145860091, -0.9372165  , 0           , 3           , 11          , 0.0346410163, 0.0346410163
0.150127292 , -0.00627003051, -9.788523   , 0.00321773929, 0.002060423 , 3.612147E-05, 0.108467035 , 0.163880274 , 0.709990561 , 0.00275678444, 0.0146066137, -0.937216043, 0.01        , 3           , 12          , 0.0346410163, 0
0.154652953 , -0.003157733, -9.78799248 , 0.00137081777, 0.00109409506, -0.001992771, 0.108467035 , 0.163880274 , 0.709990561 , 0.00277020223, 0.0146176089, -0.9372361  , 0.02        , 3           , 50          , 0           , 0
0.14778176  , -0.0152975749, -9.785937   , -0.00118873257, 0.00140284153, -0.001574772, 0.108534448 , 0.163745448 , 0.7101928   , 0.002758085 , 0.0146316839, -0.9372518  , 0.03        , 3           , 11          , 0.0346410163, 0.0346410163
0.144971848 , -0.03235524 , -9.791129   , 0.000371545 , 0.00251022982, 0.0010268219, 0.1082648   , 0.163610622 , 0.7101928   , 0.00276195072, 0.0146567551, -0.937241554, 0.04        , 3           , 12          , 0.0346410163, 0
0.15169771  , -0.0204379857, -9.772409   , 0.00134013116, 0.000488942838, 0.001575932 , 0.108332209 , 0.163812861 , 0.710058    , 0.00277558342, 0.0146616027, -0.9372256  , 0.05        , 3           , 50          , 0           , 0
0.146387562 , -0.00555944443, -9.767771   , 0.0006377026, 0.0005076845, 0.000283910515, 0.108332209 , 0.163745448 , 0.7101928   , 0.00278200279, 0.0146666719, -0.9372227  , 0.06        , 3           , 11          , 0.0346410163, 0.0346410163
0.149548814 , -0.0193714164, -9.785968   , 0.00152939372, 0.00308974576, -0.000961125654, 0.108467035 , 0.163880274 , 0.709990561 , 0.002797157 , 0.0146975946, -0.937232256, 0.07        , 3           , 12          , 0.0346410163, 0
0.14606376  , -0.0191610157, -9.802711   , 0.00296685286, 0.004647644 , -0.000500358234, 0.108467035 , 0.163880274 , 0.709990561 , 0.00282675447, 0.0147440862, -0.937237263, 0.08        , 3           , 50          , 0           , 0
0.123478286 , -0.019522354, -9.792986   , 0.0006790969, 0.0035257244, -0.0006738414, 0.108601861 , 0.163812861 , 0.710058    , 0.00283344579, 0.014779361 , -0.937243938, 0.09        , 3           , 11          , 0.0346410163, 0.0346410163
0.149866447 , -0.0333776027, -9.783868   , -0.0007764557, 0.00108811643, -0.00100410124, 0.108399622 , 0.163947687 , 0.7101254   , 0.00238371734, 0.0136481831, -0.9372599  , 0.1         , 3           , 12          , 0.0346410163, 0
0.1586718   , -0.0183786452, -9.80168152 , 0.0002133033, 0.001070324 , -0.000139612472, 0.108467035 , 0.163812861 , 0.7102602   , 0.00238583237, 0.01365889  , -0.937261343, 0.11        , 3           , 50          , 0           , 0
0.126390964 , -0.02837346 , -9.769121   , 0.0007528929, -0.00123192754, 0.000259672059, 0.1082648   , 0.163610622 , 0.710058    , 0.00239339564, 0.0136465626, -0.9372587  , 0.12        , 3           , 11          , 0.0346410163, 0.0346410163
0.148985863 , -0.0395711437, -9.794337   , 0.0008828765, -0.002378409, 0.000100752608, 0.1082648   , 0.163610622 , 0.710058    , 0.00240223878, 0.0136227757, -0.937257767, 0.13        , 3           , 12          , 0.0346410163, 0
0.14480558  , -0.04329312 , -9.780416   , 0.00132177293, -0.00123770686, 0.00026309886, 0.108197384 , 0.163947687 , 0.710058    , 0.002415492 , 0.0136103919, -0.937255144, 0.14        , 3           , 50          , 0           , 0
0.13737762  , -0.0299711637, -9.797043   , 0.00191113912, 0.0006179987, 0.000436735631, 0.108467035 , 0.163678035 , 0.7101254   , 0.00243466324, 0.0136165628, -0.937250853, 0.15        , 3           , 11          , 0.0346410163, 0.0346410163
0.163696244 , -0.00050650537, -9.790137   , 0.000240666355, 0.003364237 , -0.0002493062, 0.108332209 , 0.163745448 , 0.7102602   , 0.002437036 , 0.0136502078, -0.937253   , 0.16        , 3           , 12          , 0.0346410163, 0
0.1824519   , -0.005359251, -9.773309   , -0.000346230721, 0.0022173007, 0.000445982965, 0.108399622 , 0.163947687 , 0.710058    , 0.00243363553, 0.0136723733, -0.937248468, 0.17        , 3           , 50          , 0           , 0
0.143639952 , -0.0300889574, -9.791115   , -0.00406773668, 0.000106802167, 0.000249325327, 0.108332209 , 0.163678035 , 0.7102602   , 0.00239299214, 0.0136734331, -0.9372461  , 0.18        , 3           , 11          , 0.0346410163, 0.0346410163
0.127442867 , -0.0236980524, -9.785317   , -0.006196485, -0.0007120667, -0.00192227587, 0.108332209 , 0.163678035 , 0.7102602   , 0.002330764 , 0.0136663606, -0.9372654  , 0.19        , 3           , 12          , 0.0346410163, 0
0.161471412 , 0.00266943127, -9.790121   , -0.00291428948, 0.0003913443, -0.00145660609, 0.108332209 , 0.163678035 , 0.7102602   , 0.00231767958, 0.0135554345, -0.9372797  , 0.2         , 3           , 50          , 0           , 0
0.119299233 , -0.0223521981, -9.778151   , -0.002208151, 0.0009419215, 0.000273008452, 0.108332209 , 0.1640151   , 0.7102602   , 0.00229563517, 0.0135648474, -0.93727684 , 0.21        , 3           , 11          , 0.0238661114, 0.023865981
0.150852948 , -0.0350342244, -9.798332   , 0.000471061241, -0.000668114168, 0.0009817414, 0.108467035 , 0.163745448 , 0.7102602   , 0.00230047945, 0.0135581437, -0.937267065, 0.22        , 3           , 12          , 0.0346698426, 0
0.159702867 , -0.0446977764, -9.787522   , 0.003609391 , -0.000122902449, 0.000579689629, 0.108399622 , 0.163678035 , 0.710058    , 0.00233665132, 0.0135569014, -0.937261343, 0.23        , 3           , 50          , 0           , 0
0.150861815 , -0.0354657844, -9.800144   , 0.00263544568, 0.00118577573, -0.000409100379, 0.108399622 , 0.163678035 , 0.710058    , 0.0023629507, 0.0135687683, -0.9372654  , 0.24        , 3           , 11          , 0.0238661114, 0.023865981
0.1248779   , -0.0114468541, -9.79017    , 0.00107501214, 0.0016302577, -0.000269181735, 0.108467035 , 0.163678035 , 0.709923148 , 0.00237366441, 0.0135850785, -0.937268   , 0.25        , 3           , 12          , 0.0346698426, 0
0.141454011 , -0.0215118229, -9.79013252 , 0.00207398483, 0.00233019283, 0.000462659053, 0.108197384 , 0.163745448 , 0.7102602   , 0.00239446759, 0.013608369 , -0.93726325 , 0.26        , 3           , 50          , 0           , 0
0.16707395  , -0.01468047 , -9.774913   , 0.000791945262, 0.00191716664, 1.94424283E-05, 0.108399622 , 0.163880274 , 0.7101928   , 0.00240239082, 0.0136275413, -0.937263   , 0.27        , 3           , 11          , 0.0238661114, 0.023865981
0.139865458 , -0.0294315889, -9.765395   , -0.000910154, 0.00208163331, -0.0004179972, 0.108467035 , 0.163678035 , 0.709990561 , 0.00239323149, 0.0136483675, -0.937267065, 0.28        , 3           , 12          , 0.0346698426, 0
0.140593886 , -0.0196616445, -9.793732   , 0.00164636131, 0.00233324757, 0.000603171 , 0.108467035 , 0.163678035 , 0.709990561 , 0.002409779 , 0.0136716841, -0.9372611  , 0.29        , 3           , 50          , 0           , 0
0.15556182  , -0.006268697, -9.792988   , 0.00375262788, 0.001185831 , 0.00074217614, 0.1082648   , 0.163812861 , 0.709990561 , 0.00230628462, 0.0139231021, -0.9372556  , 0.3         , 3           , 11          , 0.0217022151, 0.0217021182
0.154399633 , -0.0293634832, -9.783329   , 0.0023124225, -0.0009401059, -0.000299266452, 0.108467035 , 0.163745448 , 0.710058    , 0.00232936675, 0.0139137087, -0.9372587  , 0.31        , 3           , 12          , 0.0347559527, 0
0.131379455 , -0.03681928 , -9.784531   , 0.002288913 , -0.00322889979, -0.0007619008, 0.1082648   , 0.163880274 , 0.7101254   , 0.00235215  , 0.0138814384, -0.9372661  , 0.32        , 3           , 50          , 0           , 0
0.139120162 , -0.0242896  , -9.781605   , 0.004722322 , -0.00139837584, 0.000138283038, 0.108467035 , 0.163745448 , 0.7101254   , 0.00239939033, 0.01386745  , -0.9372649  , 0.33        , 3           , 11          , 0.0217022151, 0.0217021182
0.151316255 , -0.0185481813, -9.78007    , 0.00331853749, 0.00103919732, 0.00159601122, 0.108534448 , 0.163745448 , 0.7101928   , 0.00243279827, 0.0138778044, -0.937248945, 0.34        , 3           , 12          , 0.0347559527, 0
0.157170042 , -0.0181530751, -9.779561   , 0.000619103434, 0.001634688 , 0.002160409 , 0.108534448 , 0.163745448 , 0.7101928   , 0.00243929029, 0.0138941   , -0.937227249, 0.35        , 3           , 50          , 0           , 0
0.146380708 , -0.0198142324, -9.784196   , 0.00164530671, 0.00420506671, 0.00206088577, 0.108534448 , 0.163812861 , 0.709990561 , 0.00245603174, 0.0139361015, -0.9372065  , 0.36        , 3           , 11          , 0.0217022151, 0.0217021182
0.143795967 , -0.00358713954, -9.78132248 , 0.00406882772, 0.004188183 , 0.00121695758, 0.108332209 , 0.163812861 , 0.7102602   , 0.00249689119, 0.0139779523, -0.937194347, 0.37        , 3           , 12          , 0.0347559527, 0
0.1329048   , -0.003623698, -9.769227   , 0.00161396863, 0.00049489463, 0.000289645744, 0.108332209 , 0.163745448 , 0.710058    , 0.00251307129, 0.013982893 , -0.9371915  , 0.38        , 3           , 50          , 0           , 0
0.119433179 , -0.009683283, -9.782068   , -0.00107885373, 0.000675873656, -0.000869200856, 0.108534448 , 0.163812861 , 0.709990561 , 0.002502161 , 0.0139896739, -0.9372003  , 0.39        , 3           , 11          , 0.0217022151, 0.0217021182
0.132363081 , -0.03135819 , -9.789878   , -0.001097935, 0.000794598251, -0.000724250334, 0.108534448 , 0.163812861 , 0.709990561 , 0.00235933717, 0.0138424961, -0.937209368, 0.4         , 3           , 12          , 0.03489849  , 0
0.13719821  , -0.04359995 , -9.787718   , -0.00141455582, -0.001502824, 9.914011E-05, 0.108467035 , 0.163678035 , 0.709923148 , 0.00234520459, 0.0138274645, -0.9372082  , 0.41        , 3           , 50          , 0           , 0
0.130138353 , -0.0304077379, -9.792598   , -1.75269179E-05, -0.00296168565, 0.00137457752, 0.108129971 , 0.163610622 , 0.710058    , 0.002345218 , 0.0137978159, -0.9371946  , 0.42        , 3           , 11          , 0.01761046  , 0.0176104046
0.140084609 , -0.014406546, -9.77877    , 0.00170616712, -0.00182758784, 0.0008292239, 0.1082648   , 0.163812861 , 0.7103276   , 0.00236239354, 0.0137795229, -0.9371865  , 0.43        , 3           , 12          , 0.03489849  , 0
0.14442493  , -0.02003564 , -9.762083   , 0.00175196875, 0.000914110569, -0.00127735746, 0.108399622 , 0.163678035 , 0.7103276   , 0.00237973733, 0.0137886917, -0.9371991  , 0.44        , 3           , 50          , 0           , 0
0.151703686 , -0.0137518188, -9.765105   , 0.00246635685, 0.00218113558, 0.000462690921, 0.108399622 , 0.1640151   , 0.709855735 , 0.00240446487, 0.0138104912, -0.937194347, 0.45        , 3           , 11          , 0.01761046  , 0.0176104046
0.151570544 , -0.0419992022, -9.780338   , 0.005025076 , 0.00229457952, 0.000909444236, 0.108399622 , 0.1640151   , 0.709855735 , 0.00245484151, 0.0138334157, -0.9371853  , 0.46        , 3           , 12          , 0.03489849  , 0
0.1324788   , -0.0204977356, -9.79336548 , 0.00374976965, 0.0028781814, 0.0011962452, 0.108534448 , 0.163678035 , 0.710058    , 0.00249250629, 0.0138621675, -0.9371731  , 0.47        , 3           , 50          , 0           , 0
0.137255341 , -0.0363903046, -9.787181   , 0.000475409848, 0.00262483279, 0.0011723676, 0.108399622 , 0.163880274 , 0.7101254   , 0.00249742344, 0.0138883861, -0.937161446, 0.48        , 3           , 11          , 0.01761046  , 0.0176104046
0.146262437 , -0.0302334446, -9.7798     , 0.0007569712, 0.00163043407, -0.000128264568, 0.108467035 , 0.163880274 , 0.709923148 , 0.002504976 , 0.0139046935, -0.937162638, 0.49        , 3           , 12          , 0.03489849  , 0
0.160018414 , -0.0121648181, -9.79346752 , 0.00134299067, 0.00249824626, 0.000173932684, 0.108534448 , 0.163745448 , 0.7101254   , 0.00256238226, 0.0140083414, -0.937160254, 0.5         , 3           , 50          , 0           , 0
0.155956984 , -0.0165950544, -9.797621   , 0.00048692475, 0.00193887576, -0.0004118826, 0.108534448 , 0.163745448 , 0.7101254   , 0.002567195 , 0.0140277417, -0.937164068, 0.51        , 3           , 11          , 0.0170315728, 0.0170315262
0.1363906   , -0.03098612 , -9.785771   , -0.000968142238, -0.0004889976, 0.0002594854, 0.108669274 , 0.163745448 , 0.709990561 , 0.00255754916, 0.0140228448, -0.9371617  , 0.52        , 3           , 12          , 0.03509635  , 0
0.156636924 , -0.01649554 , -9.765543   , 0.000179927069, 0.0006419212, 0.0007122791, 0.108399622 , 0.163812861 , 0.709990561 , 0.00255944813, 0.0140292468, -0.937154531, 0.53        , 3           , 50          , 0           , 0
0.162976757 , -0.02450704 , -9.780484   , -8.058232E-05, 0.00222867471, -0.000124971848, 0.108736686 , 0.163745448 , 0.7101254   , 0.0025586246, 0.0140515361, -0.9371557  , 0.54        , 3           , 11          , 0.0170315728, 0.0170315262
0.125712767 , -0.0133357374, -9.782956   , -0.00251771254, 0.000816501444, 0.000268842676, 0.108534448 , 0.163745448 , 0.709990561 , 0.00253348541, 0.0140596945, -0.9371531  , 0.55        , 3           , 12          , 0.03509635  , 0
0.137744427 , -0.0171939954, -9.769339   , -0.00182531623, -0.0004854479, 0.0008266733, 0.108534448 , 0.163745448 , 0.709990561 , 0.00251534884, 0.01405482  , -0.937144756, 0.56        , 3           , 50          , 0           , 0
0.136799157 , -0.0314990059, -9.780354   , 0.000171954074, -0.000215256761, 0.0004135946, 0.1082648   , 0.163678035 , 0.709855735 , 0.0025171265, 0.0140526565, -0.9371407  , 0.57        , 3           , 11          , 0.0170315728, 0.0170315262
0.114107154 , -0.0179760233, -9.803442   , 0.000198076916, 0.00221810676, 0.000735233538, 0.108467035 , 0.163812861 , 0.709990561 , 0.0025192115, 0.01407482  , -0.9371333  , 0.58        , 3           , 12          , 0.03509635  , 0
0.119157858 , -0.03814841 , -9.77697849 , -7.714947E-05, 0.002938724 , 0.000600872037, 0.108332209 , 0.163745448 , 0.7101254   , 0.002518525 , 0.01410419  , -0.9371271  , 0.59        , 3           , 50          , 0           , 0
0.152254432 , -0.0140469689, -9.78001    , -0.000644997, 0.000767270743, 0.000137295385, 0.108467035 , 0.163745448 , 0.710058    , 0.002598819 , 0.0139916614, -0.9371245  , 0.6         , 3           , 11          , 0.016679313 , 0.01667928
0.153286055 , -0.008067224, -9.79167652 , -0.000374576164, -0.0009474152, -0.0007445244, 0.108399622 , 0.163745448 , 0.709855735 , 0.00259496924, 0.0139822094, -0.9371321  , 0.61        , 3           , 12          , 0.03534818  , 0
0.128928512 , -0.0172713287, -9.796973   , 0.00131625007, -0.002255639, -0.000609942945, 0.108399622 , 0.163745448 , 0.709855735 , 0.00260804524, 0.0139596676, -0.9371381  , 0.62        , 3           , 50          , 0           , 0
0.143109292 , -0.0266471468, -9.77527    , 0.0040429025, 6.983464E-06, -0.000274113379, 0.108467035 , 0.163610622 , 0.7101928   , 0.00264843553, 0.013959744 , -0.9371407  , 0.63        , 3           , 11          , 0.016679313 , 0.01667928
0.177844286 , -0.0246219  , -9.781703   , 0.00522081647, 0.00315291481, -0.000793679035, 0.108399622 , 0.163745448 , 0.7103276   , 0.002700534 , 0.0139912935, -0.9371486  , 0.64        , 3           , 12          , 0.03534818  , 0
0.160559565 , -0.0102489851, -9.804281   , 0.000790679245, 0.00175840908, -0.000125694278, 0.108534448 , 0.163880274 , 0.7101254   , 0.00270842435, 0.0140088806, -0.937149763, 0.65        , 3           , 50          , 0           , 0
0.1345777   , -0.03276921 , -9.786261   , -0.00264034071, 0.0004996392, 0.000264210132, 0.108467035 , 0.163678035 , 0.710058    , 0.00268205767, 0.0140138706, -0.937147141, 0.66        , 3           , 11          , 0.016679313 , 0.01667928
0.147507489 , -0.0522186048, -9.791335   , -0.00220048055, 0.00164162146, 0.000283474365, 0.108467035 , 0.163678035 , 0.710058    , 0.0026600936, 0.0140302759, -0.9371443  , 0.67        , 3           , 12          , 0.03534818  , 0
0.13741529  , -0.02546212 , -9.796991   , 0.0007982424, 0.002332847 , -0.000260429224, 0.108332209 , 0.163812861 , 0.709990561 , 0.00266803964, 0.0140536111, -0.9371469  , 0.68        , 3           , 50          , 0           , 0
0.135959536 , -0.0354041569, -9.793958   , -0.0004697662, 0.00264394749, -0.001551704, 0.108467035 , 0.163812861 , 0.7101928   , 0.00266312575, 0.0140800923, -0.937162161, 0.69        , 3           , 11          , 0.016679313 , 0.01667928
0.163284242 , -0.0251747761, -9.760614   , -0.00297943526, 0.0002206084, -0.00188765558, 0.108467035 , 0.163812861 , 0.710058    , 0.00287671061, 0.0140313869, -0.9371779  , 0.7         , 3           , 12          , 0.03565243  , 0
0.140587658 , -0.0218968149, -9.795565   , -0.000864019559, -0.0005303093, -0.000454418856, 0.108467035 , 0.163812861 , 0.7101254   , 0.00286800647, 0.014026098 , -0.9371822  , 0.71        , 3           , 50          , 0           , 0
0.13247624  , -0.0200565141, -9.792457   , 0.00116817723, 0.002608233 , -0.00111192628, 0.108332209 , 0.163543209 , 0.710058    , 0.002879534 , 0.0140522132, -0.9371934  , 0.72        , 3           , 11          , 0.01653649  , 0.01653646
0.1363779   , -0.017206423, -9.767094   , 0.00118894049, 0.00432898756, -0.001229967, 0.108332209 , 0.163543209 , 0.710058    , 0.00289125228, 0.0140955364, -0.937205553, 0.73        , 3           , 12          , 0.03565243  , 0
0.140403211 , -0.0230695978, -9.770287   , 0.0009156291, 0.00603983458, 8.109879E-05, 0.108467035 , 0.163812861 , 0.710058    , 0.002900422 , 0.0141559336, -0.9372046  , 0.74        , 3           , 50          , 0           , 0
0.132280856 , -0.0176849551, -9.761264   , 0.00459519867, 0.004426084 , 8.04184747E-05, 0.108399622 , 0.163812861 , 0.710058    , 0.00294638751, 0.014200191 , -0.937203646, 0.75        , 3           , 11          , 0.01653649  , 0.01653646
0.142031908 , -0.008856516, -9.793142   , 0.005403693 , 0.000689326436, 0.000317466736, 0.108332209 , 0.163812861 , 0.7102602   , 0.00300047  , 0.0142070744, -0.9372003  , 0.76        , 3           , 12          , 0.03565243  , 0
0.159588292 , -0.0408670455, -9.766249   , 0.00155702024, -0.000268291973, -0.000435681432, 0.108534448 , 0.163880274 , 0.709855735 , 0.00301597919, 0.0142044043, -0.937204838, 0.77        , 3           , 50          , 0           , 0
0.171429187 , -0.0278540011, -9.769605   , 0.0006983406, -0.0009722317, -0.000880501466, 0.108534448 , 0.163880274 , 0.709855735 , 0.003022838 , 0.0141947083, -0.937213659, 0.78        , 3           , 11          , 0.01653649  , 0.01653646
0.147548273 , -0.0339056738, -9.774862   , 0.003684816 , -0.000438372634, 0.000147410217, 0.108399622 , 0.163610622 , 0.709990561 , 0.003059706 , 0.01419032  , -0.9372122  , 0.79        , 3           , 12          , 0.03565243  , 0
0.154279888 , -0.0477973931, -9.788511   , 0.00426955149, 0.0009941072, 0.001316418 , 0.108399622 , 0.163745448 , 0.7101254   , 0.00312166428, 0.0142423445, -0.937198639, 0.8         , 3           , 50          , 0           , 0
0.139892176 , -0.032951735, -9.773566   , 0.00312876841, 0.000578356441, 0.00101714011, 0.108399622 , 0.163812861 , 0.710058    , 0.00315309758, 0.0142480973, -0.9371884  , 0.81        , 3           , 11          , 0.0146850552, 0.01468505
0.148139834 , -0.0296869315, -9.790165   , 0.00286221318, 0.00131049147, -0.000404959515, 0.108467035 , 0.163745448 , 0.7101254   , 0.003181662 , 0.0142612131, -0.93719244 , 0.82        , 3           , 12          , 0.0360073559, 0
0.139430255 , -0.0391975939, -9.779514   , -0.0009869402, 0.000631773844, -0.00029544218, 0.108467035 , 0.163745448 , 0.7101254   , 0.00317175081, 0.0142675405, -0.9371953  , 0.83        , 3           , 50          , 0           , 0
0.131213024 , -0.0136788432, -9.797363   , -0.00182609679, 0.00178803934, -0.0004269703, 0.108534448 , 0.163812861 , 0.709855735 , 0.00315342983, 0.0142854322, -0.9371996  , 0.84        , 3           , 11          , 0.0146850552, 0.01468505
0.137301415 , -0.0349843577, -9.792132   , -0.00223432947, 0.00322782877, -0.0006948367, 0.1082648   , 0.163610622 , 0.7101254   , 0.00313098915, 0.0143177314, -0.9372065  , 0.85        , 3           , 12          , 0.0360073559, 0
0.13818565  , -0.0261144079, -9.778923   , -0.00253747334, 0.0019359932, -0.000143002922, 0.108467035 , 0.163678035 , 0.7101254   , 0.00310559454, 0.0143370954, -0.937207937, 0.86        , 3           , 50          , 0           , 0
0.123024173 , -0.0177438445, -9.790258   , -0.0008154301, 0.00292680156, -0.0006904432, 0.108534448 , 0.163678035 , 0.7102602   , 0.00309734233, 0.0143663855, -0.9372146  , 0.87        , 3           , 11          , 0.0146850552, 0.01468505
0.146185353 , -0.0428152531, -9.784011   , -0.0008240895, 0.00192761351, -0.00113429653, 0.108332209 , 0.163610622 , 0.7101928   , 0.00308893924, 0.0143856956, -0.9372258  , 0.88        , 3           , 12          , 0.0360073559, 0
0.146419317 , -0.0395893529, -9.74874    , -0.0009822669, 0.0012023726, -9.310497E-07, 0.108332209 , 0.163610622 , 0.7101928   , 0.003079117 , 0.0143977217, -0.9372258  , 0.89        , 3           , 50          , 0           , 0
0.135530353 , -0.02691043 , -9.786635   , -0.0005320432, 0.00235157483, -0.000124633108, 0.1082648   , 0.163745448 , 0.7101928   , 0.00309636816, 0.0144355129, -0.9372268  , 0.9         , 3           , 11          , 0.014840669 , 0.0148406671
0.118951738 , -0.004830692, -9.771627   , -0.0005081125, 0.003935439 , -0.000960170757, 0.108601861 , 0.163745448 , 0.7102602   , 0.00309115043, 0.0144748958, -0.9372361  , 0.91        , 3           , 12          , 0.03641109  , 0
0.152102351 , -0.0307498444, -9.778398   , -0.00324026961, 0.00152440788, -0.00072575896, 0.108399622 , 0.163880274 , 0.7101254   , 0.003058644 , 0.0144901611, -0.9372432  , 0.92        , 3           , 50          , 0           , 0
0.155803457 , -0.02973906 , -9.7914505  , -0.00314039574, -0.00248402613, -0.00135565968, 0.108534448 , 0.163812861 , 0.7101254   , 0.003027042 , 0.0144653637, -0.937257051, 0.93        , 3           , 11          , 0.014840669 , 0.0148406671
0.115746468 , -0.0324836  , -9.797723   , -0.0005760392, -0.00179870368, -0.0007574773, 0.108534448 , 0.163812861 , 0.7101254   , 0.003021172 , 0.0144473985, -0.9372647  , 0.94        , 3           , 12          , 0.03641109  , 0
0.140075117 , -0.0144210607, -9.777416   , 0.000582195469, 0.00103889243, 0.00115117768, 0.108467035 , 0.163745448 , 0.7102602   , 0.00302716042, 0.0144577529, -0.937253237, 0.95        , 3           , 50          , 0           , 0
0.146893442 , -0.006368402, -9.776809   , -0.001423048, -8.847637E-05, 0.00126557169, 0.108129971 , 0.163745448 , 0.709923148 , 0.003013113 , 0.01445683  , -0.937240362, 0.96        , 3           , 11          , 0.014840669 , 0.0148406671
0.139980987 , -0.03949274 , -9.794418   , -0.00284702983, -0.000640787766, 0.000533247658, 0.108197384 , 0.163812861 , 0.7101254   , 0.00298471912, 0.0144504067, -0.9372351  , 0.97        , 3           , 12          , 0.03641109  , 0
0.132379    , -0.03355948 , -9.794872   , 0.000151561107, -0.0003730321, -0.0007323261, 0.108399622 , 0.163745448 , 0.710058    , 0.00298612914, 0.0144466981, -0.9372425  , 0.98        , 3           , 50          , 0           , 0
0.158519119 , -0.0355275869, -9.800526   , 0.0009974501, -0.000532669, 0.000129219276, 0.108534448 , 0.163745448 , 0.7101254   , 0.002996122 , 0.0144413682, -0.9372413  , 0.99        , 3           , 11          , 0.014840669 , 0.0148406671
0.132041574 , -0.0155774038, -9.78924751 , 0.001521962 , 0.0009880321, 0.0008665521, 0.108534448 , 0.163745448 , 0.7101254   , 0.003206621 , 0.0149885407, -0.937229633, 1           , 3           , 12          , 0.03686164  , 0
0.1252822   , -0.0150822168, -9.78795    , 0.00365966954, 0.000690018933, -0.000269426964, 0.1082648   , 0.163745448 , 0.7101928   , 0.003243178 , 0.0149954474, -0.937232256, 1.01        , 3           , 50          , 0           , 0
0.142252758 , -0.03369412 , -9.790266   , 0.001822227 , 0.00128835859, -0.000987627, 0.1082648   , 0.163880274 , 0.709990561 , 0.00326125231, 0.0150083629, -0.9372418  , 1.02        , 3           , 11          , 0.0152605409, 0.015260539
0.1554782   , -0.0144091835, -9.790826   , -0.0014487  , 0.00174505915, -0.000285660732, 0.108332209 , 0.163880274 , 0.709923148 , 0.00324672274, 0.0150258234, -0.9372449  , 1.03        , 3           , 12          , 0.03686164  , 0
0.14692232  , -0.0152268382, -9.791817   , -0.00158913736, 0.00231326348, 0.0004372396, 0.1082648   , 0.163610622 , 0.7102602   , 0.00323089818, 0.0150489407, -0.937240362, 1.04        , 3           , 50          , 0           , 0
0.160737947 , -0.0200171024, -9.776838   , -0.003035124, 0.000179647672, 0.000254289218, 0.1082648   , 0.163610622 , 0.7102602   , 0.00320058526, 0.0150507288, -0.93723774 , 1.05        , 3           , 11          , 0.0152605409, 0.015260539
0.144603074 , -0.0188725442, -9.786459   , -0.00276567787, -0.000548648066, 0.00124714279, 0.108332209 , 0.163880274 , 0.7097209   , 0.0031731152, 0.0150452014, -0.937225342, 1.06        , 3           , 12          , 0.03686164  , 0
0.126660585 , 0.000528043136, -9.77285    , 0.000380757818, 0.00127721147, 0.0018654461, 0.108129971 , 0.163678035 , 0.7101254   , 0.00317720347, 0.0150579149, -0.9372065  , 1.07        , 3           , 50          , 0           , 0
0.120655522 , -0.03214838 , -9.790899   , 0.0009834684, 0.00371503341, 0.00104585593, 0.108197384 , 0.163880274 , 0.710058    , 0.003187197 , 0.0150950328, -0.937196   , 1.08        , 3           , 11          , 0.0152605409, 0.015260539
0.14129509  , -0.05246948 , -9.804946   , 0.0028638225, 0.005854553 , 8.67204944E-05, 0.108332209 , 0.163880274 , 0.709855735 , 0.00321585219, 0.0151535748, -0.937195063, 1.09        , 3           , 12          , 0.03686164  , 0
0.16348508  , -0.0235317256, -9.787696   , 0.00454527466, 0.005361434 , 0.000521049369, 0.108332209 , 0.163880274 , 0.709855735 , 0.00351559254, 0.015118585 , -0.937185764, 1.1         , 3           , 50          , 0           , 0
0.14096719  , -0.0228993334, -9.786539   , 0.00152758183, 0.00252854312, 0.000175159366, 0.108399622 , 0.163812861 , 0.709923148 , 0.003530897 , 0.0151438648, -0.937183857, 1.11        , 3           , 11          , 0.013240342 , 0.0132403607
0.142706081 , -0.0198941547, -9.773841   , 0.000929001835, -4.48902138E-05, 0.0001341708, 0.108197384 , 0.163812861 , 0.7101928   , 0.0035402067, 0.0151434112, -0.937182665, 1.12        , 3           , 12          , 0.03735692  , 0
0.154324532 , -0.0312590525, -9.774769   , 0.00263811112, 0.0006465414, 0.001013377 , 0.108399622 , 0.1640151   , 0.7101928   , 0.00356674171, 0.0151498392, -0.9371724  , 1.13        , 3           , 50          , 0           , 0
0.13283594  , -0.02865667 , -9.789843   , 0.00295362365, 0.003506884 , 0.00134298962, 0.108534448 , 0.163745448 , 0.710058    , 0.00359648443, 0.0151848616, -0.9371588  , 1.14        , 3           , 11          , 0.013240342 , 0.0132403607
0.1259395   , -0.0292616766, -9.770039   , 0.00296339137, 0.00394315133, 0.00063384  , 0.1088041   , 0.163745448 , 0.709923148 , 0.00362621737, 0.0152242687, -0.937152147, 1.15        , 3           , 12          , 0.03735692  , 0
0.153439462 , -0.0361240841, -9.782963   , 0.00380104175, 0.00207939651, -0.000246639829, 0.1088041   , 0.163745448 , 0.709923148 , 0.00366419065, 0.0152450688, -0.937154531, 1.16        , 3           , 50          , 0           , 0
0.162694961 , -0.0189035423, -9.798038   , 0.004483129 , -0.000365030079, -0.000134749367, 0.108534448 , 0.163745448 , 0.709923148 , 0.003709001 , 0.0152414236, -0.937155962, 1.17        , 3           , 11          , 0.013240342 , 0.0132403607
0.141382456 , -0.0185054857, -9.776096   , 0.00222961279, 0.00123939151, -0.000697830052, 0.108332209 , 0.163880274 , 0.709990561 , 0.00373119139, 0.0152538428, -0.9371631  , 1.18        , 3           , 12          , 0.03735692  , 0
0.15545091  , 0.00023845023, -9.768974   , 0.0002595732, 0.00283964328, -0.00111611548, 0.108399622 , 0.163880274 , 0.709923148 , 0.00373361842, 0.0152822817, -0.9371741  , 1.19        , 3           , 50          , 0           , 0
0.140957534 , -0.00688931346, -9.765576   , 0.00100827753, -0.000321488624, -1.3135741E-05, 0.108736686 , 0.163678035 , 0.709923148 , 0.003628048 , 0.0152984289, -0.937176   , 1.2         , 3           , 11          , 0.0130312871, 0.0130313085
0.147389323 , -0.0214369781, -9.801821   , 0.000314641162, 0.00111991109, -0.00013963363, 0.108736686 , 0.163678035 , 0.709923148 , 0.00363117456, 0.0153096318, -0.9371774  , 1.21        , 3           , 12          , 0.0378948078, 0
0.170236677 , -0.0204777475, -9.783531   , 0.0004839473, 0.00355310924, 3.977998E-05, 0.108332209 , 0.163678035 , 0.709855735 , 0.00363602187, 0.0153451627, -0.9371767  , 1.22        , 3           , 50          , 0           , 0
0.136455655 , -0.0179775879, -9.779297   , 0.000329623115, 0.00283298735, 0.000600817555, 0.108399622 , 0.163812861 , 0.7101254   , 0.003639412 , 0.0153734684, -0.9371705  , 1.23        , 3           , 11          , 0.0130312871, 0.0130313085
0.1634811   , -0.019531643, -9.782228   , 0.0003197232, 0.00197324948, 0.0005882969, 0.108332209 , 0.163812861 , 0.7101928   , 0.00364270131, 0.0153931808, -0.937164545, 1.24        , 3           , 12          , 0.0378948078, 0
0.154235274 , -0.009335846, -9.800263   , 0.00117524713, 0.00182641018, 1.90222636E-05, 0.108467035 , 0.163880274 , 0.7101254   , 0.003654457 , 0.0154114431, -0.937164545, 1.25        , 3           , 50          , 0           , 0
0.159506321 , -0.0135910427, -9.786261   , -0.000806197932, 0.001859435 , -0.00142379152, 0.108399622 , 0.163610622 , 0.7101254   , 0.00364617747, 0.0154300882, -0.9371786  , 1.26        , 3           , 11          , 0.0130312871, 0.0130313085
0.166493982 , -0.0357965268, -9.781937   , 0.00134744414, 0.004263448 , -0.00023080995, 0.108399622 , 0.163610622 , 0.7101254   , 0.003659618 , 0.0154727316, -0.937180758, 1.27        , 3           , 12          , 0.0378948078, 0
0.148429289 , -0.0366141126, -9.775337   , 0.00251807133, 0.00669421162, -0.000903891167, 0.108332209 , 0.163880274 , 0.7101928   , 0.003684662 , 0.0155397067, -0.9371896  , 1.28        , 3           , 50          , 0           , 0
0.144513875 , -0.0172285922, -9.771536   , -0.0006408778, 0.00386404479, -0.00139371969, 0.1082648   , 0.163745448 , 0.7101928   , 0.003678039 , 0.0155783985, -0.9372034  , 1.29        , 3           , 11          , 0.0130312871, 0.0130313085
0.160594642 , -0.0349260122, -9.77430248 , -0.004408054, 0.0014450663, -0.0008796409, 0.108534448 , 0.163880274 , 0.710058    , 0.003564796 , 0.015564396 , -0.9372132  , 1.3         , 3           , 12          , 0.0384731442, 0
0.153967232 , -0.0324481763, -9.789692   , -0.00309203938, 0.003737494 , -0.00226936257, 0.108534448 , 0.163880274 , 0.709923148 , 0.003533524 , 0.015601851 , -0.937235832, 1.31        , 3           , 50          , 0           , 0
0.144412249 , -0.0316285454, -9.774413   , 0.00101321458, 0.00310579943, -0.000392799178, 0.108534448 , 0.163880274 , 0.709923148 , 0.003543597 , 0.0156329237, -0.937239647, 1.32        , 3           , 11          , 0.0135009289, 0.013500955
0.166117668 , -0.02321564 , -9.777279   , 0.00168705126, -5.507527E-05, -0.000291342731, 0.108467035 , 0.163745448 , 0.709990561 , 0.00356042222, 0.0156323873, -0.9372425  , 1.33        , 3           , 12          , 0.0384731442, 0
0.153094858 , -0.025720289, -9.785557   , 0.00012166793, -4.0462146E-05, -0.000157684466, 0.1082648   , 0.163947687 , 0.7101254   , 0.00356161478, 0.0156319849, -0.937243938, 1.34        , 3           , 50          , 0           , 0
0.137864754 , -0.00988757052, -9.777836   , -0.00269633182, 0.00228106743, -0.000141430064, 0.1082648   , 0.163812861 , 0.709990561 , 0.00353463041, 0.0156548   , -0.937245369, 1.35        , 3           , 11          , 0.0135009289, 0.013500955
0.162964046 , -0.0107273515, -9.761805   , -0.002962345, 0.003719412 , -0.000408439664, 0.108399622 , 0.163678035 , 0.709990561 , 0.00350494636, 0.0156920087, -0.9372494  , 1.36        , 3           , 12          , 0.0384731442, 0
0.165264785 , -0.0275862142, -9.789532   , -0.00156971253, 0.00154922169, 0.000284235837, 0.108399622 , 0.163678035 , 0.709990561 , 0.00348929456, 0.01570749  , -0.9372463  , 1.37        , 3           , 50          , 0           , 0
0.157751381 , -0.0671693161, -9.79322052 , 0.000697147741, 0.0005269169, -0.000145910468, 0.108601861 , 0.163880274 , 0.709855735 , 0.00349624269, 0.0157127623, -0.937247753, 1.38        , 3           , 11          , 0.0135009289, 0.013500955
0.149865836 , -0.03382366 , -9.784326   , 0.00200531026, 0.00337330648, 0.000618945167, 0.108601861 , 0.163812861 , 0.710058    , 0.00351639371, 0.0157464761, -0.937241554, 1.39        , 3           , 12          , 0.0384731442, 0
0.157960057 , -0.0205557775, -9.766482   , 0.002448134 , 0.00422279257, -0.0006536768, 0.108467035 , 0.163812861 , 0.710395038 , 0.00353642832, 0.0157572571, -0.937248   , 1.4         , 3           , 50          , 0           , 0
0.1409627   , -0.0215708036, -9.78426552 , 0.0028687478, 0.00336383982, -0.00123595528, 0.108399622 , 0.163678035 , 0.709990561 , 0.00356492144, 0.0157909375, -0.9372604  , 1.41        , 3           , 11          , 0.0139858034, 0.0139858238
0.136809975 , -0.03281785 , -9.78353    , -1.09997927E-05, 0.001229315 , 0.000289511256, 0.108534448 , 0.163745448 , 0.7101254   , 0.003564858 , 0.01580322  , -0.9372575  , 1.42        , 3           , 12          , 0.0390897729, 0
0.134245753 , -0.0223460663, -9.79066    , -0.00201459276, 0.000245235336, 0.000405992178, 0.108534448 , 0.163745448 , 0.7101254   , 0.00354477577, 0.01580566  , -0.937253237, 1.43        , 3           , 50          , 0           , 0
0.12233007  , -0.0005048234, -9.7991     , 0.0002972266, 0.00337448949, 0.000465608173, 0.108399622 , 0.163678035 , 0.710058    , 0.00354782259, 0.0158393886, -0.937248468, 1.44        , 3           , 11          , 0.0139858034, 0.0139858238
0.149842083 , -0.0142741548, -9.756997   , -0.000297234074, 0.001653115 , 0.00129563222, 0.108601861 , 0.163812861 , 0.7101254   , 0.003545057 , 0.015855873 , -0.9372356  , 1.45        , 3           , 12          , 0.0390897729, 0
0.149381638 , -0.0125053227, -9.753369   , 0.0004023159, 0.0006428638, 0.00128530827, 0.108467035 , 0.163812861 , 0.7103276   , 0.0035492857, 0.0158622563, -0.9372227  , 1.46        , 3           , 50          , 0           , 0
0.141759455 , -0.00101300515, -9.809317   , 0.003991923 , 0.00290961447, 0.000195457935, 0.108399622 , 0.163812861 , 0.7101254   , 0.003589237 , 0.0158913489, -0.9372206  , 1.47        , 3           , 11          , 0.0139858034, 0.0139858238
0.147858292 , -0.0169608667, -9.799055   , 0.00357914949, 0.00420227554, 0.000354750868, 0.108399622 , 0.163812861 , 0.7101254   , 0.003625088 , 0.0159333553, -0.937217   , 1.48        , 3           , 12          , 0.0390897729, 0
0.156640679 , -0.0160446335, -9.765538   , -0.0008467237, 0.00309562939, 0.000883827161, 0.108467035 , 0.163745448 , 0.710058    , 0.00361676235, 0.0159642827, -0.937207937, 1.49        , 3           , 50          , 0           , 0
0.147491962 , -0.0451202579, -9.780413   , -0.0006311877, -0.000476612331, -0.00045491365, 0.108399622 , 0.163880274 , 0.7101254   , 0.00354518648, 0.0159619916, -0.937213659, 1.5         , 3           , 11          , 0.0142283   , 0.0142283151
0.1393928   , -0.04815764 , -9.785039   , 0.0004995626, -0.00134406891, -0.000889826741, 0.1082648   , 0.163745448 , 0.7101928   , 0.003550041 , 0.0159485824, -0.9372227  , 1.51        , 3           , 12          , 0.03974256  , 0
0.14449209  , -0.0239389651, -9.776582   , -0.00332773128, 0.000122717582, -0.000319761777, 0.108534448 , 0.163812861 , 0.7102602   , 0.00351671176, 0.01594982  , -0.9372258  , 1.52        , 3           , 50          , 0           , 0
0.1415136   , -0.0125179086, -9.787769   , -0.002757202, 0.000260227971, -0.0003142482, 0.108467035 , 0.163745448 , 0.709855735 , 0.00348909083, 0.0159524325, -0.9372289  , 1.53        , 3           , 11          , 0.0142283   , 0.0142283151
0.121480465 , -0.0251498073, -9.771386   , -0.002068515, -0.00161104056, -0.000194010689, 0.108467035 , 0.163745448 , 0.709855735 , 0.00346837356, 0.01593633  , -0.9372308  , 1.54        , 3           , 12          , 0.03974256  , 0
0.1269694   , -0.02684563 , -9.78580952 , -0.00289474824, 0.0008322714, -2.059387E-05, 0.108534448 , 0.163880274 , 0.7101254   , 0.0034394234, 0.0159446541, -0.937231064, 1.55        , 3           , 50          , 0           , 0
0.161833361 , -0.0134945065, -9.79708    , 0.000530352234, 0.00215372816, 0.0005921192, 0.108399622 , 0.163745448 , 0.7101254   , 0.00344482367, 0.01596617  , -0.9372251  , 1.56        , 3           , 11          , 0.0142283   , 0.0142283151
0.146349952 , -0.0238675419, -9.784695   , -0.0021704426, 0.00147752906, -0.00086541177, 0.108197384 , 0.163812861 , 0.709990561 , 0.00342298113, 0.0159809757, -0.9372337  , 1.57        , 3           , 12          , 0.03974256  , 0
0.131464258 , -0.0393602028, -9.799916   , -0.00111850409, 0.000106721745, -0.001021893, 0.108399622 , 0.163543209 , 0.7101254   , 0.003411632 , 0.01598208  , -0.937243938, 1.58        , 3           , 50          , 0           , 0
0.142640769 , -0.0400252268, -9.78898048 , 0.00161344185, 0.002870218 , -0.000607218768, 0.108399622 , 0.163543209 , 0.7101254   , 0.00342767057, 0.0160108041, -0.9372499  , 1.59        , 3           , 11          , 0.0142283   , 0.0142283151
0.1355198   , -0.0184690431, -9.774795   , 0.001213289 , 0.00212369137, 0.0007410766, 0.108601861 , 0.163745448 , 0.7101254   , 0.00351766823, 0.01586263  , -0.9372411  , 1.6         , 3           , 12          , 0.0404294133, 0
0.138681233 , -0.022932956, -9.781591   , 0.00127326418, 0.0009088468, 0.000294521422, 0.108399622 , 0.163880274 , 0.709855735 , 0.0035304483, 0.0158717074, -0.937238   , 1.61        , 3           , 50          , 0           , 0
0.117810361 , -0.051930856, -9.794314   , 0.0009833265, 0.0002694929, -2.746372E-06, 0.1082648   , 0.163880274 , 0.7102602   , 0.0035402826, 0.0158744026, -0.937238   , 1.62        , 3           , 11          , 0.0147932088, 0.0147932228
0.131304592 , 0.000260518864, -9.793589   , 0.00146685494, -0.000107225373, 0.00149739615, 0.108467035 , 0.163610622 , 0.710058    , 0.00355518842, 0.0158732776, -0.9372232  , 1.63        , 3           , 12          , 0.0404294133, 0
0.133938253 , 0.003694244 , -9.779522   , 0.0006365627, 0.00218959758, 0.002026431 , 0.108467035 , 0.163610622 , 0.710058    , 0.00356187741, 0.0158950984, -0.9372027  , 1.64        , 3           , 50          , 0           , 0
0.1522617   , -0.02026771 , -9.788664   , -0.00141798 , 0.0015152155, -0.000357277866, 0.108467035 , 0.163812861 , 0.709990561 , 0.00354764145, 0.0159102622, -0.937206268, 1.65        , 3           , 11          , 0.0147932088, 0.0147932228
0.154726014 , -0.04157573 , -9.780305   , 0.000766154 , -0.000721128832, -0.00116329489, 0.108399622 , 0.163880274 , 0.7101254   , 0.003555117 , 0.0159030929, -0.937217951, 1.66        , 3           , 12          , 0.0404294133, 0
0.138287276 , -0.0117144678, -9.776047   , 0.000440713629, 0.00214443542, -0.0006944552, 0.1082648   , 0.163880274 , 0.710058    , 0.00355941383, 0.0159245636, -0.937224865, 1.67        , 3           , 50          , 0           , 0
0.139016747 , -0.0284542013, -9.771716   , -0.00277113542, 0.00159674673, 6.487308E-05, 0.108669274 , 0.163812861 , 0.709990561 , 0.0035317135, 0.0159405265, -0.93722415 , 1.68        , 3           , 11          , 0.0147932088, 0.0147932228
0.1362531   , -0.0485569164, -9.787331   , -0.004132746, 0.0008204601, 0.000259880238, 0.108332209 , 0.163812861 , 0.709990561 , 0.00349042751, 0.015948724 , -0.9372215  , 1.69        , 3           , 12          , 0.0404294133, 0
0.1542048   , -0.03163919 , -9.823106   , -0.00157492107, 0.00513867335, -0.0009469908, 0.108332209 , 0.163812861 , 0.709990561 , 0.00362076913, 0.01579846  , -0.937228441, 1.7         , 3           , 50          , 0           , 0
0.139427662 , -0.00690356968, -9.804888   , 0.00182659808, 0.00445343554, -0.000291951641, 0.108534448 , 0.164082512 , 0.709990561 , 0.003638991 , 0.0158430077, -0.937231064, 1.71        , 3           , 11          , 0.0146929827, 0.0146929938
0.125715613 , -0.0320270024, -9.806208   , 0.00176230317, 6.454698E-05, 0.00171909085, 0.108129971 , 0.163812861 , 0.7101254   , 0.003656886 , 0.0158435889, -0.937214136, 1.72        , 3           , 12          , 0.0411482826, 0
0.143239915 , -0.0233311281, -9.790136   , 0.000413152127, -0.0009068377, -0.000306803122, 0.108332209 , 0.163947687 , 0.7101254   , 0.003660968 , 0.0158345345, -0.937217   , 1.73        , 3           , 50          , 0           , 0
0.1341953   , -0.0246489868, -9.78617    , 0.0008958673, -0.00234287046, -0.0005392954, 0.108332209 , 0.163812861 , 0.7102602   , 0.00366984  , 0.015811123 , -0.9372225  , 1.74        , 3           , 11          , 0.0146929827, 0.0146929938
0.142770186 , -0.03760136 , -9.80476    , -0.0007609193, -0.00305997976, 0.00137202581, 0.108332209 , 0.163812861 , 0.7102602   , 0.00366244651, 0.015780475 , -0.9372089  , 1.75        , 3           , 12          , 0.0411482826, 0
0.129714027 , -0.0183454975, -9.781622   , 0.00269719865, -0.000354236836, -0.0005709127, 0.108332209 , 0.163812861 , 0.710058    , 0.00368932844, 0.015776949 , -0.9372146  , 1.76        , 3           , 50          , 0           , 0
0.159965456 , -0.01402651 , -9.788069   , 0.00342397322, 0.00099979  , -0.000546805037, 0.108467035 , 0.163812861 , 0.710058    , 0.00372348144, 0.0157869682, -0.937220335, 1.77        , 3           , 11          , 0.0146929827, 0.0146929938
0.146236658 , -0.03294372 , -9.77938    , 0.00130112772, 0.00159973954, -0.00112363638, 0.108669274 , 0.163812861 , 0.7101928   , 0.00373631576, 0.0158030111, -0.9372313  , 1.78        , 3           , 12          , 0.0411482826, 0
0.13466391  , -0.0250699464, -9.789333   , 0.0008825793, 0.002390887 , -0.0009716474, 0.108467035 , 0.163678035 , 0.710058    , 0.0037449894, 0.0158269554, -0.937240839, 1.79        , 3           , 50          , 0           , 0
0.1247245   , -0.026816342, -9.786735   , 0.00235277228, 0.00137114292, 0.000240740366, 0.108332209 , 0.163745448 , 0.710058    , 0.00362789119, 0.0155945513, -0.937240839, 1.8         , 3           , 11          , 0.0147364279, 0.01473644
0.151051626 , -0.04610665 , -9.775422   , 0.00305589312, 0.00100057584, 0.000812134938, 0.108332209 , 0.163745448 , 0.710058    , 0.00365857687, 0.0156045277, -0.937232733, 1.81        , 3           , 12          , 0.0418972038, 0
0.164708242 , -0.0246291775, -9.770533   , -0.0013752674, -0.00110077928, 0.0003965709, 0.108399622 , 0.163880274 , 0.7101928   , 0.00364488736, 0.0155935055, -0.937228441, 1.82        , 3           , 50          , 0           , 0
0.130026937 , -0.02657217 , -9.771776   , -0.00325755868, 0.00186128134, -0.000144543854, 0.108399622 , 0.163812861 , 0.7102602   , 0.003612289 , 0.0156121207, -0.9372301  , 1.83        , 3           , 11          , 0.0147364279, 0.01473644
0.1386953   , -0.0264724512, -9.787956   , -0.000829365046, 0.00241499674, -0.00069396093, 0.108669274 , 0.163880274 , 0.7101928   , 0.003603888 , 0.0156362951, -0.937237   , 1.84        , 3           , 12          , 0.0418972038, 0
0.149899244 , -0.03243707 , -9.787471   , 0.00322114723, 0.00279345014, 0.000481371273, 0.108601861 , 0.163812861 , 0.7101928   , 0.00363617577, 0.0156642124, -0.9372318  , 1.85        , 3           , 50          , 0           , 0
0.146419987 , -0.00951597653, -9.777301   , 0.004722713 , 0.00300089247, -0.0003649953, 0.108601861 , 0.163812861 , 0.7101928   , 0.00368334772, 0.0156942345, -0.9372356  , 1.86        , 3           , 11          , 0.0147364279, 0.01473644
0.164937347 , -0.00691805175, -9.782069   , 0.00269553787, 1.011922E-05, -0.000206188168, 0.108534448 , 0.163812861 , 0.710058    , 0.00371027039, 0.0156943426, -0.9372375  , 1.87        , 3           , 12          , 0.0418972038, 0
0.151375055 , -0.0193483755, -9.789565   , 0.0009186131, 9.982411E-05, -0.000215853492, 0.108399622 , 0.163880274 , 0.7101928   , 0.00371942343, 0.01569535  , -0.937239647, 1.88        , 3           , 50          , 0           , 0
0.151670843 , -0.0262658969, -9.77564    , -0.0004979504, 0.000686150743, -7.299139E-05, 0.108399622 , 0.163745448 , 0.7101254   , 0.00371443271, 0.0157022141, -0.937240362, 1.89        , 3           , 11          , 0.0147364279, 0.01473644
0.142712682 , -0.0127619263, -9.766081   , -0.00299688359, 0.001857895 , -0.000644013635, 0.108601861 , 0.163678035 , 0.7101928   , 0.00363339158, 0.0157114733, -0.9372475  , 1.9         , 3           , 12          , 0.0426742621, 0
0.154441118 , -0.0128299855, -9.769135   , 0.00125553657, 0.00626492873, -0.00141254324, 0.108601861 , 0.163678035 , 0.7101928   , 0.00364572834, 0.0157741737, -0.937261343, 1.91        , 3           , 50          , 0           , 0
0.163687527 , -0.03415326 , -9.76478    , 0.001772635 , 0.00287456764, 0.0004734514, 0.108332209 , 0.163880274 , 0.7101254   , 0.00366353267, 0.0158029012, -0.9372566  , 1.92        , 3           , 11          , 0.01461067  , 0.0146106761
0.150896    , -0.0242850687, -9.791432   , -0.00244788174, 0.000908575952, 0.0007051282, 0.108332209 , 0.163947687 , 0.7101254   , 0.00363916578, 0.0158119611, -0.9372494  , 1.93        , 3           , 12          , 0.0426742621, 0
0.140535519 , -0.0277634338, -9.795182   , -0.00286717131, 0.000358308636, -0.001380478, 0.1082648   , 0.163678035 , 0.709990561 , 0.003610277 , 0.0158155914, -0.93726325 , 1.94        , 3           , 50          , 0           , 0
0.12777555  , -0.03590063 , -9.783197   , -0.002383028, 0.000405700179, 0.000769793871, 0.108332209 , 0.163947687 , 0.7101254   , 0.00358656864, 0.01581962  , -0.9372554  , 1.95        , 3           , 11          , 0.01461067  , 0.0146106761
0.17460072  , -0.0202837884, -9.763163   , -0.00125048915, -0.000388831919, 0.000192842257, 0.108601861 , 0.163880274 , 0.7101254   , 0.00357409427, 0.0158157274, -0.9372537  , 1.96        , 3           , 12          , 0.0426742621, 0
0.163777217 , -0.0331256464, -9.776509   , -0.0025994475, -0.000231176775, 0.000115249371, 0.108601861 , 0.163880274 , 0.7101254   , 0.003548118 , 0.015813414 , -0.9372523  , 1.97        , 3           , 50          , 0           , 0
0.129322067 , -0.03338687 , -9.808449   , -0.00146533665, -0.00010648436, 0.0009111407, 0.108669274 , 0.163812861 , 0.7101928   , 0.00353361014, 0.015812315 , -0.9372432  , 1.98        , 3           , 11          , 0.01461067  , 0.0146106761
0.140175611 , -0.0147122853, -9.792324   , 0.000179695533, -0.0005337721, -0.00123149774, 0.108399622 , 0.163880274 , 0.7101254   , 0.00353521062, 0.0158070214, -0.9372556  , 1.99        , 3           , 12          , 0.0426742621, 0
0.169236779 , -0.0286346022, -9.779118   , -0.000298923725, -0.001030738, -0.000740067, 0.108332209 , 0.163678035 , 0.710462451 , 0.003174027 , 0.0155337192, -0.937268734, 2           , 3           , 50          , 0           , 0
0.146368742 , -0.0331865624, -9.798804   , -0.0041370145, -0.000213233609, 0.0003213944, 0.1082648   , 0.163745448 , 0.710058    , 0.00313270651, 0.0155315753, -0.937265635, 2.01        , 3           , 11          , 0.0150308991, 0.0150309047
0.126563162 , -0.0223229751, -9.786666   , -0.000429184467, 0.000256473752, -0.000292896817, 0.1082648   , 0.163745448 , 0.710058    , 0.00312837  , 0.0155341495, -0.9372685  , 2.02        , 3           , 12          , 0.0434776433, 0
0.155702457 , 0.0113069564, -9.791881   , 0.00162688724, -0.000336994475, -0.000360362785, 0.108399622 , 0.163745448 , 0.7101928   , 0.003144583 , 0.0155307949, -0.9372721  , 2.03        , 3           , 50          , 0           , 0
0.146970615 , -0.00758562749, -9.78947    , -0.000377880118, -0.000969888642, 0.0005482861, 0.108197384 , 0.163947687 , 0.710058    , 0.003140889 , 0.0155210765, -0.9372666  , 2.04        , 3           , 11          , 0.0150308991, 0.0150309047
0.134170592 , -0.0358151868, -9.796236   , -0.000206845609, 0.000830664241, -0.0006409698, 0.108332209 , 0.163812861 , 0.710395038 , 0.003138721 , 0.0155294016, -0.937273   , 2.05        , 3           , 12          , 0.0434776433, 0
0.121572    , -0.0112104453, -9.7676115  , 0.0030921197, 0.00379755627, 0.000424130441, 0.108399622 , 0.163745448 , 0.7101928   , 0.00316970958, 0.0155673642, -0.9372685  , 2.06        , 3           , 50          , 0           , 0
0.1462858   , -0.0177338924, -9.767912   , -0.00168921985, 0.00142475206, -0.001285487, 0.108332209 , 0.163812861 , 0.709923148 , 0.00315261865, 0.0155816516, -0.93728137 , 2.07        , 3           , 11          , 0.0150308991, 0.0150309047
0.159798771 , -0.0298614483, -9.783285   , -0.00210549822, 0.00228946353, -0.00134707754, 0.108332209 , 0.163812861 , 0.709923148 , 0.00313135446, 0.0156045891, -0.9372947  , 2.08        , 3           , 12          , 0.0434776433, 0
0.157004938 , -0.03977236 , -9.78207    , -0.00354193337, 0.00143841538, -0.000724296, 0.108467035 , 0.163812861 , 0.709990561 , 0.00309582241, 0.0156189948, -0.9373021  , 2.09        , 3           , 50          , 0           , 0
0.125939608 , -0.0314871781, -9.772775   , -0.000321600528, 0.00027489927, -0.000792783336, 0.108332209 , 0.163880274 , 0.7101254   , 0.00315725338, 0.0156504661, -0.937309   , 2.1         , 3           , 11          , 0.0143833626, 0.0143833486
0.127892345 , -0.0334960967, -9.797172   , 0.003936394 , 0.00043177203, 0.0008814908, 0.108467035 , 0.163880274 , 0.7102602   , 0.00319675379, 0.01565476  , -0.9373002  , 2.11        , 3           , 12          , 0.0443056077, 0
0.14661473  , -0.0303873718, -9.765796   , 0.00707788  , 0.00182776281, 0.00149353372, 0.108467035 , 0.163610622 , 0.7101928   , 0.00326776714, 0.0156729836, -0.9372852  , 2.12        , 3           , 50          , 0           , 0
0.168797046 , -0.0116994884, -9.759956   , -0.000104428545, 0.00126552093, 0.0003677651, 0.108467035 , 0.163610622 , 0.7101928   , 0.003266782 , 0.0156856254, -0.93728137 , 2.13        , 3           , 11          , 0.0143833626, 0.0143833486
0.142879516 , -0.0129515436, -9.790473   , -0.000829203869, -0.000368046429, -0.000447467231, 0.108197384 , 0.163678035 , 0.7102602   , 0.00325841969, 0.0156819634, -0.9372859  , 2.14        , 3           , 12          , 0.0443056077, 0
0.166265145 , -0.0283313487, -9.804889   , 0.000462253782, 0.0009040772, 7.9810954E-05, 0.108197384 , 0.163880274 , 0.7102602   , 0.003263055 , 0.0156909972, -0.9372852  , 2.15        , 3           , 50          , 0           , 0
0.147747234 , -0.0198018  , -9.786441   , -0.0008251458, -0.000221557551, -0.000803085451, 0.108669274 , 0.163543209 , 0.7102602   , 0.00325467833, 0.01568881  , -0.937293053, 2.16        , 3           , 11          , 0.0143833626, 0.0143833486
0.115251146 , -0.0285424944, -9.78639    , 0.0007886515, -0.00146637217, 0.000333685079, 0.108467035 , 0.163745448 , 0.7102602   , 0.0032626153, 0.0156741347, -0.9372897  , 2.17        , 3           , 12          , 0.0443056077, 0
0.140386313 , -0.0262114219, -9.771678   , -0.00128102931, -0.00230196072, -4.89626727E-05, 0.108467035 , 0.163745448 , 0.7102602   , 0.003249797 , 0.015651118 , -0.93729043 , 2.18        , 3           , 50          , 0           , 0
0.148536637 , -0.0226505511, -9.77382    , -5.84716872E-05, -0.0016611201, -0.000962323451, 0.108399622 , 0.163745448 , 0.709923148 , 0.00324906153, 0.0156345367, -0.937299967, 2.19        , 3           , 11          , 0.0143833626, 0.0143833486
0.13289158  , -0.0294617116, -9.798885   , -0.00148959982, -8.818768E-05, -8.97388E-05, 0.1082648   , 0.163745448 , 0.710529864 , 0.003191522 , 0.0156135987, -0.937301636, 2.2         , 3           , 12          , 0.045156505 , 0
0.15038991  , -0.04439769 , -9.80793    , 0.00143835123, 0.00116860052, 0.0003043094, 0.108399622 , 0.163880274 , 0.710395038 , 0.00320595386, 0.0156252738, -0.937298536, 2.21        , 3           , 50          , 0           , 0
0.160658926 , -0.03171161 , -9.779685   , 0.0004955609, -4.57286E-05, 0.0009248723, 0.108332209 , 0.163947687 , 0.7102602   , 0.003211053 , 0.0156247877, -0.937289238, 2.22        , 3           , 11          , 0.0146324588, 0.0146324439
0.140953571 , -0.0282618143, -9.79112    , -0.00464719161, 0.00296363956, -0.00120984844, 0.1082648   , 0.163880274 , 0.710058    , 0.00316439383, 0.0156544615, -0.9373014  , 2.23        , 3           , 12          , 0.045156505 , 0
0.118615679 , -0.0135545693, -9.798833   , -0.002960839, 0.00172002206, -0.00028727256, 0.1082648   , 0.163880274 , 0.710058    , 0.00313474168, 0.01567167  , -0.937304   , 2.24        , 3           , 50          , 0           , 0
0.128627717 , -0.0297506135, -9.768664   , 0.00233081123, -0.00149356772, 0.000485895784, 0.1082648   , 0.163745448 , 0.7101928   , 0.003158125 , 0.0156567227, -0.9372995  , 2.25        , 3           , 11          , 0.0146324588, 0.0146324439
0.160819113 , -0.0252344161, -9.794966   , -0.00115365093, -0.00117606972, 0.000969867047, 0.108332209 , 0.163947687 , 0.7101928   , 0.00314673875, 0.0156449322, -0.9372897  , 2.26        , 3           , 12          , 0.045156505 , 0
0.144969732 , -0.040816   , -9.801164   , -0.00106514373, 4.56484267E-05, 0.000487246027, 0.108332209 , 0.1640151   , 0.710529864 , 0.00313616428, 0.0156453717, -0.937284946, 2.27        , 3           , 50          , 0           , 0
0.142286    , -0.0162829887, -9.773805   , 0.001001177 , -0.000110912333, -0.000360910635, 0.108534448 , 0.163812861 , 0.7101254   , 0.00314611918, 0.0156442747, -0.9372885  , 2.28        , 3           , 11          , 0.0146324588, 0.0146324439
0.131723762 , -0.0289730262, -9.759593   , 0.00044797195, 0.00125611806, -0.00034451313, 0.108534448 , 0.163812861 , 0.7101254   , 0.00315054529, 0.01565685  , -0.937291861, 2.29        , 3           , 12          , 0.045156505 , 0
0.140142918 , -0.01787831 , -9.791457   , -0.00441276142, -0.0010144175, -0.0009792817, 0.108467035 , 0.163678035 , 0.7101254   , 0.003100711 , 0.0155807575, -0.937301636, 2.3         , 3           , 50          , 0           , 0
0.1474233   , -0.00580528565, -9.787638   , -0.0009899907, -0.0004720954, -0.00137961959, 0.108332209 , 0.163880274 , 0.7102602   , 0.00309059559, 0.0155760776, -0.937315464, 2.31        , 3           , 11          , 0.015035864 , 0.0150358519
0.146921441 , -0.0408492237, -9.757784   , 0.00276446482, -0.00130551425, -0.0005814435, 0.108467035 , 0.163812861 , 0.7102602   , 0.00311814854, 0.0155630419, -0.9373214  , 2.32        , 3           , 12          , 0.04602877  , 0
0.133958772 , -0.0454874262, -9.777379   , 0.00178143254, 0.0002027412, 0.000149880711, 0.108399622 , 0.163745448 , 0.7101928   , 0.00313598616, 0.0155650647, -0.93732    , 2.33        , 3           , 50          , 0           , 0
0.155938476 , -0.0255260617, -9.805855   , 0.00314104371, 0.00125856826, 0.0007459981, 0.108399622 , 0.163745448 , 0.7102602   , 0.003167513 , 0.0155776255, -0.937312365, 2.34        , 3           , 11          , 0.015035864 , 0.0150358519
0.1635125   , -0.003458725, -9.767137   , 0.00185638457, 0.00119480782, 0.00130957249, 0.108399622 , 0.163745448 , 0.7102602   , 0.003186282 , 0.0155895334, -0.937299252, 2.35        , 3           , 12          , 0.04602877  , 0
0.144979924 , -0.0172083173, -9.773789   , 0.00123214757, 0.00178662548, -4.52146451E-05, 0.108129971 , 0.163812861 , 0.7101928   , 0.00319859735, 0.0156074036, -0.9372997  , 2.36        , 3           , 50          , 0           , 0
0.134171635 , -0.0188985113, -9.775715   , -0.0006782718, 0.003088698 , 0.0007489518, 0.108197384 , 0.163812861 , 0.7102602   , 0.00319193257, 0.0156382658, -0.9372921  , 2.37        , 3           , 11          , 0.015035864 , 0.0150358519
0.145661443 , -0.00483940542, -9.79216    , -0.00219982979, 3.27407179E-05, -0.000378024, 0.108534448 , 0.163812861 , 0.710395038 , 0.00316987582, 0.0156386066, -0.937296152, 2.38        , 3           , 12          , 0.04602877  , 0
0.147363871 , -0.00545115955, -9.778602   , -0.0012347484, -0.002416495, -4.97971378E-05, 0.108601861 , 0.163745448 , 0.710058    , 0.00315751974, 0.0156144435, -0.9372966  , 2.39        , 3           , 50          , 0           , 0
0.1263193   , -0.0485142246, -9.783356   , -0.00278195832, -0.000693005, -0.000607243041, 0.108601861 , 0.163745448 , 0.710058    , 0.00296595017, 0.0155731924, -0.9373052  , 2.4         , 3           , 11          , 0.0155542213, 0.0155542083
0.149541989 , -0.022052655, -9.788258   , -0.00277055218, 0.0008742221, 0.000417285453, 0.108062558 , 0.163880274 , 0.7101928   , 0.00293830945, 0.0155819235, -0.937301159, 2.41        , 3           , 12          , 0.04692093  , 0
0.159605965 , -0.009877339, -9.796156   , -0.0003987629, 0.0032824662, 0.000896142039, 0.108399622 , 0.163947687 , 0.7102602   , 0.00293446332, 0.015614721 , -0.937291861, 2.42        , 3           , 50          , 0           , 0
0.143000454 , -0.005199043, -9.79851151 , -0.00312239281, 0.00144715328, 0.0008527369, 0.108399622 , 0.163812861 , 0.7101254   , 0.00290337275, 0.0156291723, -0.9372835  , 2.43        , 3           , 11          , 0.0155542213, 0.0155542083
0.147868544 , -0.00715224259, -9.788552   , -0.004059812, -4.22372032E-05, 0.000181388168, 0.108467035 , 0.163880274 , 0.710395038 , 0.00286280364, 0.0156287421, -0.9372816  , 2.44        , 3           , 12          , 0.04692093  , 0
0.127951577 , -0.0178256854, -9.786601   , -0.000748122635, 0.003576497 , 0.000468927756, 0.108467035 , 0.163880274 , 0.710395038 , 0.00285539683, 0.0156644918, -0.9372771  , 2.45        , 3           , 50          , 0           , 0
0.1370949   , -0.00656370632, -9.79271    , 0.00182344741, 0.005259088 , 0.00172558648, 0.108399622 , 0.163745448 , 0.710058    , 0.00287390454, 0.0157170352, -0.937259436, 2.46        , 3           , 11          , 0.0155542213, 0.0155542083
0.133687854 , -0.0180556774, -9.769837   , -0.00241095549, 0.002004769 , 0.0017954004, 0.1082648   , 0.163947687 , 0.7101928   , 0.00285007781, 0.01573703  , -0.937241554, 2.47        , 3           , 12          , 0.04692093  , 0
0.143409014 , -0.0491382964, -9.780948   , -0.0007854521, 0.000211111226, 0.000205265751, 0.1082648   , 0.163745448 , 0.7101254   , 0.00284225633, 0.0157391373, -0.9372394  , 2.48        , 3           , 50          , 0           , 0
0.117915042 , -0.0353005677, -9.789153   , -0.000341599865, 0.00128784741, -0.0004919235, 0.108467035 , 0.163880274 , 0.710058    , 0.00283876178, 0.0157520287, -0.9372442  , 2.49        , 3           , 11          , 0.0155542213, 0.0155542083
0.1447607   , -0.0119541157, -9.800833   , 0.000144096615, 0.00235365331, -0.000326028967, 0.108399622 , 0.163610622 , 0.7102602   , 0.00293818512, 0.0153019633, -0.9372456  , 2.5         , 3           , 12          , 0.04783159  , 0
0.132079765 , -0.05182313 , -9.773856   , -0.00114235072, 0.00221696822, 0.000379584031, 0.108399622 , 0.163610622 , 0.7102602   , 0.00292682019, 0.0153241213, -0.9372418  , 2.51        , 3           , 50          , 0           , 0
0.11999961  , -0.0511550978, -9.78434849 , -0.0007979352, 0.000999234 , -6.525778E-05, 0.108467035 , 0.163812861 , 0.7101928   , 0.00291883224, 0.0153341154, -0.9372425  , 2.52        , 3           , 11          , 0.0157988686, 0.0157988556
0.142170534 , -0.05696703 , -9.806797   , 0.000366844819, 0.003210584 , -0.000240682319, 0.108467035 , 0.163812861 , 0.7101254   , 0.00292246439, 0.0153662311, -0.937244654, 2.53        , 3           , 12          , 0.04783159  , 0
0.159945935 , -0.04635442 , -9.759534   , -0.000200391034, 0.00385348732, 0.000623773434, 0.108332209 , 0.163812861 , 0.7102602   , 0.002920558 , 0.0154047441, -0.937238455, 2.54        , 3           , 50          , 0           , 0
0.1497127   , -0.042070616, -9.772226   , -0.00197820133, 0.00316597777, -0.000613566255, 0.108534448 , 0.163678035 , 0.7101254   , 0.002900683 , 0.0154364258, -0.9372444  , 2.55        , 3           , 11          , 0.0157988686, 0.0157988556
0.130622387 , -0.0241280142, -9.78981    , -0.00036818572, 0.00163394387, 0.0005905717, 0.108534448 , 0.163678035 , 0.7101254   , 0.00289709331, 0.0154527444, -0.937238455, 2.56        , 3           , 12          , 0.04783159  , 0
0.14859435  , -0.0265683867, -9.786963   , -0.002704683, -0.00392675353, -5.306333E-06, 0.108197384 , 0.163880274 , 0.7101928   , 0.002870044 , 0.0154134789, -0.9372387  , 2.57        , 3           , 50          , 0           , 0
0.145930424 , -0.0313838571, -9.798335   , -0.00133302878, -0.00285492954, -0.00119771389, 0.108534448 , 0.163812861 , 0.7102602   , 0.00285652862, 0.0153849646, -0.937250853, 2.58        , 3           , 11          , 0.0157988686, 0.0157988556
0.133519068 , -0.0104985628, -9.801371   , 0.0007494367, -0.0006619294, -0.00036599586, 0.108399622 , 0.163745448 , 0.7103276   , 0.00286396639, 0.0153783569, -0.9372544  , 2.59        , 3           , 12          , 0.04783159  , 0
0.154136509 , -0.0308535  , -9.812256   , 0.00222061388, -0.00133488874, -0.0004364285, 0.108399622 , 0.163678035 , 0.7101254   , 0.00237052282, 0.0148598328, -0.937267065, 2.6         , 3           , 50          , 0           , 0
0.1569263   , -0.0465698279, -9.778988   , -0.00139966083, -0.00157182757, -0.00189326773, 0.108467035 , 0.163880274 , 0.7101254   , 0.00235624425, 0.01484416  , -0.9372859  , 2.61        , 3           , 11          , 0.0154622709, 0.0154622523
0.139536873 , -0.0234545972, -9.775718   , -0.00361460238, -0.00135177525, 2.81906068E-05, 0.108467035 , 0.163880274 , 0.7101254   , 0.00232010172, 0.0148306414, -0.937285662, 2.62        , 3           , 12          , 0.0487594567, 0
0.1568046   , -0.0206900779, -9.79495    , -0.00155193685, -0.0008782502, 0.0008348674, 0.108534448 , 0.163812861 , 0.7102602   , 0.002304706 , 0.0148218414, -0.9372773  , 2.63        , 3           , 50          , 0           , 0
0.156684175 , -0.025771   , -9.783718   , 0.0007380232, 0.000105499021, 0.0004339359, 0.1082648   , 0.163812861 , 0.7101254   , 0.00231215125, 0.0148228863, -0.937273   , 2.64        , 3           , 11          , 0.0154622709, 0.0154622523
0.1565846   , -0.03171021 , -9.77656    , 0.000180615243, 0.00189024012, 0.00181587262, 0.108601861 , 0.163812861 , 0.7101928   , 0.002314227 , 0.0148417465, -0.937254667, 2.65        , 3           , 12          , 0.0487594567, 0
0.151210129 , -0.0316196159, -9.780674   , 0.002413839 , 0.00366984331, 0.0006390391, 0.108601861 , 0.163880274 , 0.7101254   , 0.00233846065, 0.0148784285, -0.93724823 , 2.66        , 3           , 50          , 0           , 0
0.153942466 , -0.0298153087, -9.78288651 , 0.0008668445, -0.00167746737, -0.000664407, 0.108601861 , 0.163880274 , 0.7101254   , 0.00234702951, 0.01486167  , -0.937255144, 2.67        , 3           , 11          , 0.0154622709, 0.0154622523
0.130052164 , -0.0381070077, -9.789525   , -0.00250482559, -0.00358752161, 0.000360404316, 0.108467035 , 0.163812861 , 0.7101254   , 0.00232203421, 0.0148257846, -0.9372513  , 2.68        , 3           , 12          , 0.0487594567, 0
0.142968833 , -0.00524743833, -9.793996   , -0.00207589031, -0.00401212648, -0.000716401031, 0.108399622 , 0.163812861 , 0.7102602   , 0.00230116863, 0.01478568  , -0.9372585  , 2.69        , 3           , 50          , 0           , 0
0.128704041 , -0.0269629266, -9.776311   , -0.00244273618, -0.00374489254, -0.000143544967, 0.108534448 , 0.163812861 , 0.7101254   , 0.00192751945, 0.0147108268, -0.937265635, 2.7         , 3           , 11          , 0.0136612114, 0.013661162
0.135326728 , -0.04903385 , -9.784183   , 0.00145028043, 0.0006606336, -0.0003418883, 0.108197384 , 0.163678035 , 0.7102602   , 0.00194197276, 0.0147174392, -0.937269   , 2.71        , 3           , 12          , 0.0497032851, 0
0.143650874 , -0.03363329 , -9.797028   , 3.61259044E-05, 0.00125015958, -0.000556731247, 0.108197384 , 0.163678035 , 0.7102602   , 0.00194225169, 0.0147299562, -0.937274456, 2.72        , 3           , 50          , 0           , 0
0.151927888 , -0.0111827739, -9.794435   , -0.00199003075, -0.0005399292, 0.00155142043, 0.108399622 , 0.163678035 , 0.7101254   , 0.00192258123, 0.0147245228, -0.937258959, 2.73        , 3           , 11          , 0.0136612114, 0.013661162
0.14751026  , -0.0136844842, -9.809861   , 0.00109775376, 0.00109155464, -5.16057771E-05, 0.108332209 , 0.163812861 , 0.7101928   , 0.00193355174, 0.0147354407, -0.937259436, 2.74        , 3           , 12          , 0.0497032851, 0
0.1291708   , -0.0287220813, -9.780843   , -0.00291067315, -0.000737153867, 0.0006126886, 0.108399622 , 0.163812861 , 0.7103276   , 0.00190453406, 0.01472806  , -0.937253237, 2.75        , 3           , 50          , 0           , 0
0.133527443 , -0.0200818889, -9.749085   , -0.00100086839, -0.00246333634, -0.000831607031, 0.108467035 , 0.163880274 , 0.7102602   , 0.00189440162, 0.0147034423, -0.9372618  , 2.76        , 3           , 11          , 0.0136612114, 0.013661162
0.146006718 , -0.00322357379, -9.774974   , -0.000605514, 0.00111337157, -0.000562673, 0.108332209 , 0.163745448 , 0.7101254   , 0.0018882635, 0.0147145865, -0.937267542, 2.77        , 3           , 12          , 0.0497032851, 0
0.111641005 , -0.041432552, -9.801025   , -0.004313634, 0.00177206425, 0.00207146048, 0.108332209 , 0.163745448 , 0.7101254   , 0.00184543326, 0.01473227  , -0.9372468  , 2.78        , 3           , 50          , 0           , 0
0.137381718 , -0.0361967459, -9.805245   , -0.00419320632, -0.000163149933, 0.00197260454, 0.1082648   , 0.163812861 , 0.7101928   , 0.001803792 , 0.0147306016, -0.937227   , 2.79        , 3           , 11          , 0.0136612114, 0.013661162
0.170534462 , -0.0167090073, -9.756836   , -0.00175597251, -0.00141688075, -0.000461924181, 0.108332209 , 0.164082512 , 0.7101928   , 0.001991715 , 0.0146379862, -0.937228441, 2.8         , 3           , 12          , 0.0506619364, 0
0.153206915 , -0.0175362453, -9.791785   , -0.000884231529, 0.000503740739, 0.000143715442, 0.1082648   , 0.163812861 , 0.7102602   , 0.00198289286, 0.0146430237, -0.937227   , 2.81        , 3           , 50          , 0           , 0
0.121376447 , -0.01170671 , -9.80511    , -0.000176642134, 0.000562402536, 0.0007929114, 0.1082648   , 0.163880274 , 0.7102602   , 0.00198124233, 0.01464863  , -0.937219143, 2.82        , 3           , 11          , 0.0127916932, 0.0127916466
0.153038964 , -0.02046425 , -9.771043   , 0.000263572758, 0.0007877197, -0.000846831361, 0.1082648   , 0.163880274 , 0.7102602   , 0.001983754 , 0.0146565223, -0.9372277  , 2.83        , 3           , 12          , 0.0506619364, 0
0.141256422 , -0.0253755227, -9.766238   , -0.00222616876, 0.0005296242, -0.00122370222, 0.108399622 , 0.163745448 , 0.710058    , 0.00196131249, 0.0146618411, -0.9372399  , 2.84        , 3           , 50          , 0           , 0
0.118623063 , -0.0220008045, -9.810224   , -0.0009899971, -0.00201078318, 0.0009652607, 0.108332209 , 0.163880274 , 0.7102602   , 0.00195155363, 0.0146417152, -0.9372301  , 2.85        , 3           , 11          , 0.0127916932, 0.0127916466
0.131363    , -0.0488630868, -9.79686451 , 0.00591750024, -0.000939019, 0.0015242917, 0.108332209 , 0.163812861 , 0.7103276   , 0.00201095152, 0.0146322949, -0.9372151  , 2.86        , 3           , 12          , 0.0506619364, 0
0.1674135   , -0.0126282517, -9.756367   , 0.002064688 , 0.003622654 , 0.000636432669, 0.108601861 , 0.163678035 , 0.710058    , 0.00203169277, 0.0146685112, -0.937208652, 2.87        , 3           , 50          , 0           , 0
0.141305462 , -0.007940212, -9.752035   , -0.002716941, 0.002378249 , 0.0009466573, 0.108332209 , 0.163745448 , 0.710058    , 0.00200466253, 0.0146922739, -0.9371991  , 2.88        , 3           , 11          , 0.0127916932, 0.0127916466
0.117614575 , -0.0110300016, -9.781197   , 0.0005767588, -0.00174137682, 0.00112193974, 0.108332209 , 0.163745448 , 0.710058    , 0.00201059435, 0.0146748368, -0.9371879  , 2.89        , 3           , 12          , 0.0506619364, 0
0.159711823 , -0.00392846949, -9.804215   , 0.00263264845, -0.00158827612, -0.000150384236, 0.108399622 , 0.163678035 , 0.7101928   , 0.00199542241, 0.0145344315, -0.937190056, 2.9         , 3           , 50          , 0           , 0
0.16334796  , 0.00722087  , -9.795471   , -0.0005489471, 0.000161787364, 7.00043456E-05, 0.108062558 , 0.163880274 , 0.7101254   , 0.00198994321, 0.01453605  , -0.937189341, 2.91        , 3           , 11          , 0.0126126492, 0.0126126092
0.153678089 , -0.0068248813, -9.781719   , -0.0031414472, 0.003414452 , -0.0001135153, 0.108601861 , 0.163745448 , 0.7102602   , 0.00195851433, 0.0145701971, -0.9371903  , 2.92        , 3           , 12          , 0.051634334 , 0
0.158199251 , -0.00238406472, -9.778917   , -0.003483714, -0.0008218589, 0.00118249084, 0.108399622 , 0.163678035 , 0.710058    , 0.00192384887, 0.0145619558, -0.9371786  , 2.93        , 3           , 50          , 0           , 0
0.1635206   , -0.0136843873, -9.780806   , -0.00187831547, 0.00239138259, 0.0006665386, 0.108399622 , 0.163678035 , 0.710058    , 0.0019051627, 0.0145858545, -0.937171936, 2.94        , 3           , 11          , 0.0126126492, 0.0126126092
0.148971885 , -0.0382571481, -9.790709   , -0.0009541449, 0.00104121654, -0.00163702923, 0.108332209 , 0.163678035 , 0.7101254   , 0.001895382 , 0.0145963011, -0.9371884  , 2.95        , 3           , 12          , 0.051634334 , 0
0.131947458 , -0.0290755387, -9.792114   , -0.00168732658, 0.000243070972, 0.000278817053, 0.108332209 , 0.163880274 , 0.709923148 , 0.00187855051, 0.0145987235, -0.9371855  , 2.96        , 3           , 50          , 0           , 0
0.146694228 , -0.0275948383, -9.773893   , -0.0015011772, 0.0041801706, 0.000551682955, 0.108467035 , 0.163812861 , 0.7101254   , 0.00186362059, 0.0146405157, -0.9371798  , 2.97        , 3           , 11          , 0.0126126492, 0.0126126092
0.138791725 , -0.008964563, -9.780527   , -0.002029893, 0.0022393   , 0.00180825125, 0.108467035 , 0.163745448 , 0.7101928   , 0.00184358738, 0.014662873 , -0.9371617  , 2.98        , 3           , 12          , 0.051634334 , 0
0.129833475 , -0.0186076853, -9.79924    , -0.00161298283, 0.00031719284, -7.74161E-05, 0.108467035 , 0.163745448 , 0.7101928   , 0.00182744593, 0.0146660479, -0.9371624  , 2.99        , 3           , 50          , 0           , 0
0.136388555 , -0.0278733186, -9.781671   , -0.00371663342, 0.00150104  , 2.9661237E-06, 0.108467035 , 0.163880274 , 0.7097883   , 0.00182334194, 0.0140250772, -0.9371624  , 3           , 3           , 11          , 0.012848381 , 0.0128483418
0.145027339 , -0.005562201, -9.766428   , -0.00259049586, 0.000768554339, 0.0005001729, 0.108332209 , 0.163880274 , 0.7101254   , 0.00179750693, 0.0140327523, -0.9371574  , 3.01        , 3           , 12          , 0.0526194721, 0
0.134967655 , 0.00343872071, -9.798487   , -2.37918812E-05, 0.000751506 , -0.0004859806, 0.108197384 , 0.163745448 , 0.710058    , 0.001797201 , 0.0140402736, -0.937162161, 3.02        , 3           , 50          , 0           , 0
0.118816748 , -0.0344162658, -9.788232   , -0.00151448767, 0.000911245937, -0.000635971141, 0.108467035 , 0.163678035 , 0.7101254   , 0.00178196735, 0.0140493959, -0.93716836 , 3.03        , 3           , 11          , 0.012848381 , 0.0128483418
0.122196287 , -0.04725202 , -9.771636   , -0.0011352842, 0.00263222773, -0.00118111609, 0.108467035 , 0.163812861 , 0.709990561 , 0.00177044887, 0.0140757384, -0.9371803  , 3.04        , 3           , 12          , 0.0526194721, 0
0.1583964   , -0.0330447257, -9.77972    , 3.8309794E-05, 0.00017442595, -0.000136194241, 0.108467035 , 0.163812861 , 0.709990561 , 0.00177081337, 0.0140774846, -0.9371815  , 3.05        , 3           , 50          , 0           , 0
0.157217309 , -0.0158549976, -9.783598   , -0.00290257018, -0.001875574, 3.06083239E-05, 0.1082648   , 0.163745448 , 0.709990561 , 0.001741791 , 0.0140587278, -0.937181234, 3.06        , 3           , 11          , 0.012848381 , 0.0128483418
0.149405614 , -0.03650582 , -9.786167   , -0.002464089, -0.000523776456, 0.0006253307, 0.108197384 , 0.163947687 , 0.710058    , 0.00171723834, 0.0140534807, -0.937175035, 3.07        , 3           , 12          , 0.0526194721, 0
0.152255267 , -0.06147824 , -9.772878   , -0.004359552, -0.00529367663, -0.000743451063, 0.108669274 , 0.163812861 , 0.7102602   , 0.00167353824, 0.0140005555, -0.937182665, 3.08        , 3           , 50          , 0           , 0
0.154197231 , -0.050594762, -9.779962   , -0.00341134774, -0.00216733431, 0.00116809248, 0.108534448 , 0.163678035 , 0.710058    , 0.00163958722, 0.0139788622, -0.937170744, 3.09        , 3           , 11          , 0.012848381 , 0.0128483418
0.138110384 , -0.03735803 , -9.781764   , -0.00451567164, -0.00327335438, 0.000215065811, 0.108534448 , 0.163678035 , 0.710058    , 0.00169332884, 0.0139961084, -0.9371674  , 3.1         , 3           , 12          , 0.0536164045, 0
0.128861591 , -0.00624546036, -9.773811   , -0.00119992346, 0.0004918686, 0.000146987164, 0.108534448 , 0.163678035 , 0.7101254   , 0.00168134994, 0.014001024 , -0.937166   , 3.11        , 3           , 50          , 0           , 0
0.155277163 , -0.0254002847, -9.775145   , -0.00103066745, -0.00288464222, 0.0008861841, 0.108467035 , 0.163678035 , 0.710058    , 0.00167116616, 0.0139721632, -0.937157154, 3.12        , 3           , 11          , 0.00982111  , 0.00982108
0.146829963 , -0.0251612663, -9.790577   , -0.000321000873, -0.003881456, -0.0006265008, 0.1082648   , 0.163880274 , 0.7101928   , 0.00166786776, 0.01393336  , -0.9371636  , 3.13        , 3           , 12          , 0.0536164045, 0
0.12309733  , -0.0149609959, -9.797453   , 0.0005203431, 0.000422082172, -0.001990006, 0.108399622 , 0.163678035 , 0.7101254   , 0.001672794 , 0.0139376158, -0.9371834  , 3.14        , 3           , 50          , 0           , 0
0.154317722 , -0.0339403  , -9.777059   , 0.0006547831, 0.0006924992, -0.000339532737, 0.108399622 , 0.163678035 , 0.7101254   , 0.00167929381, 0.0139445458, -0.9371867  , 3.15        , 3           , 11          , 0.00982111  , 0.00982108
0.161933735 , -0.029614009, -9.766098   , -0.0008461563, -7.850316E-05, -0.00057462824, 0.108736686 , 0.163745448 , 0.709990561 , 0.00167075242, 0.013943769 , -0.93719244 , 3.16        , 3           , 12          , 0.0536164045, 0
0.137471825 , -0.01869853 , -9.796913   , -0.00222171936, -0.002354851, -0.0009023191, 0.1082648   , 0.163880274 , 0.7101254   , 0.00164840906, 0.0139202364, -0.9372015  , 3.17        , 3           , 50          , 0           , 0
0.1474452   , -0.0266929958, -9.816336   , -0.0005942402, -0.00245270925, 0.000179604569, 0.1082648   , 0.163880274 , 0.7101254   , 0.00164249167, 0.0138957053, -0.937199831, 3.18        , 3           , 11          , 0.00982111  , 0.00982108
0.15061374  , -0.00977958553, -9.798043   , -0.00230514957, -0.00222939556, 0.0011740285, 0.108399622 , 0.163812861 , 0.7101254   , 0.00161960325, 0.0138733927, -0.9371879  , 3.19        , 3           , 12          , 0.0536164045, 0
0.134312123 , -0.0106709152, -9.786008   , -0.00585246738, -0.00190050108, 0.000288616284, 0.108332209 , 0.163745448 , 0.7101254   , 0.0010446274, 0.0150986547, -0.9371898  , 3.2         , 3           , 50          , 0           , 0
0.125834316 , -0.04856352 , -9.778393   , -0.005889255, -0.00455967663, 0.00118004414, 0.108332209 , 0.163745448 , 0.7101254   , 0.0009859117, 0.0150530469, -0.937178135, 3.21        , 3           , 11          , 0.0100889988, 0.0100889634
0.159424528 , -0.0203933343, -9.782727   , -0.00195860444, -0.00351513922, 0.000146138991, 0.1082648   , 0.163812861 , 0.710058    , 0.0009663474, 0.015017895 , -0.9371767  , 3.22        , 3           , 12          , 0.054624252 , 0
0.129242152 , -0.0157038942, -9.775272   , 0.00120722724, -0.0007463794, -0.0005097317, 0.108601861 , 0.163678035 , 0.7101928   , 0.0009783432, 0.015010437 , -0.9371817  , 3.23        , 3           , 50          , 0           , 0
0.1541903   , -0.00762416236, -9.791662   , 0.00333605218, -0.0007034454, 0.000291113131, 0.108332209 , 0.163812861 , 0.7101928   , 0.00101174682, 0.015003399 , -0.93717885 , 3.24        , 3           , 11          , 0.0100889988, 0.0100889634
0.161107466 , -0.03527923 , -9.783787   , 0.00041614112, -0.00089132064, 0.000556584739, 0.108736686 , 0.163745448 , 0.709990561 , 0.00101599167, 0.0149944788, -0.937173367, 3.25        , 3           , 12          , 0.054624252 , 0
0.156107783 , -0.030411629, -9.77113    , -0.0015551392, 0.000848381664, 0.00056963216, 0.108736686 , 0.163745448 , 0.709990561 , 0.00100052566, 0.0150029548, -0.937167645, 3.26        , 3           , 50          , 0           , 0
0.157220691 , -0.02030115 , -9.789522   , 0.002430321 , 0.001094506 , 0.0005977932, 0.108467035 , 0.163812861 , 0.7101254   , 0.00102491921, 0.0150138978, -0.9371617  , 3.27        , 3           , 11          , 0.0100889988, 0.0100889634
0.128380835 , -0.04011842 , -9.810794   , 0.00214862684, 0.00166543492, 0.00117675483, 0.108332209 , 0.163812861 , 0.7103276   , 0.00104658271, 0.0150305377, -0.937149763, 3.28        , 3           , 12          , 0.054624252 , 0
0.133250087 , -0.0273804478, -9.783049   , 0.002704861 , 0.000231878992, 0.00058698596, 0.108332209 , 0.163880274 , 0.7102602   , 0.00107371993, 0.01503285  , -0.937144041, 3.29        , 3           , 50          , 0           , 0
0.143239737 , -0.007306585, -9.770531   , 0.00334783946, 0.005393174 , -0.0007652253, 0.108399622 , 0.163745448 , 0.7101254   , 0.00111840037, 0.0150775192, -0.937151432, 3.3         , 3           , 11          , 0.004324987 , 0.00432498753
0.1448814   , -0.0431769751, -9.791254   , 0.0007221452, 0.0005345369, 0.0005792241, 0.108332209 , 0.163745448 , 0.709990561 , 0.00112570927, 0.0150828576, -0.9371457  , 3.31        , 3           , 12          , 0.0556421876, 0
0.149004087 , -0.0377626941, -9.794767   , -0.00245563965, -0.00401382474, -7.87278041E-05, 0.108332209 , 0.163745448 , 0.709990561 , 0.00110113947, 0.0150427213, -0.9371464  , 3.32        , 3           , 50          , 0           , 0
0.15600194  , -0.0183067359, -9.806223   , -0.0035373  , 0.000869579439, -1.46313105E-05, 0.108332209 , 0.163812861 , 0.710058    , 0.001065764 , 0.0150514171, -0.937146664, 3.33        , 3           , 11          , 0.004324987 , 0.00432498753
0.152047157 , 0.00457957  , -9.792444   , 0.0007042723, -0.0011823785, 0.000268018863, 0.108332209 , 0.163947687 , 0.7101254   , 0.0010728474, 0.0150395893, -0.937144041, 3.34        , 3           , 12          , 0.0556421876, 0
0.154389083 , -0.0209220927, -9.771487   , -0.00270789978, -0.00171062315, -0.000905544963, 0.108467035 , 0.163812861 , 0.7101928   , 0.00104563218, 0.0150224939, -0.9371531  , 3.35        , 3           , 50          , 0           , 0
0.133640528 , -0.0319273248, -9.779936   , 0.002166626 , 0.00196066312, -0.0002498333, 0.108467035 , 0.163745448 , 0.709990561 , 0.00106726168, 0.0150421029, -0.9371555  , 3.36        , 3           , 11          , 0.004324987 , 0.00432498753
0.136481315 , -0.0130418157, -9.776981   , 0.002175972 , 0.00310186087, 0.000339188846, 0.108467035 , 0.163745448 , 0.709990561 , 0.0010890729, 0.0150731178, -0.937152147, 3.37        , 3           , 12          , 0.0556421876, 0
0.141338572 , -0.0252497215, -9.777981   , -0.00124968844, 0.00255569932, 0.001168773 , 0.108467035 , 0.163880274 , 0.709990561 , 0.00107675337, 0.0150986612, -0.937140465, 3.38        , 3           , 50          , 0           , 0
0.144371778 , -0.0312453937, -9.76808548 , 0.004202002 , 0.003974645 , -0.00335642882, 0.108399622 , 0.163812861 , 0.7101254   , 0.00111826672, 0.0151384445, -0.9371741  , 3.39        , 3           , 11          , 0.004324987 , 0.00432498753
0.166234434 , -0.0208111  , -9.791252   , -0.00448494544, -0.006307327, 0.00216524536, 0.108399622 , 0.163812861 , 0.7103276   , 0.00108125748, 0.015074051 , -0.9371524  , 3.4         , 3           , 12          , 0.05666946  , 0
0.155853286 , -0.0278822146, -9.796397   , -0.00502027152, -0.0037172162, 0.00162705244, 0.108332209 , 0.163880274 , 0.709990561 , 0.00103129935, 0.01503686  , -0.937135935, 3.41        , 3           , 50          , 0           , 0
0.126013368 , -0.0282582548, -9.779511   , -0.00156794582, -3.148199E-05, 0.002274197 , 0.108332209 , 0.163880274 , 0.709990561 , 0.0010159621, 0.01503652  , -0.9371133  , 3.42        , 3           , 11          , 0.00449983  , 0.004499843
0.151467681 , -0.0138649326, -9.796276   , 0.000720508455, 0.0002447778, 0.0008612578, 0.108332209 , 0.163880274 , 0.709990561 , 0.001023298 , 0.0150389588, -0.937104464, 3.43        , 3           , 12          , 0.05666946  , 0
0.1400601   , -0.00465113856, -9.763301   , -0.0001979915, -0.00491265627, 0.001639486 , 0.1082648   , 0.163745448 , 0.710058    , 0.00102156308, 0.0149898147, -0.937088251, 3.44        , 3           , 50          , 0           , 0
0.144969448 , -0.0225659534, -9.77882    , 0.00244861  , 0.00110253459, -0.0008329254, 0.108399622 , 0.163678035 , 0.709990561 , 0.00104592415, 0.0150008518, -0.937096834, 3.45        , 3           , 11          , 0.00449983  , 0.004499843
0.125666171 , -0.0289867837, -9.795332   , -0.0006810487, 0.0005688407, -0.00171861157, 0.108534448 , 0.163745448 , 0.7102602   , 0.00103885576, 0.0150065562, -0.937114   , 3.46        , 3           , 12          , 0.05666946  , 0
0.141791627 , -0.0185723025, -9.770222   , 0.00447213557, 0.004229559 , -0.000202694675, 0.108399622 , 0.163610622 , 0.7097883   , 0.0010835476, 0.015048855 , -0.9371159  , 3.47        , 3           , 50          , 0           , 0
0.1557979   , -0.019954633, -9.77869    , 0.00388208218, 0.00223184354, -0.000521500246, 0.108399622 , 0.163610622 , 0.7097883   , 0.00112229132, 0.0150711788, -0.9371209  , 3.48        , 3           , 11          , 0.00449983  , 0.004499843
0.138140753 , -0.03820177 , -9.787193   , -0.0004186242, -2.76833871E-05, 0.0005640667, 0.108399622 , 0.163812861 , 0.710058    , 0.00111818966, 0.0150708957, -0.937115431, 3.49        , 3           , 12          , 0.05666946  , 0
0.1502927   , -0.04632712 , -9.796209   , 0.00155370892, -0.00348436274, -0.000332332216, 0.108467035 , 0.163947687 , 0.7101928   , 0.0011640396, 0.0150256157, -0.93711853 , 3.5         , 3           , 50          , 0           , 0
0.147717685 , -0.02296297 , -9.786027   , 0.00308068935, 0.0051062433, -0.00105705136, 0.108467035 , 0.163745448 , 0.7101928   , 0.00119468884, 0.0150766941, -0.937129   , 3.51        , 3           , 11          , 0.004705986 , 0.004705999
0.154549271 , -0.0144448923, -9.786769   , 0.0001853932, 0.00252777152, 0.002036057 , 0.108399622 , 0.163745448 , 0.7101254   , 0.00119685  , 0.015101946 , -0.937108755, 3.52        , 3           , 12          , 0.0577053428, 0
0.160036385 , -0.0174789187, -9.802563   , -0.0015685308, -0.00287941867, -0.000342832471, 0.108399622 , 0.163745448 , 0.7101254   , 0.00118111144, 0.0150731551, -0.9371121  , 3.53        , 3           , 50          , 0           , 0
0.152019888 , -0.00614539161, -9.801601   , -0.00212146481, -0.00115928333, 0.000251109974, 0.108332209 , 0.163678035 , 0.7101254   , 0.00115993491, 0.0150615573, -0.9371097  , 3.54        , 3           , 11          , 0.004705986 , 0.004705999
0.130786613 , -0.0100773573, -9.796423   , -0.00378713245, 0.00258102384, 0.000581249536, 0.108399622 , 0.163812861 , 0.7101254   , 0.00112215278, 0.0150873614, -0.9371035  , 3.55        , 3           , 12          , 0.0577053428, 0
0.135623574 , -0.02098092 , -9.792891   , -0.00181970652, 0.0008362025, 0.00114053  , 0.108332209 , 0.163880274 , 0.7101254   , 0.00110412773, 0.0150957126, -0.9370923  , 3.56        , 3           , 50          , 0           , 0
0.142677113 , -0.03418283 , -9.787106   , -0.00153856585, 0.000546733732, 0.0011380699, 0.1082648   , 0.163812861 , 0.709990561 , 0.00108891353, 0.0151011646, -0.93708086 , 3.57        , 3           , 11          , 0.004705986 , 0.004705999
0.145455927 , -0.0145019758, -9.774205   , -0.00380637846, 0.0005800888, -2.029322E-05, 0.108332209 , 0.163745448 , 0.709855735 , 0.00105084665, 0.0151069649, -0.9370811  , 3.58        , 3           , 12          , 0.0577053428, 0
0.1503332   , -0.0351367667, -9.788402   , 0.006191921 , 0.004204481 , 9.3931536E-05, 0.108332209 , 0.163745448 , 0.709855735 , 0.00111278042, 0.0151490076, -0.937080145, 3.59        , 3           , 50          , 0           , 0
0.1215187   , -0.0317682326, -9.785013   , -0.002088447, 0.000556509 , 0.0008487288, 0.108332209 , 0.1640151   , 0.710058    , 0.00112576922, 0.0151573969, -0.9370711  , 3.6         , 3           , 11          , 0.004915345 , 0.00491536735
0.156435311 , -0.009878935, -9.793474   , -0.000366680149, 0.00168804755, 0.000589539239, 0.108197384 , 0.163745448 , 0.7101254   , 0.00112219155, 0.0151742706, -0.9370651  , 3.61        , 3           , 12          , 0.0587491766, 0
0.181485415 , -0.0121295135, -9.77204    , -0.00177898072, 0.002562233 , 0.0005934929, 0.108467035 , 0.163745448 , 0.710058    , 0.00110449188, 0.0151998866, -0.937059164, 3.62        , 3           , 50          , 0           , 0
0.156522378 , -0.0380374044, -9.775279   , -0.00181253452, -2.20984221E-05, 0.00112825911, 0.108332209 , 0.163745448 , 0.709923148 , 0.00108653819, 0.015199651 , -0.9370477  , 3.63        , 3           , 11          , 0.004915345 , 0.00491536735
0.142270446 , -0.0461307541, -9.808025   , -0.004127099, -0.0037193913, 0.000487967976, 0.108332209 , 0.163745448 , 0.709923148 , 0.00104533962, 0.0151624531, -0.937042952, 3.64        , 3           , 12          , 0.0587491766, 0
0.143694878 , -0.0291145612, -9.797878   , -0.00405970355, 0.000320871477, -0.00260140677, 0.108332209 , 0.163880274 , 0.709990561 , 0.00100434769, 0.0151656922, -0.9370692  , 3.65        , 3           , 50          , 0           , 0
0.13459222  , -0.0198381133, -9.77256    , -0.00147225952, 0.003999918 , -0.000242418086, 0.108062558 , 0.163812861 , 0.7101928   , 0.0009895889, 0.0152056916, -0.937071562, 3.66        , 3           , 11          , 0.004915345 , 0.00491536735
0.154824108 , -0.0320776775, -9.782905   , 0.000793625368, 0.003964003 , 0.001202109 , 0.108399622 , 0.163745448 , 0.7101254   , 0.0009977092, 0.0152453212, -0.937059164, 3.67        , 3           , 12          , 0.0587491766, 0
0.14943409  , -0.0248887315, -9.776096   , 0.000509185367, 0.0039668926, 0.00120039564, 0.1082648   , 0.163745448 , 0.709990561 , 0.001002985 , 0.0152849779, -0.937047243, 3.68        , 3           , 50          , 0           , 0
0.142032608 , -0.0106359478, -9.795422   , 0.00247745425, 0.000812211365, -0.0008366674, 0.1082648   , 0.163745448 , 0.709990561 , 0.00102763239, 0.0152931092, -0.9370556  , 3.69        , 3           , 11          , 0.004915345 , 0.00491536735
0.147307336 , -0.01221475 , -9.778679   , -0.004082674, -1.46199018E-05, 0.0005420761, 0.108399622 , 0.163812861 , 0.709923148 , 0.0009898769, 0.0152521487, -0.937051058, 3.7         , 3           , 12          , 0.0598003268, 0
0.1435097   , -0.0285079163, -9.77032    , -0.00289594475, 0.002578629 , -0.00227514864, 0.108129971 , 0.163678035 , 0.7102602   , 0.000960570236, 0.0152779575, -0.9370737  , 3.71        , 3           , 50          , 0           , 0
0.124275431 , -0.0374938473, -9.79996    , 0.00158825249, -0.00178932771, 0.000265138777, 0.108332209 , 0.163745448 , 0.7102602   , 0.0009764934, 0.01526006  , -0.9370711  , 3.72        , 3           , 11          , 0.005134036 , 0.00513405353
0.116814584 , -0.0113133937, -9.796114   , 0.002166213 , -0.00150084926, -0.000585752947, 0.108534448 , 0.163812861 , 0.710058    , 0.000998066 , 0.0152450576, -0.937077045, 3.73        , 3           , 12          , 0.0598003268, 0
0.140402988 , -0.01861862 , -9.764813   , -0.001845093, -0.00432106666, -0.00122380385, 0.1082648   , 0.163610622 , 0.710058    , 0.0009794283, 0.01520186  , -0.9370892  , 3.74        , 3           , 50          , 0           , 0
0.149849042 , -0.0391909853, -9.788453   , -0.00352203171, -0.001724517, -0.00119652238, 0.1082648   , 0.163610622 , 0.710058    , 0.000944024941, 0.0151846241, -0.9371011  , 3.75        , 3           , 11          , 0.005134036 , 0.00513405353
0.14516893  , -0.0311631113, -9.818214   , 0.0022025127, 0.00165152142, -0.000539844041, 0.108467035 , 0.163745448 , 0.710058    , 0.00096596923, 0.0152011449, -0.9371066  , 3.76        , 3           , 12          , 0.0598003268, 0
0.161303416 , -0.0118321348, -9.783514   , 0.00243964558, -0.001800556, 0.000556442945, 0.1082648   , 0.163812861 , 0.7101254   , 0.0009904492, 0.0151831331, -0.9371011  , 3.77        , 3           , 50          , 0           , 0
0.143503755 , -0.023620531, -9.763489   , -0.000635552045, 0.00140663621, -0.00199197163, 0.108332209 , 0.163812861 , 0.710395038 , 0.0009837911, 0.01519722  , -0.937121153, 3.78        , 3           , 11          , 0.005134036 , 0.00513405353
0.127164871 , -0.006070094, -9.788731   , -0.004100836, -0.000603135268, 0.002250713 , 0.108534448 , 0.163678035 , 0.7101254   , 0.000943124236, 0.01519117  , -0.937098742, 3.79        , 3           , 12          , 0.0598003268, 0
0.12707606  , -0.03647521 , -9.813023   , -0.000121186713, -0.00263622869, -0.00118867948, 0.108534448 , 0.163678035 , 0.7101254   , 0.0009367236, 0.0151306959, -0.9371114  , 3.8         , 3           , 50          , 0           , 0
0.148036763 , -0.0405280329, -9.788485   , 0.004395191 , -0.004703874, 0.0005265042, 0.1082648   , 0.163745448 , 0.7101254   , 0.0009807553, 0.015083652 , -0.937106133, 3.81        , 3           , 11          , 0.005261938 , 0.00526194042
0.14017728  , -0.0227221139, -9.802354   , -0.000937387929, 0.00109029072, -0.000281071669, 0.108399622 , 0.163880274 , 0.7101254   , 0.0009713391, 0.0150945587, -0.937109   , 3.82        , 3           , 12          , 0.0608582124, 0
0.141534284 , -0.034297768, -9.817382   , 0.00245746481, -0.00037983997, 4.785419E-06, 0.108332209 , 0.163880274 , 0.7101928   , 0.000995914 , 0.0150907608, -0.937109   , 3.83        , 3           , 50          , 0           , 0
0.148581    , -0.02480831 , -9.782878   , -0.00214940915, -0.004358512, 0.00134976173, 0.108399622 , 0.163678035 , 0.7101928   , 0.0009746232, 0.0150471618, -0.9370954  , 3.84        , 3           , 11          , 0.005261938 , 0.00526194042
0.168819964 , -0.0272440873, -9.782269   , -0.00464775367, -0.000299920852, -0.0008965414, 0.108197384 , 0.163745448 , 0.7101254   , 0.0009280103, 0.01504417  , -0.937104464, 3.85        , 3           , 12          , 0.0608582124, 0
0.1524637   , -0.0473598279, -9.785813   , 0.00393272936, 0.00503791869, 0.00152346969, 0.108197384 , 0.163745448 , 0.7101254   , 0.000967567845, 0.0150945345, -0.9370892  , 3.86        , 3           , 50          , 0           , 0
0.128245592 , -0.0398804471, -9.790917   , 0.00305247959, 0.0010600742, -0.00140174 , 0.108534448 , 0.163812861 , 0.709990561 , 0.0009978812, 0.0151051534, -0.9371033  , 3.87        , 3           , 11          , 0.005261938 , 0.00526194042
0.158221915 , -0.03153144 , -9.752604   , 0.0007692517, 0.001072953 , -0.0002707913, 0.108399622 , 0.163678035 , 0.7101928   , 0.00100553269, 0.0151158832, -0.9371059  , 3.88        , 3           , 12          , 0.0608582124, 0
0.170519114 , -0.02563518 , -9.765522   , 0.0015389648, -0.00553727429, 0.000783013762, 0.108332209 , 0.163745448 , 0.710058    , 0.00102104072, 0.0150605021, -0.937098   , 3.89        , 3           , 50          , 0           , 0
0.155493423 , -0.00325750746, -9.779404   , -0.000897028658, 0.00424873736, -0.000235048879, 0.108601861 , 0.163745448 , 0.710058    , 0.0010201392, 0.0151151158, -0.937099934, 3.9         , 3           , 11          , 0.00549409259, 0.00549409725
0.16112341  , -0.0259069912, -9.774644   , 0.00336215179, 0.00306675467, -0.00108453422, 0.108601861 , 0.163745448 , 0.710058    , 0.00105359731, 0.0151457917, -0.937110662, 3.91        , 3           , 12          , 0.0619222969, 0
0.144032985 , -0.0235034861, -9.774775   , 0.00075213844, -0.000924466, -0.00058605615, 0.108467035 , 0.163947687 , 0.7097883   , 0.00106103055, 0.015136552 , -0.9371166  , 3.92        , 3           , 50          , 0           , 0
0.138373077 , -0.008912249, -9.785047   , 0.00102171674, -0.0012292919, 0.00112846773, 0.108467035 , 0.163812861 , 0.710058    , 0.00107141875, 0.0151242474, -0.9371054  , 3.93        , 3           , 11          , 0.00549409259, 0.00549409725
0.153670549 , -0.007726686, -9.78173    , -0.000386175176, -0.000631447241, -1.64081357E-05, 0.108332209 , 0.163812861 , 0.7102602   , 0.001067554 , 0.015117934 , -0.9371054  , 3.94        , 3           , 12          , 0.0619222969, 0
0.124229439 , -0.0273262411, -9.780872   , 0.0004844634, 0.00135825924, 0.000876438746, 0.108601861 , 0.163678035 , 0.709990561 , 0.00107253075, 0.0151315061, -0.9370966  , 3.95        , 3           , 50          , 0           , 0
0.144003823 , -0.02176761 , -9.768431   , 0.00133833743, 0.00106813025, 0.000305077439, 0.108601861 , 0.163678035 , 0.709990561 , 0.00108596066, 0.0151421847, -0.9370935  , 3.96        , 3           , 11          , 0.00549409259, 0.00549409725
0.158229709 , -0.0170268472, -9.801219   , 0.00275092619, -0.0009344552, -0.00171871833, 0.108332209 , 0.163678035 , 0.709990561 , 0.00111321046, 0.0151328593, -0.937110662, 3.97        , 3           , 12          , 0.0619222969, 0
0.145957291 , -0.02555595 , -9.795107   , 0.0005191249, 0.00337967044, -0.0008113305, 0.108601861 , 0.163947687 , 0.7101254   , 0.001118279 , 0.0151666654, -0.937118769, 3.98        , 3           , 50          , 0           , 0
0.138539225 , -0.0391752571, -9.780877   , -0.002377255, -0.0006112199, -2.8401897E-05, 0.108467035 , 0.163812861 , 0.7101928   , 0.00109450123, 0.0151605532, -0.937119246, 3.99        , 3           , 11          , 0.00549409259, 0.00549409725
0.141414344 , -0.0367071331, -9.802955   , -0.0046679033, -0.00401933864, -0.0015228485, 0.108467035 , 0.163812861 , 0.7102602   , 0.00107772672, 0.01511005  , -0.937134266, 4           , 3           , 12          , 0.0629920661, 0
0.139135912 , 0.00758741  , -9.810144   , -0.002667212, -0.00205142819, 0.0005215079, 0.108669274 , 0.163745448 , 0.709923148 , 0.00105113327, 0.0150895314, -0.937129   , 4.01        , 3           , 50          , 0           , 0
0.140031844 , -0.0207192115, -9.778845   , 0.0004660119, -0.00038421544, 0.00285470858, 0.108669274 , 0.163745448 , 0.709923148 , 0.00105622492, 0.0150856571, -0.9371004  , 4.02        , 3           , 11          , 0.00576455425, 0.005764574
0.14673771  , -0.02574767 , -9.777937   , 0.000237695349, 0.0025151798, -0.000539237633, 0.108467035 , 0.163745448 , 0.710058    , 0.00105852121, 0.0151108159, -0.9371059  , 4.03        , 3           , 12          , 0.0629920661, 0
0.1585656   , -0.0176510327, -9.785414   , 0.00254840683, 0.006207354 , 0.000673381553, 0.108601861 , 0.163812861 , 0.709990561 , 0.00108410756, 0.0151728811, -0.937099   , 4.04        , 3           , 50          , 0           , 0
0.1609858   , 0.0021740552, -9.785614   , -0.000658813049, -7.328023E-05, 0.00142120838, 0.108534448 , 0.163947687 , 0.7101928   , 0.00107773615, 0.0151721323, -0.9370849  , 4.05        , 3           , 11          , 0.00576455425, 0.005764574
0.143638387 , -0.0243046079, -9.783821   , -0.00434964476, -0.0005909567, -0.0006125608, 0.108467035 , 0.163745448 , 0.709990561 , 0.00103414664, 0.0151662268, -0.9370909  , 4.06        , 3           , 12          , 0.0629920661, 0
0.161561966 , -0.032160677, -9.780585   , 0.00390598015, 0.000745342346, 0.0008888154, 0.108467035 , 0.163745448 , 0.709990561 , 0.001073342 , 0.0151736727, -0.937082052, 4.07        , 3           , 50          , 0           , 0
0.155702874 , -0.0272223242, -9.773807   , -8.359825E-05, -0.000352841, -1.035833E-05, 0.108332209 , 0.163745448 , 0.7097209   , 0.00107250479, 0.015170143 , -0.937082052, 4.08        , 3           , 11          , 0.00576455425, 0.005764574
0.146795586 , -0.0203174334, -9.779681   , 0.00278472062, 0.00218979665, 0.0009028295, 0.108399622 , 0.163745448 , 0.7102602   , 0.00110048917, 0.01519203  , -0.937073   , 4.09        , 3           , 12          , 0.0629920661, 0
0.141885862 , -0.0326722637, -9.801098   , 0.003384984 , 0.00447571836, 0.000939701742, 0.1082648   , 0.163678035 , 0.7102602   , 0.00114483247, 0.01523484  , -0.937063456, 4.1         , 3           , 50          , 0           , 0
0.155531675 , -0.009875938, -9.793031   , 0.000196744586, -0.0006509211, 0.0008457309, 0.108534448 , 0.163745448 , 0.7101254   , 0.001146928 , 0.0152283218, -0.9370551  , 4.11        , 3           , 11          , 0.006027711 , 0.006027731
0.147184253 , -0.0146289524, -9.763803   , 0.00226868526, 0.005362371 , -0.0007716153, 0.108669274 , 0.163610622 , 0.709855735 , 0.001169499 , 0.0152819538, -0.93706274 , 4.12        , 3           , 12          , 0.06406705  , 0
0.140580177 , -0.0112250913, -9.781439   , 0.00391920144, 0.00244852714, 0.002630898 , 0.108669274 , 0.163610622 , 0.709855735 , 0.00120909326, 0.0153064057, -0.9370363  , 4.13        , 3           , 50          , 0           , 0
0.130619287 , -0.0125593031, -9.775224   , -3.18611274E-05, 0.00337687414, -0.0005283732, 0.108601861 , 0.163812861 , 0.710058    , 0.00120869477, 0.01534018  , -0.9370415  , 4.14        , 3           , 11          , 0.006027711 , 0.006027731
0.150554568 , -0.0138764475, -9.794477   , -0.00153326057, -0.00348657719, -0.000637104968, 0.108669274 , 0.163812861 , 0.7101928   , 0.00119326392, 0.0153053235, -0.937047958, 4.15        , 3           , 12          , 0.06406705  , 0
0.142182082 , -0.0050653927, -9.810263   , -0.004918479, -0.002003649, -0.002353782, 0.108467035 , 0.163745448 , 0.710058    , 0.00114371837, 0.0152853141, -0.937071562, 4.16        , 3           , 50          , 0           , 0
0.129439831 , -0.02563923 , -9.816038   , -0.00380632351, -0.00176702091, 0.00194970507, 0.108736686 , 0.163678035 , 0.709855735 , 0.00110595266, 0.0152676217, -0.937052   , 4.17        , 3           , 11          , 0.006027711 , 0.006027731
0.142854914 , -0.0263432227, -9.803274   , 0.0008154125, 0.002513587 , -0.00110808166, 0.108736686 , 0.163678035 , 0.709855735 , 0.00111393782, 0.0152927684, -0.937063   , 4.18        , 3           , 12          , 0.06406705  , 0
0.152514338 , -0.024135327, -9.764767   , -0.00120510184, 0.0008015418, 0.0002857035, 0.108399622 , 0.163678035 , 0.709990561 , 0.00110193039, 0.0153007805, -0.9370601  , 4.19        , 3           , 50          , 0           , 0
0.1616022   , -0.0280928519, -9.781442   , 0.0016409168, 0.00105249486, 0.00116556941, 0.108399622 , 0.163812861 , 0.7101254   , 0.00112725084, 0.0153133115, -0.937048435, 4.2         , 3           , 11          , 0.00629581651, 0.00629583374
0.134039044 , -0.0582733676, -9.804627   , -0.000913527445, 0.000239240238, -0.00115168386, 0.108669274 , 0.163678035 , 0.710058    , 0.00111793866, 0.01531572  , -0.9370599  , 4.21        , 3           , 12          , 0.06514681  , 0
0.136630982 , -0.0234958157, -9.81143    , -0.00259928359, 0.00338847283, 0.00117325666, 0.108534448 , 0.163745448 , 0.710058    , 0.001092127 , 0.0153495921, -0.9370482  , 4.22        , 3           , 50          , 0           , 0
0.154589161 , -0.00370057276, -9.779417   , 0.0008068426, 0.00306209922, 0.001761972 , 0.108534448 , 0.163745448 , 0.710058    , 0.00110046752, 0.0153801935, -0.937030554, 4.23        , 3           , 11          , 0.00629581651, 0.00629583374
0.135010988 , -0.0221159142, -9.770775   , 0.00223015063, 0.00248473044, 0.000617535843, 0.108601861 , 0.163812861 , 0.709990561 , 0.00112286431, 0.0154050346, -0.937024355, 4.24        , 3           , 12          , 0.06514681  , 0
0.115567766 , -0.0225192215, -9.759666   , -0.004074548, -0.00202928553, -0.0003454274, 0.108399622 , 0.163745448 , 0.710058    , 0.00108206482, 0.0153847449, -0.9370277  , 4.25        , 3           , 50          , 0           , 0
0.113942407 , -0.009325661, -9.769015   , -0.00204497622, 0.001952357 , 0.000869651965, 0.108399622 , 0.163947687 , 0.7103276   , 0.00106175011, 0.0154042589, -0.9370191  , 4.26        , 3           , 11          , 0.00629581651, 0.00629583374
0.13104637  , -0.029513767, -9.79258    , 0.00165989751, 0.00220649014, 0.000323771528, 0.108534448 , 0.163812861 , 0.710058    , 0.0010783989, 0.01542632  , -0.9370158  , 4.27        , 3           , 12          , 0.06514681  , 0
0.145931244 , -0.03538879 , -9.80335    , -0.00438401476, -0.00403500954, -9.019152E-05, 0.108736686 , 0.163745448 , 0.709990561 , 0.001034545 , 0.0153859723, -0.9370167  , 4.28        , 3           , 50          , 0           , 0
0.1410511   , -0.00763628772, -9.780039   , -0.00377059658, 0.0008156995, 0.00170116953, 0.108736686 , 0.163745448 , 0.709990561 , 0.0009971001, 0.0153941121, -0.9369998  , 4.29        , 3           , 11          , 0.00629581651, 0.00629583374
0.125369951 , -0.0131672993, -9.798315   , 0.0007594121, -0.00293100113, -0.00175973168, 0.108332209 , 0.163678035 , 0.709923148 , 0.00100167049, 0.0153524438, -0.9370177  , 4.3         , 3           , 12          , 0.06623093  , 0
0.141344726 , -0.03458809 , -9.790284   , -0.00151365018, -0.00121144485, 0.0008270785, 0.108129971 , 0.163880274 , 0.7103276   , 0.0009866605, 0.0153403245, -0.9370096  , 4.31        , 3           , 50          , 0           , 0
0.1153269   , -0.0146273263, -9.780356   , 0.0002309513, 0.00107920775, -0.0008462369, 0.108332209 , 0.163880274 , 0.7101928   , 0.0009888394, 0.0153511222, -0.937018156, 4.32        , 3           , 11          , 0.00658221357, 0.006582224
0.143223122 , -0.02869845 , -9.794265   , 0.000220497488, 0.0005009305, -0.000282256049, 0.108467035 , 0.163745448 , 0.710058    , 0.0009910014, 0.0153561346, -0.9370208  , 4.33        , 3           , 12          , 0.06623093  , 0
0.16056639  , -0.0509941019, -9.789845   , 0.00136623  , 0.00134655  , 2.32821476E-05, 0.108467035 , 0.163745448 , 0.710058    , 0.00100466853, 0.0153696015, -0.93702054 , 4.34        , 3           , 50          , 0           , 0
0.120578811 , -0.0398331434, -9.789181   , -0.0017551909, 0.00251697376, 0.000879621 , 0.108399622 , 0.163812861 , 0.709923148 , 0.0009872525, 0.0153947631, -0.9370117  , 4.35        , 3           , 11          , 0.00658221357, 0.006582224
0.13076511  , -0.009665163, -9.792804   , -0.00317820976, 0.00196594233, 4.214904E-06, 0.108601861 , 0.163745448 , 0.709990561 , 0.0009554713, 0.0154144214, -0.9370117  , 4.36        , 3           , 12          , 0.06623093  , 0
0.14420104  , -0.02280097 , -9.798253   , 0.00736367749, 0.00272900169, -0.001064525, 0.108332209 , 0.163947687 , 0.7103276   , 0.00102894381, 0.01544172  , -0.937022448, 4.37        , 3           , 50          , 0           , 0
0.130491823 , -0.0412430763, -9.791816   , 0.00331660244, -0.00154970714, 0.00113819656, 0.108399622 , 0.163678035 , 0.7102602   , 0.00106228481, 0.0154262111, -0.937011   , 4.38        , 3           , 11          , 0.00658221357, 0.006582224
0.14080964  , -0.043616794, -9.789039   , 0.00280136475, 0.00163147855, -0.00139479723, 0.108467035 , 0.163745448 , 0.7097883   , 0.00109008315, 0.0154425409, -0.937024832, 4.39        , 3           , 12          , 0.06623093  , 0
0.147677943 , -0.024359243, -9.781978   , -0.00312801055, 0.00111895346, -0.00286946842, 0.108467035 , 0.163745448 , 0.7097883   , 0.001150445 , 0.0154247871, -0.937052965, 4.4         , 3           , 50          , 0           , 0
0.152017355 , -0.0491305143, -9.78854752 , 0.003672126 , 0.000732309069, 0.0006014475, 0.108399622 , 0.163745448 , 0.7102602   , 0.00118725945, 0.0154321017, -0.937047   , 4.41        , 3           , 11          , 0.0068509914, 0.00685099047
0.135903239 , -0.0466187224, -9.799507   , 0.00107449316, -0.00267807464, 0.00024978054, 0.108399622 , 0.163812861 , 0.7101928   , 0.001198042 , 0.0154053215, -0.9370444  , 4.42        , 3           , 12          , 0.06731901  , 0
0.149982542 , -0.0176200941, -9.781426   , -0.00370296021, 0.00224545412, 5.438873E-06, 0.108534448 , 0.163745448 , 0.7102602   , 0.0011610135, 0.0154277729, -0.9370444  , 4.43        , 3           , 50          , 0           , 0
0.133465737 , -0.00568375364, -9.7877655  , -0.00141973211, 0.002232575 , -0.00112551008, 0.108467035 , 0.163812861 , 0.710058    , 0.00114664226, 0.0154501116, -0.9370558  , 4.44        , 3           , 11          , 0.0068509914, 0.00685099047
0.131065145 , -0.0134601984, -9.7756815  , -0.00115564594, 0.000791670755, -0.0005723363, 0.108467035 , 0.163812861 , 0.710058    , 0.00113499817, 0.0154580344, -0.937061548, 4.45        , 3           , 12          , 0.06731901  , 0
0.152317673 , -0.0277492348, -9.805914   , -0.00141835911, 0.00251659472, -0.0008351724, 0.108467035 , 0.163812861 , 0.709923148 , 0.00112068444, 0.0154832127, -0.937069654, 4.46        , 3           , 50          , 0           , 0
0.1617147   , -0.0288107935, -9.798613   , -0.00284715858, 0.00195788452, -0.0008520865, 0.108467035 , 0.163812861 , 0.710058    , 0.00109208073, 0.0155027974, -0.937078238, 4.47        , 3           , 11          , 0.0068509914, 0.00685099047
0.13791275  , -0.009368915, -9.784153   , -3.10857431E-05, -0.00036620436, -0.000582176843, 0.108534448 , 0.163745448 , 0.7101254   , 0.00109167886, 0.0154991411, -0.93708396 , 4.48        , 3           , 12          , 0.06731901  , 0
0.136452392 , -0.0157569349, -9.77611    , 0.00335661368, -0.0021280332, 0.000271834753, 0.1082648   , 0.163880274 , 0.709990561 , 0.00112528668, 0.0154778622, -0.937081337, 4.49        , 3           , 50          , 0           , 0
0.176369488 , -0.0207939278, -9.759088   , 0.001416163 , 0.00189903914, 3.20426043E-05, 0.1082648   , 0.163880274 , 0.709990561 , 0.00114526832, 0.0154786706, -0.9370816  , 4.5         , 3           , 11          , 0.00706843  , 0.007068431
0.156726673 , -0.0292669721, -9.794147   , 0.00629150774, 0.00613580551, 0.00155459356, 0.108467035 , 0.163745448 , 0.7101254   , 0.00120842585, 0.0155400122, -0.93706584 , 4.51        , 3           , 12          , 0.06841069  , 0
0.108557142 , -0.03328881 , -9.800961   , 0.0005760431, 0.00305402465, 4.3596563E-05, 0.108197384 , 0.163880274 , 0.7101254   , 0.00121419271, 0.0155705493, -0.937065363, 4.52        , 3           , 50          , 0           , 0
0.124571078 , 0.00124049187, -9.795445   , -5.63552021E-05, -0.00295068 , -0.000905966444, 0.108467035 , 0.163880274 , 0.7102602   , 0.00121348782, 0.0155410534, -0.9370744  , 4.53        , 3           , 11          , 0.00706843  , 0.007068431
0.150689572 , -0.009663446, -9.808882   , 0.003414951 , 0.00188904977, -0.00110061979, 0.108197384 , 0.163812861 , 0.7101928   , 0.00124746549, 0.0155599574, -0.9370854  , 4.54        , 3           , 12          , 0.06841069  , 0
0.128484353 , -0.0128067434, -9.79241    , -0.000276722654, 0.00278123352, -0.0005380452, 0.108467035 , 0.163812861 , 0.709990561 , 0.001244616 , 0.0155877769, -0.9370909  , 4.55        , 3           , 50          , 0           , 0
0.141708225 , -0.0311637968, -9.773529   , 0.00110065029, -0.000961303071, -0.000297570135, 0.108467035 , 0.163812861 , 0.709990561 , 0.00125557638, 0.0155781666, -0.937093735, 4.56        , 3           , 11          , 0.00706843  , 0.007068431
0.154318392 , -0.0472932532, -9.793473   , -0.00258909632, -6.656014E-05, -2.11596525E-05, 0.108197384 , 0.163745448 , 0.7101254   , 0.001229682 , 0.0155774988, -0.937094   , 4.57        , 3           , 12          , 0.06841069  , 0
0.149126276 , -0.017544508, -9.787758   , 0.000237430853, -0.00181237177, -0.000315230922, 0.1082648   , 0.1640151   , 0.709990561 , 0.001232007 , 0.015559379 , -0.9370971  , 4.58        , 3           , 50          , 0           , 0
0.155431792 , -0.009138644, -9.777666   , -0.0014488555, -0.00035701922, -0.000876971637, 0.108871512 , 0.163745448 , 0.7102602   , 0.00121738168, 0.0155558195, -0.9371059  , 4.59        , 3           , 11          , 0.00706843  , 0.007068431
0.125009745 , -0.02529246 , -9.760967   , 0.00225077826, 0.0007409173, 0.0005928135, 0.108534448 , 0.163745448 , 0.710058    , 0.00123602315, 0.0155679733, -0.937099934, 4.6         , 3           , 12          , 0.0695056245, 0
0.130950913 , -0.01630596 , -9.762616   , 0.00251019141, -0.001270586, 0.0008514762, 0.108534448 , 0.163745448 , 0.710058    , 0.001261257 , 0.015555257 , -0.937091351, 4.61        , 3           , 50          , 0           , 0
0.148256317 , -0.00903237052, -9.781795   , 0.000879185332, 0.004491133 , -0.000506153563, 0.108399622 , 0.163745448 , 0.709923148 , 0.001269971 , 0.0156001737, -0.937096357, 4.62        , 3           , 11          , 0.00734051736, 0.00734051038
0.185635254 , -0.01913734 , -9.794668   , 0.000261625275, 0.000763704069, 0.000294655736, 0.108467035 , 0.163745448 , 0.7101254   , 0.00127263309, 0.0156078078, -0.9370935  , 4.63        , 3           , 12          , 0.0695056245, 0
0.156503171 , -0.0451889746, -9.781234   , 8.258154E-06, 0.00362982554, 0.0006208417, 0.108332209 , 0.163880274 , 0.7101928   , 0.00127281249, 0.0156440977, -0.9370873  , 4.64        , 3           , 50          , 0           , 0
0.113924935 , -0.0382861421, -9.801871   , -0.00519856857, -0.003206299, 0.00163449184, 0.108467035 , 0.163745448 , 0.7101928   , 0.00122108089, 0.0156120146, -0.9370711  , 4.65        , 3           , 11          , 0.00734051736, 0.00734051038
0.14432998  , -0.0295288581, -9.759934   , 0.00220375927, -0.00383667042, -0.0003324551, 0.108467035 , 0.163610622 , 0.710058    , 0.00124306534, 0.0155736506, -0.9370744  , 4.66        , 3           , 12          , 0.0695056245, 0
0.13636072  , -0.0274708066, -9.777149   , 0.003664451 , 0.000150751352, 0.00087919744, 0.108467035 , 0.163610622 , 0.710058    , 0.00127984688, 0.0155751472, -0.9370656  , 4.67        , 3           , 50          , 0           , 0
0.123404041 , -0.0254228376, -9.78944    , -0.00368312723, 0.00339360978, -0.000836426, 0.108197384 , 0.163678035 , 0.709990561 , 0.00124288641, 0.0156090939, -0.937073946, 4.68        , 3           , 11          , 0.00734051736, 0.00734051038
0.158919454 , -0.0235892944, -9.778704   , 0.00399949774, 0.00388362864, -0.000209489313, 0.108467035 , 0.163880274 , 0.7103276   , 0.00128284993, 0.0156479329, -0.937075853, 4.69        , 3           , 12          , 0.0695056245, 0
0.163492277 , -0.01595344 , -9.779476   , 6.361696E-05, 0.007648352 , 0.000393271737, 0.108399622 , 0.163745448 , 0.7102602   , 0.00130143948, 0.0157339517, -0.9370711  , 4.7         , 3           , 50          , 0           , 0
0.137821421 , -0.0277592689, -9.7934     , 0.00199062424, 0.00189910061, 3.563086E-05, 0.108467035 , 0.163880274 , 0.7101928   , 0.00132135162, 0.0157529414, -0.937070847, 4.71        , 3           , 11          , 0.007605146 , 0.0076051373
0.159649864 , -0.00313311256, -9.79427    , 0.00024465  , -0.000675571442, 0.00141860882, 0.108467035 , 0.163880274 , 0.7101928   , 0.001324022 , 0.0157461669, -0.9370568  , 4.72        , 3           , 12          , 0.07060351  , 0
0.1436231   , -0.0216572266, -9.77837    , 0.00425954442, 0.0013028254, 4.0990948E-05, 0.108399622 , 0.163812861 , 0.710058    , 0.00136662391, 0.0157591961, -0.9370563  , 4.73        , 3           , 50          , 0           , 0
0.129880354 , -0.0392604321, -9.766052   , 0.0033660708, -0.00184599543, 0.000562269939, 0.1082648   , 0.163880274 , 0.7103276   , 0.00140037318, 0.015740728 , -0.9370506  , 4.74        , 3           , 11          , 0.007605146 , 0.0076051373
0.131239235 , -0.0379243121, -9.765573   , -0.00204296224, -0.00236169132, 0.000235204323, 0.108332209 , 0.163880274 , 0.7103276   , 0.00137997873, 0.0157171078, -0.9370482  , 4.75        , 3           , 12          , 0.07060351  , 0
0.140066475 , -0.018440498, -9.78107548 , 0.00135986367, -0.0029746443, 0.000819746056, 0.108467035 , 0.163812861 , 0.7101928   , 0.00139370561, 0.01568735  , -0.9370401  , 4.76        , 3           , 50          , 0           , 0
0.1314699   , -0.0259975381, -9.784405   , -0.00315321446, -0.000620419858, -0.000891264062, 0.108467035 , 0.163812861 , 0.7101928   , 0.00136203307, 0.0156811588, -0.93704915 , 4.77        , 3           , 11          , 0.007605146 , 0.0076051373
0.146627754 , -0.0254709665, -9.761674   , 0.0002551038, -9.729418E-05, 0.0008546279, 0.108467035 , 0.163745448 , 0.710058    , 0.001364718 , 0.0156801734, -0.937040567, 4.78        , 3           , 12          , 0.07060351  , 0
0.143141225 , -0.0332752541, -9.787994   , -0.0047847745, 0.00542275934, -0.00167239213, 0.108534448 , 0.163678035 , 0.7101254   , 0.00131660968, 0.0157344248, -0.937057257, 4.79        , 3           , 50          , 0           , 0
0.1463903   , -0.0220252052, -9.788286   , -0.0045778174, -0.002914996, -0.0006468034, 0.108332209 , 0.163880274 , 0.7101254   , 0.00133688108, 0.0156699885, -0.937063456, 4.8         , 3           , 11          , 0.007861713 , 0.007861702
0.144562989 , -0.0135923261, -9.774204   , -0.000853962963, -0.00150686735, -0.00203448161, 0.108467035 , 0.163812861 , 0.709923148 , 0.00132802234, 0.0156549476, -0.93708396 , 4.81        , 3           , 12          , 0.07170404  , 0
0.151036829 , -0.0227339584, -9.809934   , 0.00283272564, 0.000134090136, 0.00259145815, 0.108534448 , 0.163812861 , 0.7101254   , 0.001356755 , 0.0156562552, -0.937058   , 4.82        , 3           , 50          , 0           , 0
0.145083785 , -0.0219457075, -9.79462051 , -0.0014440394, -0.00152924284, 0.00110989565, 0.108534448 , 0.163812861 , 0.7101254   , 0.00134248764, 0.015640948 , -0.937046766, 4.83        , 3           , 11          , 0.007861713 , 0.007861702
0.170251817 , -0.00710057467, -9.769375   , -0.00141130481, 0.00048960885, -0.000291709672, 0.108399622 , 0.163947687 , 0.709990561 , 0.00132832944, 0.0156458486, -0.937049866, 4.84        , 3           , 12          , 0.07170404  , 0
0.153388977 , -0.0065741837, -9.804756   , -0.00339660328, 0.000517514767, -0.00116219546, 0.108332209 , 0.163812861 , 0.7101928   , 0.00129418192, 0.0156510361, -0.9370613  , 4.85        , 3           , 50          , 0           , 0
0.133207515 , -0.03545805 , -9.786756   , -0.00455912529, -0.000632600451, 0.0005312409, 0.108467035 , 0.163880274 , 0.7102602   , 0.00124867354, 0.0156447049, -0.937056065, 4.86        , 3           , 11          , 0.007861713 , 0.007861702
0.1480738   , -0.0110924505, -9.757881   , 0.000317062018, 0.00219430542, -0.0005425521, 0.108736686 , 0.163745448 , 0.7101254   , 0.00125175889, 0.0156666543, -0.937061548, 4.87        , 3           , 12          , 0.07170404  , 0
0.1391202   , -0.0127160484, -9.767468   , -0.00115875667, -0.00294199283, -0.00148473447, 0.108736686 , 0.163745448 , 0.7101254   , 0.00123993855, 0.01563725  , -0.93707633 , 4.88        , 3           , 50          , 0           , 0
0.130549625 , -0.0220138058, -9.776689   , 0.00281677954, -0.00158026558, 0.00199408852, 0.108467035 , 0.163812861 , 0.7101928   , 0.00126841757, 0.0156214247, -0.937056541, 4.89        , 3           , 11          , 0.007861713 , 0.007861702
0.1342489   , -0.02234124 , -9.791112   , -0.00115264137, -0.0021085483, -4.147224E-05, 0.108399622 , 0.163880274 , 0.7101928   , 0.00127227616, 0.0155648226, -0.937057734, 4.9         , 3           , 12          , 0.0728069246, 0
0.130437911 , -0.0188205652, -9.821822   , 0.00171926606, -0.000407731452, -0.00114395318, 0.108332209 , 0.163812861 , 0.7102602   , 0.00128929026, 0.0155607574, -0.9370692  , 4.91        , 3           , 50          , 0           , 0
0.147174075 , -0.0382366329, -9.791177   , -0.00392607972, 0.00309412973, -0.00170046662, 0.108467035 , 0.163812861 , 0.7102602   , 0.001249765 , 0.0155917192, -0.9370861  , 4.92        , 3           , 11          , 0.008050739 , 0.008050723
0.134612128 , -0.0260394979, -9.783021   , 0.00569427153, -0.00073988433, -0.0005518111, 0.108534448 , 0.163812861 , 0.710058    , 0.00130662124, 0.0155843263, -0.9370916  , 4.93        , 3           , 12          , 0.0728069246, 0
0.148519471 , -0.0329149328, -9.783875   , 0.003716392 , 0.000426659564, -0.000547110743, 0.108534448 , 0.163812861 , 0.710058    , 0.00134370092, 0.0155886011, -0.9370971  , 4.94        , 3           , 50          , 0           , 0
0.138138369 , -0.0284124836, -9.774885   , 0.00171018508, -0.000701989164, -0.000289634627, 0.1082648   , 0.163880274 , 0.7101928   , 0.00136075553, 0.0155815883, -0.937099934, 4.95        , 3           , 11          , 0.008050739 , 0.008050723
0.110888615 , -0.0207217671, -9.79718    , 0.004251984 , -0.00131651131, 0.00143442291, 0.108062558 , 0.163947687 , 0.7101928   , 0.00140349765, 0.0155684007, -0.9370856  , 4.96        , 3           , 12          , 0.0728069246, 0
0.120370813 , -0.0194271784, -9.79933548 , -3.0832598E-07, -0.000689770444, 0.000272413017, 0.108534448 , 0.163745448 , 0.7101254   , 0.00140353572, 0.0155614978, -0.937083   , 4.97        , 3           , 50          , 0           , 0
0.12624532  , -0.0472921468, -9.771147   , -0.00427570054, -0.00206908374, -0.0009188116, 0.108399622 , 0.163812861 , 0.7101928   , 0.00136063492, 0.0155408233, -0.9370923  , 4.98        , 3           , 11          , 0.008050739 , 0.008050723
0.147561312 , -0.01741573 , -9.756603   , 0.003712827 , -0.0007068594, -0.00199462473, 0.108399622 , 0.163812861 , 0.7101928   , 0.00139745278, 0.0155337816, -0.937112331, 4.99        , 3           , 12          , 0.0728069246, 0
0.142053783 , -0.00437165238, -9.790832   , -0.000599313, -0.00242013368, 0.001960927 , 0.108197384 , 0.163880274 , 0.7102602   , 0.0013951197, 0.0155059965, -0.9370928  , 5           , 3           , 50          , 0           , 0
0.136616334 , -0.008828826, -9.791386   , 0.0026013304, 0.00131200207, -0.00225843 , 0.1082648   , 0.163947687 , 0.7101928   , 0.00142078206, 0.0155191477, -0.937115431, 5.01        , 3           , 11          , 0.00830231048, 0.008302293
0.152049527 , -0.0232634731, -9.761598   , 0.00204343465, 0.00358993839, 6.08436349E-05, 0.108332209 , 0.163812861 , 0.7103276   , 0.00144122611, 0.0155550465, -0.937114954, 5.02        , 3           , 12          , 0.07391192  , 0
0.151960865 , -0.0443205461, -9.77449    , 0.000354956661, 0.00419579167, -0.00165807363, 0.108467035 , 0.163880274 , 0.7101928   , 0.00144451775, 0.0155970277, -0.9371314  , 5.03        , 3           , 50          , 0           , 0
0.146408111 , -0.0366873555, -9.808782   , -0.0019395441, 0.00306491344, -0.000829983, 0.108467035 , 0.163880274 , 0.7101928   , 0.00142499385, 0.0156276878, -0.93713975 , 5.04        , 3           , 11          , 0.00830231048, 0.008302293
0.158498958 , -0.0364487469, -9.79873    , -0.00253978558, 0.00133586046, 0.0008585331, 0.108467035 , 0.163812861 , 0.7102602   , 0.00139973022, 0.0156410336, -0.9371309  , 5.05        , 3           , 12          , 0.07391192  , 0
0.155945674 , -0.0179477688, -9.797637   , -0.00051679014, 0.00276900525, -0.0013979174, 0.108399622 , 0.163880274 , 0.7103276   , 0.001394343 , 0.0156687442, -0.937145   , 5.06        , 3           , 50          , 0           , 0
0.154714331 , -0.0478254966, -9.786249   , -0.0005363248, 0.00189647  , 2.038187E-05, 0.108467035 , 0.163947687 , 0.7103276   , 0.001388983 , 0.0156877078, -0.9371445  , 5.07        , 3           , 11          , 0.00830231048, 0.008302293
0.1701312   , -0.0215295628, -9.769542   , -0.0002664577, 0.000463244127, -0.000284936425, 0.108332209 , 0.163947687 , 0.7105973   , 0.001386274 , 0.0156923439, -0.9371476  , 5.08        , 3           , 12          , 0.07391192  , 0
