Acc X       , Acc Y       , Acc Z       , Gyro X      , Gyro Y      , Gyro Z      , Magn X      , Magn Y      , Magn Z      , Euler X     , Euler Y     , Euler Z     , Time        , Status      , LowRate X   , LowRate Y   , LowRate Z    
0.148159981 , -0.040339306, -9.806097   , 0.0005976583, 0.000778700167, 0.000791326165, 0.105028987 , 0.156464875 , 0.714709461 , 0.00223624427, 0.0145912748, -0.930217266, 0           , 3           , 11          , 0.0346410163, 0.0346410163
0.125924677 , -0.0608888865, -9.80654    , 0.00114921911, -0.00122545462, -9.295384E-05, 0.1050964   , 0.156464875 , 0.7143724   , 0.002247724 , 0.0145790195, -0.930218   , 0.01        , 3           , 12          , 0.0346410163, 0
0.151279747 , -0.03373865 , -9.7933445  , 1.21454832E-05, -0.00107188628, 4.536132E-05, 0.1050964   , 0.156464875 , 0.7143724   , 0.00224785157, 0.0145683   , -0.9302175  , 0.02        , 3           , 50          , 0           , 0
0.141926974 , -0.0210358016, -9.792833   , -0.00180784543, 0.00194829889, 0.0009365384, 0.105163813 , 0.1565997   , 0.7144398   , 0.00222991058, 0.0145877628, -0.9302082  , 0.03        , 3           , 11          , 0.0346410163, 0.0346410163
0.1382429   , -0.0211302526, -9.781124   , 0.000928298 , 0.004787919 , 0.000851469056, 0.105231225 , 0.156330049 , 0.7143724   , 0.00223931973, 0.01463562  , -0.9301996  , 0.04        , 3           , 12          , 0.0346410163, 0
0.154100582 , -0.02022532 , -9.794066   , 0.00133103912, 0.00221205084, -4.20147444E-05, 0.104961574 , 0.156532288 , 0.714574635 , 0.00225262367, 0.0146577414, -0.930199862, 0.05        , 3           , 50          , 0           , 0
0.149421677 , -0.0293590724, -9.779761   , 0.000896550249, 0.000795006868, -0.0013531904, 0.1050964   , 0.156397462 , 0.7144398   , 0.00226139231, 0.0146657219, -0.930213451, 0.06        , 3           , 11          , 0.0346410163, 0.0346410163
0.132378876 , -0.03133399 , -9.792136   , 0.0004817054, 0.00264930818, 0.000102187463, 0.104894161 , 0.156667113 , 0.7145072   , 0.002266226 , 0.0146922115, -0.930212259, 0.07        , 3           , 12          , 0.0346410163, 0
0.154832289 , -0.019156253, -9.768301   , -0.00149672839, 0.004097313 , 0.0006833894, 0.104894161 , 0.156667113 , 0.7145072   , 0.00225136  , 0.0147331664, -0.930205345, 0.08        , 3           , 50          , 0           , 0
0.1569943   , -0.0291054659, -9.767493   , -0.0005135576, 0.002518692 , -0.0001920603, 0.104961574 , 0.156330049 , 0.7143724   , 0.002246197 , 0.0147583568, -0.930207   , 0.09        , 3           , 11          , 0.0346410163, 0.0346410163
0.163116381 , -0.0238480624, -9.799898   , 0.002290985 , -0.0008074982, 0.00034942702, 0.105163813 , 0.156464875 , 0.7147769   , 0.002388115 , 0.0149632329, -0.930201769, 0.1         , 3           , 12          , 0.0346410163, 0
0.116140179 , -0.0392510928, -9.797797   , 0.00113466592, -0.00265486469, -0.000113800575, 0.104826748 , 0.156532288 , 0.7145072   , 0.00239944435, 0.0149366874, -0.9302032  , 0.11        , 3           , 50          , 0           , 0
0.114014186 , -0.0167829916, -9.788523   , -0.00203790446, -0.005926417, 0.0006778485, 0.104961574 , 0.156397462 , 0.7145072   , 0.0023791648, 0.0148774078, -0.9301965  , 0.12        , 3           , 11          , 0.0346410163, 0.0346410163
0.152469963 , -0.03355112 , -9.769844   , -0.00202457188, -0.00435663 , 0.00141621311, 0.104961574 , 0.156397462 , 0.7145072   , 0.00235912716, 0.014833807 , -0.930182457, 0.13        , 3           , 12          , 0.0346410163, 0
0.173978984 , -0.0216295626, -9.805193   , 0.00100509194, -0.00122564333, 0.0004785385, 0.105163813 , 0.156532288 , 0.714305    , 0.00236924761, 0.0148215378, -0.93017745 , 0.14        , 3           , 50          , 0           , 0
0.159165666 , -0.01876089 , -9.808457   , 0.00185689447, -0.0009541317, 0.00120326225, 0.105028987 , 0.156667113 , 0.714574635 , 0.002387994 , 0.0148119722, -0.9301655  , 0.15        , 3           , 11          , 0.0346410163, 0.0346410163
0.14907296  , -0.01272971 , -9.774152   , -0.00113962532, -0.00178352825, 0.001172751 , 0.105231225 , 0.156532288 , 0.714574635 , 0.00237677083, 0.0147941057, -0.9301541  , 0.16        , 3           , 12          , 0.0346410163, 0
0.131746843 , -0.0351695865, -9.770506   , -0.00172458391, -0.0039155744, -0.0001497154, 0.104894161 , 0.156397462 , 0.714642048 , 0.002359501 , 0.0147549547, -0.9301555  , 0.17        , 3           , 50          , 0           , 0
0.14391911  , -0.0330257341, -9.769917   , -0.00273992354, -0.0056249355, -0.000180753472, 0.105028987 , 0.156397462 , 0.7143724   , 0.002332074 , 0.0146987084, -0.9301574  , 0.18        , 3           , 11          , 0.0346410163, 0.0346410163
0.159391731 , -0.0213338546, -9.779125   , -0.00471120374, -0.00388523377, -0.000167706035, 0.105028987 , 0.156397462 , 0.7143724   , 0.002284936 , 0.014659862 , -0.93015933 , 0.19        , 3           , 12          , 0.0346410163, 0
0.148188323 , -0.0264967121, -9.79329    , -0.00138317212, 0.00110898679, -7.500441E-05, 0.1050964   , 0.156464875 , 0.7145072   , 0.00224941317, 0.0150144557, -0.9301603  , 0.2         , 3           , 50          , 0           , 0
0.131721973 , -0.0122574614, -9.804117   , 0.0004751669, 0.00265487144, 0.00124682509, 0.105163813 , 0.156464875 , 0.7144398   , 0.002254353 , 0.0150409741, -0.930147648, 0.21        , 3           , 11          , 0.0317268334, 0.0317268446
0.1297258   , -0.0258947574, -9.792549   , 0.000477370719, 0.00251670112, 0.0006724102, 0.1050964   , 0.156330049 , 0.714709461 , 0.00225922815, 0.0150661254, -0.930141   , 0.22        , 3           , 12          , 0.0346698463, 0
0.125754625 , -0.0288513023, -9.807978   , 0.00219186256, 0.00194540143, -0.00147188629, 0.105028987 , 0.156330049 , 0.7144398   , 0.00228092563, 0.0150856134, -0.9301555  , 0.23        , 3           , 50          , 0           , 0
0.135053843 , -0.03228836 , -9.7894125  , 0.00132616214, 0.00137323339, -0.0006268816, 0.105028987 , 0.156330049 , 0.7144398   , 0.00229409384, 0.0150993615, -0.9301617  , 0.24        , 3           , 11          , 0.0317268334, 0.0317268446
0.127828658 , -0.036264427, -9.791331   , -0.000228634788, 0.002389594 , -0.0003355339, 0.105028987 , 0.156330049 , 0.7143724   , 0.00229175785, 0.0151232639, -0.930165052, 0.25        , 3           , 12          , 0.0346698463, 0
0.153549239 , -0.0203762464, -9.779618   , 0.000334885466, 0.00167120621, -0.000771786959, 0.1050964   , 0.156532288 , 0.714642048 , 0.002294991 , 0.0151399933, -0.9301729  , 0.26        , 3           , 50          , 0           , 0
0.1572336   , -0.0131592387, -9.782664   , 0.000331031537, 0.001666087 , -0.000199458984, 0.105298638 , 0.156397462 , 0.714574635 , 0.002298271 , 0.015156663 , -0.9301748  , 0.27        , 3           , 11          , 0.0317268334, 0.0317268446
0.140979111 , -0.0211005416, -9.786067   , -0.000219830967, 0.00282458146, -0.000901601568, 0.104961574 , 0.156397462 , 0.7145072   , 0.00229593553, 0.0151849268, -0.930183649, 0.28        , 3           , 12          , 0.0346698463, 0
0.137802467 , -0.02778829 , -9.79069    , 0.003324119 , 0.0017854342, -0.000894791447, 0.104961574 , 0.156397462 , 0.7145072   , 0.00232904148, 0.0152028026, -0.9301927  , 0.29        , 3           , 50          , 0           , 0
0.132833272 , -0.0259899516, -9.786198   , 0.00417430652, 0.000888353854, -0.000329630973, 0.105163813 , 0.156330049 , 0.7142376   , 0.00254823617, 0.0148181543, -0.9301934  , 0.3         , 3           , 11          , 0.02827349  , 0.028273508
0.1594938   , -0.0158358924, -9.78719    , -0.000387186446, 0.000356310484, 0.0002069357, 0.1050964   , 0.156397462 , 0.7145072   , 0.00254439423, 0.0148217091, -0.9301913  , 0.31        , 3           , 12          , 0.0347559564, 0
0.125008821 , -0.0444346331, -9.784225   , -0.000108936911, 6.300245E-05, 0.000633721531, 0.105028987 , 0.156532288 , 0.7145072   , 0.00254339958, 0.0148223238, -0.930184841, 0.32        , 3           , 50          , 0           , 0
0.162667662 , -0.004255928, -9.776187   , 0.00344257616, -0.0004017068, 0.0005057967, 0.105163813 , 0.156397462 , 0.7142376   , 0.00257789949, 0.014818294 , -0.930179834, 0.33        , 3           , 11          , 0.02827349  , 0.028273508
0.147606164 , -0.0169019178, -9.762469   , 0.00414514868, -0.0009846488, 0.000787897 , 0.1050964   , 0.156397462 , 0.7142376   , 0.00261946651, 0.0148084257, -0.930171967, 0.34        , 3           , 12          , 0.0347559564, 0
0.135847628 , -0.0342401378, -9.776328   , 0.002157092 , -0.0005371122, 0.00106832746, 0.1050964   , 0.156397462 , 0.7142376   , 0.00264119566, 0.01480303  , -0.9301615  , 0.35        , 3           , 50          , 0           , 0
0.118064754 , -0.0341810025, -9.809465   , 0.003614219 , 0.002316791 , 0.0008324659, 0.1050964   , 0.156464875 , 0.7144398   , 0.0026774616, 0.014826173 , -0.930153131, 0.36        , 3           , 11          , 0.02827349  , 0.028273508
0.142899752 , -0.0258294232, -9.80914    , 0.00490231626, 0.00259676576, 0.000128939733, 0.105231225 , 0.156330049 , 0.7142376   , 0.00272650458, 0.0148521364, -0.9301517  , 0.37        , 3           , 12          , 0.0347559564, 0
0.127512813 , -0.0324935876, -9.806196   , 0.00101191341, -0.0016641916, 0.000186287929, 0.104894161 , 0.156464875 , 0.7144398   , 0.00273665087, 0.0148354881, -0.9301498  , 0.38        , 3           , 50          , 0           , 0
0.151783258 , -0.03123856 , -9.732784   , -0.00170635688, -0.002786896, 0.0005825626, 0.105163813 , 0.156397462 , 0.7143724   , 0.00271967263, 0.0148076033, -0.9301441  , 0.39        , 3           , 11          , 0.02827349  , 0.028273508
0.1731919   , -0.02125125 , -9.75596    , -0.002405072, -0.00276272767, -0.0009956028, 0.105163813 , 0.156397462 , 0.7143724   , 0.00271421275, 0.01481007  , -0.930153847, 0.4         , 3           , 12          , 0.0348984934, 0
0.135914236 , -0.0270159859, -9.777147   , -0.00226697116, -0.00361623149, -0.00186575891, 0.105028987 , 0.156330049 , 0.714035332 , 0.00269126636, 0.0147739593, -0.930172443, 0.41        , 3           , 50          , 0           , 0
0.142664865 , -0.0293051247, -9.77937    , -0.0008506967, -0.00307415845, 1.12214821E-05, 0.104894161 , 0.156330049 , 0.714305    , 0.00268275943, 0.0147432173, -0.9301727  , 0.42        , 3           , 11          , 0.0229275916, 0.02292761
0.124824151 , -0.02310265 , -9.796628   , 0.0014354093, -0.002095528, 0.000182618038, 0.105163813 , 0.156330049 , 0.7143724   , 0.002697141 , 0.0147222569, -0.9301708  , 0.43        , 3           , 12          , 0.0348984934, 0
0.1625964   , -0.0194996148, -9.784494   , 0.00203482  , 5.57148742E-05, -0.000641145743, 0.105231225 , 0.156397462 , 0.7143724   , 0.00271739345, 0.0147228315, -0.9301772  , 0.44        , 3           , 50          , 0           , 0
0.151905566 , -0.00676565431, -9.785802   , 0.00162492506, 0.002339885 , 0.000820492452, 0.104894161 , 0.156397462 , 0.714170158 , 0.00273376564, 0.0147462087, -0.930168867, 0.45        , 3           , 11          , 0.0229275916, 0.02292761
0.176604837 , -0.0008476228, -9.768793   , 0.00348561187, 0.00318339956, 0.0005579862, 0.104894161 , 0.156397462 , 0.714170158 , 0.00276870537, 0.0147780273, -0.930163145, 0.46        , 3           , 12          , 0.0348984934, 0
0.140519276 , -0.018885646, -9.78198051 , 0.00360899558, 0.00146375934, 0.0003907197, 0.104961574 , 0.156195223 , 0.714305    , 0.00280485349, 0.0147926519, -0.93015933 , 0.47        , 3           , 50          , 0           , 0
0.127311349 , -0.0345826969, -9.779573   , 0.00229092152, -0.00125469745, 0.00134493492, 0.1050964   , 0.156262636 , 0.7143724   , 0.00282796146, 0.0147800688, -0.930146   , 0.48        , 3           , 11          , 0.0229275916, 0.02292761
0.149227083 , 0.000860357657, -9.779865   , 0.00246478012, 0.0003379597, -0.000634402269, 0.105231225 , 0.156262636 , 0.7143724   , 0.00285251532, 0.0147834672, -0.9301522  , 0.49        , 3           , 12          , 0.0348984934, 0
0.159030512 , 0.00462419167, -9.760309   , 0.002590448 , 0.002783932 , -0.00102804 , 0.105231225 , 0.156397462 , 0.714305    , 0.00251266547, 0.0148702655, -0.9301679  , 0.5         , 3           , 50          , 0           , 0
0.15298228  , -0.036575906, -9.782522   , -0.00128359918, 0.0005200708, 6.009695E-05, 0.105231225 , 0.156397462 , 0.714305    , 0.00249983929, 0.0148754632, -0.9301672  , 0.51        , 3           , 11          , 0.0226589814, 0.0226590037
0.161063135 , -0.0150677171, -9.817883   , -0.003299561, -0.00203251559, -0.0007048687, 0.105298638 , 0.156464875 , 0.7142376   , 0.00246673659, 0.0148551567, -0.930174351, 0.52        , 3           , 12          , 0.0350963548, 0
0.1648633   , -0.01726952 , -9.783997   , -0.001454688, -0.00247988733, -0.00084307394, 0.104826748 , 0.156397462 , 0.7143724   , 0.00245206384, 0.0148303779, -0.9301827  , 0.53        , 3           , 50          , 0           , 0
0.140077516 , -0.0242103431, -9.789724   , -0.00102046481, -0.00190978381, -0.0009752386, 0.105028987 , 0.156262636 , 0.7144398   , 0.002441714 , 0.0148113072, -0.9301927  , 0.54        , 3           , 11          , 0.0226589814, 0.0226590037
0.131429732 , -0.04386441 , -9.800421   , 0.0002900458, 0.000234235267, -0.0017947189, 0.105028987 , 0.156330049 , 0.7143724   , 0.00244434876, 0.0148136932, -0.9302108  , 0.55        , 3           , 12          , 0.0350963548, 0
0.147562951 , -0.0369991362, -9.780769   , 0.000558395346, -0.0009188102, -0.0013804537, 0.105028987 , 0.156330049 , 0.7143724   , 0.00244972855, 0.0148045393, -0.9302244  , 0.56        , 3           , 50          , 0           , 0
0.148258671 , -0.0303952023, -9.808241   , -0.0001764908, -0.00305965 , -0.0015591206, 0.1050964   , 0.156397462 , 0.714305    , 0.0024477304, 0.0147739789, -0.930240154, 0.57        , 3           , 11          , 0.0226589814, 0.0226590037
0.14004679  , -0.0166901052, -9.776087   , -0.0004302674, -0.000476268382, -0.00166635425, 0.105231225 , 0.156397462 , 0.714574635 , 0.00244318065, 0.0147692589, -0.9302571  , 0.58        , 3           , 12          , 0.0350963548, 0
0.137464315 , -0.00154657662, -9.840076   , 0.000136408722, -0.000343877036, -0.00108851271, 0.105028987 , 0.156464875 , 0.714305    , 0.002444384 , 0.0147658437, -0.9302678  , 0.59        , 3           , 50          , 0           , 0
0.187464222 , -0.0290998518, -9.87607    , -0.00089768623, -0.00121198152, 0.000180430565, 0.105366051 , 0.156330049 , 0.714574635 , 0.00231527048, 0.014711855 , -0.9302678  , 0.6         , 3           , 11          , 0.0214435365, 0.0214435458
0.136593878 , -0.0388420671, -9.433539   , -0.0034513236, -0.0004720866, 0.000461607851, 0.105163813 , 0.156262636 , 0.714574635 , 0.00228082412, 0.0147071267, -0.9302633  , 0.61        , 3           , 12          , 0.03534818  , 0
0.127160847 , -0.03253592 , -9.885699   , -0.00377521873, -0.00447234651, -0.000600109, 0.105163813 , 0.156262636 , 0.714574635 , 0.00224298239, 0.0146624157, -0.930269241, 0.62        , 3           , 50          , 0           , 0
0.14504     , -0.0187935755, -10.0452747 , 0.000965481042, -0.000647367036, -0.0009447412, 0.1050964   , 0.156464875 , 0.7145072   , 0.00225249841, 0.0146559626, -0.930279   , 0.63        , 3           , 11          , 0.0214435365, 0.0214435458
0.1440548   , -0.0297535863, -9.655148   , 0.0034900608, 0.008359154 , -0.00122795708, 0.105231225 , 0.156464875 , 0.7148443   , 0.00228722114, 0.0147395823, -0.930290937, 0.64        , 3           , 12          , 0.03534818  , 0
0.161803246 , -0.0424743481, -9.82813    , 0.0005920306, 0.00422497373, -0.000447115337, 0.105163813 , 0.156464875 , 0.714642048 , 0.0022930766, 0.01478184  , -0.9302952  , 0.65        , 3           , 50          , 0           , 0
0.156863734 , -0.0281667579, -9.812653   , -0.00247352361, -0.00177564565, 0.000878069841, 0.105298638 , 0.156262636 , 0.714709461 , 0.00226847013, 0.0147640631, -0.9302864  , 0.66        , 3           , 11          , 0.0214435365, 0.0214435458
0.144384563 , -0.0275196023, -9.569749   , -0.00330194924, -0.0001818332, -0.000105689927, 0.105298638 , 0.156262636 , 0.714709461 , 0.00223543425, 0.014762247 , -0.9302876  , 0.67        , 3           , 12          , 0.03534818  , 0
0.1389224   , -0.0121287648, -9.738103   , 4.59122E-06 , 0.00237182714, -0.000906916044, 0.105028987 , 0.156330049 , 0.7144398   , 0.002235347 , 0.0147859855, -0.930296659, 0.68        , 3           , 50          , 0           , 0
0.122667983 , -0.0282274745, -9.947121   , 0.000264691073, 0.0005023337, -0.0005030846, 0.105028987 , 0.156330049 , 0.7143724   , 0.00223791925, 0.01479102  , -0.930301666, 0.69        , 3           , 11          , 0.0214435365, 0.0214435458
0.148854747 , -0.0463973135, -9.914115   , -0.00173829962, -0.00133747933, -0.00168681622, 0.105028987 , 0.156397462 , 0.7148443   , 0.00222941488, 0.01474026  , -0.9303181  , 0.7         , 3           , 12          , 0.0356524251, 0
0.144296378 , -0.0394249037, -9.636738   , -0.0011519565, 9.09168448E-05, -0.00180560374, 0.105028987 , 0.156195223 , 0.7144398   , 0.00221763016, 0.0147412084, -0.930336237, 0.71        , 3           , 50          , 0           , 0
0.102876626 , -0.0236772  , -9.683912   , -0.001575461, 0.00094603037, -0.0007940792, 0.105298638 , 0.156262636 , 0.7145072   , 0.002201759 , 0.0147506855, -0.930344343, 0.72        , 3           , 11          , 0.0211889371, 0.0211889464
0.145911723 , -0.0178101081, -9.844253   , -0.0016989772, 0.00224220054, -0.00134848291, 0.105298638 , 0.156262636 , 0.7145072   , 0.00218457147, 0.0147731379, -0.9303577  , 0.73        , 3           , 12          , 0.0356524251, 0
0.159951136 , -0.006036019, -9.776234   , 0.00199901965, 0.00206390512, -0.00161445956, 0.105028987 , 0.156195223 , 0.714642048 , 0.00220432342, 0.0147938123, -0.9303739  , 0.74        , 3           , 50          , 0           , 0
0.139311686 , -0.006832795, -9.85322    , 0.005222905 , -0.0009950433, 0.000221488386, 0.104826748 , 0.156330049 , 0.714642048 , 0.00225658529, 0.0147838565, -0.9303715  , 0.75        , 3           , 11          , 0.0211889371, 0.0211889464
0.132402912 , -0.025707189, -9.853953   , 0.00364514068, -0.00156126707, 0.0012052916, 0.105231225 , 0.156262636 , 0.7145072   , 0.0022932135, 0.0147682168, -0.9303596  , 0.76        , 3           , 12          , 0.0356524251, 0
0.127666131 , -0.0459127948, -9.64916    , 0.00125531759, 0.000475747685, 0.000504532538, 0.105028987 , 0.156195223 , 0.714642048 , 0.00230584131, 0.0147729637, -0.930354357, 0.77        , 3           , 50          , 0           , 0
0.1247193   , -0.03018863 , -9.724892   , -0.000159041709, 0.000923903834, 7.297987E-05, 0.105028987 , 0.156195223 , 0.714642048 , 0.00230426248, 0.0147822   , -0.930353642, 0.78        , 3           , 11          , 0.0211889371, 0.0211889464
0.143793359 , -0.0336118266, -9.882848   , 0.000125807608, 0.00120375387, 0.0005081129, 0.105298638 , 0.156262636 , 0.7144398   , 0.0023055952, 0.0147942249, -0.930348635, 0.79        , 3           , 12          , 0.0356524251, 0
0.146409541 , 0.00318014063, -9.825486   , 0.000849108445, 0.00190760393, 0.0009521822, 0.105028987 , 0.156262636 , 0.7145072   , 0.00234382041, 0.014806645 , -0.9303386  , 0.8         , 3           , 50          , 0           , 0
0.121750414 , -0.002924785, -9.783324   , 0.00241834531, 0.00189810968, 0.000246195763, 0.105231225 , 0.156667113 , 0.7145072   , 0.00236804015, 0.0148256188, -0.930336237, 0.81        , 3           , 11          , 0.0214216635, 0.0214216691
0.142923787 , -0.0447366051, -9.770513   , 0.00313123967, 0.00146997534, -0.000757354952, 0.105433464 , 0.1560604   , 0.7145072   , 0.00239924  , 0.0148403374, -0.9303436  , 0.82        , 3           , 12          , 0.0360073559, 0
0.133854941 , -0.0291764922, -9.742412   , -0.00213612616, 0.00123429461, -0.0005070623, 0.105433464 , 0.1560604   , 0.7145072   , 0.00237780344, 0.0148526933, -0.930348635, 0.83        , 3           , 50          , 0           , 0
0.15209116  , -0.03432805 , -9.781148   , -0.00481107552, 0.00313218916, -0.00135470368, 0.105163813 , 0.156397462 , 0.7147769   , 0.00232949248, 0.0148840472, -0.930362   , 0.84        , 3           , 11          , 0.0214216635, 0.0214216691
0.136216283 , -0.0390171222, -9.835552   , -0.00397590548, 0.00154733506, -0.001372518, 0.105163813 , 0.156397462 , 0.714574635 , 0.002289529 , 0.0148995556, -0.9303758  , 0.85        , 3           , 12          , 0.0360073559, 0
0.145268276 , -0.00271915272, -9.863055   , -0.00227339636, 0.00166560826, -0.0005016587, 0.105298638 , 0.156397462 , 0.7147769   , 0.00226672017, 0.0149162207, -0.9303808  , 0.86        , 3           , 50          , 0           , 0
0.1413815   , -0.0122750709, -9.768345   , 0.000302376924, 0.00293048774, -0.0006105393, 0.105231225 , 0.156464875 , 0.714642048 , 0.00226965384, 0.01494554  , -0.930387   , 0.87        , 3           , 11          , 0.0214216635, 0.0214216691
0.142080635 , -0.01659752 , -9.744449   , -0.0014604954, -0.00234748982, -0.0014134401, 0.105231225 , 0.156464875 , 0.714574635 , 0.00225483743, 0.0149220983, -0.9304011  , 0.88        , 3           , 12          , 0.0360073559, 0
0.159586042 , -0.0152495019, -9.79983    , -0.00403063232, -0.003040491, -0.00115313055, 0.105231225 , 0.156464875 , 0.714574635 , 0.00221435865, 0.01489172  , -0.930412769, 0.89        , 3           , 50          , 0           , 0
0.129087344 , -0.009460764, -9.810433   , -0.00380081986, 0.0008685171, -0.0002404965, 0.1050964   , 0.156397462 , 0.7144398   , 0.001820373 , 0.0156527758, -0.930420637, 0.9         , 3           , 11          , 0.02159695  , 0.0215969551
0.138013572 , -0.0163366236, -9.807269   , 0.00020499347, 0.00255265622, -0.000763795746, 0.105163813 , 0.156532288 , 0.714574635 , 0.00182230421, 0.0156783182, -0.930428267, 0.91        , 3           , 12          , 0.03641109  , 0
0.142704725 , -0.0301343519, -9.786156   , 0.000458216353, 0.000250734738, -8.00606358E-05, 0.1050964   , 0.156397462 , 0.7147769   , 0.00182687386, 0.0156808253, -0.930429   , 0.92        , 3           , 50          , 0           , 0
0.1466252   , -0.0250297319, -9.760766   , -0.00128047145, -0.00160876953, 0.001456433 , 0.105366051 , 0.156464875 , 0.714305    , 0.00181429717, 0.0156647135, -0.930414438, 0.93        , 3           , 11          , 0.02159695  , 0.0215969551
0.15558365  , -0.03141114 , -9.761661   , -0.000402811042, 0.0002491654, 0.0010594551, 0.105366051 , 0.156464875 , 0.714305    , 0.001810435 , 0.0156671852, -0.930403948, 0.94        , 3           , 12          , 0.03641109  , 0
0.159555852 , -0.0304302927, -9.814008   , 0.00116820878, 0.0008064309, 0.0010772259, 0.1050964   , 0.156330049 , 0.7143724   , 0.00182228594, 0.01567523  , -0.930393   , 0.95        , 3           , 50          , 0           , 0
0.139942378 , -0.0197176132, -9.829875   , 0.000302375469, -0.00018920716, 0.00120056036, 0.105366051 , 0.156464875 , 0.714709461 , 0.001825498 , 0.0156733152, -0.93038106 , 0.96        , 3           , 11          , 0.02159695  , 0.0215969551
0.139037132 , -0.03198403 , -9.778983   , -0.000676653057, 0.000266132352, -0.000516160333, 0.105231225 , 0.156397462 , 0.7145072   , 0.001818651 , 0.0156759862, -0.930386066, 0.97        , 3           , 12          , 0.03641109  , 0
0.16142638  , -0.0252462085, -9.75250149 , 0.001737233 , 0.000236451524, 7.073154E-05, 0.105163813 , 0.156397462 , 0.714574635 , 0.00183603493, 0.01567835  , -0.930385351, 0.98        , 3           , 50          , 0           , 0
0.13326849  , -0.01622394 , -9.772079   , 0.00184768182, -0.00178256514, 0.00133011153, 0.105163813 , 0.156397462 , 0.714574635 , 0.00185472006, 0.0156604983, -0.930372   , 0.99        , 3           , 11          , 0.02159695  , 0.0215969551
0.127725467 , -0.00145367719, -9.799061   , 0.000441578 , -0.000500505848, 0.0007680227, 0.105298638 , 0.156464875 , 0.714574635 , 0.00185094844, 0.0155690629, -0.9303646  , 1           , 3           , 12          , 0.03686164  , 0
0.127734289 , -0.0134587623, -9.815009   , 0.00219511543, 0.00264860457, -0.000749690051, 0.105298638 , 0.156464875 , 0.714709461 , 0.00187278329, 0.0155955628, -0.930372   , 1.01        , 3           , 50          , 0           , 0
0.13447836  , -0.0113065951, -9.810858   , 0.002469246 , 0.00150323764, -0.00119391677, 0.105298638 , 0.156532288 , 0.7148443   , 0.00189728942, 0.0156106185, -0.9303839  , 1.02        , 3           , 11          , 0.0150043219, 0.0150043061
0.1408188   , -0.0253522489, -9.768049   , -0.00111623039, -0.0008991245, -0.0009646453, 0.105231225 , 0.156464875 , 0.714709461 , 0.001885976 , 0.01560165  , -0.9303937  , 1.03        , 3           , 12          , 0.03686164  , 0
0.14124231  , -0.0334095731, -9.774011   , -0.00209141639, 0.000549003831, -0.00152210251, 0.105366051 , 0.156464875 , 0.714709461 , 0.00186482433, 0.0156071642, -0.930408955, 1.04        , 3           , 50          , 0           , 0
0.139233738 , -0.033463452, -9.809261   , -0.00166338368, 0.000828688964, -0.00122919481, 0.105366051 , 0.156464875 , 0.714709461 , 0.00184799917, 0.0156154726, -0.9304211  , 1.05        , 3           , 11          , 0.0150043219, 0.0150043061
0.142998964 , -0.0132137313, -9.808091   , -0.000532091246, 0.0006674422, -0.000509018, 0.105163813 , 0.156464875 , 0.714574635 , 0.001842599 , 0.0156221557, -0.9304261  , 1.06        , 3           , 12          , 0.03686164  , 0
0.124397293 , -0.01059919 , -9.784743   , 0.00202305173, 0.000635036849, 0.000221812559, 0.105163813 , 0.1565997   , 0.7147769   , 0.00186286494, 0.0156285018, -0.930424   , 1.07        , 3           , 50          , 0           , 0
0.149804235 , -0.028131254, -9.768452   , 0.00102682551, 0.000503140735, 7.06469145E-05, 0.105231225 , 0.156397462 , 0.714642048 , 0.00187314453, 0.01563353  , -0.93042326 , 1.08        , 3           , 11          , 0.0150043219, 0.0150043061
0.1348746   , -0.0365691036, -9.768686   , 0.00089491473, 0.001647063 , 0.0005157304, 0.105366051 , 0.156532288 , 0.7145072   , 0.00188217533, 0.0156499911, -0.930418   , 1.09        , 3           , 12          , 0.03686164  , 0
0.0997524858, -0.006640842, -9.797571   , 0.00277005532, 0.00202583382, 0.00124899438, 0.105366051 , 0.156532288 , 0.7145072   , 0.00198254734, 0.0155984191, -0.9304042  , 1.1         , 3           , 50          , 0           , 0
0.14507775  , -0.0148328226, -9.785053   , -0.000789431, 0.00163336517, 0.00107823464, 0.105366051 , 0.156330049 , 0.714709461 , 0.001974823 , 0.0156147322, -0.930393457, 1.11        , 3           , 11          , 0.0151088694, 0.0151088554
0.152126133 , -0.0387258157, -9.791588   , -0.00134222058, 0.00278930017, 0.0006622559, 0.105163813 , 0.156532288 , 0.714709461 , 0.001961504 , 0.01564261  , -0.9303868  , 1.12        , 3           , 12          , 0.0373569243, 0
0.146610856 , -0.02861278 , -9.763065   , 0.000651617243, 0.00234944234, -0.0004766667, 0.105231225 , 0.156397462 , 0.714574635 , 0.0019679477, 0.0156661142, -0.93039155 , 1.13        , 3           , 50          , 0           , 0
0.145106718 , -0.0005441718, -9.77179    , 0.00138527493, 0.003642063 , -0.0015982585, 0.105500877 , 0.156330049 , 0.714574635 , 0.00198155036, 0.0157025643, -0.9304073  , 1.14        , 3           , 11          , 0.0151088694, 0.0151088554
0.136532858 , -0.007621277, -9.77782249 , 0.000123854217, 0.00551399169, -0.0011495949, 0.105163813 , 0.156464875 , 0.7147769   , 0.001982611 , 0.0157577284, -0.9304187  , 1.15        , 3           , 12          , 0.0373569243, 0
0.131473511 , -0.03489469 , -9.795799   , -0.00176667655, 0.00265546422, 8.5271E-05  , 0.105163813 , 0.156464875 , 0.7147769   , 0.001964959 , 0.0157842822, -0.9304178  , 1.16        , 3           , 50          , 0           , 0
0.148137778 , -0.0265741386, -9.786064   , 0.000634430849, 0.000774536631, -0.000642703031, 0.105231225 , 0.156464875 , 0.7144398   , 0.0019712022, 0.01579204  , -0.930424   , 1.17        , 3           , 11          , 0.0151088694, 0.0151088554
0.135607064 , -0.01922569 , -9.788353   , -0.0009364445, -0.000346928718, -0.00167039479, 0.105028987 , 0.156330049 , 0.7147769   , 0.00196157326, 0.0157886036, -0.9304409  , 1.18        , 3           , 12          , 0.0373569243, 0
0.1354656   , -0.0212228578, -9.77031    , -0.00249096425, 0.0005287016, -0.00166729791, 0.104961574 , 0.1565997   , 0.714709461 , 0.00193640136, 0.0157939252, -0.930457354, 1.19        , 3           , 50          , 0           , 0
0.12656571  , -0.02276421 , -9.787574   , 0.00133687921, -0.0006932008, -0.00123148074, 0.1050964   , 0.156330049 , 0.7147769   , 0.00195960747, 0.01570491  , -0.930469751, 1.2         , 3           , 11          , 0.0153227756, 0.0153227644
0.157966673 , -0.0387961268, -9.789728   , 0.0021739644, -0.00128782564, 0.000196132358, 0.1050964   , 0.156330049 , 0.7147769   , 0.00198137667, 0.015692031 , -0.930467844, 1.21        , 3           , 12          , 0.0378948078, 0
0.153126776 , -0.0323483944, -9.798282   , 0.000905944034, 1.09448029E-05, 0.000636448967, 0.105231225 , 0.1565997   , 0.714642048 , 0.001990536 , 0.015692126 , -0.9304614  , 1.22        , 3           , 50          , 0           , 0
0.132323712 , -0.0278573949, -9.7799015  , 7.064141E-05, 0.00117232918, -6.740712E-05, 0.105028987 , 0.156464875 , 0.714642048 , 0.00199123169, 0.0157038551, -0.9304621  , 1.23        , 3           , 11          , 0.0153227756, 0.0153227644
0.137791812 , -0.0171214119, -9.77611351 , -0.00164053857, 0.001042538 , 0.000349471782, 0.105298638 , 0.156532288 , 0.7148443   , 0.00197488139, 0.01571427  , -0.9304588  , 1.24        , 3           , 12          , 0.0378948078, 0
0.145475    , -0.0166984424, -9.779651   , -0.001793345, 4.223548E-05, 0.0001909257, 0.105231225 , 0.156330049 , 0.714574635 , 0.00195697742, 0.0157146882, -0.930456638, 1.25        , 3           , 50          , 0           , 0
0.1414888   , -0.009885058, -9.780964   , -0.00119723461, 0.00190689939, -0.000637011544, 0.105231225 , 0.156330049 , 0.714574635 , 0.00194490561, 0.01573377  , -0.9304631  , 1.26        , 3           , 11          , 0.0153227756, 0.0153227644
0.146192878 , 0.00151290372, -9.796146   , 0.00210434454, 0.00501836138, 0.000287093426, 0.105028987 , 0.156464875 , 0.714574635 , 0.00196599588, 0.015783947 , -0.9304602  , 1.27        , 3           , 12          , 0.0378948078, 0
0.144494116 , -0.03862529 , -9.794819   , 0.005537424 , 0.0067031607, 0.000332695374, 0.105163813 , 0.156464875 , 0.7149117   , 0.00202142377, 0.01585097  , -0.930456638, 1.28        , 3           , 50          , 0           , 0
0.142236739 , -0.0292673241, -9.78253651 , 0.00210146536, 0.00402685162, -0.00101525208, 0.1050964   , 0.156667113 , 0.7147769   , 0.002042279 , 0.01589126  , -0.9304669  , 1.29        , 3           , 11          , 0.0153227756, 0.0153227644
0.152416974 , -0.0354128033, -9.764446   , -0.00373147824, 0.00174000731, -8.161169E-05, 0.105231225 , 0.156532288 , 0.7148443   , 0.00207797228, 0.015804654 , -0.9304664  , 1.3         , 3           , 12          , 0.03847314  , 0
0.1864931   , -0.03147752 , -9.73834    , -0.00428358139, 0.00303795212, -0.000352421572, 0.105366051 , 0.156464875 , 0.714642048 , 0.002035081 , 0.0158350375, -0.930469751, 1.31        , 3           , 50          , 0           , 0
0.153373092 , -0.0108531043, -9.742472   , -0.00101843476, 0.002573573 , -0.000195895729, 0.105366051 , 0.156464875 , 0.714642048 , 0.00202486641, 0.0158607773, -0.930471659, 1.32        , 3           , 11          , 0.0155764539, 0.0155764408
0.11712262  , -0.023108596, -9.789923   , 0.0003784615, 0.0006912415, 0.0003578712, 0.104894161 , 0.156532288 , 0.714574635 , 0.00202870858, 0.0158676822, -0.9304681  , 1.33        , 3           , 12          , 0.03847314  , 0
0.11508771  , -0.0147452708, -9.811075   , -0.000476087065, -0.000148309191, -0.0009475276, 0.105028987 , 0.1565997   , 0.7148443   , 0.002023797 , 0.0158662181, -0.9304776  , 1.34        , 3           , 50          , 0           , 0
0.137874842 , -0.009426985, -9.778733   , -0.00289562135, 0.000297163 , 4.57429E-05 , 0.105298638 , 0.1565997   , 0.714709461 , 0.00199484848, 0.01586919  , -0.930477142, 1.35        , 3           , 11          , 0.0155764539, 0.0155764408
0.150371537 , -0.0186080765, -9.773756   , -0.00303633558, 0.0010060973, 0.00105689408, 0.105028987 , 0.156397462 , 0.714709461 , 0.00196465221, 0.0158792287, -0.9304664  , 1.36        , 3           , 12          , 0.03847314  , 0
0.143439472 , -0.0268349424, -9.758105   , -0.00218782132, 3.359719E-06, 4.58528E-05 , 0.105028987 , 0.156397462 , 0.714709461 , 0.00194278162, 0.0158792622, -0.9304662  , 1.37        , 3           , 50          , 0           , 0
0.139546961 , -0.022994021, -9.776616   , -0.000180097049, 0.0008518282, -0.0009312069, 0.1050964   , 0.156464875 , 0.7145072   , 0.00194083259, 0.0158877987, -0.9304755  , 1.38        , 3           , 11          , 0.0155764539, 0.0155764408
0.147366449 , -0.0312649645, -9.810517   , 0.00126712956, 0.00284599373, -0.00117958919, 0.105231225 , 0.156397462 , 0.714574635 , 0.00195331685, 0.01591628  , -0.930487156, 1.39        , 3           , 12          , 0.03847314  , 0
0.145065024 , -0.0379992723, -9.81152    , 0.002427925 , 0.000923497137, -5.4316115E-05, 0.105028987 , 0.156532288 , 0.714709461 , 0.00209357  , 0.0158412568, -0.9304857  , 1.4         , 3           , 50          , 0           , 0
0.157714114 , -0.0117814187, -9.785355   , 0.00242173462, 0.0006330787, 0.000370756374, 0.105028987 , 0.156397462 , 0.714642048 , 0.00211784639, 0.0158475749, -0.930482149, 1.41        , 3           , 11          , 0.01559968  , 0.015599669
0.130721256 , -0.004835844, -9.780553   , -0.001974018, 0.00140071451, -0.0003607774, 0.105028987 , 0.156397462 , 0.7145072   , 0.0020980502, 0.01586159  , -0.9304855  , 1.42        , 3           , 12          , 0.0390897729, 0
0.134294569 , -0.0258323476, -9.801992   , -0.002411674, 0.000120561846, -0.000954456336, 0.105028987 , 0.156397462 , 0.7145072   , 0.00207378133, 0.0158628132, -0.930495262, 1.43        , 3           , 50          , 0           , 0
0.131092429 , -0.0281078275, -9.797531   , 2.49021014E-05, 0.0018141953, -0.0007717693, 0.104894161 , 0.156532288 , 0.714642048 , 0.00207390822, 0.0158809721, -0.9305029  , 1.44        , 3           , 11          , 0.01559968  , 0.015599669
0.151728541 , -0.030183712, -9.788783   , 0.0005716341, 0.0007913115, 0.000790952065, 0.105163813 , 0.156532288 , 0.7147769   , 0.00207975088, 0.01588887  , -0.9304948  , 1.45        , 3           , 12          , 0.0390897729, 0
0.153974056 , -0.0297669321, -9.787402   , 0.002002361 , 0.00135258166, 0.000521702168, 0.105231225 , 0.156330049 , 0.7148443   , 0.0020998586, 0.0159023851, -0.9304898  , 1.46        , 3           , 50          , 0           , 0
0.158247039 , -0.04084077 , -9.767616   , 0.004031812 , 0.00392308459, -0.000716480368, 0.105028987 , 0.156262636 , 0.7147769   , 0.00214006333, 0.015941631 , -0.9304967  , 1.47        , 3           , 11          , 0.01559968  , 0.015599669
0.145292446 , -0.0303320512, -9.769873   , 0.00529432856, 0.00247590546, -0.0005865557, 0.105028987 , 0.156262636 , 0.7147769   , 0.002192913 , 0.0159664   , -0.930502653, 1.48        , 3           , 12          , 0.0390897729, 0
0.111287534 , -0.0305972248, -9.801806   , 0.001005725 , 0.000937945151, -6.288305E-05, 0.105231225 , 0.156464875 , 0.714642048 , 0.00220296136, 0.0159757826, -0.93050313 , 1.49        , 3           , 50          , 0           , 0
0.131101683 , -0.023642309, -9.793415   , -0.002730166, -0.000487283163, 0.000619981962, 0.105028987 , 0.156734526 , 0.7147769   , 0.00243016169, 0.0146907354, -0.930493355, 1.5         , 3           , 11          , 0.015519103 , 0.0155190909
0.141164824 , -0.00746209 , -9.796297   , -0.000313943485, -0.000231664613, 0.00135412929, 0.1050964   , 0.1565997   , 0.714709461 , 0.00242722128, 0.0146883857, -0.930479765, 1.51        , 3           , 12          , 0.0397425629, 0
0.133860692 , -0.0123977223, -9.918377   , 0.000109416571, -0.000522578135, 0.001352526 , 0.105231225 , 0.156330049 , 0.7149117   , 0.00242851418, 0.0146831274, -0.9304664  , 1.52        , 3           , 50          , 0           , 0
0.147742361 , -0.03549218 , -9.544064   , 9.553012E-05, -0.00181090471, 0.00119066308, 0.105231225 , 0.156330049 , 0.7149117   , 0.00242964365, 0.0146649908, -0.9304545  , 1.53        , 3           , 11          , 0.015519103 , 0.0155190909
0.120239593 , -0.04208164 , -9.873225   , -0.00290937186, -0.00378021877, 0.0004280477, 0.1050964   , 0.156464875 , 0.714574635 , 0.00240061083, 0.0146271782, -0.9304502  , 1.54        , 3           , 12          , 0.0397425629, 0
0.1364528   , -0.02411061 , -10.0472221 , -0.00429429626, -0.0015997903, -0.00140928384, 0.104961574 , 0.156397462 , 0.714642048 , 0.002357462 , 0.0146112135, -0.9304645  , 1.55        , 3           , 50          , 0           , 0
0.1487127   , -0.0175360627, -9.662643   , -0.00155980384, 0.0010965399, -0.00149644 , 0.1050964   , 0.156330049 , 0.7147769   , 0.0023416453, 0.0146222143, -0.9304793  , 1.56        , 3           , 11          , 0.015519103 , 0.0155190909
0.17399314  , -0.0389681049, -9.828428   , -0.000197009387, -0.00358249759, -0.00069720106, 0.104894161 , 0.156397462 , 0.714709461 , 0.002339572 , 0.0145864049, -0.930486441, 1.57        , 3           , 12          , 0.0397425629, 0
0.119097322 , -0.0344316959, -9.828881   , -0.00267617032, -0.002345011, -5.05866665E-05, 0.105028987 , 0.156397462 , 0.714709461 , 0.002312802 , 0.0145629561, -0.9304869  , 1.58        , 3           , 50          , 0           , 0
0.1367383   , -0.0332276374, -9.578015   , -0.002275655, 0.00130910042, -0.000424478378, 0.105028987 , 0.156397462 , 0.714709461 , 0.00228998461, 0.014576057 , -0.9304912  , 1.59        , 3           , 11          , 0.015519103 , 0.0155190909
0.137456656 , -0.0247568768, -9.736907   , -0.000782547, 0.00115255907, -0.000632192532, 0.105028987 , 0.156532288 , 0.714709461 , 0.00228207139, 0.0145875989, -0.9304974  , 1.6         , 3           , 12          , 0.0404294133, 0
0.134600967 , -0.0304563027, -9.917225   , 0.0001781385, -0.00200800574, -0.0008867276, 0.1050964   , 0.156667113 , 0.714709461 , 0.00228372286, 0.0145675363, -0.930506468, 1.61        , 3           , 50          , 0           , 0
0.135941878 , -0.023806097, -9.90765    , -2.31598624E-05, -0.00100217143, -0.000944946252, 0.1050964   , 0.156262636 , 0.7149791   , 0.002283353 , 0.0145575367, -0.930516   , 1.62        , 3           , 11          , 0.013820841 , 0.0138208261
0.154905856 , 0.00093579106, -9.623978   , 0.0017374641, -0.00188956736, 0.000126356856, 0.105298638 , 0.156330049 , 0.7147769   , 0.00230074488, 0.0145386374, -0.9305146  , 1.63        , 3           , 12          , 0.0404294133, 0
0.14598316  , -0.006178811, -9.709965   , 0.003884025 , -5.93529439E-05, 0.00138253218, 0.105298638 , 0.156330049 , 0.7147769   , 0.00233978569, 0.0145380124, -0.930500746, 1.64        , 3           , 50          , 0           , 0
0.164956838 , -0.0115362685, -9.855748   , -0.0005271316, -0.0002998632, 0.0012087191, 0.1050964   , 0.156397462 , 0.7147769   , 0.00233469042, 0.0145349847, -0.9304888  , 1.65        , 3           , 11          , 0.013820841 , 0.0138208261
0.134999454 , -0.0190176386, -9.76532    , -0.0006582779, 0.000210133847, 0.000428215164, 0.105163813 , 0.156734526 , 0.7149117   , 0.0023281693, 0.0145370755, -0.930484533, 1.66        , 3           , 12          , 0.0404294133, 0
0.110757723 , -0.0131065687, -9.834132   , -0.00143429765, 0.00050849875, -1.56914837E-06, 0.105298638 , 0.156464875 , 0.7148443   , 0.0023138267, 0.0145421606, -0.930484533, 1.67        , 3           , 50          , 0           , 0
0.130711183 , -0.02418879 , -9.867954   , 0.000875888 , -0.00210351148, 0.0009765786, 0.105433464 , 0.156532288 , 0.714709461 , 0.00232272758, 0.0145211052, -0.9304745  , 1.68        , 3           , 11          , 0.013820841 , 0.0138208261
0.153063715 , -0.022258535, -9.646396   , -0.0005559289, -0.00358336559, -0.00019855547, 0.105163813 , 0.156397462 , 0.714642048 , 0.00231713639, 0.0144852735, -0.930476665, 1.69        , 3           , 12          , 0.0404294133, 0
0.139885992 , -0.0416671224, -9.718108   , 0.00148946792, 0.0007014968, -0.000839367567, 0.105163813 , 0.156397462 , 0.714642048 , 0.00233190949, 0.01449232  , -0.930485   , 1.7         , 3           , 50          , 0           , 0
0.139947057 , -0.0190169085, -9.89491    , 0.0020157753, 0.00263916771, -0.0017382307, 0.105163813 , 0.156734526 , 0.714642048 , 0.002351816 , 0.014518748 , -0.9305024  , 1.71        , 3           , 11          , 0.0145000722, 0.0145000555
0.121658348 , -0.0130554959, -9.847582   , 0.0014360199, 0.0027716   , 0.000120495271, 0.105163813 , 0.1565997   , 0.7148443   , 0.00236619613, 0.0145464605, -0.9305012  , 1.72        , 3           , 12          , 0.04114829  , 0
0.1465805   , -0.00971527 , -9.800791   , -0.000639026344, 0.00171723776, 0.000163963385, 0.105163813 , 0.156667113 , 0.7147769   , 0.00235982984, 0.0145636294, -0.930499554, 1.73        , 3           , 50          , 0           , 0
0.166726217 , -0.03613434 , -9.75077152 , -0.0004636577, -0.000592919765, 0.00184884446, 0.105433464 , 0.156532288 , 0.714709461 , 0.00235546264, 0.0145576578, -0.930480957, 1.74        , 3           , 11          , 0.0145000722, 0.0145000555
0.162628472 , -0.0348334275, -9.742663   , 7.718459E-06, -0.0033844444, 0.0009526587, 0.105433464 , 0.156532288 , 0.714709461 , 0.002355677 , 0.0145237911, -0.930471659, 1.75        , 3           , 12          , 0.04114829  , 0
0.14568913  , -0.0210701972, -9.750792   , 0.00229223073, 0.00276677054, -0.000303610577, 0.105366051 , 0.156397462 , 0.714574635 , 0.00237855641, 0.0145514635, -0.9304745  , 1.76        , 3           , 50          , 0           , 0
0.144340172 , -0.0248135477, -9.820859   , 0.0006567729, 0.0025012854, -0.0008184231, 0.105163813 , 0.156667113 , 0.714709461 , 0.00238500629, 0.0145764975, -0.9304826  , 1.77        , 3           , 11          , 0.0145000722, 0.0145000555
0.158276334 , -0.026748376, -9.81985    , -0.00141360646, 0.00251135719, 0.000385351828, 0.105231225 , 0.156464875 , 0.7148443   , 0.00237092725, 0.0146016   , -0.9304788  , 1.78        , 3           , 12          , 0.04114829  , 0
0.161071867 , -0.03132754 , -9.773805   , -0.00290753646, 0.002596253 , 0.0005920229, 0.105298638 , 0.156532288 , 0.7145072   , 0.00234194053, 0.0146275489, -0.9304726  , 1.79        , 3           , 50          , 0           , 0
0.12758261  , -0.0317448  , -9.750177   , 0.0001741365, 0.00190912257, -0.0009736643, 0.105298638 , 0.156532288 , 0.7145072   , 0.00238652225, 0.0147388168, -0.9304817  , 1.8         , 3           , 11          , 0.0152364084, 0.0152363945
0.127303973 , -0.0261364635, -9.768183   , 0.001951122 , 0.00252498756, 0.00026263186, 0.105433464 , 0.156464875 , 0.714574635 , 0.002406073 , 0.01476406  , -0.93047905 , 1.81        , 3           , 12          , 0.0418972075, 0
0.151542962 , -0.0279939063, -9.824443   , -0.00085798587, -0.0005985695, 0.0001284763, 0.105366051 , 0.156532288 , 0.714709461 , 0.002397512 , 0.0147580747, -0.930477858, 1.82        , 3           , 50          , 0           , 0
0.167721748 , -0.0223942343, -9.812938   , -0.00205261423, -0.000214627245, -0.00137594959, 0.1050964   , 0.156532288 , 0.7147769   , 0.00237678317, 0.01475596  , -0.9304917  , 1.83        , 3           , 11          , 0.0152364084, 0.0152363945
0.140382156 , -0.0315594  , -9.777611   , -0.00148415565, 0.000484523538, -7.435108E-05, 0.105366051 , 0.156532288 , 0.7149117   , 0.00236193044, 0.0147608072, -0.930492163, 1.84        , 3           , 12          , 0.0418972075, 0
0.14278844  , -0.04227311 , -9.7479     , 0.00170720078, -0.000335437449, -0.000138093645, 0.1050964   , 0.156464875 , 0.7145072   , 0.00237898156, 0.0147574553, -0.9304936  , 1.85        , 3           , 50          , 0           , 0
0.118852153 , -0.0223434381, -9.778605   , 0.00142213469, 0.000231012251, 0.000941655 , 0.1050964   , 0.156464875 , 0.7145072   , 0.00239334186, 0.0147597408, -0.9304843  , 1.86        , 3           , 11          , 0.0152364084, 0.0152363945
0.165168822 , -0.0105697382, -9.820052   , 0.00035177535, -0.000327470683, 0.0004976368, 0.1050964   , 0.156464875 , 0.714709461 , 0.002396934 , 0.0147564551, -0.9304793  , 1.87        , 3           , 12          , 0.0418972075, 0
0.169685647 , 0.00454765931, -9.803575   , -0.000928547932, -0.000385472231, 0.000417342118, 0.105163813 , 0.1565997   , 0.714709461 , 0.00238771015, 0.01475259  , -0.930475235, 1.88        , 3           , 50          , 0           , 0
0.162673771 , 0.0002047587, -9.77162    , 0.0006356008, -0.000754470064, -0.000150779146, 0.105366051 , 0.1565997   , 0.7148443   , 0.00239404268, 0.0147450529, -0.9304769  , 1.89        , 3           , 11          , 0.0152364084, 0.0152363945
0.131392792 , -0.0132067725, -9.75760651 , -0.00176291948, -0.0003944775, -0.0005909642, 0.105163813 , 0.156464875 , 0.714709461 , 0.00226048985, 0.0148323029, -0.9304843  , 1.9         , 3           , 12          , 0.04267427  , 0
0.136863738 , -0.0211620424, -9.777072   , 0.001119508 , 0.00209635147, -0.00189659081, 0.105163813 , 0.156464875 , 0.714709461 , 0.00227140379, 0.014853308 , -0.93050313 , 1.91        , 3           , 50          , 0           , 0
0.138267562 , -0.0215376057, -9.785194   , -0.000186263336, 0.000734666362, -0.000421764358, 0.105028987 , 0.156397462 , 0.714642048 , 0.00226947921, 0.0148606645, -0.9305074  , 1.92        , 3           , 11          , 0.0156167792, 0.0156167652
0.126356617 , -0.00547586754, -9.801378   , -0.006433057, -0.004432553, -0.000535197731, 0.10556829  , 0.1565997   , 0.714709461 , 0.00220506778, 0.0148163512, -0.9305129  , 1.93        , 3           , 12          , 0.04267427  , 0
0.120313115 , -0.0155093484, -9.786192   , -0.002654743, -0.00340000843, -6.759845E-05, 0.105366051 , 0.156667113 , 0.7147769   , 0.00217850925, 0.0147823524, -0.9305136  , 1.94        , 3           , 50          , 0           , 0
0.130897328 , -0.0186137185, -9.757674   , -0.00141720381, -0.001046092, -0.000240507827, 0.105163813 , 0.156532288 , 0.7149117   , 0.00216430216, 0.0147718973, -0.930516   , 1.95        , 3           , 11          , 0.0156167792, 0.0156167652
0.126494259 , -0.0219833553, -9.776274   , 0.001147435 , -0.0009953348, -0.000796371954, 0.105028987 , 0.156464875 , 0.714642048 , 0.00217565917, 0.01476196  , -0.9305239  , 1.96        , 3           , 12          , 0.04267427  , 0
0.140065148 , -0.01710714 , -9.779254   , -0.00197672541, -0.0008867851, -0.00138650381, 0.105028987 , 0.156464875 , 0.714642048 , 0.00215568743, 0.0147531228, -0.930537939, 1.97        , 3           , 50          , 0           , 0
0.155955538 , -0.0130361971, -9.793063   , -0.00293918257, -0.00339711877, -6.93117763E-05, 0.105163813 , 0.156464875 , 0.7149791   , 0.002126284 , 0.0147191519, -0.930538654, 1.98        , 3           , 11          , 0.0156167792, 0.0156167652
0.14552699  , -0.0201798715, -9.791435   , -0.000648464, -0.00255346 , -0.0008300352, 0.105163813 , 0.156667113 , 0.7147769   , 0.00211967668, 0.0146936355, -0.930547   , 1.99        , 3           , 12          , 0.04267427  , 0
0.132098854 , 0.0009802934, -9.777311   , -0.00269409316, -0.00150143448, -0.00233031833, 0.105163813 , 0.156464875 , 0.7150465   , 0.00208211737, 0.014708058 , -0.930570364, 2           , 3           , 50          , 0           , 0
0.1322076   , -0.000188544393, -9.794489   , -0.004473981, -0.00113346893, -0.00140577718, 0.105231225 , 0.156667113 , 0.7147769   , 0.00203717  , 0.0146967527, -0.930584669, 2.01        , 3           , 11          , 0.0160237383, 0.0160237234
0.132569358 , -0.0119015  , -9.795976   , -0.00161211309, -0.004338494, 0.00114135235, 0.105231225 , 0.156667113 , 0.7147769   , 0.00202121586, 0.0146533465, -0.9305732  , 2.02        , 3           , 12          , 0.0434776545, 0
0.127327919 , -0.0247643851, -9.769974   , 0.001382895 , -0.00372275221, 0.00102565147, 0.105366051 , 0.1565997   , 0.7147769   , 0.002035193 , 0.0146160973, -0.930563   , 2.03        , 3           , 50          , 0           , 0
0.140005127 , -0.0171990767, -9.770674   , -0.00156260747, -0.000533641549, 0.0003381597, 0.105028987 , 0.156734526 , 0.715113938 , 0.00201961654, 0.0146107534, -0.930559635, 2.04        , 3           , 11          , 0.0160237383, 0.0160237234
0.128797367 , -0.0232589059, -9.7853     , -0.00188521866, 0.001630192 , -0.000848877651, 0.105028987 , 0.156667113 , 0.7149791   , 0.002000641 , 0.0146270711, -0.930568   , 2.05        , 3           , 12          , 0.0434776545, 0
0.160381153 , -0.0185346473, -9.788569   , 0.000318510632, 0.000971952744, -0.00184656319, 0.1050964   , 0.156464875 , 0.714709461 , 0.00200355472, 0.0146368248, -0.9305866  , 2.06        , 3           , 50          , 0           , 0
0.162505284 , -0.0169683713, -9.768206   , 9.836449E-05, 0.00124726165, -0.000341313716, 0.1050964   , 0.156464875 , 0.714709461 , 0.00200448884, 0.0146493083, -0.9305899  , 2.07        , 3           , 11          , 0.0160237383, 0.0160237234
0.14824602  , -0.00504196063, -9.775427   , -0.0008639548, -0.00133343728, 0.000831752841, 0.105028987 , 0.156532288 , 0.7148443   , 0.001995971 , 0.0146359559, -0.93058157 , 2.08        , 3           , 12          , 0.0434776545, 0
0.148267135 , -0.0103512164, -9.784971   , 0.00169951562, -0.00142532983, 0.000202261072, 0.105028987 , 0.156532288 , 0.7150465   , 0.002012995 , 0.0146216964, -0.9305794  , 2.09        , 3           , 50          , 0           , 0
0.145016119 , -0.0207139514, -9.783315   , 0.00174314412, 0.000168193277, 0.00079729443, 0.1050964   , 0.156667113 , 0.7149791   , 0.00194578047, 0.014670372 , -0.930572748, 2.1         , 3           , 11          , 0.0153017491, 0.0153017379
0.127864137 , -0.037990652, -9.798578   , -0.00089191267, -0.000233666724, 0.0006321033, 0.105366051 , 0.156667113 , 0.7150465   , 0.00193695363, 0.0146680223, -0.930566549, 2.11        , 3           , 12          , 0.04430562  , 0
0.176721022 , -0.02426174 , -9.814232   , 0.00581236463, 0.001347537 , 0.000553283957, 0.105231225 , 0.156532288 , 0.7149117   , 0.00199515931, 0.0146814864, -0.9305608  , 2.12        , 3           , 50          , 0           , 0
0.154148623 , -0.008133126, -9.786248   , 0.00125473179, 0.000326777721, -0.000348273228, 0.105231225 , 0.156532288 , 0.7149117   , 0.00200765557, 0.0146847609, -0.930564165, 2.13        , 3           , 11          , 0.0153017491, 0.0153017379
0.132548392 , 0.00275580026, -9.775028   , -0.002175397, -0.0006486125, 0.000403509737, 0.105231225 , 0.156532288 , 0.7148443   , 0.00198596017, 0.0146782659, -0.93056035 , 2.14        , 3           , 12          , 0.04430562  , 0
0.150384635 , -0.02749072 , -9.786506   , -0.00105015025, -0.00166447775, 0.000538838 , 0.1050964   , 0.156532288 , 0.715113938 , 0.00197553681, 0.01466161  , -0.9305551  , 2.15        , 3           , 50          , 0           , 0
0.176210567 , -0.008325225, -9.786047   , -0.00142503052, -0.002392031, 0.00217170548, 0.1050964   , 0.156667113 , 0.7150465   , 0.00196160236, 0.0146376463, -0.9305334  , 2.16        , 3           , 11          , 0.0153017491, 0.0153017379
0.1352232   , -0.007546613, -9.783705   , -0.00123426237, 0.00091626175, 0.000646655739, 0.105231225 , 0.156667113 , 0.7148443   , 0.00194935466, 0.0146468   , -0.930527   , 2.17        , 3           , 12          , 0.04430562  , 0
0.129772961 , -0.0213711876, -9.793852   , 0.00035802467, -0.002896887, 0.0005296674, 0.105231225 , 0.156667113 , 0.7148443   , 0.00195301231, 0.0146178184, -0.9305217  , 2.18        , 3           , 50          , 0           , 0
0.127499342 , -0.02850801 , -9.799376   , -0.000431200548, -0.0032510038, 0.000948984642, 0.105028987 , 0.156532288 , 0.714642048 , 0.00194883754, 0.01458529  , -0.9305122  , 2.19        , 3           , 11          , 0.0153017491, 0.0153017379
0.134747475 , -0.0285029877, -9.805633   , -0.0003794224, -0.00256880163, -3.36934936E-05, 0.104961574 , 0.156734526 , 0.7149117   , 0.0024501856, 0.0137310652, -0.930505753, 2.2         , 3           , 12          , 0.0451565124, 0
0.166103259 , -0.03837225 , -9.793714   , 0.00287878024, -0.003677344, 4.19008356E-05, 0.105163813 , 0.156734526 , 0.7148443   , 0.00247897836, 0.0136942919, -0.9305055  , 2.21        , 3           , 50          , 0           , 0
0.152656287 , -0.0194665976, -9.779617   , -0.000739091833, -0.00341724814, -0.0009068479, 0.1050964   , 0.1565997   , 0.7149117   , 0.00247146236, 0.0136601385, -0.9305146  , 2.22        , 3           , 11          , 0.0153500419, 0.0153500317
0.116538852 , -0.01930298 , -9.765945   , -0.0029118082, -0.0006013472, -0.000807893637, 0.1050964   , 0.1565997   , 0.7149117   , 0.0024422335, 0.0136541463, -0.9305227  , 2.23        , 3           , 12          , 0.0451565124, 0
0.119342975 , -0.0249559972, -9.787665   , -0.00228990754, -0.00147846411, 0.00039963788, 0.105163813 , 0.156532288 , 0.714642048 , 0.002419389 , 0.0136393514, -0.930518866, 2.24        , 3           , 50          , 0           , 0
0.154521674 , -0.0184933543, -9.78772    , 0.0007804738, -0.000575585756, 0.000145456841, 0.105028987 , 0.156532288 , 0.7148443   , 0.00242721383, 0.0136335911, -0.930517435, 2.25        , 3           , 11          , 0.0153500419, 0.0153500317
0.1561311   , -0.0294856187, -9.773377   , 0.000413572852, -0.0009397959, 0.00121121318, 0.105231225 , 0.156734526 , 0.7148443   , 0.00243151467, 0.0136241652, -0.9305053  , 2.26        , 3           , 12          , 0.0451565124, 0
0.136326313 , -0.03420052 , -9.78039    , -0.00151092524, -0.00205508969, -0.000104784391, 0.105366051 , 0.156667113 , 0.7148443   , 0.00241639  , 0.0136036174, -0.9305062  , 2.27        , 3           , 50          , 0           , 0
0.128082067 , -0.0238577146, -9.812868   , -7.518245E-05, -0.0008522164, -6.93886477E-06, 0.1050964   , 0.156464875 , 0.7148443   , 0.00241563772, 0.0135950958, -0.930506468, 2.28        , 3           , 11          , 0.0153500419, 0.0153500317
0.129598871 , 0.00309292413, -9.80396    , 0.000545633666, -0.00314175314, -0.00110958691, 0.1050964   , 0.156464875 , 0.7148443   , 0.002420942 , 0.0135637047, -0.930517435, 2.29        , 3           , 12          , 0.0451565124, 0
0.132210732 , -0.0117572471, -9.809076   , -0.005353988, -0.003168938, -0.00157659722, 0.105433464 , 0.156532288 , 0.7148443   , 0.00208077533, 0.0134958979, -0.9305372  , 2.3         , 3           , 50          , 0           , 0
0.150831342 , -0.0323965326, -9.791978   , -0.00170346489, -0.000140412027, 0.00020709775, 0.105163813 , 0.156667113 , 0.7149117   , 0.00206376915, 0.01349449  , -0.9305351  , 2.31        , 3           , 11          , 0.0111046592, 0.0111046731
0.154861122 , -0.01421565 , -9.766437   , -0.0009180872, -0.000285249233, -0.000505687261, 0.105298638 , 0.1565997   , 0.7150465   , 0.00205452042, 0.0134916473, -0.9305401  , 2.32        , 3           , 12          , 0.0460287854, 0
0.131945744 , -0.00726665556, -9.765213   , -0.00236421172, -0.0023485  , -0.0005445124, 0.105231225 , 0.1565997   , 0.7149117   , 0.00203080382, 0.0134681705, -0.930545568, 2.33        , 3           , 50          , 0           , 0
0.132938668 , -0.0111390986, -9.783316   , 0.003295613 , 0.00195388426, 0.0007691706, 0.105231225 , 0.1565997   , 0.7149117   , 0.00206386461, 0.0134876939, -0.930537939, 2.34        , 3           , 11          , 0.0111046592, 0.0111046731
0.123039551 , 0.00275586918, -9.767437   , -1.59541742E-05, 0.0038627598, -0.0005831129, 0.105298638 , 0.156532288 , 0.7148443   , 0.00206362759, 0.0135263344, -0.930543661, 2.35        , 3           , 12          , 0.0460287854, 0
0.148436621 , -0.0312613174, -9.7698555  , 0.00202368945, 0.00155429554, -0.0011764071, 0.105298638 , 0.1565997   , 0.7149117   , 0.00208370574, 0.0135419033, -0.930555344, 2.36        , 3           , 50          , 0           , 0
0.141656414 , -0.0002805479, -9.7935     , 0.0013707045, 0.0005558504, -0.0009802465, 0.105163813 , 0.156532288 , 0.715113938 , 0.00209727976, 0.013547481 , -0.9305651  , 2.37        , 3           , 11          , 0.0111046592, 0.0111046731
0.144786    , -0.000341855, -9.790309   , -0.00332984212, -0.000111638976, -0.00116203353, 0.105298638 , 0.156464875 , 0.7147769   , 0.0020638234, 0.0135463923, -0.9305768  , 2.38        , 3           , 12          , 0.0460287854, 0
0.132313013 , -0.0287640579, -9.77946    , -0.0008576358, -0.00100561907, -0.000157987743, 0.105500877 , 0.156397462 , 0.714574635 , 0.002055225 , 0.0135363368, -0.9305785  , 2.39        , 3           , 50          , 0           , 0
0.128566533 , -0.04453373 , -9.777869   , -0.000853453646, -0.0018667652, -2.72141879E-05, 0.105500877 , 0.156397462 , 0.714574635 , 0.00207681372, 0.0135174142, -0.9305785  , 2.4         , 3           , 11          , 0.0110391984, 0.01103921
0.140603021 , -0.0129706487, -9.78688049 , -0.001711043, -0.00165212026, 0.000972349837, 0.105028987 , 0.156464875 , 0.7148443   , 0.00205983361, 0.0135008711, -0.9305687  , 2.41        , 3           , 12          , 0.046920944 , 0
0.135185614 , -0.0142811658, -9.786493   , -0.0009747055, -3.1958507E-06, 7.059807E-05, 0.104961574 , 0.1565997   , 0.7149117   , 0.0020500964, 0.0135008376, -0.930568   , 2.42        , 3           , 50          , 0           , 0
0.135629013 , -0.0285398681, -9.802915   , -0.00307277963, -0.00334571162, -0.0004201091, 0.105231225 , 0.156532288 , 0.7148443   , 0.0020193113, 0.0134673892, -0.9305723  , 2.43        , 3           , 11          , 0.0110391984, 0.01103921
0.132312328 , -0.0154110771, -9.763044   , -0.005111249, -0.001388433, -0.000618982944, 0.105298638 , 0.156464875 , 0.7148443   , 0.00196811557, 0.0134535162, -0.9305785  , 2.44        , 3           , 12          , 0.046920944 , 0
0.159344926 , -0.0209603719, -9.7718935  , -0.00188792846, 0.000938217563, 7.052529E-06, 0.105298638 , 0.156464875 , 0.7148443   , 0.00194923719, 0.0134628965, -0.930578232, 2.45        , 3           , 50          , 0           , 0
0.132431567 , -0.0112222638, -9.77519    , 0.000182101576, 0.0013509756, -0.000403511076, 0.1050964   , 0.156667113 , 0.714709461 , 0.00195100508, 0.0134764137, -0.9305823  , 2.46        , 3           , 11          , 0.0110391984, 0.01103921
0.134363443 , -0.0007993821, -9.781377   , -0.00255041034, -0.000143390193, 0.0014899075, 0.104894161 , 0.156397462 , 0.7149117   , 0.00192570139, 0.0134749506, -0.9305675  , 2.47        , 3           , 12          , 0.046920944 , 0
0.1734686   , -0.0194920823, -9.79387951 , 0.000929998932, -0.00110121188, 0.0004957587, 0.105028987 , 0.156532288 , 0.7149117   , 0.00193506875, 0.0134639284, -0.930562258, 2.48        , 3           , 50          , 0           , 0
0.172420517 , -0.01214304 , -9.763542   , 0.0004999788, -0.00208902662, -0.0007376157, 0.105231225 , 0.156464875 , 0.7148443   , 0.0019399689, 0.0134430518, -0.9305699  , 2.49        , 3           , 11          , 0.0110391984, 0.01103921
0.1267041   , -0.041051127, -9.764747   , 0.00092479185, -0.00147970649, -0.0005122671, 0.105231225 , 0.156464875 , 0.7148443   , 0.001935105 , 0.0135132745, -0.9305749  , 2.5         , 3           , 12          , 0.0478316061, 0
0.142730519 , -0.0158505216, -9.772439   , 0.00150735339, -0.000338529178, -0.000563687237, 0.105028987 , 0.156397462 , 0.714709461 , 0.00195010228, 0.0135099   , -0.9305806  , 2.51        , 3           , 50          , 0           , 0
0.140704721 , -0.0123697426, -9.800875   , -0.00165257067, -0.00218230556, 0.0008211575, 0.104961574 , 0.156667113 , 0.7147769   , 0.001933687 , 0.0134880608, -0.9305725  , 2.52        , 3           , 11          , 0.0114048906, 0.0114048989
0.129356414 , -0.0128581217, -9.788337   , -0.0009835557, -0.0007392745, -0.00101418572, 0.105163813 , 0.156667113 , 0.714642048 , 0.00192371442, 0.0134806894, -0.930582762, 2.53        , 3           , 12          , 0.0478316061, 0
0.1395889   , -0.0153624993, -9.773366   , 0.000212036364, -0.001121937, 0.000347158348, 0.105298638 , 0.1565997   , 0.7147769   , 0.00192588149, 0.0134694595, -0.9305792  , 2.54        , 3           , 50          , 0           , 0
0.131272912 , -0.0229349565, -9.817345   , 1.74109687E-06, -0.00168013049, -0.00109329377, 0.105298638 , 0.156397462 , 0.7145072   , 0.00192575192, 0.0134526817, -0.930590153, 2.55        , 3           , 11          , 0.0114048906, 0.0114048989
0.128011569 , -0.0293072835, -9.809318   , -0.002688823, -0.000437917159, -0.0007341285, 0.105298638 , 0.156397462 , 0.7145072   , 0.00189876428, 0.0134483166, -0.930597544, 2.56        , 3           , 12          , 0.0478316061, 0
0.1522398   , -0.0247525573, -9.790974   , -0.00701208226, -0.004491123, 0.000611517637, 0.105231225 , 0.156464875 , 0.714574635 , 0.001828724 , 0.0134033933, -0.9305916  , 2.57        , 3           , 50          , 0           , 0
0.169593275 , -0.0118670072, -9.745045   , -0.0055795  , -0.003645194, 0.0005610642, 0.105163813 , 0.156667113 , 0.7147769   , 0.00177300361, 0.0133669311, -0.9305861  , 2.58        , 3           , 11          , 0.0114048906, 0.0114048989
0.135127172 , -0.02015745 , -9.785206   , 0.000440486852, 0.000518606743, 0.0009447691, 0.105231225 , 0.156464875 , 0.7147769   , 0.001777535 , 0.0133721009, -0.9305763  , 2.59        , 3           , 12          , 0.0478316061, 0
0.133386463 , -0.01292728 , -9.785139   , 0.00259255851, 0.0008057458, -0.000182788019, 0.105366051 , 0.156667113 , 0.7147769   , 0.00181914237, 0.0134044224, -0.930578   , 2.6         , 3           , 50          , 0           , 0
0.132864341 , -0.00324054435, -9.762899   , 0.00268259365, -0.0033568556, 0.0004014215, 0.105366051 , 0.156667113 , 0.7147769   , 0.00184602174, 0.0133708464, -0.9305742  , 2.61        , 3           , 11          , 0.011868705 , 0.01186871
0.162329257 , -0.03504332 , -9.764802   , -0.000962503138, -0.005461038, -0.000581758854, 0.105163813 , 0.156532288 , 0.714709461 , 0.00183631794, 0.0133162467, -0.9305799  , 2.62        , 3           , 12          , 0.0487594679, 0
0.164810658 , -0.0258076917, -9.786806   , 0.00277521973, -0.00128307857, 0.000789812941, 0.104826748 , 0.156532288 , 0.7147769   , 0.001864175 , 0.0133034019, -0.9305723  , 2.63        , 3           , 50          , 0           , 0
0.153114632 , -0.0296961721, -9.793282   , 0.00143162115, -0.000412814843, 0.0011519   , 0.1050964   , 0.1565997   , 0.714709461 , 0.00187864434, 0.0132992519, -0.9305608  , 2.64        , 3           , 11          , 0.011868705 , 0.01186871
0.1264598   , -0.0402866229, -9.79365    , -0.00125316763, 0.00133091223, 0.00151836884, 0.105298638 , 0.156464875 , 0.7147769   , 0.001866315 , 0.0133125316, -0.930545568, 2.65        , 3           , 12          , 0.0487594679, 0
0.115304358 , -0.0311317984, -9.797259   , -0.000531469355, 0.00133776537, -5.124964E-05, 0.105163813 , 0.156464875 , 0.714574635 , 0.00186099391, 0.0133259119, -0.930546045, 2.66        , 3           , 50          , 0           , 0
0.155686274 , 0.00638570637, -9.795551   , -0.000582697045, -0.0023282764, 0.00125481677, 0.105163813 , 0.156464875 , 0.714574635 , 0.00185533264, 0.0133026056, -0.930533648, 2.67        , 3           , 11          , 0.011868705 , 0.01186871
0.162725791 , 0.00829686  , -9.769267   , -0.00310227042, -0.00558905443, 0.00011871395, 0.1050964   , 0.1565997   , 0.714574635 , 0.00182432448, 0.0132467141, -0.930532455, 2.68        , 3           , 12          , 0.0487594679, 0
0.1287896   , -0.0197097268, -9.77983952 , -0.003408381, -0.001992325, -0.00104745571, 0.105231225 , 0.156532288 , 0.714709461 , 0.00179010141, 0.013226808 , -0.930542946, 2.69        , 3           , 50          , 0           , 0
0.12847209  , -0.007929038, -9.784676   , -0.00367097161, 0.0005015923, 0.0007043871, 0.105163813 , 0.1565997   , 0.7147769   , 0.0017627934, 0.013229385 , -0.9305358  , 2.7         , 3           , 11          , 0.0121227512, 0.0121227577
0.128903836 , -0.0168639682, -9.792905   , 0.000248953729, 0.000614747754, -0.000343081978, 0.1050964   , 0.156532288 , 0.714574635 , 0.00176523766, 0.01323554  , -0.930539131, 2.71        , 3           , 12          , 0.0497033074, 0
0.177030355 , -0.0120177288, -9.778855   , 0.0009665873, 0.000968947134, -0.0006912866, 0.1050964   , 0.156532288 , 0.714574635 , 0.00177481177, 0.0132452417, -0.930546045, 2.72        , 3           , 50          , 0           , 0
0.171166882 , -0.007976355, -9.772539   , -0.00248161936, -0.00186472852, -0.000467418635, 0.105231225 , 0.156532288 , 0.714574635 , 0.001749934 , 0.0132266013, -0.9305508  , 2.73        , 3           , 11          , 0.0121227512, 0.0121227577
0.126954719 , -0.0237521958, -9.779903   , 0.002872388 , 0.0002956807, 0.00031246242, 0.105231225 , 0.1565997   , 0.714709461 , 0.00177869911, 0.0132295527, -0.9305475  , 2.74        , 3           , 12          , 0.0497033074, 0
0.1440902   , -0.0300928745, -9.79111    , -0.00208350224, -0.003317956, 0.001302809 , 0.105163813 , 0.156464875 , 0.7147769   , 0.00175803551, 0.0131963482, -0.9305346  , 2.75        , 3           , 50          , 0           , 0
0.138116479 , -0.0328973457, -9.777195   , -0.000366607623, -0.003392221, -0.0003333972, 0.105298638 , 0.156464875 , 0.714709461 , 0.001754325 , 0.0131624322, -0.930537939, 2.76        , 3           , 11          , 0.0121227512, 0.0121227577
0.145323038 , -0.03562681 , -9.780774   , -0.00135906378, -0.0022492283, 0.001179661 , 0.105298638 , 0.156464875 , 0.714709461 , 0.00174088869, 0.0131399222, -0.930526257, 2.77        , 3           , 12          , 0.0497033074, 0
0.1298734   , -0.0332359523, -9.822896   , -0.000203846372, -0.000332776253, 0.00193009584, 0.105163813 , 0.156464875 , 0.714574635 , 0.00173910346, 0.0131365592, -0.930506945, 2.78        , 3           , 50          , 0           , 0
0.131996572 , -0.0254392549, -9.794782   , -0.00123128865, 0.00135276478, -0.00105705333, 0.105298638 , 0.156464875 , 0.714709461 , 0.0017266518, 0.0131501034, -0.9305177  , 2.79        , 3           , 11          , 0.0121227512, 0.0121227577
0.127087981 , 0.00226968341, -9.76740551 , -0.0015156127, 0.00130153913, 0.0005146743, 0.1050964   , 0.1565997   , 0.7148443   , 0.00188427593, 0.013227636 , -0.930510759, 2.8         , 3           , 12          , 0.05066196  , 0
0.132218659 , -0.00595839135, -9.803137   , -0.00123054651, 0.0007350895, -0.000565074442, 0.105298638 , 0.156667113 , 0.714709461 , 0.00187189586, 0.013234999 , -0.930516243, 2.81        , 3           , 50          , 0           , 0
0.1360231   , -0.0304103158, -9.79706    , 0.00118306873, 0.000352303672, -0.000555727456, 0.1050964   , 0.156667113 , 0.714642048 , 0.00188365311, 0.0132385315, -0.9305217  , 2.82        , 3           , 11          , 0.0124680782, 0.0124680866
0.119391911 , -0.030667793, -9.801733   , 0.00196073228, 0.000691063236, 0.000741939235, 0.1050964   , 0.156667113 , 0.714642048 , 0.00190335885, 0.0132454289, -0.930514336, 2.83        , 3           , 12          , 0.05066196  , 0
0.135496482 , -0.0193950441, -9.772547   , -0.00253439066, -0.000624036242, 0.000623588 , 0.105231225 , 0.1565997   , 0.714709461 , 0.00187809754, 0.013239176 , -0.930508137, 2.84        , 3           , 50          , 0           , 0
0.135807782 , -0.03341091 , -9.769544   , -0.00317980628, -0.0015418781, -0.000180782081, 0.105433464 , 0.156667113 , 0.7149791   , 0.00184627576, 0.0132237608, -0.930510044, 2.85        , 3           , 11          , 0.0124680782, 0.0124680866
0.133776277 , -0.029493738, -9.796619   , 0.00181562756, 0.000194833934, 0.0003045329, 0.105163813 , 0.156667113 , 0.7149117   , 0.00186447182, 0.0132257063, -0.930506945, 2.86        , 3           , 12          , 0.05066196  , 0
0.146464065 , -0.0187962912, -9.795023   , 0.000648832531, 0.00386099936, 0.000350463553, 0.105231225 , 0.156667113 , 0.7147769   , 0.001871008 , 0.0132643078, -0.9305036  , 2.87        , 3           , 50          , 0           , 0
0.138729036 , -0.006389776, -9.768303   , -0.00220931531, 0.00253120344, 2.73413334E-05, 0.105231225 , 0.156667113 , 0.7147769   , 0.00184891874, 0.0132896183, -0.93050313 , 2.88        , 3           , 11          , 0.0124680782, 0.0124680866
0.1341269   , -0.0216378085, -9.772586   , -9.821238E-05, -0.0002008127, -0.00135873584, 0.105163813 , 0.1565997   , 0.7147769   , 0.0018477554, 0.0132876365, -0.9305167  , 2.89        , 3           , 12          , 0.05066196  , 0
0.13817206  , -0.0199033413, -9.769367   , 0.0006026556, -0.000645585533, 0.0001416899, 0.1050964   , 0.156667113 , 0.7147769   , 0.00186406565, 0.0132934032, -0.9305153  , 2.9         , 3           , 50          , 0           , 0
0.138739139 , -0.005929187, -9.769199   , 0.000291201577, -0.00335943885, -0.000543541159, 0.104826748 , 0.156801939 , 0.7149791   , 0.0018669049, 0.0132598169, -0.9305208  , 2.91        , 3           , 11          , 0.0117173148, 0.0117173279
0.174314469 , -0.00177820947, -9.764308   , 0.00130344  , -0.00130145194, 0.0005658288, 0.1050964   , 0.156667113 , 0.714709461 , 0.00188001466, 0.0132467914, -0.930515051, 2.92        , 3           , 12          , 0.0516343527, 0
0.167612582 , -0.0007498618, -9.770681   , 0.001445383 , -0.00116216671, 0.0008549364, 0.105231225 , 0.156734526 , 0.714709461 , 0.0018945816, 0.0132351527, -0.930506468, 2.93        , 3           , 50          , 0           , 0
0.143225789 , -0.03136518 , -9.797908   , -0.001802499, 0.000101183061, -0.0005063091, 0.105231225 , 0.156734526 , 0.714709461 , 0.00187648984, 0.0132361744, -0.9305117  , 2.94        , 3           , 11          , 0.0117173148, 0.0117173279
0.127603531 , -0.0145492936, -9.797406   , -0.00157947361, 0.0008173833, -0.000709213258, 0.105163813 , 0.156667113 , 0.7149791   , 0.00186060148, 0.0132443588, -0.9305184  , 2.95        , 3           , 12          , 0.0516343527, 0
0.161857858 , 0.00212266855, -9.781542   , 0.000112460861, -0.00105376064, -0.00172763492, 0.1050964   , 0.156801939 , 0.7149791   , 0.00186149636, 0.0132338544, -0.930536032, 2.96        , 3           , 50          , 0           , 0
0.1552587   , -0.0227577332, -9.769242   , -0.000313452183, -0.000201846458, -0.0003584054, 0.105163813 , 0.156869352 , 0.7149791   , 0.0018583145, 0.0132318418, -0.9305396  , 2.97        , 3           , 11          , 0.0117173148, 0.0117173279
0.158015817 , -0.0235863011, -9.778259   , -0.0001790121, 6.857065E-05, 0.00129206781, 0.105366051 , 0.156869352 , 0.715113938 , 0.00185669516, 0.013232504 , -0.9305265  , 2.98        , 3           , 12          , 0.0516343527, 0
0.135849461 , -0.0329019576, -9.774959   , 0.000825686438, -0.000423220219, -0.000927009969, 0.105366051 , 0.156869352 , 0.715113938 , 0.001864829 , 0.0132282879, -0.930536032, 2.99        , 3           , 50          , 0           , 0
0.153505847 , -0.0244489126, -9.778313   , -0.00298428978, -0.005680335, -0.000597417355, 0.105231225 , 0.156667113 , 0.7148443   , 0.00188427721, 0.0131934825, -0.9305415  , 3           , 3           , 11          , 0.012114808 , 0.0121148163
0.135337308 , -0.00247535668, -9.794035   , -0.0008843611, -0.00205315952, 0.000112086382, 0.105163813 , 0.156801939 , 0.7149791   , 0.00187544746, 0.0131729487, -0.9305403  , 3.01        , 3           , 12          , 0.052619487 , 0
0.143238246 , -0.015321278, -9.7801075  , -0.000778258254, 0.001026204 , 0.000228921228, 0.1050964   , 0.156869352 , 0.7150465   , 0.00186769571, 0.0131832045, -0.930537939, 3.02        , 3           , 50          , 0           , 0
0.137410462 , -0.0174570978, -9.78650951 , -0.0008948976, 0.00275480235, -0.000605386333, 0.1050964   , 0.156801939 , 0.715113938 , 0.00185866759, 0.0132107642, -0.9305439  , 3.03        , 3           , 11          , 0.012114808 , 0.0121148163
0.141652942 , -0.0189814866, -9.815847   , -0.0006149258, 0.00232268427, -0.0006814743, 0.1050964   , 0.156801939 , 0.715113938 , 0.00185242959, 0.0132340053, -0.9305508  , 3.04        , 3           , 12          , 0.052619487 , 0
0.149182081 , -0.009001495, -9.785399   , 0.0007018516, -0.000135283117, 0.000221222377, 0.105366051 , 0.156869352 , 0.7148443   , 0.00185947726, 0.0132326474, -0.930548668, 3.05        , 3           , 50          , 0           , 0
0.1434897   , -0.002027275, -9.800278   , 0.000691476 , -0.00148949574, -0.000585553, 0.105231225 , 0.156869352 , 0.715113938 , 0.00186631468, 0.013217763 , -0.9305544  , 3.06        , 3           , 11          , 0.012114808 , 0.0121148163
0.11585065  , -0.0185248666, -9.79575348 , -0.0007120202, -0.000180322153, -0.00114766706, 0.1050964   , 0.156936765 , 0.715181351 , 0.00185904279, 0.0132159824, -0.9305661  , 3.07        , 3           , 12          , 0.052619487 , 0
0.133912817 , -0.00569251552, -9.787309   , -0.0043874546, -0.00331248669, 0.0006446443, 0.1050964   , 0.157004178 , 0.7153836   , 0.00181525236, 0.013182845 , -0.930559635, 3.08        , 3           , 50          , 0           , 0
0.153070673 , 0.0207849815, -9.790441   , -0.00204453431, -0.0039056458, 0.000221186827, 0.105433464 , 0.156801939 , 0.7149791   , 0.00179483544, 0.0131437853, -0.9305575  , 3.09        , 3           , 11          , 0.012114808 , 0.0121148163
0.146689072 , 0.00514041632, -9.798359   , -0.00426442642, -0.002261329, -0.000344067317, 0.105433464 , 0.156801939 , 0.7149791   , 0.00135580509, 0.0133730536, -0.9305649  , 3.1         , 3           , 12          , 0.05361642  , 0
0.131252766 , -0.0122825718, -9.801413   , -0.0006369371, -0.001027122, 0.00177124876, 0.105433464 , 0.156936765 , 0.7150465   , 0.00134967256, 0.0133627588, -0.930547237, 3.11        , 3           , 50          , 0           , 0
0.138100028 , -0.0449411534, -9.789531   , 0.001336149 , -0.00417540455, -0.0009812247, 0.105231225 , 0.156801939 , 0.715248764 , 0.00136290293, 0.0133210188, -0.930557   , 3.12        , 3           , 11          , 0.0124836508, 0.012483662
0.156703159 , -0.0141684227, -9.772292   , 0.0016732004, -0.005332372, -0.000208826124, 0.1050964   , 0.156801939 , 0.715113938 , 0.00137960573, 0.0132676968, -0.9305594  , 3.13        , 3           , 12          , 0.05361642  , 0
0.155348837 , -0.03063211 , -9.791917   , -0.000116043455, -0.00100146479, -0.0016597209, 0.105028987 , 0.156936765 , 0.7149791   , 0.00137822528, 0.0132577047, -0.930575848, 3.14        , 3           , 50          , 0           , 0
0.151201248 , -0.0311880633, -9.778862   , 0.000721451244, -0.00131334946, 0.0002013115, 0.105028987 , 0.156936765 , 0.7149791   , 0.00138546713, 0.0132445674, -0.9305737  , 3.15        , 3           , 11          , 0.0124836508, 0.012483662
0.132755458 , -0.03679233 , -9.78813    , 0.00206903066, -0.00126118946, 0.0008543625, 0.1050964   , 0.156734526 , 0.715113938 , 0.00140627043, 0.0132319434, -0.9305651  , 3.16        , 3           , 12          , 0.05361642  , 0
0.142921567 , -0.007545509, -9.789958   , -0.000408191234, -0.001008813, -0.000516778557, 0.1050964   , 0.156801939 , 0.715181351 , 0.00140211987, 0.0132218627, -0.930570364, 3.17        , 3           , 50          , 0           , 0
0.165187627 , -0.0263689682, -9.776872   , -4.893746E-05, 5.07288532E-05, 0.000788752048, 0.1050964   , 0.156869352 , 0.715248764 , 0.00140173512, 0.0132223591, -0.9305625  , 3.18        , 3           , 11          , 0.0124836508, 0.012483662
0.139580145 , -0.0171564519, -9.77429    , -0.00197915 , -0.000860508531, 0.0006920816, 0.105366051 , 0.156869352 , 0.715181351 , 0.00138203474, 0.0132137444, -0.9305556  , 3.19        , 3           , 12          , 0.05361642  , 0
0.114066973 , -0.05389666 , -9.776304   , -0.00511054741, -0.001881983, 1.37430789E-05, 0.105163813 , 0.156734526 , 0.7150465   , 0.00134335842, 0.0132304039, -0.930555344, 3.2         , 3           , 50          , 0           , 0
0.141832814 , -0.0207348913, -9.778828   , -0.00400772 , -0.004268057, 0.001130821 , 0.105163813 , 0.156734526 , 0.7150465   , 0.00130343  , 0.0131877065, -0.930544138, 3.21        , 3           , 11          , 0.0123893991, 0.0123894038
0.143790767 , 0.01109436  , -9.762633   , -0.000144668826, -0.00328868348, -0.000548424956, 0.1050964   , 0.156801939 , 0.715113938 , 0.00130191073, 0.0131548271, -0.9305496  , 3.22        , 3           , 12          , 0.0546242669, 0
0.137252733 , -0.0221500359, -9.769401   , 0.00247042719, 0.00155587588, -0.000318972219, 0.105163813 , 0.156936765 , 0.715113938 , 0.0013265732, 0.0131703932, -0.9305527  , 3.23        , 3           , 50          , 0           , 0
0.138573155 , -0.0351170972, -9.78083    , 0.002721169 , -0.000467145321, 0.00122742855, 0.105163813 , 0.156667113 , 0.715181351 , 0.0013539464, 0.0131657049, -0.930540562, 3.24        , 3           , 11          , 0.0123893991, 0.0123894038
0.133166462 , -0.0355209447, -9.780886   , 0.0007139991, -0.001597074, 0.00162798667, 0.1050964   , 0.156734526 , 0.7149117   , 0.00136130012, 0.01314971  , -0.930524349, 3.25        , 3           , 12          , 0.0546242669, 0
0.131251246 , -0.03835103 , -9.767836   , 0.00247572036, 0.00205674954, -0.0002401275, 0.1050964   , 0.156734526 , 0.7149117   , 0.00138602557, 0.0131702805, -0.930526733, 3.26        , 3           , 50          , 0           , 0
0.1375544   , -0.04552847 , -9.77644348 , 0.002193346 , 0.00199183356, -0.000672130263, 0.104961574 , 0.156667113 , 0.7149791   , 0.00140787067, 0.0131902089, -0.9305334  , 3.27        , 3           , 11          , 0.0123893991, 0.0123894038
0.136050582 , -0.0241363421, -9.793375   , 0.0009534635, -0.00015354756, 0.000219319336, 0.105163813 , 0.156936765 , 0.715248764 , 0.00141743477, 0.01318867  , -0.930531263, 3.28        , 3           , 12          , 0.0546242669, 0
0.1433129   , -0.00452374667, -9.777722   , 0.001272011 , 0.00214643427, -0.000890235067, 0.105231225 , 0.156869352 , 0.715113938 , 0.00143003813, 0.0132101467, -0.9305401  , 3.29        , 3           , 50          , 0           , 0
0.1517568   , -0.0141156269, -9.77324    , 0.00408785045, 0.00212759362, 0.000843631045, 0.105433464 , 0.156801939 , 0.7150465   , 0.00143152557, 0.0132904556, -0.930532   , 3.3         , 3           , 11          , 0.01273815  , 0.012738158
0.148501739 , -0.032051824, -9.7802515  , 0.0009466534, -0.0003967974, -0.00178825413, 0.105433464 , 0.156801939 , 0.7150465   , 0.00144075463, 0.0132865142, -0.93054986 , 3.31        , 3           , 12          , 0.05564221  , 0
0.132707089 , -0.0422080345, -9.787742   , -0.0013382358, 0.0004604618, 0.00107219932, 0.105298638 , 0.156869352 , 0.7149117   , 0.00142751448, 0.0132911028, -0.930539131, 3.32        , 3           , 50          , 0           , 0
0.15231812  , -0.0112786237, -9.78585    , -0.00132474722, 0.0004783784, -0.0009309487, 0.105366051 , 0.156869352 , 0.715181351 , 0.00141414325, 0.0132959   , -0.9305484  , 3.33        , 3           , 11          , 0.01273815  , 0.012738158
0.152442157 , -0.015094839, -9.808477   , 0.00123191252, 0.000165792677, -0.0009197017, 0.105231225 , 0.156667113 , 0.715248764 , 0.00142633962, 0.0132975718, -0.9305575  , 3.34        , 3           , 12          , 0.05564221  , 0
0.1490299   , -0.0234788619, -9.781053   , -0.00246113446, 0.000773956534, -0.000647464767, 0.105500877 , 0.15707159  , 0.7150465   , 0.00140164269, 0.0133053195, -0.930564165, 3.35        , 3           , 50          , 0           , 0
0.144539714 , -0.0283173751, -9.788827   , -0.000451362139, 0.0030361244, 0.00054257334, 0.105433464 , 0.156801939 , 0.715248764 , 0.00139720214, 0.0133356722, -0.930558443, 3.36        , 3           , 11          , 0.01273815  , 0.012738158
0.157597408 , -0.0279849861, -9.788252   , -0.00107056089, -0.00182226347, -0.00039029555, 0.105433464 , 0.156801939 , 0.715248764 , 0.00138644385, 0.0133174583, -0.930562735, 3.37        , 3           , 12          , 0.05564221  , 0
0.16495651  , -0.0113400128, -9.790251   , -0.00161689532, 0.00047103  , 0.00021199396, 0.105298638 , 0.156801939 , 0.715181351 , 0.001370304 , 0.0133221624, -0.93056035 , 3.38        , 3           , 50          , 0           , 0
0.136761814 , 0.000741807744, -9.800759   , 0.000110098859, 0.001891707 , -0.000329186034, 0.105298638 , 0.156869352 , 0.715248764 , 0.00137136085, 0.0133410841, -0.9305637  , 3.39        , 3           , 11          , 0.01273815  , 0.012738158
0.121684022 , -0.0145999445, -9.787975   , -0.0009392027, -0.00147239421, -0.000386360916, 0.105433464 , 0.157004178 , 0.7153162   , 0.0009889889, 0.0134841474, -0.930570841, 3.4         , 3           , 12          , 0.05666948  , 0
0.162551224 , -0.0133369379, -9.770422   , -0.004400344, -0.004605446, 0.00126415351, 0.10556829  , 0.156734526 , 0.715248764 , 0.0009451553, 0.0134380795, -0.930558443, 3.41        , 3           , 50          , 0           , 0
0.155337468 , -0.018185785, -9.775061   , -0.00154659792, -0.00349314557, 0.0018703097, 0.10556829  , 0.156734526 , 0.715248764 , 0.000929939852, 0.0134031316, -0.930539846, 3.42        , 3           , 11          , 0.0130317593, 0.0130317705
0.136882916 , -0.025584003, -9.785253   , -0.000397276337, -0.00348934671, 0.000160179159, 0.105500877 , 0.156734526 , 0.7153162   , 0.0009259879, 0.0133682378, -0.9305384  , 3.43        , 3           , 12          , 0.05666948  , 0
0.13080512  , -0.04457269 , -9.776043   , 0.002708729 , -0.00468024658, 0.00159315241, 0.105298638 , 0.156869352 , 0.715113938 , 0.0009532874, 0.0133214192, -0.930522442, 3.44        , 3           , 50          , 0           , 0
0.131367937 , -0.0337210074, -9.779074   , 0.00332462788, -0.000108437962, 0.002521848 , 0.105433464 , 0.15707159  , 0.715248764 , 0.0009868697, 0.01332031  , -0.930497169, 3.45        , 3           , 11          , 0.0130317593, 0.0130317705
0.1612541   , -0.0110174231, -9.775375   , 0.0016287301, -0.0006412228, -7.225575E-05, 0.105500877 , 0.156936765 , 0.715181351 , 0.0010031464, 0.0133138988, -0.9304979  , 3.46        , 3           , 12          , 0.05666948  , 0
0.153412536 , -0.0100991707, -9.812475   , -0.000949656533, -0.00205067149, 0.000177620037, 0.105500877 , 0.156936765 , 0.715181351 , 0.0009936732, 0.0132933892, -0.9304962  , 3.47        , 3           , 50          , 0           , 0
0.132011652 , -0.023635637, -9.794761   , 0.00277475175, -0.000924003369, -0.00178655982, 0.105298638 , 0.156869352 , 0.7149791   , 0.00102118426, 0.013284171 , -0.9305141  , 3.48        , 3           , 11          , 0.0130317593, 0.0130317705
0.102940321 , -0.0398012325, -9.77805    , -0.00150808273, -0.00146661489, -0.0003897877, 0.105298638 , 0.156801939 , 0.715181351 , 0.00100605073, 0.0132695064, -0.9305179  , 3.49        , 3           , 12          , 0.05666948  , 0
0.134648219 , -0.0273196325, -9.78981    , -0.0006455302, -0.003816942, 0.0007271506, 0.105163813 , 0.156801939 , 0.715451    , 0.00110531808, 0.01313681  , -0.930510044, 3.5         , 3           , 50          , 0           , 0
0.153952435 , -0.0271292441, -9.781048   , 0.00342794461, 0.00275439979, -0.00144218258, 0.105163813 , 0.156801939 , 0.715181351 , 0.00113940821, 0.01316437  , -0.930524349, 3.51        , 3           , 11          , 0.0117174992, 0.0117174936
0.117018096 , -0.03039083 , -9.783684   , 0.002265423 , 0.00160428451, 0.0002512537, 0.105298638 , 0.156869352 , 0.715181351 , 0.00116209488, 0.01318041  , -0.930521965, 3.52        , 3           , 12          , 0.05770536  , 0
0.131684661 , -0.0118694734, -9.798241   , 0.0002325514, -0.0026639374, -0.000967999047, 0.105298638 , 0.156869352 , 0.715181351 , 0.00116429233, 0.0131537812, -0.93053174 , 3.53        , 3           , 50          , 0           , 0
0.122585334 , -0.018612707, -9.792982   , -0.00259782979, -0.000923244748, -0.000101599835, 0.105163813 , 0.156801939 , 0.7149117   , 0.00113830063, 0.01314455  , -0.9305327  , 3.54        , 3           , 11          , 0.0117174992, 0.0117174936
0.123071149 , 0.002804255 , -9.771954   , 0.00194634486, -0.002389577, -0.00152587309, 0.105231225 , 0.156734526 , 0.7150465   , 0.00115756376, 0.0131206755, -0.930547953, 3.55        , 3           , 12          , 0.05770536  , 0
0.150329784 , -0.00531801954, -9.75147    , 0.001101817 , -0.000958250253, -0.000365489745, 0.105366051 , 0.156801939 , 0.715181351 , 0.00116853381, 0.013111094 , -0.930551767, 3.56        , 3           , 50          , 0           , 0
0.15799433  , -0.0231741089, -9.774642   , 0.00136453006, -0.00268317433, -0.000102653525, 0.105298638 , 0.156734526 , 0.7150465   , 0.00118216535, 0.0130842645, -0.9305527  , 3.57        , 3           , 11          , 0.0117174992, 0.0117174936
0.12491852  , -0.002481969, -9.785096   , -0.00424396247, 0.00368959783, -0.00118975982, 0.105298638 , 0.156734526 , 0.7150465   , 0.00113957073, 0.0131211728, -0.930564642, 3.58        , 3           , 12          , 0.05770536  , 0
0.125942335 , -0.004526589, -9.805437   , 0.00285191066, 0.002468481 , -0.000877454935, 0.105163813 , 0.1565997   , 0.7149117   , 0.00116797467, 0.0131458687, -0.9305732  , 3.59        , 3           , 50          , 0           , 0
0.146634519 , -0.0343632661, -9.77352    , -0.002610716, 0.000495333166, 0.000205110817, 0.105163813 , 0.156734526 , 0.7153162   , 0.00107339991, 0.0131214913, -0.930572033, 3.6         , 3           , 11          , 0.0120022353, 0.012002239
0.121127464 , -0.0116429087, -9.768976   , 0.00162259513, -0.00128540269, 0.00220891857, 0.105231225 , 0.156869352 , 0.715113938 , 0.00108991587, 0.013108612 , -0.93054986 , 3.61        , 3           , 12          , 0.0587491952, 0
0.12699008  , -0.023252897, -9.784413   , 0.00166192988, 0.00130660727, 0.000815660344, 0.1056357   , 0.156667113 , 0.715248764 , 0.00110664172, 0.01312167  , -0.930541754, 3.62        , 3           , 50          , 0           , 0
0.14070183  , -0.00525202975, -9.791759   , -0.00063312467, 0.000457189162, 0.00222025253, 0.1050964   , 0.156936765 , 0.7148443   , 0.001100602 , 0.0131262178, -0.930519342, 3.63        , 3           , 11          , 0.0120022353, 0.012002239
0.152656227 , -0.00566754863, -9.762744   , -0.002072355, -0.00265513826, -0.0006958633, 0.1050964   , 0.156936765 , 0.7148443   , 0.00107978727, 0.0130996713, -0.9305265  , 3.64        , 3           , 12          , 0.0587491952, 0
0.150276974 , -0.0232042354, -9.76568    , -0.00490466272, -0.0009170051, 0.0004567   , 0.105028987 , 0.156734526 , 0.7150465   , 0.00103080086, 0.0130905   , -0.930521965, 3.65        , 3           , 50          , 0           , 0
0.1270267   , -0.0102879312, -9.773874   , -0.000657308847, -0.00296128448, -0.000119141827, 0.105298638 , 0.156936765 , 0.7149791   , 0.00102421176, 0.0130608855, -0.930523157, 3.66        , 3           , 11          , 0.0120022353, 0.012002239
0.131311    , -0.00195529871, -9.797226   , 0.000807260047, -0.0009440833, -0.00294300029, 0.105231225 , 0.156734526 , 0.7150465   , 0.00103189994, 0.0130514754, -0.9305527  , 3.67        , 3           , 12          , 0.0587491952, 0
0.1391588   , -0.0260109548, -9.789302   , 0.00307148369, -0.000135617593, 0.000231031649, 0.105298638 , 0.156734526 , 0.7150465   , 0.00106264558, 0.0130501166, -0.930550337, 3.68        , 3           , 50          , 0           , 0
0.146415845 , -0.0148639418, -9.783235   , 0.00198433083, 0.003611708 , -0.0008662221, 0.105298638 , 0.156734526 , 0.7150465   , 0.0010823753, 0.0130862454, -0.9305589  , 3.69        , 3           , 11          , 0.0120022353, 0.012002239
0.153794453 , -0.02089096 , -9.815759   , -0.00458472362, -1.62376091E-06, -0.002104488, 0.105433464 , 0.156667113 , 0.7149117   , 0.00105732342, 0.013176851 , -0.9305799  , 3.7         , 3           , 12          , 0.059800338 , 0
0.144982651 , -0.0336740948, -9.794307   , -0.004605078, -0.00143963867, -0.00155302777, 0.105231225 , 0.156936765 , 0.7149117   , 0.001011069 , 0.01316247  , -0.93059516 , 3.71        , 3           , 50          , 0           , 0
0.147859067 , -0.00716676144, -9.787199   , -6.506918E-05, 0.000192650012, 0.003078052 , 0.1050964   , 0.156667113 , 0.7149791   , 0.00101082376, 0.0131643657, -0.9305644  , 3.72        , 3           , 11          , 0.0118793724, 0.011879378
0.162316427 , -0.0125579089, -9.800678   , -0.00262611359, -0.001193763, 0.000752451655, 0.105298638 , 0.156667113 , 0.7149791   , 0.000984662 , 0.0131524177, -0.930557   , 3.73        , 3           , 12          , 0.059800338 , 0
0.144766778 , -0.0509197824, -9.784119   , -0.0057609994, -0.00201659556, 0.000148755658, 0.105298638 , 0.156667113 , 0.7149791   , 0.0009270715, 0.0131322518, -0.930555344, 3.74        , 3           , 50          , 0           , 0
0.135360166 , -0.0476472527, -9.787329   , -0.007430786, 0.000871652854, -0.000392117421, 0.105231225 , 0.156734526 , 0.7149117   , 0.0008527121, 0.0131409727, -0.930559158, 3.75        , 3           , 11          , 0.0118793724, 0.011879378
0.125932187 , -0.0346145  , -9.775521   , 0.00223605474, -7.86533055E-05, -0.00120487472, 0.105163813 , 0.156801939 , 0.7150465   , 0.000874914 , 0.013140195 , -0.9305713  , 3.76        , 3           , 12          , 0.059800338 , 0
0.142565429 , -0.0374698043, -9.774949   , 0.0007692931, -0.00294535374, 0.000461807125, 0.1050964   , 0.156936765 , 0.7149791   , 0.000882666733, 0.0131107373, -0.9305668  , 3.77        , 3           , 50          , 0           , 0
0.133423477 , 0.00493475236, -9.768672   , -0.00144820008, 0.00195216818, 0.000232886043, 0.105298638 , 0.156801939 , 0.7153162   , 0.0008682153, 0.0131302569, -0.9305644  , 3.78        , 3           , 11          , 0.0118793724, 0.011879378
0.1326204   , -0.009152517, -9.800009   , -0.00262225978, -0.001188644, 0.000180123592, 0.105298638 , 0.156801939 , 0.7149117   , 0.000842016132, 0.01311837  , -0.9305625  , 3.79        , 3           , 12          , 0.059800338 , 0
0.12509799  , -0.0460785776, -9.799149   , -0.00403147936, -0.00140586472, -0.0006910318, 0.105298638 , 0.156801939 , 0.7149117   , 0.000829050841, 0.0132277673, -0.9305692  , 3.8         , 3           , 50          , 0           , 0
0.155282766 , -0.0236111619, -9.773768   , 0.0005159712, -0.000610277755, 0.00135205116, 0.105433464 , 0.1565997   , 0.7148443   , 0.000834389532, 0.0132216532, -0.9305556  , 3.81        , 3           , 11          , 0.0120586483, 0.0120586548
0.130072013 , -0.03050935 , -9.78311348 , -0.0023119282, 0.0008515142, 0.001355785 , 0.1050964   , 0.156936765 , 0.715113938 , 0.00081145  , 0.0132301571, -0.930542   , 3.82        , 3           , 12          , 0.06085823  , 0
0.1296583   , -0.04068755 , -9.800852   , 0.002227019 , -0.00090395665, 0.000213502 , 0.105231225 , 0.156801939 , 0.7149791   , 0.00083374785, 0.0132211158, -0.930539846, 3.83        , 3           , 50          , 0           , 0
0.140884936 , -0.0207996462, -9.772062   , -0.000386582833, -0.004053356, 0.00272764871, 0.105366051 , 0.156734526 , 0.7147769   , 0.000830242 , 0.0131805595, -0.930512667, 3.84        , 3           , 11          , 0.0120586483, 0.0120586548
0.1525993   , -0.0173281934, -9.768752   , -0.0017708221, -0.001730918, 0.00103548577, 0.105366051 , 0.156734526 , 0.7147769   , 0.00081267  , 0.0131632416, -0.9305022  , 3.85        , 3           , 12          , 0.06085823  , 0
0.15164423  , -0.0249712318, -9.770205   , 0.00490358565, 0.00853738748, -0.0007780069, 0.105028987 , 0.156801939 , 0.7149791   , 0.000861604 , 0.0132486224, -0.930510044, 3.86        , 3           , 50          , 0           , 0
0.1355852   , -0.0121370088, -9.776527   , 0.0008576186, 0.003695758 , 0.0002717116, 0.105298638 , 0.156801939 , 0.7147769   , 0.000870216638, 0.0132855782, -0.9305074  , 3.87        , 3           , 11          , 0.0120586483, 0.0120586548
0.13723661  , 0.00255602226, -9.802089   , 0.000280766 , 0.00284435926, -3.03998331E-05, 0.1050964   , 0.156936765 , 0.7150465   , 0.0008730211, 0.01331402  , -0.9305074  , 3.88        , 3           , 12          , 0.06085823  , 0
0.130593851 , -0.02194606 , -9.78301048 , -8.783507E-05, -0.00347284949, 0.001593053 , 0.105433464 , 0.156667113 , 0.7149791   , 0.0008723542, 0.0132792769, -0.9304917  , 3.89        , 3           , 50          , 0           , 0
0.165309072 , -0.0159449223, -9.781718   , -0.00111721084, 0.00314890221, -0.00032076583, 0.105366051 , 0.1565997   , 0.714709461 , 0.000911735 , 0.0133133139, -0.930494547, 3.9         , 3           , 11          , 0.0105002942, 0.0105002988
0.17246452  , -0.0076243  , -9.764394   , -0.002867304, -0.000277828629, 0.000191199419, 0.105366051 , 0.1565997   , 0.714709461 , 0.0008830873, 0.013310533 , -0.93049264 , 3.91        , 3           , 12          , 0.0619223081, 0
0.130424529 , -0.0351142734, -9.774583   , -0.000310909672, -0.00143735437, -0.00124089431, 0.105231225 , 0.156734526 , 0.7149117   , 0.0008798127, 0.0132961711, -0.930505037, 3.92        , 3           , 50          , 0           , 0
0.126633    , -0.0288930237, -9.804808   , 0.003414029 , 0.00138319354, -0.000318392733, 0.105231225 , 0.156801939 , 0.7149117   , 0.000913910451, 0.0133100087, -0.930508137, 3.93        , 3           , 11          , 0.0105002942, 0.0105002988
0.158113077 , -0.0100833252, -9.775845   , 0.004519608 , -0.0009286767, 0.000513564562, 0.105231225 , 0.156667113 , 0.7149117   , 0.0009591745, 0.013300715 , -0.93050313 , 3.94        , 3           , 12          , 0.0619223081, 0
0.163473934 , -0.0155363958, -9.77631    , 0.00343768275, 0.00310778758, -0.0008656795, 0.105366051 , 0.1565997   , 0.714709461 , 0.0009934367, 0.0133318016, -0.9305117  , 3.95        , 3           , 50          , 0           , 0
0.137642235 , -0.0458390452, -9.789544   , 0.00168180838, -0.000326622132, 0.000504777767, 0.105366051 , 0.1565997   , 0.714709461 , 0.001010322 , 0.0133285308, -0.930506468, 3.96        , 3           , 11          , 0.0105002942, 0.0105002988
0.12773113  , -0.0134636015, -9.814558   , 0.00226167263, 0.0019397554, 0.002830905 , 0.105366051 , 0.1565997   , 0.7144398   , 0.00103331683, 0.0133479005, -0.930478334, 3.97        , 3           , 12          , 0.0619223081, 0
0.13446866  , -0.006870114, -9.80403    , 0.000281889341, 0.00112840033, -0.0003414136, 0.105231225 , 0.156801939 , 0.7147769   , 0.00103609031, 0.0133591862, -0.9304817  , 3.98        , 3           , 50          , 0           , 0
0.130143225 , -0.0268392134, -9.788942   , -0.0002908446, 0.00112906052, 0.000227487646, 0.105028987 , 0.156801939 , 0.7148443   , 0.00103321241, 0.0133704748, -0.9304795  , 3.99        , 3           , 11          , 0.0105002942, 0.0105002988
0.128541    , -0.008268654, -9.795067   , -0.0011361012, -0.00200868538, -0.000681654958, 0.105163813 , 0.1565997   , 0.7148443   , 0.00112659868, 0.0133457091, -0.9304855  , 4           , 3           , 12          , 0.06299207  , 0
0.12160489  , -0.0240689572, -9.788087   , 0.00198503071, -0.00205070921, 0.00048184843, 0.105163813 , 0.1565997   , 0.7148443   , 0.00114651257, 0.0133251986, -0.9304807  , 4.01        , 3           , 50          , 0           , 0
0.138320386 , -0.02902397 , -9.801992   , -0.0005248754, 0.0019925246, -4.747064E-05, 0.1050964   , 0.156464875 , 0.7145072   , 0.0011412584, 0.0133451233, -0.9304812  , 4.02        , 3           , 11          , 0.0107035041, 0.0107035106
0.149066031 , -0.0131854545, -9.773706   , 0.0006159189, 0.00142060523, -0.001479784, 0.104894161 , 0.1565997   , 0.714574635 , 0.00114722061, 0.0133593483, -0.930496   , 4.03        , 3           , 12          , 0.06299207  , 0
0.147813663 , 0.00344690867, -9.76765251 , 0.0026075528, 0.00111891783, -0.002044292, 0.1050964   , 0.1565997   , 0.7147769   , 0.00117302255, 0.0133705605, -0.9305165  , 4.04        , 3           , 50          , 0           , 0
0.131194    , 9.116158E-05, -9.77778149 , -0.00227496866, -0.00143420661, 0.000464494544, 0.1050964   , 0.156464875 , 0.714642048 , 0.00115033484, 0.0133562125, -0.930511951, 4.05        , 3           , 11          , 0.0107035041, 0.0107035106
0.129692882 , -0.024609793, -9.786212   , -0.00797036849, -0.00194957247, 0.000421879638, 0.105366051 , 0.156532288 , 0.714574635 , 0.00107068755, 0.0133367125, -0.93050766 , 4.06        , 3           , 12          , 0.06299207  , 0
0.152679846 , -0.0229915828, -9.787336   , 0.003993694 , 0.0007743787, 0.00282488973, 0.105366051 , 0.156532288 , 0.714574635 , 0.00111100171, 0.0133444248, -0.9304795  , 4.07        , 3           , 50          , 0           , 0
0.148171857 , -0.0131679326, -9.774617   , -0.000569967262, -0.00258250372, -0.0012589033, 0.104894161 , 0.156532288 , 0.714574635 , 0.001105133 , 0.013318615 , -0.930492163, 4.08        , 3           , 11          , 0.0107035041, 0.0107035106
0.127880275 , -0.0446429066, -9.809044   , 0.004573028 , 0.00134687684, 0.00226433552, 0.104826748 , 0.156532288 , 0.7147769   , 0.00115116476, 0.0133320577, -0.9304693  , 4.09        , 3           , 12          , 0.06299207  , 0
0.13454403  , -0.0412783474, -9.79177952 , 0.00206544017, -0.000907511043, 0.000213051884, 0.104894161 , 0.156464875 , 0.714574635 , 0.00135292357, 0.0133072231, -0.9304662  , 4.1         , 3           , 50          , 0           , 0
0.144472241 , -0.006164033, -9.751986   , -0.00192331919, -0.00144021458, 0.00018071731, 0.104826748 , 0.1565997   , 0.7144398   , 0.00133371481, 0.0132928193, -0.930464268, 4.11        , 3           , 11          , 0.0107634393, 0.01076345
0.165648624 , -0.0138927018, -9.763172   , 0.00156422146, 0.003985471 , -0.00143640873, 0.104826748 , 0.1565997   , 0.7144398   , 0.00134916662, 0.0133326938, -0.9304786  , 4.12        , 3           , 12          , 0.06406706  , 0
0.145281628 , -0.0290132128, -9.766696   , 0.0026700662, 0.002520541 , 0.0008388892, 0.104961574 , 0.156464875 , 0.714642048 , 0.00137598068, 0.013357887 , -0.93047    , 4.13        , 3           , 50          , 0           , 0
0.1169644   , -0.0304730944, -9.776007   , -0.000719559845, 0.00427981047, 0.0002710416, 0.104894161 , 0.1565997   , 0.714709461 , 0.00136882172, 0.01340068  , -0.930467367, 4.14        , 3           , 11          , 0.0107634393, 0.01076345
0.114960887 , -0.00603683665, -9.782067   , -0.002450119, 0.001725614 , -0.0006352926, 0.1050964   , 0.156532288 , 0.714574635 , 0.00134423526, 0.0134179443, -0.930473566, 4.15        , 3           , 12          , 0.06406706  , 0
0.140340835 , -0.03874486 , -9.780405   , -0.002194559, -0.0002910083, 0.00019569807, 0.104894161 , 0.156667113 , 0.714709461 , 0.00132231566, 0.0134150321, -0.930471659, 4.16        , 3           , 50          , 0           , 0
0.159174532 , -0.0372462  , -9.767115   , -0.00223582028, -0.0028855775, 0.00187512022, 0.104759336 , 0.156397462 , 0.7144398   , 0.00130020792, 0.0133861508, -0.930453062, 4.17        , 3           , 11          , 0.0107634393, 0.01076345
0.140501618 , -0.0318215936, -9.795229   , 0.00232622679, -0.00263499445, 0.000762052136, 0.104759336 , 0.156397462 , 0.7144398   , 0.0013235712, 0.0133597916, -0.930445433, 4.18        , 3           , 12          , 0.06406706  , 0
0.1305989   , -0.03440208 , -9.798963   , -0.00222013961, -0.00201816182, 0.00102914881, 0.104894161 , 0.156667113 , 0.7147769   , 0.00130150723, 0.0133395968, -0.9304352  , 4.19        , 3           , 50          , 0           , 0
0.149471223 , -0.0346247852, -9.793372   , 0.00210804725, -0.002336877, -9.212688E-05, 0.105028987 , 0.156532288 , 0.714709461 , 0.002290367 , 0.0133107007, -0.930428743, 4.2         , 3           , 11          , 0.0108627761, 0.010862791
0.124141529 , -0.0385892242, -9.781907   , -0.0009630312, 0.00172237423, -0.00176952872, 0.105163813 , 0.156801939 , 0.714642048 , 0.00228050235, 0.0133279683, -0.9304466  , 4.21        , 3           , 12          , 0.0651468039, 0
0.123769313 , -0.0322339  , -9.78545    , -0.000126476225, -0.0005661303, -0.00322859664, 0.104961574 , 0.156532288 , 0.7143724   , 0.00227880734, 0.0133223785, -0.9304788  , 4.22        , 3           , 50          , 0           , 0
0.134428009 , -0.0338887721, -9.765948   , 0.001841215 , -0.00146401173, -0.00122597581, 0.104961574 , 0.156532288 , 0.7143724   , 0.00229705544, 0.0133077661, -0.9304912  , 4.23        , 3           , 11          , 0.0108627761, 0.010862791
0.1431963   , -0.0229527969, -9.783359   , 0.00183049578, -0.002889229, -0.00210533547, 0.104894161 , 0.156734526 , 0.7144398   , 0.00231507933, 0.0132789221, -0.9305122  , 4.24        , 3           , 12          , 0.0651468039, 0
0.161608368 , 0.00599512458, -9.805891   , -0.00355683314, 0.0002924494, 0.000769659062, 0.105231225 , 0.156667113 , 0.714642048 , 0.00227961363, 0.0132818278, -0.93050456 , 4.25        , 3           , 50          , 0           , 0
0.152156889 , 0.00875386  , -9.803235   , -0.00125710643, 0.00171246636, -0.00034042215, 0.1050964   , 0.156734526 , 0.714642048 , 0.00226699724, 0.0132989632, -0.9305079  , 4.26        , 3           , 11          , 0.0108627761, 0.010862791
0.1356719   , -0.00176617131, -9.776408   , 0.00214270875, -0.000315465644, -0.00177989632, 0.105298638 , 0.1565997   , 0.714709461 , 0.002288187 , 0.013295847 , -0.930526   , 4.27        , 3           , 12          , 0.0651468039, 0
0.126335323 , -0.009514667, -9.803233   , -0.00133878668, -0.00488653267, 0.0004220786, 0.105298638 , 0.1565997   , 0.714709461 , 0.00227485364, 0.013246974 , -0.9305217  , 4.28        , 3           , 50          , 0           , 0
0.138252944 , -0.0322432145, -9.796158   , 0.0007207743, 0.0005459223, -0.000345122535, 0.104826748 , 0.156667113 , 0.714709461 , 0.002282016 , 0.013252438 , -0.930525064, 4.29        , 3           , 11          , 0.0108627761, 0.010862791
0.15432553  , -0.0259159263, -9.768385   , -0.000679446966, -0.002824298, -0.000975522038, 0.104961574 , 0.1565997   , 0.714709461 , 0.00244041975, 0.0133650051, -0.930533648, 4.3         , 3           , 12          , 0.0662309   , 0
0.139909759 , 0.00026345998, -9.800735   , -0.002402875, -0.00311145629, 0.001013172 , 0.1050964   , 0.156667113 , 0.714709461 , 0.002416525 , 0.0133338664, -0.930523634, 4.31        , 3           , 50          , 0           , 0
0.135351822 , -0.0329706036, -9.768188   , 0.00362041756, 0.000845089031, 0.000535254832, 0.105231225 , 0.1565997   , 0.7147769   , 0.00245280168, 0.0133423051, -0.93051815 , 4.32        , 3           , 11          , 0.008441171 , 0.008441221
0.135373682 , 0.00336707034, -9.792159   , 0.00168379908, 0.004606203 , -0.00113946712, 0.105028987 , 0.156667113 , 0.714709461 , 0.00246948842, 0.0133883944, -0.930529356, 4.33        , 3           , 12          , 0.0662309   , 0
0.13875711  , -0.0366158634, -9.809303   , 0.000494324137, 0.00144491391, 0.00109708251, 0.105028987 , 0.156667113 , 0.714709461 , 0.00247457856, 0.01340282  , -0.9305184  , 4.34        , 3           , 50          , 0           , 0
0.146137282 , -0.0295348726, -9.760822   , 0.00332388561, -0.0008612582, -0.0006361558, 0.105028987 , 0.156667113 , 0.714709461 , 0.00250773132, 0.0133942207, -0.9305248  , 4.35        , 3           , 11          , 0.008441171 , 0.008441221
0.14022328  , -0.00751715 , -9.790435   , -0.00212696241, -0.003690063, 0.00129270251, 0.105028987 , 0.156667113 , 0.7147769   , 0.00248663337, 0.0133572891, -0.930511951, 4.36        , 3           , 12          , 0.0662309   , 0
0.138912767 , -0.003437562, -9.791302   , 0.007054605 , 0.00196696818, -0.0005721463, 0.1050964   , 0.156734526 , 0.7149117   , 0.00255710422, 0.0133769736, -0.9305177  , 4.37        , 3           , 50          , 0           , 0
0.125244051 , -0.0106892865, -9.777057   , 0.00415574433, -0.0017450219, 0.00107344775, 0.1050964   , 0.156734526 , 0.714709461 , 0.002598805 , 0.0133594936, -0.930506945, 4.38        , 3           , 11          , 0.008441171 , 0.008441221
0.127736926 , -0.0341792479, -9.775499   , 0.00248073088, 0.000854087935, 0.0008145653, 0.1050964   , 0.156734526 , 0.714709461 , 0.00262372079, 0.0133680142, -0.930498838, 4.39        , 3           , 12          , 0.0662309   , 0
0.147673845 , -0.0181336571, -9.773775   , -0.00172097387, 0.00549142  , -0.000288981042, 0.104894161 , 0.156667113 , 0.714709461 , 0.002619157 , 0.0134185478, -0.930501461, 4.4         , 3           , 50          , 0           , 0
0.136596382 , -0.01420098 , -9.795061   , 0.0027470123, -0.00143783307, 0.000210596481, 0.104961574 , 0.156801939 , 0.714642048 , 0.002646655 , 0.0134041635, -0.9304993  , 4.41        , 3           , 11          , 0.007995797 , 0.007995844
0.120434932 , -0.04361459 , -9.772965   , 0.002466426 , -0.00142982439, -0.000363444968, 0.105231225 , 0.156734526 , 0.7149117   , 0.00267127  , 0.0133898761, -0.93050313 , 4.42        , 3           , 12          , 0.0673189759, 0
0.147205859 , -0.0172666386, -9.770157   , -0.0009072541, 0.00204380066, -0.000333923264, 0.1050964   , 0.156801939 , 0.714574635 , 0.002662153 , 0.0134103224, -0.930506468, 4.43        , 3           , 50          , 0           , 0
0.1534299   , -0.0223395322, -9.764738   , -0.000932280847, 3.518726E-05, -7.697399E-05, 0.104961574 , 0.156532288 , 0.714642048 , 0.00265282067, 0.01341068  , -0.9305072  , 4.44        , 3           , 11          , 0.007995797 , 0.007995844
0.147461623 , -0.032702975, -9.760847   , -0.00151024165, -0.00025329116, 0.0007739178, 0.104961574 , 0.156532288 , 0.714642048 , 0.00263782241, 0.0134081235, -0.9304993  , 4.45        , 3           , 12          , 0.0673189759, 0
0.123258471 , -0.02119444 , -9.763194   , -0.000352127856, 0.00117316516, 0.000229310943, 0.105298638 , 0.1565997   , 0.7147769   , 0.00263433158, 0.0134198517, -0.930496931, 4.46        , 3           , 50          , 0           , 0
0.144358456 , -0.0114315432, -9.807155   , -0.00519146165, 0.0012171698, 0.000772511237, 0.105163813 , 0.156801939 , 0.7148443   , 0.00258252025, 0.0134320008, -0.9304893  , 4.47        , 3           , 11          , 0.007995797 , 0.007995844
0.1544673   , -0.03059524 , -9.794635   , -0.00124834816, -0.002543695, 0.000169914827, 0.105298638 , 0.156734526 , 0.7148443   , 0.00257005845, 0.0134065617, -0.9304879  , 4.48        , 3           , 12          , 0.0673189759, 0
0.144892514 , -0.02579973 , -9.771631   , 0.00133993884, -0.000274508842, -6.744037E-05, 0.105298638 , 0.156532288 , 0.7145072   , 0.00258344784, 0.0134038161, -0.9304886  , 4.49        , 3           , 50          , 0           , 0
0.141085729 , -0.00535756163, -9.78227    , 0.00193024834, 0.00172963738, 0.000251354824, 0.105298638 , 0.156532288 , 0.7145072   , 0.002603536 , 0.0134399207, -0.930485964, 4.5         , 3           , 11          , 0.008218911 , 0.008218963
0.127208546 , -0.0383012332, -9.769228   , 0.0039408626, 0.00258194515, -0.00115495094, 0.104894161 , 0.156667113 , 0.7147769   , 0.00264279032, 0.0134657724, -0.9304974  , 4.51        , 3           , 12          , 0.06841066  , 0
0.132312745 , -0.0358865969, -9.788124   , -0.00035709815, 0.0008904575, 0.0005112911, 0.105163813 , 0.156869352 , 0.7148443   , 0.002639289 , 0.0134746628, -0.930492163, 4.52        , 3           , 50          , 0           , 0
0.159759015 , -0.04283125 , -9.793372   , -0.00123021868, -0.0008203486, 0.000481109659, 0.105163813 , 0.156667113 , 0.7148443   , 0.0026270512, 0.0134664457, -0.9304874  , 4.53        , 3           , 11          , 0.008218911 , 0.008218963
0.174937248 , -0.00240813941, -9.790055   , 0.00165847782, 0.001184964 , -0.00262034568, 0.105433464 , 0.156532288 , 0.7148443   , 0.00264328322, 0.0134783667, -0.930513859, 4.54        , 3           , 12          , 0.06841066  , 0
0.157624424 , -0.0128090372, -9.77362251 , 0.0025018747, 0.00229189754, 0.000835456769, 0.105433464 , 0.156532288 , 0.7148443   , 0.00266841566, 0.0135012632, -0.9305055  , 4.55        , 3           , 50          , 0           , 0
0.137205124 , -0.04314421 , -9.788162   , 0.000782323536, 3.451857E-05, -0.0012113601, 0.105163813 , 0.156667113 , 0.714709461 , 0.00267607532, 0.01350164  , -0.930517435, 4.56        , 3           , 11          , 0.008218911 , 0.008218963
0.127372831 , -0.03804961 , -9.792711   , -0.000354906, 0.0017399569, 0.00166846765, 0.105028987 , 0.156801939 , 0.714709461 , 0.00267275143, 0.0135189956, -0.930500746, 4.57        , 3           , 12          , 0.06841066  , 0
0.153115392 , -0.01990207 , -9.78142452 , 0.00219380436, -0.00140514679, -0.00208215252, 0.1050964   , 0.156801939 , 0.7149791   , 0.002694407 , 0.0135050006, -0.9305217  , 4.58        , 3           , 50          , 0           , 0
0.1487006   , -0.015722448, -9.789095   , 0.001582001 , -0.00314955646, 0.00132334745, 0.105366051 , 0.1565997   , 0.7148443   , 0.00271040457, 0.0134734716, -0.9305084  , 4.59        , 3           , 11          , 0.008218911 , 0.008218963
0.145029709 , -0.0269250162, -9.792872   , -0.00267741038, -0.00164218491, 0.000459828152, 0.105298638 , 0.156464875 , 0.714642048 , 0.00263888924, 0.0135266455, -0.9305041  , 4.6         , 3           , 12          , 0.0695055947, 0
0.12273331  , -0.03911062 , -9.774247   , 0.00129456073, -0.00141397724, 0.00249113748, 0.105298638 , 0.156464875 , 0.714642048 , 0.00265217014, 0.0135124382, -0.9304793  , 4.61        , 3           , 50          , 0           , 0
0.120657012 , -0.0241337083, -9.78132    , 0.00194266357, 0.00348280347, -0.000868453935, 0.105231225 , 0.156734526 , 0.7147769   , 0.00267148018, 0.013547292 , -0.9304879  , 4.62        , 3           , 11          , 0.008450661 , 0.008450709
0.1481596   , -0.045236364, -9.812027   , -0.002087888, -0.00133834942, -0.00210804748, 0.105231225 , 0.156734526 , 0.7148443   , 0.002650316 , 0.013533962 , -0.930508852, 4.63        , 3           , 12          , 0.0695055947, 0
0.165010333 , -0.0134832431, -9.800663   , -0.00294424244, -0.0007693198, -0.0006740207, 0.105028987 , 0.1565997   , 0.7149117   , 0.002620783 , 0.013526286 , -0.930515766, 4.64        , 3           , 50          , 0           , 0
0.14869006  , -0.00728105754, -9.777254   , -0.00354886847, -0.004197371, -0.001299858, 0.105366051 , 0.1565997   , 0.714709461 , 0.00258511817, 0.0134843467, -0.9305289  , 4.65        , 3           , 11          , 0.008450661 , 0.008450709
0.134806782 , -0.0266316179, -9.811934   , -0.00185655907, -0.00282276561, 0.00330991438, 0.105366051 , 0.1565997   , 0.714709461 , 0.002566998 , 0.0134560354, -0.930496   , 4.66        , 3           , 12          , 0.0695055947, 0
0.152947411 , -0.0344036445, -9.774817   , 0.005000277 , -0.002569704, -0.0006510868, 0.104961574 , 0.1565997   , 0.714574635 , 0.002616912 , 0.0134303542, -0.9305024  , 4.67        , 3           , 50          , 0           , 0
0.134076118 , -0.0172642451, -9.759888   , -0.00317918323, 0.003532257 , -0.000613131037, 0.104961574 , 0.156734526 , 0.7149117   , 0.00258503854, 0.013465696 , -0.9305084  , 4.68        , 3           , 11          , 0.008450661 , 0.008450709
0.154800549 , -0.0285526942, -9.775185   , 0.005340528 , 0.003427652 , 0.00144141889, 0.104961574 , 0.156801939 , 0.7149791   , 0.00263863872, 0.0134999342, -0.93049407 , 4.69        , 3           , 12          , 0.0695055947, 0
0.155769825 , -0.02667466 , -9.782833   , 0.0004785677, 6.6065506E-05, -0.000354797055, 0.105231225 , 0.156734526 , 0.7147769   , 0.00264807115, 0.0135394409, -0.930497646, 4.7         , 3           , 50          , 0           , 0
0.146260172 , -0.004615901, -9.813381   , 0.003056954 , 0.00147551415, -0.0006046728, 0.105231225 , 0.156734526 , 0.7147769   , 0.00267855986, 0.0135542126, -0.9305036  , 4.71        , 3           , 11          , 0.00856385  , 0.008563898
0.158473909 , -0.040938437, -9.80059    , 0.000465079123, 4.81488678E-05, 0.001648351 , 0.105298638 , 0.156667113 , 0.714642048 , 0.0026834344, 0.0135546494, -0.930487156, 4.72        , 3           , 12          , 0.070603475 , 0
0.164230958 , -0.0398012176, -9.785166   , 0.00274830661, 3.5269928E-05, 0.0005174021, 0.104894161 , 0.1565997   , 0.7148443   , 0.00271098688, 0.0135549884, -0.930482149, 4.73        , 3           , 50          , 0           , 0
0.158519059 , -0.0217285324, -9.783655   , 0.00218684552, 0.00117968721, 0.00138916145, 0.105231225 , 0.156667113 , 0.7149117   , 0.002733044 , 0.01356675  , -0.9304681  , 4.74        , 3           , 11          , 0.00856385  , 0.008563898
0.133627787 , -0.0297211576, -9.77539349 , -0.00181455945, -0.000780793, 0.0007636313, 0.1050964   , 0.156667113 , 0.714709461 , 0.00271500251, 0.0135589205, -0.930460453, 4.75        , 3           , 12          , 0.070603475 , 0
0.143111259 , -0.015960902, -9.762501   , 0.00158992759, -0.00223812624, -0.000381331745, 0.1050964   , 0.156397462 , 0.714574635 , 0.00273085013, 0.0135365492, -0.9304645  , 4.76        , 3           , 50          , 0           , 0
0.152046487 , -0.0254938044, -9.763883   , -0.0049434  , -0.000749007158, 0.0007447839, 0.1050964   , 0.156397462 , 0.714574635 , 0.00268151565, 0.013529039 , -0.9304569  , 4.77        , 3           , 11          , 0.00856385  , 0.008563898
0.124238513 , -0.0322087929, -9.788156   , 0.00104578561, 0.000904666551, 0.00137813436, 0.1050964   , 0.156532288 , 0.714574635 , 0.00269216043, 0.0135380495, -0.930443048, 4.78        , 3           , 12          , 0.070603475 , 0
0.118813984 , -0.0295240618, -9.781851   , -0.004285397, 0.00500751147, -0.00260228664, 0.104894161 , 0.156801939 , 0.7147769   , 0.00264895451, 0.0135881929, -0.9304688  , 4.79        , 3           , 50          , 0           , 0
0.1396106   , -0.0317992344, -9.796592   , -0.00522275 , -0.001883185, -0.0015628821, 0.1050964   , 0.1565997   , 0.7147769   , 0.00260532787, 0.0135349734, -0.930484533, 4.8         , 3           , 11          , 0.008781617 , 0.008781661
0.147665545 , -0.02882958 , -9.785644   , -0.004676704, -0.00304807886, -0.0001453295, 0.105163813 , 0.1565997   , 0.714709461 , 0.00255853939, 0.0135044949, -0.930485964, 4.81        , 3           , 12          , 0.071704    , 0
0.130761564 , -0.0145670641, -9.798281   , 0.00163377449, 0.00147361623, -4.085828E-05, 0.105163813 , 0.1565997   , 0.714709461 , 0.002574873 , 0.013519235 , -0.930486441, 4.82        , 3           , 50          , 0           , 0
0.155523375 , -0.0205718465, -9.804898   , -0.0023678958, -0.001333804, -0.00210972922, 0.104961574 , 0.156667113 , 0.7144398   , 0.00255090836, 0.0135059487, -0.93050766 , 4.83        , 3           , 11          , 0.008781617 , 0.008781661
0.135933965 , -0.0171928275, -9.768001   , 0.00274238875, -0.00139861484, -0.000648068031, 0.104826748 , 0.156667113 , 0.7149117   , 0.00257824454, 0.0134919807, -0.9305141  , 4.84        , 3           , 12          , 0.071704    , 0
0.142203152 , -0.0400019661, -9.790791   , 0.00392138725, 0.00315973558, 0.00114254607, 0.105028987 , 0.156734526 , 0.714709461 , 0.002617614 , 0.013523546 , -0.930502653, 4.85        , 3           , 50          , 0           , 0
0.147812024 , -0.0139158247, -9.788631   , -0.00436697248, -0.000195414759, 0.00104277523, 0.105028987 , 0.156532288 , 0.7148443   , 0.00257408619, 0.0135215651, -0.930492163, 4.86        , 3           , 11          , 0.008781617 , 0.008781661
0.144517258 , -0.0216747522, -9.777458   , -0.000354005053, 0.00178042264, -4.86785E-05, 0.105163813 , 0.156532288 , 0.7145072   , 0.00257054  , 0.01353937  , -0.93049264 , 4.87        , 3           , 12          , 0.071704    , 0
0.135098562 , -0.02954905 , -9.792542   , -0.000699771568, -0.00337767252, 0.000160648517, 0.105163813 , 0.156532288 , 0.7145072   , 0.002563562 , 0.01350559  , -0.9304912  , 4.88        , 3           , 50          , 0           , 0
0.12560375  , -0.0192894414, -9.774444   , 0.0053056255, 0.000837297644, 0.002834709 , 0.105163813 , 0.156667113 , 0.714642048 , 0.00261700084, 0.0135138892, -0.9304626  , 4.89        , 3           , 11          , 0.008781617 , 0.008781661
0.130948052 , -0.0345608369, -9.784508   , 0.00247638044, 0.00116957282, 0.0005324072, 0.105028987 , 0.156464875 , 0.7149117   , 0.00263071642, 0.0135140922, -0.930457354, 4.9         , 3           , 12          , 0.0728069   , 0
0.153740615 , -0.0187477171, -9.805345   , 0.000471281965, -0.0005219963, -0.00036311982, 0.1050964   , 0.156667113 , 0.714642048 , 0.002635381 , 0.0135088814, -0.930461168, 4.91        , 3           , 50          , 0           , 0
0.15490219  , -0.0141527439, -9.772307   , -0.00293072476, 0.000656436256, -8.082241E-05, 0.105163813 , 0.156464875 , 0.714642048 , 0.00260606245, 0.0135154491, -0.9304619  , 4.92        , 3           , 11          , 0.008966866 , 0.008966907
0.135741726 , -0.008336211, -9.79455    , 0.00416733976, 0.000284819 , 0.001388659 , 0.105163813 , 0.156464875 , 0.714642048 , 0.00264792331, 0.0135182608, -0.930448055, 4.93        , 3           , 12          , 0.0728069   , 0
0.133815989 , -0.0027248878, -9.769661   , 0.00135071261, 0.00289036846, 0.00169525086, 0.104961574 , 0.1565997   , 0.7145072   , 0.00266166055, 0.0135471178, -0.9304309  , 4.94        , 3           , 50          , 0           , 0
0.130340338 , -0.0321272835, -9.758738   , -0.00210710522, -0.001931445, -0.00011324403, 0.104894161 , 0.156734526 , 0.714709461 , 0.00264057261, 0.0135278068, -0.9304321  , 4.95        , 3           , 11          , 0.008966866 , 0.008966907
0.163741514 , -0.0269484445, -9.763792   , -0.000700320466, -0.00196636934, 0.002184635 , 0.105163813 , 0.156330049 , 0.7149117   , 0.00263386476, 0.0135080852, -0.930410147, 4.96        , 3           , 12          , 0.0728069   , 0
0.164012641 , -0.01540483 , -9.788951   , 0.00131359382, -0.0008274824, 0.000782503 , 0.105231225 , 0.156532288 , 0.714574635 , 0.00264710537, 0.01349979  , -0.9304025  , 4.97        , 3           , 50          , 0           , 0
0.1488603   , -0.00034327805, -9.793433   , -0.00325503037, -0.00362656359, -0.00157595868, 0.105231225 , 0.156532288 , 0.714574635 , 0.00261434168, 0.013463567 , -0.930418253, 4.98        , 3           , 11          , 0.008966866 , 0.008966907
0.1374323   , -0.02454579 , -9.798335   , 0.00588664925, -0.000280081847, -0.00147104764, 0.105028987 , 0.1565997   , 0.714709461 , 0.00267301081, 0.0134608038, -0.930433035, 4.99        , 3           , 12          , 0.0728069   , 0
0.133565545 , -0.0360483527, -9.774112   , -0.0007058355, -0.00181230879, -0.00210858858, 0.1050964   , 0.1565997   , 0.714642048 , 0.00255611353, 0.0138108805, -0.9304559  , 5           , 3           , 50          , 0           , 0
0.1422397   , -0.0132379532, -9.76338    , 0.00331838126, 0.00328262546, 0.000565998547, 0.104961574 , 0.156667113 , 0.714642048 , 0.00258937688, 0.0138436919, -0.9304502  , 5.01        , 3           , 11          , 0.009181551 , 0.009181589
0.136441424 , -0.0237861332, -9.784333   , 0.003343962 , 0.00500977924, -0.00026745224, 0.104894161 , 0.156667113 , 0.7147769   , 0.00262278155, 0.013893798 , -0.9304526  , 5.02        , 3           , 12          , 0.0739119   , 0
0.138070256 , -0.04365133 , -9.783644   , 0.00334836985, 0.004733438 , -0.00141628156, 0.105231225 , 0.156532288 , 0.714574635 , 0.00265607  , 0.0139411679, -0.930466652, 5.03        , 3           , 50          , 0           , 0
0.140759468 , -0.03879716 , -9.775885   , 0.00189921574, 0.002736713 , -0.000881735468, 0.105231225 , 0.156532288 , 0.714574635 , 0.00267494074, 0.0139685581, -0.9304755  , 5.04        , 3           , 11          , 0.009181551 , 0.009181589
0.14540644  , -0.0230353083, -9.777467   , -0.001806476, 0.00191709993, -0.00120269437, 0.105231225 , 0.156397462 , 0.7145072   , 0.00265670847, 0.013987761 , -0.9304874  , 5.05        , 3           , 12          , 0.0739119   , 0
0.1606397   , -0.0388632  , -9.78564    , 0.0010695497, 0.00446997629, -0.00143416226, 0.1050964   , 0.156532288 , 0.714642048 , 0.00266720518, 0.014032498 , -0.9305017  , 5.06        , 3           , 50          , 0           , 0
0.148483351 , -0.04320834 , -9.791221   , 0.000168368744, 0.00131091673, 0.000231772516, 0.1050964   , 0.156667113 , 0.714642048 , 0.00266892184, 0.0140456026, -0.9304993  , 5.07        , 3           , 11          , 0.009181551 , 0.009181589
0.124219827 , -0.025115259, -9.776782   , -0.000136425035, -0.000124208469, 0.0007815195, 0.105298638 , 0.156397462 , 0.714574635 , 0.00266766781, 0.01404434  , -0.930491447, 5.08        , 3           , 12          , 0.0739119   , 0
