Acc X       , Acc Y       , Acc Z       , Gyro X      , Gyro Y      , Gyro Z      , Magn X      , Magn Y      , Magn Z      , Euler X     , Euler Y     , Euler Z     , Time        , Status      , LowRate X   , LowRate Y   , LowRate Z    
0.140491635 , -0.03450767 , -9.797067   , 0.00122555939, 0.00365583226, -0.000376646261, 0.109141164 , 0.163678035 , 0.7129567   , 0.002608042 , 0.0148033379, -0.9340837  , 0           , 3           , 11          , 0.0346410163, 0.0346410163
0.134138122 , -0.04343219 , -9.800842   , 0.00278859469, 0.00434359  , 0.00107403123, 0.109478228 , 0.163745448 , 0.7128219   , 0.00263608876, 0.0148467459, -0.934072733, 0.01        , 3           , 12          , 0.0346410163, 0
0.1381105   , -0.03958352 , -9.7845     , 0.0013556754, 0.0029328207, 0.000186104546, 0.109208576 , 0.163408384 , 0.7129567   , 0.00264967373, 0.0148760695, -0.9340708  , 0.02        , 3           , 50          , 0           , 0
0.134734228 , -0.0289684087, -9.804283   , -0.000348616159, 0.00224778778, -0.00140851154, 0.109208576 , 0.163408384 , 0.7129567   , 0.00264598  , 0.0148985852, -0.934084654, 0.03        , 3           , 11          , 0.0346410163, 0.0346410163
0.152736843 , -0.0251299739, -9.798202   , 0.00152334385, 0.00423505949, -0.00136815978, 0.109275989 , 0.163678035 , 0.7128219   , 0.00266101165, 0.0149409706, -0.9340985  , 0.04        , 3           , 12          , 0.0346410163, 0
0.1598887   , -0.03328482 , -9.80048752 , 0.00180915673, 0.00451619  , -0.00107610889, 0.109208576 , 0.163543209 , 0.7129567   , 0.00267894357, 0.0149861611, -0.934109   , 0.05        , 3           , 50          , 0           , 0
0.138155386 , -0.0274961684, -9.77623    , 0.001788526 , 0.00321890437, -0.000236397784, 0.109208576 , 0.163678035 , 0.7128893   , 0.00269679539, 0.015018356 , -0.934111357, 0.06        , 3           , 11          , 0.0346410163, 0.0346410163
0.13070111  , -0.0311296023, -9.809765   , 0.00293770316, 0.00378690357, -0.000936607132, 0.109208576 , 0.1634758   , 0.7128219   , 0.00272603356, 0.0150562515, -0.934120655, 0.07        , 3           , 12          , 0.0346410163, 0
0.149144351 , -0.0250841  , -9.799589   , 0.0008066076, 0.003670405 , -0.00152387237, 0.109208576 , 0.1634758   , 0.7128219   , 0.00273387181, 0.0150929959, -0.9341357  , 0.08        , 3           , 50          , 0           , 0
0.155598551 , -0.0389555469, -9.77304    , -0.00178732735, 0.00181701  , 0.0002936451, 0.109275989 , 0.163543209 , 0.7128219   , 0.002716043 , 0.0151111595, -0.9341328  , 0.09        , 3           , 11          , 0.0346410163, 0.0346410163
0.1438869   , -0.03352018 , -9.765858   , 0.0006415515, 0.00208668457, -0.000259891938, 0.109208576 , 0.163543209 , 0.713024139 , 0.00296597928, 0.0152871041, -0.9341316  , 0.1         , 3           , 12          , 0.0346410163, 0
0.130614027 , -0.0210249033, -9.784806   , 0.000342405838, 0.000235768137, -0.00129030738, 0.109141164 , 0.163745448 , 0.7128893   , 0.00296920678, 0.0152895   , -0.9341445  , 0.11        , 3           , 50          , 0           , 0
0.141092345 , -0.0235979166, -9.805517   , -0.00254462846, -0.00261392468, 8.164335E-05, 0.109141164 , 0.163610622 , 0.7128893   , 0.002943772 , 0.0152633581, -0.9341438  , 0.12        , 3           , 11          , 0.0346410163, 0.0346410163
0.1422916   , -0.03986647 , -9.803435   , 0.0001974282, 0.0006568437, -0.000140247765, 0.109141164 , 0.163610622 , 0.7128893   , 0.00294572557, 0.0152699305, -0.9341452  , 0.13        , 3           , 12          , 0.0346410163, 0
0.1424624   , -0.0186835956, -9.802286   , 0.00221738848, 0.002650349 , -0.000957531331, 0.109208576 , 0.163610622 , 0.7128893   , 0.00296775438, 0.0152964639, -0.9341545  , 0.14        , 3           , 50          , 0           , 0
0.145645872 , -0.009314584, -9.795374   , 0.00202813814, -0.00093812414, -0.000152065157, 0.109141164 , 0.163678035 , 0.713024139 , 0.00298801251, 0.0152870864, -0.9341562  , 0.15        , 3           , 11          , 0.0346410163, 0.0346410163
0.149118975 , -0.0228973143, -9.79324    , 0.00158373814, -0.00222723512, 0.000255829917, 0.109073751 , 0.163678035 , 0.7128893   , 0.00300388783, 0.0152648073, -0.9341538  , 0.16        , 3           , 12          , 0.0346410163, 0
0.1481924   , -0.0442958549, -9.815628   , -0.0009634315, -0.001337652, -0.000176316054, 0.109410815 , 0.1634758   , 0.7128219   , 0.002994226 , 0.0152514353, -0.934155464, 0.17        , 3           , 50          , 0           , 0
0.141489953 , -0.03214001 , -9.808322   , -0.00635679532, 1.73795343E-06, 0.000382238359, 0.109410815 , 0.163543209 , 0.7128893   , 0.00293071615, 0.0152514456, -0.934151649, 0.18        , 3           , 11          , 0.0346410163, 0.0346410163
0.149158359 , -0.0148245664, -9.789082   , -0.006631203, 0.00128783484, 0.00111471582, 0.109410815 , 0.163543209 , 0.7128893   , 0.00286457455, 0.0152642876, -0.934140444, 0.19        , 3           , 12          , 0.0346410163, 0
0.171017244 , -0.02289495 , -9.769098   , -0.00122777955, 0.00224199519, 0.0004462061, 0.109073751 , 0.163543209 , 0.713024139 , 0.0023790705, 0.01527679  , -0.9341433  , 0.2         , 3           , 50          , 0           , 0
0.150533691 , -0.00144463591, -9.776267   , -0.000796301756, 0.00224405969, -0.000266633782, 0.109141164 , 0.163543209 , 0.7128893   , 0.00237106741, 0.0152992373, -0.9341457  , 0.21        , 3           , 11          , 0.0311609767, 0.031161001
0.1517267   , -0.0061493367, -9.759146   , -0.0003624881, 0.00253142323, -0.000832218037, 0.108938925 , 0.163610622 , 0.713091552 , 0.00236731721, 0.01532457  , -0.934154034, 0.22        , 3           , 12          , 0.0346698426, 0
0.143933028 , -0.04591328 , -9.787682   , 0.003475525 , 0.002489854 , -0.000522923248, 0.109006338 , 0.163543209 , 0.7129567   , 0.00240199384, 0.0153494813, -0.93415904 , 0.23        , 3           , 50          , 0           , 0
0.140348136 , -0.0333920643, -9.774922   , 0.005025504 , 0.00146709452, -9.886098E-05, 0.109006338 , 0.163543209 , 0.7129567   , 0.00245223264, 0.0153641542, -0.93416    , 0.24        , 3           , 11          , 0.0311609767, 0.031161001
0.168801755 , -0.0174790025, -9.767702   , 0.00431976328, 0.00218692725, 0.000336535362, 0.1093434   , 0.163678035 , 0.713091552 , 0.00249548326, 0.0153860142, -0.934156656, 0.25        , 3           , 12          , 0.0346698426, 0
0.13594307  , -0.0220753662, -9.775283   , 0.00119161035, 0.002360723 , 0.000462856784, 0.109141164 , 0.163543209 , 0.713024139 , 0.002507472 , 0.01540961  , -0.9341519  , 0.26        , 3           , 50          , 0           , 0
0.145605356 , -0.020504972, -9.803182   , -0.00335103483, 0.002559205 , -0.0005640448, 0.109275989 , 0.163745448 , 0.7128893   , 0.00247387588, 0.0154352151, -0.9341576  , 0.27        , 3           , 11          , 0.0311609767, 0.031161001
0.168487787 , -0.0377425477, -9.812204   , -0.0012123757, 0.00325014116, -0.000111514513, 0.109141164 , 0.163678035 , 0.713091552 , 0.00246173586, 0.0154677192, -0.934158564, 0.28        , 3           , 12          , 0.0346698426, 0
0.144014642 , -0.0230864566, -9.771607   , 0.0033060736, 0.000620855542, 0.000307584036, 0.109141164 , 0.163678035 , 0.7128219   , 0.002494845 , 0.0154739218, -0.934155464, 0.29        , 3           , 50          , 0           , 0
0.144502923 , -0.0252578072, -9.779759   , 0.00458222628, 0.0005987948, 0.0007445403, 0.109141164 , 0.163678035 , 0.7128219   , 0.0025267757, 0.0154018421, -0.9341481  , 0.3         , 3           , 11          , 0.02517619  , 0.0251761414
0.11076501  , -0.0258075465, -9.785496   , 0.00075975043, 0.00207198015, 0.000599195133, 0.109006338 , 0.163678035 , 0.713091552 , 0.00253446726, 0.0154225472, -0.9341421  , 0.31        , 3           , 12          , 0.0347559564, 0
0.14948684  , -0.0185760558, -9.776022   , -0.00222919369, 0.0008293519, -0.00129764248, 0.109141164 , 0.163678035 , 0.7128219   , 0.002511976 , 0.0154308742, -0.934155   , 0.32        , 3           , 50          , 0           , 0
0.170702845 , -0.0226829611, -9.788523   , -0.001372839, 0.0002603223, -0.00273166969, 0.109073751 , 0.163543209 , 0.713024139 , 0.0024978274, 0.0154335443, -0.9341824  , 0.33        , 3           , 11          , 0.02517619  , 0.0251761414
0.168207645 , -0.003202766, -9.794643   , 0.0005909985, -0.000642678235, -0.000156720125, 0.109006338 , 0.163543209 , 0.713024139 , 0.002503713 , 0.0154271228, -0.934183836, 0.34        , 3           , 12          , 0.0347559564, 0
0.1238985   , -0.0253590271, -9.795758   , 0.00200671935, 0.000180855117, 0.00229676161, 0.109006338 , 0.163543209 , 0.713024139 , 0.00252413331, 0.0154288728, -0.934160948, 0.35        , 3           , 50          , 0           , 0
0.115138717 , -0.0416236  , -9.78609    , 0.00434426358, 0.004473062 , 0.0005130055, 0.108938925 , 0.163610622 , 0.7128219   , 0.002567657 , 0.01547359  , -0.9341557  , 0.36        , 3           , 11          , 0.02517619  , 0.0251761414
0.136061624 , -0.0299061779, -9.802023   , 0.004365858 , 0.005771627 , -0.000469787541, 0.109141164 , 0.163543209 , 0.7128893   , 0.00261124433, 0.0155313173, -0.934160233, 0.37        , 3           , 12          , 0.0347559564, 0
0.1535371   , -0.017724039, -9.77462    , -0.0005220119, 0.0015182239, -0.000132272238, 0.109006338 , 0.163745448 , 0.7129567   , 0.00260600378, 0.0155465025, -0.934161663, 0.38        , 3           , 50          , 0           , 0
0.157005548 , -0.0393262953, -9.781613   , -0.000675504853, 0.000375911623, -0.00043598708, 0.109275989 , 0.163610622 , 0.7128219   , 0.002599181 , 0.0155502735, -0.934165955, 0.39        , 3           , 11          , 0.02517619  , 0.0251761414
0.143201664 , -0.0167127121, -9.77651    , -0.000232793725, 0.000513339939, 0.0005705508, 0.109275989 , 0.163610622 , 0.7128219   , 0.00281013083, 0.01563029  , -0.9341569  , 0.4         , 3           , 12          , 0.0348984934, 0
0.1478191   , -0.004112037, -9.777678   , -0.00254242076, -0.0017664145, 0.00166811142, 0.109208576 , 0.163678035 , 0.7128893   , 0.00278496742, 0.015612579 , -0.9341402  , 0.41        , 3           , 50          , 0           , 0
0.123584591 , -0.04052923 , -9.768835   , -0.0021157607, -0.00177074876, 0.00167068164, 0.109141164 , 0.163610622 , 0.7129567   , 0.00276407  , 0.0155948261, -0.9341235  , 0.42        , 3           , 11          , 0.02392742  , 0.0239273757
0.138690859 , -0.0135703934, -9.771547   , 0.000317250233, -0.0012106346, 0.000405854371, 0.109141164 , 0.163543209 , 0.7129567   , 0.002767306 , 0.01558271  , -0.934119463, 0.43        , 3           , 12          , 0.0348984934, 0
0.147313625 , -0.0237786062, -9.793718   , 0.0006169614, -0.000628848036, -0.000871823169, 0.109141164 , 0.163408384 , 0.7129567   , 0.00277333939, 0.0155764446, -0.9341283  , 0.44        , 3           , 50          , 0           , 0
0.158438385 , -0.0507857837, -9.807478   , 0.0010572311, 0.000795874 , -0.000419139367, 0.1093434   , 0.1634758   , 0.7127545   , 0.00278384774, 0.0155844158, -0.934132338, 0.45        , 3           , 11          , 0.02392742  , 0.0239273757
0.146885261 , -0.0192898344, -9.791411   , 0.00304693752, 0.000491627 , -0.000697483, 0.1093434   , 0.1634758   , 0.7127545   , 0.00281420979, 0.0155893508, -0.934139252, 0.46        , 3           , 12          , 0.0348984934, 0
0.160899118 , -0.008196777, -9.785734   , 0.00216527912, -0.0008072269, 0.00128174387, 0.109275989 , 0.163543209 , 0.7128893   , 0.00283605931, 0.0155812455, -0.9341266  , 0.47        , 3           , 50          , 0           , 0
0.145550668 , -0.0259303637, -9.801889   , 0.002002838 , -0.00182032713, 0.00255401782, 0.109208576 , 0.163678035 , 0.7129567   , 0.00285648438, 0.0155629674, -0.9341011  , 0.48        , 3           , 11          , 0.02392742  , 0.0239273757
0.1265246   , -0.0344006643, -9.795839   , 0.00258850632, -0.00152161042, 0.00055847  , 0.109275989 , 0.163745448 , 0.713158965 , 0.00288245548, 0.0155477356, -0.9340956  , 0.49        , 3           , 12          , 0.0348984934, 0
0.159146681 , -0.0368436947, -9.762593   , 0.002078656 , -0.000829748344, -0.0002897663, 0.109208576 , 0.1634758   , 0.713024139 , 0.00322445319, 0.0141956452, -0.934093952, 0.5         , 3           , 50          , 0           , 0
0.144088745 , -0.026534019, -9.786552   , -0.000602483342, 0.0007777276, -0.0007123351, 0.109208576 , 0.1634758   , 0.713024139 , 0.00321832672, 0.0142034451, -0.9341011  , 0.51        , 3           , 11          , 0.0222430788, 0.0222430564
0.141297221 , -0.0324351825, -9.780775   , -0.002601127, 0.000223516792, -0.0005895939, 0.109275989 , 0.163543209 , 0.7127545   , 0.00319223246, 0.0142056951, -0.934107065, 0.52        , 3           , 12          , 0.03509635  , 0
0.122299813 , -0.04531291 , -9.78426    , -3.73132025E-05, 0.000202629337, -0.00114650128, 0.109208576 , 0.163543209 , 0.7128893   , 0.00319169625, 0.0142077589, -0.9341185  , 0.53        , 3           , 50          , 0           , 0
0.12326476  , -0.032758303, -9.77823448 , -0.00044196914, 0.00178826822, -0.00169844506, 0.109208576 , 0.1634758   , 0.713024139 , 0.00318703568, 0.0142256962, -0.934135437, 0.54        , 3           , 11          , 0.0222430788, 0.0222430564
0.14131029  , -0.0159452222, -9.762516   , -0.0008878867, 0.0007793375, -0.0005709664, 0.109141164 , 0.163543209 , 0.7128219   , 0.00317807565, 0.0142335081, -0.9341409  , 0.55        , 3           , 12          , 0.03509635  , 0
0.1319882   , -0.0223361477, -9.789778   , 0.00149959966, -0.00154297648, -1.746289E-05, 0.109275989 , 0.1634758   , 0.7128219   , 0.00319306878, 0.0142180817, -0.934141159, 0.56        , 3           , 50          , 0           , 0
0.141897172 , -0.03131954 , -9.801082   , 0.002487576 , -0.00212752842, 0.000123268954, 0.109275989 , 0.1634758   , 0.7128219   , 0.00321796071, 0.0141968   , -0.934139967, 0.57        , 3           , 11          , 0.0222430788, 0.0222430564
0.134077072 , -0.0234946646, -9.767639   , 0.0003828799, 4.86065364E-05, -0.0004306079, 0.109208576 , 0.163610622 , 0.7129567   , 0.00322172837, 0.0141972993, -0.9341445  , 0.58        , 3           , 12          , 0.03509635  , 0
0.176760137 , -0.041365318, -9.775582   , 0.0002425868, 5.261086E-05, -0.000717628631, 0.109275989 , 0.163678035 , 0.7129567   , 0.003224053 , 0.0141978487, -0.934151649, 0.59        , 3           , 50          , 0           , 0
0.159243137 , -0.0447083749, -9.786172   , -0.00147231121, -0.00132387981, -0.000319487357, 0.109478228 , 0.163408384 , 0.713158965 , 0.00326400739, 0.0143955033, -0.9341538  , 0.6         , 3           , 11          , 0.0157477185, 0.015747698
0.139354765 , -0.0459902063, -9.776884   , -0.00216773036, -0.000449239538, -0.00116974232, 0.109478228 , 0.1634758   , 0.7129567   , 0.00324216159, 0.01439105  , -0.9341657  , 0.61        , 3           , 12          , 0.03534818  , 0
0.138046011 , -0.0267733969, -9.759509   , 0.0006671793, -0.00105513353, -0.000731709355, 0.109478228 , 0.1634758   , 0.7129567   , 0.00324872858, 0.01438052  , -0.934172869, 0.62        , 3           , 50          , 0           , 0
0.141575217 , -0.006636774, -9.789508   , 0.00340235862, 0.00178320706, -0.0006736967, 0.109275989 , 0.163408384 , 0.7128893   , 0.003282656 , 0.0143983746, -0.934179544, 0.63        , 3           , 11          , 0.0157477185, 0.015747698
0.136160269 , -0.00616302527, -9.787293   , 0.00444313465, 0.005783922 , -0.000466188358, 0.109275989 , 0.163543209 , 0.7128893   , 0.00332702277, 0.0144562293, -0.9341843  , 0.64        , 3           , 12          , 0.03534818  , 0
0.127463266 , -0.02722788 , -9.792585   , 0.00113728119, 0.003372271 , 0.000480206538, 0.109141164 , 0.163678035 , 0.713024139 , 0.00333846663, 0.0144899357, -0.9341793  , 0.65        , 3           , 50          , 0           , 0
0.143510789 , -0.02539028 , -9.76667    , -0.001457738, 0.0001064567, -1.24556891E-05, 0.109545641 , 0.1634758   , 0.7127545   , 0.00332388864, 0.0144910011, -0.9341793  , 0.66        , 3           , 11          , 0.0157477185, 0.015747698
0.135786265 , -0.03299872 , -9.765925   , -0.0005881835, 0.0006837436, -0.00142978842, 0.109545641 , 0.1634758   , 0.7127545   , 0.0033178   , 0.0144978845, -0.9341936  , 0.67        , 3           , 12          , 0.03534818  , 0
0.122988924 , -0.0204686429, -9.788484   , 0.00129725283, 0.003676602 , -0.00166099332, 0.1093434   , 0.163678035 , 0.7128219   , 0.00333053246, 0.0145347053, -0.934210062, 0.68        , 3           , 50          , 0           , 0
0.137909427 , -0.0187218059, -9.795101   , -0.0008426585, 0.00411278568, 4.94005253E-05, 0.109208576 , 0.163273558 , 0.7129567   , 0.0033221154, 0.0145758316, -0.9342096  , 0.69        , 3           , 11          , 0.0157477185, 0.015747698
0.1665805   , -0.0347737558, -9.793217   , -0.00240015471, 0.00151548849, -0.000713660731, 0.109478228 , 0.163745448 , 0.713024139 , 0.002884345 , 0.0144451736, -0.93422246 , 0.7         , 3           , 12          , 0.03565243  , 0
0.135089576 , -0.026892012, -9.787995   , -0.0007034031, -0.000349256617, -0.00244749244, 0.109478228 , 0.163408384 , 0.7128219   , 0.002876957 , 0.0144417528, -0.934247   , 0.71        , 3           , 50          , 0           , 0
0.145970464 , -0.0112914909, -9.779584   , -0.00169111416, 0.0010822349, -0.00114488346, 0.109208576 , 0.163610622 , 0.713091552 , 0.00285988254, 0.0144526083, -0.934258461, 0.72        , 3           , 11          , 0.0155775137, 0.0155774979
0.148431182 , -0.0056486  , -9.802984   , -0.00126020284, 0.00235342933, 0.0004503696, 0.109208576 , 0.163610622 , 0.713091552 , 0.00284734648, 0.0144761289, -0.934253931, 0.73        , 3           , 12          , 0.03565243  , 0
0.147209972 , -0.0234922133, -9.778358   , 0.0004328277, 0.0009070351, 1.0536246E-05, 0.109208576 , 0.163543209 , 0.7128219   , 0.00285167666, 0.0144852   , -0.9342537  , 0.74        , 3           , 50          , 0           , 0
0.147646964 , -0.0239615552, -9.777005   , 0.00284479861, -0.000112875161, -0.000847999239, 0.109073751 , 0.163543209 , 0.713024139 , 0.00288000167, 0.0144840954, -0.9342623  , 0.75        , 3           , 11          , 0.0155775137, 0.0155774979
0.155360579 , -0.0128087914, -9.771836   , 0.005844209 , 0.0007203605, -0.00124673394, 0.109141164 , 0.163543209 , 0.7129567   , 0.00293826358, 0.0144913355, -0.9342747  , 0.76        , 3           , 12          , 0.03565243  , 0
0.158918977 , -0.0262608733, -9.781897   , 0.002994582 , 0.0004601181, -0.0009818774, 0.109073751 , 0.163610622 , 0.7128219   , 0.0029680673, 0.0144959632, -0.934284449, 0.77        , 3           , 50          , 0           , 0
0.13343896  , -0.0137371626, -9.79373    , -0.0002876181, -0.0002269384, -0.0005827694, 0.109073751 , 0.163610622 , 0.7128219   , 0.00296510756, 0.0144937122, -0.9342902  , 0.78        , 3           , 11          , 0.0155775137, 0.0155774979
0.139563546 , -0.0385483019, -9.798025   , 0.00314449752, 0.00145658129, -0.00039408548, 0.109006338 , 0.163340971 , 0.7127545   , 0.00299649476, 0.0145082893, -0.9342942  , 0.79        , 3           , 12          , 0.03565243  , 0
0.141583592 , -0.0531662442, -9.782367   , 0.00415535  , 0.000483347569, 0.00131967571, 0.108938925 , 0.1634758   , 0.7128219   , 0.00397016574, 0.0142494049, -0.934267759, 0.8         , 3           , 50          , 0           , 0
0.1282213   , -0.0345760249, -9.780919   , 0.000454739726, 0.0005170735, 0.00172664772, 0.109141164 , 0.163745448 , 0.7128893   , 0.00397495832, 0.0142545067, -0.934250355, 0.81        , 3           , 11          , 0.0134111261, 0.0134110926
0.151793763 , -0.007827142, -9.770908   , 9.409098E-05, 0.005265321 , 7.59567338E-05, 0.109141164 , 0.163610622 , 0.7129567   , 0.00397591246, 0.0143071562, -0.9342494  , 0.82        , 3           , 12          , 0.0360073559, 0
0.165213138 , -0.030781256, -9.785956   , -0.00263613858, 0.00285684946, 2.42044516E-05, 0.109073751 , 0.1634758   , 0.7127545   , 0.00394955557, 0.0143357208, -0.934249163, 0.83        , 3           , 50          , 0           , 0
0.145937234 , -0.0287026167, -9.796046   , -0.003374325, 0.000429430569, -0.000158636074, 0.109073751 , 0.1634758   , 0.7127545   , 0.00391579  , 0.0143400216, -0.9342506  , 0.84        , 3           , 11          , 0.0134111261, 0.0134110926
0.1506062   , -0.0106814  , -9.798054   , -0.00238414458, -0.000293291581, -0.000592319062, 0.109275989 , 0.1634758   , 0.7128893   , 0.003891864 , 0.0143371113, -0.934256554, 0.85        , 3           , 12          , 0.0360073559, 0
0.144562066 , -0.0327344835, -9.797461   , -0.00125050358, -0.00115690893, -0.00145647814, 0.1093434   , 0.163745448 , 0.7128219   , 0.00387914944, 0.0143255992, -0.9342711  , 0.86        , 3           , 50          , 0           , 0
0.144972637 , -0.04793371 , -9.81028    , -8.689817E-05, 0.001405626 , -0.000839734857, 0.109275989 , 0.163543209 , 0.7128219   , 0.00387816038, 0.0143396873, -0.9342797  , 0.87        , 3           , 11          , 0.0134111261, 0.0134110926
0.155691743 , -0.0445995852, -9.79343    , -0.000111936657, 0.000384682149, 0.00114880584, 0.109275989 , 0.163610622 , 0.7128219   , 0.00387720647, 0.0143434918, -0.934268   , 0.88        , 3           , 12          , 0.0360073559, 0
0.152286619 , -0.0135525158, -9.784069   , 0.000438384275, -0.00148002221, 0.0006958588, 0.109275989 , 0.163610622 , 0.7128219   , 0.00388169  , 0.0143286623, -0.9342611  , 0.89        , 3           , 50          , 0           , 0
0.148791716 , -0.01825368 , -9.805386   , -0.000393841241, 0.000699118653, -0.0008521119, 0.109073751 , 0.163543209 , 0.7128893   , 0.00387500436, 0.0143369846, -0.934269667, 0.9         , 3           , 11          , 0.00113338279, 0.00113339489
0.146924511 , -0.0205651149, -9.798653   , 0.0004806515, 0.00269394438, -0.00053159293, 0.1093434   , 0.163543209 , 0.7127545   , 0.00387973548, 0.0143639427, -0.9342749  , 0.91        , 3           , 12          , 0.03641109  , 0
0.142728478 , -0.0127377287, -9.768338   , -0.0001237091, 0.00011283264, 0.000285910472, 0.109208576 , 0.163340971 , 0.713024139 , 0.00387853943, 0.01436506  , -0.9342718  , 0.92        , 3           , 50          , 0           , 0
0.150384247 , -0.0323877856, -9.792435   , -0.0007200848, -0.002598771, -0.000329492934, 0.109275989 , 0.1634758   , 0.7127545   , 0.00387129  , 0.0143390857, -0.9342754  , 0.93        , 3           , 11          , 0.00113338279, 0.00113339489
0.171716    , -0.014060691, -9.794285   , 0.0008571254, -0.00175108726, -0.000736794667, 0.109275989 , 0.1634758   , 0.7127545   , 0.00387975457, 0.0143216038, -0.9342828  , 0.94        , 3           , 12          , 0.03641109  , 0
0.168090612 , -0.0127298385, -9.789334   , 0.00203489442, 0.00195904355, -0.000246439158, 0.109275989 , 0.163543209 , 0.7126871   , 0.00390006974, 0.0143412026, -0.934285164, 0.95        , 3           , 50          , 0           , 0
0.127068713 , -0.0164554454, -9.787497   , 0.0004608399, 0.00196213927, 0.00117495726, 0.109275989 , 0.163543209 , 0.7128219   , 0.00390484836, 0.014360778 , -0.934273243, 0.96        , 3           , 11          , 0.00113338279, 0.00113339489
0.128404155 , -0.0138198426, -9.782033   , -0.000583380461, -0.00176095474, 0.0019731964, 0.1093434   , 0.1634758   , 0.7129567   , 0.00389929581, 0.01434309  , -0.9342537  , 0.97        , 3           , 12          , 0.03641109  , 0
0.135625    , -0.0245397761, -9.797448   , -0.000290955679, -0.00189433631, 0.000542003 , 0.109208576 , 0.163543209 , 0.713024139 , 0.003896462 , 0.0143241286, -0.9342482  , 0.98        , 3           , 50          , 0           , 0
0.132547244 , -0.0119353682, -9.792814   , -0.000430694781, -0.00217179186, -0.000321519241, 0.1093434   , 0.1634758   , 0.7128893   , 0.00389210787, 0.0143024232, -0.934251547, 0.99        , 3           , 11          , 0.00113338279, 0.00113339489
0.140983984 , -0.0175320152, -9.782413   , 0.0007638478, -0.00221837661, 0.0009729313, 0.1093434   , 0.1634758   , 0.7128893   , 0.00388102839, 0.0142747844, -0.934242   , 1           , 3           , 12          , 0.03686164  , 0
0.160166383 , -0.0326627344, -9.774731   , 0.00234119035, -0.0009472232, 0.00128729979, 0.109208576 , 0.163340971 , 0.7128219   , 0.00390462275, 0.0142652607, -0.9342294  , 1.01        , 3           , 50          , 0           , 0
0.15025726  , -0.03302739 , -9.774828   , 0.00306563452, -0.000372330629, 0.000298356346, 0.109073751 , 0.163610622 , 0.7128893   , 0.00393532263, 0.014261527 , -0.9342263  , 1.02        , 3           , 11          , 0.0017298545, 0.00172983832
0.134893671 , -0.03876555 , -9.774132   , 0.000655735 , 8.59392E-05 , -0.000139193216, 0.1093434   , 0.1634758   , 0.7128893   , 0.003941861 , 0.0142623913, -0.9342277  , 1.03        , 3           , 12          , 0.03686164  , 0
0.128411412 , -0.02004058 , -9.790688   , 0.000222884686, -0.000200144816, 0.000283309171, 0.109141164 , 0.163408384 , 0.713024139 , 0.00394413061, 0.0142603768, -0.934224844, 1.04        , 3           , 50          , 0           , 0
0.149815962 , -0.0472540632, -9.793514   , -7.516428E-05, -0.00162631157, -0.00016851793, 0.109141164 , 0.163408384 , 0.713024139 , 0.00394335436, 0.01424412  , -0.9342265  , 1.05        , 3           , 11          , 0.0017298545, 0.00172983832
0.1475859   , -0.04097017 , -9.788945   , 0.000222752715, -0.0006236146, -0.000438361167, 0.109478228 , 0.163745448 , 0.7128219   , 0.00394551968, 0.0142379021, -0.934231043, 1.06        , 3           , 12          , 0.03686164  , 0
0.150980473 , -0.02014949 , -9.798611   , 0.00191838446, -0.0009377697, 0.000712401757, 0.109073751 , 0.163543209 , 0.713024139 , 0.00396480365, 0.0142284986, -0.9342239  , 1.07        , 3           , 50          , 0           , 0
0.145021558 , -0.0282729045, -9.793339   , 0.000628914335, -0.001501764, 0.00112559053, 0.109208576 , 0.163543209 , 0.7129567   , 0.00397125259, 0.0142134335, -0.9342127  , 1.08        , 3           , 11          , 0.0017298545, 0.00172983832
0.1485264   , -0.03245919 , -9.784322   , 0.001952625 , 0.00178857159, 0.0003228043, 0.109478228 , 0.163610622 , 0.7129567   , 0.00399082573, 0.0142313074, -0.934209347, 1.09        , 3           , 12          , 0.03686164  , 0
0.129949674 , -0.02312945 , -9.756379   , 0.00507950736, 0.00291388948, 0.0009304504, 0.109275989 , 0.1634758   , 0.7126871   , 0.004037991 , 0.0142657058, -0.934200048, 1.1         , 3           , 50          , 0           , 0
0.160786837 , -0.0119298231, -9.774035   , 0.00396086043, 0.004502913 , 0.0008034694, 0.109275989 , 0.1634758   , 0.7126871   , 0.00407771626, 0.0143107008, -0.9341917  , 1.11        , 3           , 11          , 0.002788733 , 0.00278873066
0.162405431 , -0.0416036546, -9.783848   , 0.00341055216, 0.00537994737, -0.0004751749, 0.109410815 , 0.163610622 , 0.7128893   , 0.004111757 , 0.01436452  , -0.934196234, 1.12        , 3           , 12          , 0.03735692  , 0
0.1353815   , -0.05740752 , -9.802347   , 0.0008258423, 0.00325661036, -0.000521896931, 0.109275989 , 0.163678035 , 0.7128219   , 0.004119942 , 0.0143971052, -0.9342015  , 1.13        , 3           , 50          , 0           , 0
0.126535729 , -0.0170234088, -9.776216   , -0.0003160485, 0.00340378  , 0.000331828254, 0.109208576 , 0.163543209 , 0.713024139 , 0.00411683135, 0.01443113  , -0.9341979  , 1.14        , 3           , 11          , 0.002788733 , 0.00278873066
0.145340592 , -0.0204653721, -9.76479    , 0.00183389557, 0.0042508035, -0.000644374755, 0.1093434   , 0.163543209 , 0.713024139 , 0.00413508  , 0.0144736636, -0.9342041  , 1.15        , 3           , 12          , 0.03735692  , 0
0.13904281  , -0.04399395 , -9.794479   , 0.00208945526, 0.002234181 , 0.000186615944, 0.1093434   , 0.163543209 , 0.713024139 , 0.00415600324, 0.0144959958, -0.9342022  , 1.16        , 3           , 50          , 0           , 0
0.127661854 , -0.0180210471, -9.810095   , 0.00163734739, 0.000934832 , 0.00173916714, 0.109073751 , 0.163408384 , 0.7129567   , 0.004172629 , 0.0145052718, -0.9341848  , 1.17        , 3           , 11          , 0.002788733 , 0.00278873066
0.138102129 , -0.036480397, -9.779495   , -0.00202268828, 0.00342111755, 0.000321547937, 0.109141164 , 0.163610622 , 0.7129567   , 0.004152452 , 0.014539469 , -0.934181452, 1.18        , 3           , 12          , 0.03735692  , 0
0.1498008   , -0.0352586433, -9.776664   , -0.00300749717, 0.00386877847, -0.0005366806, 0.109275989 , 0.163408384 , 0.7129567   , 0.00412229961, 0.0145781776, -0.9341867  , 1.19        , 3           , 50          , 0           , 0
0.164558277 , -0.0148175182, -9.802038   , 0.00103615609, -0.00204516621, 0.000260953442, 0.109141164 , 0.1634758   , 0.7128893   , 0.004129581 , 0.0145622073, -0.9341841  , 1.2         , 3           , 11          , 0.003947566 , 0.00394758256
0.161859065 , 0.0030148048, -9.780627   , 0.00157092826, -0.00435381662, 0.001375648 , 0.109141164 , 0.1634758   , 0.7128893   , 0.00414548628, 0.0145186111, -0.9341705  , 1.21        , 3           , 12          , 0.0378948078, 0
0.127798215 , -0.0216216389, -9.76903    , 0.0006177458, -0.00132438389, 0.000268817152, 0.109208576 , 0.163543209 , 0.7126871   , 0.004151703 , 0.0145053566, -0.9341676  , 1.22        , 3           , 50          , 0           , 0
0.128891647 , -0.0257853083, -9.802042   , 0.002184779 , -0.00119570759, 0.00013724553, 0.109275989 , 0.163543209 , 0.7128219   , 0.004173569 , 0.0144933918, -0.93416667 , 1.23        , 3           , 11          , 0.003947566 , 0.00394758256
0.140559092 , -0.03128842 , -9.8029     , 0.00173887319, -0.003192308, -0.0004668673, 0.109141164 , 0.163408384 , 0.7128219   , 0.00419088872, 0.01446149  , -0.934171438, 1.24        , 3           , 12          , 0.0378948078, 0
0.142108828 , -0.00562275574, -9.800331   , 0.000489014434, -0.00130502228, -0.00173518748, 0.1093434   , 0.163408384 , 0.7129567   , 0.00419552624, 0.0144485142, -0.9341886  , 1.25        , 3           , 50          , 0           , 0
0.159566641 , -0.00637654774, -9.786178   , 0.000234684019, 0.00155981933, -0.00126591965, 0.109275989 , 0.163408384 , 0.713024139 , 0.004197691 , 0.0144641642, -0.9342015  , 1.26        , 3           , 11          , 0.003947566 , 0.00394758256
0.145866662 , -0.0203531552, -9.775625   , 0.00252889562, 0.00381909776, -7.41682E-05, 0.109275989 , 0.163408384 , 0.713024139 , 0.00422297232, 0.0145023577, -0.934201956, 1.27        , 3           , 12          , 0.0378948078, 0
0.145858139 , -0.0265980866, -9.782021   , 0.00341109629, 0.00582416169, -0.0008983052, 0.109208576 , 0.163408384 , 0.7126871   , 0.004256956 , 0.0145606361, -0.9342108  , 1.28        , 3           , 50          , 0           , 0
0.1456454   , -0.05541251 , -9.78642    , 0.00138633023, 0.00283658737, -0.00109720312, 0.1093434   , 0.1634758   , 0.7128893   , 0.00427066162, 0.01458905  , -0.9342215  , 1.29        , 3           , 11          , 0.003947566 , 0.00394758256
0.1518742   , -0.05469139 , -9.77461052 , -0.003039063, -0.00128253852, 0.0008194753, 0.109275989 , 0.163610622 , 0.713091552 , 0.004263873 , 0.0145811178, -0.934213161, 1.3         , 3           , 12          , 0.0384731479, 0
0.142315269 , -0.02024437 , -9.782883   , -0.003430796, 0.00159014727, 0.0005724765, 0.1093434   , 0.163543209 , 0.7127545   , 0.00422965  , 0.0145969959, -0.934207439, 1.31        , 3           , 50          , 0           , 0
0.140646532 , -0.01112348 , -9.790924   , 0.00112684281, 0.00211707153, 0.000608237868, 0.1093434   , 0.163543209 , 0.7127545   , 0.004241008 , 0.0146181369, -0.934201   , 1.32        , 3           , 11          , 0.00513068167, 0.005130681
0.135550559 , -0.0144157261, -9.774296   , 0.00151321664, -0.00146822282, 0.000415556744, 0.109478228 , 0.163543209 , 0.7128219   , 0.00425620051, 0.0146034369, -0.934196949, 1.33        , 3           , 12          , 0.0384731479, 0
0.149672791 , -0.009388581, -9.791723   , -0.00189222267, -0.0009998394, -2.79896776E-05, 0.1093434   , 0.1634758   , 0.713024139 , 0.004237274 , 0.0145934392, -0.9341972  , 1.34        , 3           , 50          , 0           , 0
0.1202272   , -0.0160860717, -9.774456   , -0.003593503, -0.000269892975, 0.000401409779, 0.109208576 , 0.163543209 , 0.713158965 , 0.00420139777, 0.0145907244, -0.9341934  , 1.35        , 3           , 11          , 0.00513068167, 0.005130681
0.1513853   , -0.0529660955, -9.766916   , -0.00259149563, -0.000130318265, -0.0003059166, 0.109208576 , 0.163543209 , 0.7129567   , 0.00417543855, 0.0145894345, -0.9341965  , 1.36        , 3           , 12          , 0.0384731479, 0
0.151160076 , -0.02902546 , -9.770256   , -0.00374575541, -0.00155165547, -0.0003336378, 0.109208576 , 0.1634758   , 0.7127545   , 0.00413793046, 0.0145739326, -0.9341998  , 1.37        , 3           , 50          , 0           , 0
0.134302154 , -0.0133569911, -9.787846   , -0.00190143625, -0.00171756675, 0.000104658466, 0.109208576 , 0.1634758   , 0.7127545   , 0.00411893  , 0.0145567525, -0.934198856, 1.38        , 3           , 11          , 0.00513068167, 0.005130681
0.130575076 , -0.0379996449, -9.799908   , 0.001955413 , -4.0941206E-05, 0.000582076551, 0.109275989 , 0.163340971 , 0.7129567   , 0.004138568 , 0.0145563195, -0.9341929  , 1.39        , 3           , 12          , 0.0384731479, 0
0.13871038  , -0.0246688388, -9.787935   , 0.0040370957, -0.0004649239, -0.000408396154, 0.109073751 , 0.163678035 , 0.7128893   , 0.004143525 , 0.01438468  , -0.9341972  , 1.4         , 3           , 50          , 0           , 0
0.148142934 , -0.0158830527, -9.773746   , 0.004621656 , 0.00039671277, -0.00125094084, 0.109275989 , 0.163543209 , 0.7128893   , 0.00418956159, 0.0143887   , -0.9342096  , 1.41        , 3           , 11          , 0.006284223 , 0.00628423132
0.146865577 , -0.0175394285, -9.786423   , -0.00120743609, 0.000458509574, -0.00157222932, 0.109545641 , 0.163543209 , 0.7128219   , 0.004177261 , 0.0143933482, -0.9342253  , 1.42        , 3           , 12          , 0.0390897729, 0
0.152190626 , -0.0145898033, -9.771435   , -0.004496645, -0.001084445, -0.001614888, 0.109545641 , 0.163543209 , 0.7128219   , 0.00413206173, 0.014382571 , -0.934241533, 1.43        , 3           , 50          , 0           , 0
0.156602964 , -0.03212724 , -9.779727   , -0.000357150653, 0.00101020141, -0.000127922118, 0.109073751 , 0.163543209 , 0.7128219   , 0.004128473 , 0.01439268  , -0.934242964, 1.44        , 3           , 11          , 0.006284223 , 0.00628423132
0.134643823 , -0.0282166041, -9.790273   , 0.0016310385, 0.0009861347, 0.0003133177, 0.109275989 , 0.1634758   , 0.7128893   , 0.00414482737, 0.0144025264, -0.9342396  , 1.45        , 3           , 12          , 0.0390897729, 0
0.136277169 , -0.005983988, -9.804003   , 0.002039681 , -0.000170915038, 0.00101460353, 0.109208576 , 0.163678035 , 0.7129567   , 0.00416537048, 0.0144007783, -0.9342296  , 1.46        , 3           , 50          , 0           , 0
0.166674525 , -0.00747657428, -9.773478   , 0.00247019483, -0.000170130486, 0.0004448457, 0.109208576 , 0.1634758   , 0.7128219   , 0.00419013528, 0.0143990554, -0.9342251  , 1.47        , 3           , 11          , 0.006284223 , 0.00628423132
0.173424155 , -0.0151088322, -9.782086   , 0.000630969938, -0.000138550327, -0.0009971114, 0.109208576 , 0.1634758   , 0.7128219   , 0.00419630064, 0.0143977124, -0.9342351  , 1.48        , 3           , 12          , 0.0390897729, 0
0.124087133 , -0.018838264, -9.815105   , -0.00350208138, -0.000108168664, 0.0002657824, 0.1093434   , 0.163408384 , 0.7129567   , 0.0041613183, 0.0143966209, -0.9342325  , 1.49        , 3           , 50          , 0           , 0
0.127020687 , -0.0285476316, -9.795315   , -0.00469616661, 1.29148248E-06, 0.000260384433, 0.1093434   , 0.163610622 , 0.7128893   , 0.004072487 , 0.0143638216, -0.9342303  , 1.5         , 3           , 11          , 0.00696196966, 0.00696197059
0.134975091 , -0.03686031 , -9.783594   , -0.003683429, 0.0005784135, -0.00129917369, 0.109073751 , 0.163543209 , 0.7129567   , 0.00403546635, 0.0143696582, -0.9342432  , 1.51        , 3           , 12          , 0.0397425629, 0
0.144828573 , -0.0356906243, -9.774456   , -0.0035572995, -0.0005731872, -0.0008857652, 0.1093434   , 0.163543209 , 0.7129567   , 0.003999766 , 0.0143639613, -0.934252   , 1.52        , 3           , 50          , 0           , 0
0.142976731 , -0.0544484667, -9.790047   , -0.00227635587, -0.00058491074, -0.00102113665, 0.109141164 , 0.163408384 , 0.7126871   , 0.00397685636, 0.0143581536, -0.9342623  , 1.53        , 3           , 11          , 0.00696196966, 0.00696197059
0.146763563 , -0.0368364453, -9.795229   , -0.00186812214, -0.0020247004, -0.0007532703, 0.109141164 , 0.163408384 , 0.7126871   , 0.00395806553, 0.0143379373, -0.9342699  , 1.54        , 3           , 12          , 0.0397425629, 0
0.132352769 , -0.0273677763, -9.783507   , -0.00412493851, -0.000706858351, -0.00132052472, 0.109275989 , 0.163408384 , 0.713158965 , 0.00391662633, 0.0143309208, -0.934283257, 1.55        , 3           , 50          , 0           , 0
0.1293854   , -0.023942057, -9.806081   , -0.00324425544, 0.00157838571, -0.00142507826, 0.109275989 , 0.1634758   , 0.7128893   , 0.00388398  , 0.0143467579, -0.9342973  , 1.56        , 3           , 11          , 0.00696196966, 0.00696197059
0.147641331 , -0.03732423 , -9.792517   , -0.001280683, -0.000171554537, -0.00029346958, 0.109478228 , 0.163408384 , 0.713024139 , 0.00387113215, 0.0143450554, -0.9343004  , 1.57        , 3           , 12          , 0.0397425629, 0
0.142295808 , -0.0229449645, -9.783366   , -0.00143706636, -0.00131770608, -0.0001679384, 0.109208576 , 0.163408384 , 0.7128219   , 0.00385673624, 0.0143318847, -0.9343021  , 1.58        , 3           , 50          , 0           , 0
0.147851154 , -0.0129656363, -9.793137   , -0.0008397276, 0.00139517745, 0.000304382964, 0.109208576 , 0.163408384 , 0.7128219   , 0.00384838181, 0.0143458266, -0.934299   , 1.59        , 3           , 11          , 0.00696196966, 0.00696197059
0.15472     , -0.0164090917, -9.813891   , 0.0007750418, 0.00187578  , 0.0004611567, 0.109275989 , 0.163273558 , 0.7126871   , 0.00366023253, 0.0144228246, -0.9342971  , 1.6         , 3           , 12          , 0.0404294133, 0
0.153905988 , -0.0334322453, -9.782025   , 0.002451982 , -0.0007207703, 0.000433875277, 0.1093434   , 0.1634758   , 0.7128893   , 0.00368481386, 0.0144156   , -0.9342928  , 1.61        , 3           , 50          , 0           , 0
0.1486807   , -0.034893658, -9.809644   , 3.91924E-05 , -0.000266339746, 0.000425571721, 0.109410815 , 0.163543209 , 0.7129567   , 0.00368526834, 0.0144129237, -0.93428874 , 1.62        , 3           , 11          , 0.00800592452, 0.008005925
0.116207011 , -0.0364779346, -9.804088   , -0.0015553484, -0.00212472887, 0.00167675829, 0.109275989 , 0.163408384 , 0.7128219   , 0.00366995414, 0.0143916132, -0.934272051, 1.63        , 3           , 12          , 0.0404294133, 0
0.1458185   , -0.0302198585, -9.780706   , -0.0008738157, -0.00428769551, 0.00236515  , 0.109208576 , 0.163408384 , 0.7128893   , 0.00366155361, 0.0143486485, -0.934248447, 1.64        , 3           , 50          , 0           , 0
0.152078032 , -0.0370189771, -9.782536   , -0.00184995355, -0.00382851646, 0.000219183319, 0.109208576 , 0.163408384 , 0.7128893   , 0.00364308385, 0.0143103544, -0.9342463  , 1.65        , 3           , 11          , 0.00800592452, 0.008005925
0.153599873 , -0.0340978578, -9.803717   , -0.00194334879, -0.0006580644, -0.00159583054, 0.109275989 , 0.163610622 , 0.7128893   , 0.003623422 , 0.0143038332, -0.9342625  , 1.66        , 3           , 12          , 0.0404294133, 0
0.143860191 , -0.0119462777, -9.80084    , -0.00106184673, 0.0021926593, -0.000833544938, 0.109141164 , 0.1634758   , 0.7128893   , 0.00361268455, 0.01432579  , -0.9342706  , 1.67        , 3           , 50          , 0           , 0
0.151801452 , 0.002422709 , -9.759497   , -0.0007941835, 0.000897604157, -0.0005644484, 0.109141164 , 0.163543209 , 0.7129567   , 0.0036046626, 0.0143347858, -0.9342761  , 1.68        , 3           , 11          , 0.00800592452, 0.008005925
0.152640715 , -0.02394177 , -9.782831   , -0.0005318797, -0.00111005991, -0.0007350318, 0.109275989 , 0.163543209 , 0.7128219   , 0.00359923742, 0.01432371  , -0.934283733, 1.69        , 3           , 12          , 0.0404294133, 0
0.148724213 , -0.0330464765, -9.813686   , 0.00101459946, 0.00105901842, 2.038837E-05, 0.109275989 , 0.163543209 , 0.7128219   , 0.003574394 , 0.01437312  , -0.934284   , 1.7         , 3           , 50          , 0           , 0
0.138319358 , -0.04594063 , -9.822514   , 0.00230338331, 0.0014810029, -0.0005379691, 0.109208576 , 0.163543209 , 0.713024139 , 0.00359734986, 0.01438795  , -0.9342892  , 1.71        , 3           , 11          , 0.008754878 , 0.008754869
0.133774221 , -0.0263809487, -9.792518   , -0.000355044147, -0.00128001592, -0.0013099201, 0.1093434   , 0.163678035 , 0.7129567   , 0.0035936113, 0.0143751958, -0.93430233 , 1.72        , 3           , 12          , 0.0411482863, 0
0.137451962 , -0.000923600048, -9.772315   , -0.003307424, 0.00147666631, -0.00171750807, 0.109208576 , 0.1634758   , 0.713024139 , 0.00356029021, 0.0143900234, -0.9343195  , 1.73        , 3           , 50          , 0           , 0
0.149028569 , -0.0221455041, -9.779229   , -0.00388483028, 0.000906727742, -0.00144311786, 0.109410815 , 0.163543209 , 0.713091552 , 0.003521235 , 0.014399142 , -0.93433404 , 1.74        , 3           , 11          , 0.008754878 , 0.008754869
0.13047421  , -0.042605456, -9.790928   , 0.0004063247, -0.00223278231, 0.000183588927, 0.109410815 , 0.163543209 , 0.713091552 , 0.003525323 , 0.0143768089, -0.934332132, 1.75        , 3           , 12          , 0.0411482863, 0
0.1327875   , -0.045645915, -9.80359    , 0.00483404659, -0.00034764118, 0.000739105 , 0.109275989 , 0.1634758   , 0.7127545   , 0.0035737704, 0.0143733053, -0.934324741, 1.76        , 3           , 50          , 0           , 0
0.13890563  , -0.04286866 , -9.773239   , 0.00330242771, 0.00189883832, -0.000311088836, 0.109208576 , 0.163678035 , 0.713091552 , 0.0036067504, 0.0143923061, -0.934327841, 1.77        , 3           , 11          , 0.008754878 , 0.008754869
0.139902145 , -0.0302656684, -9.77172852 , -0.00052643253, 0.00195256562, -0.0019796628, 0.109073751 , 0.1634758   , 0.7129567   , 0.003601201 , 0.0144119067, -0.9343476  , 1.78        , 3           , 12          , 0.0411482863, 0
0.15278244  , -0.0148220556, -9.792209   , -0.00237941672, 0.00161312427, -0.00199601683, 0.109208576 , 0.163340971 , 0.7129567   , 0.00357712083, 0.0144281061, -0.9343674  , 1.79        , 3           , 50          , 0           , 0
0.133296534 , -0.0210774522, -9.782071   , -0.000493489439, 0.00332454  , 0.000112077782, 0.109141164 , 0.163408384 , 0.7128219   , 0.00338634569, 0.0145670092, -0.934368849, 1.8         , 3           , 11          , 0.009669646 , 0.00966964
0.132986173 , -0.0132920016, -9.792826   , 0.00158458552, 0.00431237649, -0.0005047618, 0.109141164 , 0.163408384 , 0.7128219   , 0.0034021216, 0.014610149 , -0.934373856, 1.81        , 3           , 12          , 0.0418972075, 0
0.126905724 , -0.0296139754, -9.779971   , -0.000814446539, 0.00102135912, 0.00157933717, 0.109073751 , 0.163610622 , 0.7126871   , 0.00339420838, 0.0146203106, -0.9343579  , 1.82        , 3           , 50          , 0           , 0
0.14254941  , -0.033043012, -9.76722    , -0.00302071054, 0.0007590939, 0.00134726171, 0.109208576 , 0.163678035 , 0.7128893   , 0.00336419814, 0.0146278553, -0.93434453 , 1.83        , 3           , 11          , 0.009669646 , 0.00966964
0.166793153 , -0.0471601933, -9.773935   , -0.001987735, -0.003247213, -0.0005648085, 0.109073751 , 0.163408384 , 0.7128219   , 0.00334423687, 0.0145954005, -0.934350252, 1.84        , 3           , 12          , 0.0418972075, 0
0.146613643 , -0.0335049927, -9.769445   , 0.00279382127, -0.00172070891, -0.0003700727, 0.109275989 , 0.163543209 , 0.7128219   , 0.00337212021, 0.0145782065, -0.934354067, 1.85        , 3           , 50          , 0           , 0
0.156702667 , -0.0168399941, -9.775485   , 0.00340622663, 0.00143548043, -0.001393852, 0.109275989 , 0.163543209 , 0.7128219   , 0.0034059803, 0.0145926084, -0.9343679  , 1.86        , 3           , 11          , 0.009669646 , 0.00966964
0.146442369 , -0.002359556, -9.771797   , -0.00048647463, 0.003686603 , -0.000311951328, 0.109006338 , 0.163206145 , 0.7127545   , 0.00340107246, 0.0146294851, -0.934370756, 1.87        , 3           , 12          , 0.0418972075, 0
0.148471028 , -0.024531601, -9.766615   , -0.00321985432, -6.648234E-05, -0.002243594, 0.109073751 , 0.163408384 , 0.7127545   , 0.00336854463, 0.0146288984, -0.9343934  , 1.88        , 3           , 50          , 0           , 0
0.140524641 , -0.0126455473, -9.775134   , -0.00118167268, -0.000895361, -2.4878E-05 , 0.108938925 , 0.163543209 , 0.7127545   , 0.00335672358, 0.0146199455, -0.934393644, 1.89        , 3           , 11          , 0.009669646 , 0.00966964
0.130303413 , -0.0203620028, -9.804225   , -0.00332821556, 0.0017062485, -0.0007162338, 0.109208576 , 0.163206145 , 0.7128893   , 0.0032695143, 0.0146306325, -0.934401751, 1.9         , 3           , 12          , 0.0426742621, 0
0.140976787 , -0.0251103137, -9.79063    , -0.00344182644, 0.00336832064, -0.00212391256, 0.109006338 , 0.1634758   , 0.712552249 , 0.003234785 , 0.0146643873, -0.934422731, 1.91        , 3           , 50          , 0           , 0
0.147539556 , -0.02412608 , -9.76165    , -0.001307486, -0.00154447532, -0.00010689495, 0.109006338 , 0.1634758   , 0.712552249 , 0.003221694 , 0.0146489441, -0.9344239  , 1.92        , 3           , 11          , 0.0102237556, 0.0102237482
0.134584635 , -0.0323134661, -9.786708   , -0.00323336944, -0.001956119, 1.83613683E-05, 0.109208576 , 0.1634758   , 0.7127545   , 0.00318936259, 0.0146293826, -0.9344237  , 1.93        , 3           , 12          , 0.0426742621, 0
0.152368009 , -0.0232208073, -9.807669   , -0.00280175917, -0.00153058465, 2.71917488E-05, 0.109275989 , 0.1634758   , 0.7127545   , 0.00316134724, 0.0146140764, -0.934423447, 1.94        , 3           , 50          , 0           , 0
0.142926633 , -0.02000151 , -9.80591    , -0.00321446639, -2.61890145E-05, 0.0005473197, 0.109208576 , 0.163408384 , 0.7127545   , 0.00312928273, 0.014613797 , -0.934417963, 1.95        , 3           , 11          , 0.0102237556, 0.0102237482
0.14376016  , -0.0205570441, -9.796876   , -0.0009396996, -0.00040305077, 5.502294E-05, 0.1093434   , 0.163273558 , 0.7126871   , 0.00311989384, 0.0146097634, -0.9344175  , 1.96        , 3           , 12          , 0.0426742621, 0
0.151121244 , -0.0482257  , -9.788093   , -0.005222589, -0.00214506732, -0.0006406316, 0.1093434   , 0.163273558 , 0.7126871   , 0.00306757353, 0.0145883327, -0.9344239  , 1.97        , 3           , 50          , 0           , 0
0.1571644   , -0.03151573 , -9.795073   , -0.004816421, -0.00351705146, 5.75242229E-05, 0.109208576 , 0.163340971 , 0.7126871   , 0.003019416 , 0.0145531613, -0.934423447, 1.98        , 3           , 11          , 0.0102237556, 0.0102237482
0.154970437 , -0.0265119784, -9.797293   , -0.003630468, 0.000697792566, 0.000197478454, 0.109208576 , 0.163543209 , 0.7128893   , 0.00298313983, 0.0145601351, -0.934421539, 1.99        , 3           , 12          , 0.0426742621, 0
0.1578963   , -0.0464712  , -9.788915   , -0.00680047227, 0.00280731637, 0.00055460463, 0.109073751 , 0.1634758   , 0.7128219   , 0.00275879167, 0.01529735  , -0.9344187  , 2           , 3           , 50          , 0           , 0
0.129639953 , -0.0402705222, -9.797686   , -0.00575787341, -0.0001985236, -0.00105669419, 0.109208576 , 0.163273558 , 0.7128219   , 0.00270105177, 0.0152953919, -0.934429169, 2.01        , 3           , 11          , 0.0110744247, 0.0110744154
0.156295776 , -0.024336949, -9.790933   , -0.004216632, -0.00144453556, 0.00029427078, 0.109208576 , 0.163273558 , 0.7128219   , 0.002658929 , 0.0152809406, -0.934426546, 2.02        , 3           , 12          , 0.043477647 , 0
0.157153517 , -0.0163978487, -9.775023   , -0.00176568143, 0.00104422914, -0.0002985159, 0.109073751 , 0.163340971 , 0.7126871   , 0.00264122756, 0.01529139  , -0.9344294  , 2.03        , 3           , 50          , 0           , 0
0.127655566 , -0.00645719049, -9.79505348 , 0.000640099 , -0.0002660996, -0.0007319789, 0.109208576 , 0.163340971 , 0.7127545   , 0.00264751632, 0.0152887478, -0.93443656 , 2.04        , 3           , 11          , 0.0110744247, 0.0110744154
0.126433283 , -0.009364661, -9.817232   , 0.00104846025, 0.003327885 , -0.00239465223, 0.109141164 , 0.163543209 , 0.7127545   , 0.00265763723, 0.0153220911, -0.9344604  , 2.05        , 3           , 12          , 0.043477647 , 0
0.1263364   , -0.01797058 , -9.813718   , 0.00226406287, 0.00431223167, -0.0016573529, 0.109410815 , 0.163206145 , 0.7127545   , 0.0026800246, 0.015365256 , -0.9344771  , 2.06        , 3           , 50          , 0           , 0
0.144051284 , -0.0354940742, -9.792076   , 0.00159127777, 0.00159431226, -0.00148623344, 0.1093434   , 0.163340971 , 0.7124174   , 0.00269570947, 0.0153812384, -0.9344919  , 2.07        , 3           , 11          , 0.0110744247, 0.0110744154
0.158480912 , -0.0173356086, -9.772764   , 0.00315699261, 0.00263837422, 0.000184284043, 0.1093434   , 0.163340971 , 0.7124174   , 0.00272730784, 0.0154076191, -0.9344897  , 2.08        , 3           , 12          , 0.043477647 , 0
0.154348135 , -0.0232104883, -9.76835251 , 0.00125833438, 0.00459100865, 0.000343971944, 0.109006338 , 0.163273558 , 0.7126871   , 0.00273994729, 0.0154535174, -0.934486151, 2.09        , 3           , 50          , 0           , 0
0.134374261 , -0.0455445722, -9.772408   , 0.000131383655, -0.0005502322, -9.533635E-05, 0.109073751 , 0.163340971 , 0.7128219   , 0.00273684016, 0.015452208 , -0.934487343, 2.1         , 3           , 11          , 0.007962637 , 0.007962633
0.144561484 , -0.021607019, -9.783781   , 0.0011176985, -0.0002904036, 0.00177490036, 0.109410815 , 0.163340971 , 0.7128219   , 0.00274829054, 0.0154492538, -0.9344697  , 2.11        , 3           , 12          , 0.0443056077, 0
0.1198759   , -0.0105890129, -9.782074   , 0.005559734 , 0.001684299 , 0.0003283115, 0.109410815 , 0.1634758   , 0.7127545   , 0.00280393939, 0.0154660884, -0.9344661  , 2.12        , 3           , 50          , 0           , 0
0.1282257   , -0.03367904 , -9.7804575  , -0.002268694, 0.00154371012, 0.000850390934, 0.109410815 , 0.1634758   , 0.7127545   , 0.00278138439, 0.0154815018, -0.9344578  , 2.13        , 3           , 11          , 0.007962637 , 0.007962633
0.150017142 , -0.0269149169, -9.797794   , -0.003402733, 0.00113691762, -0.000450461, 0.109275989 , 0.163340971 , 0.712619662 , 0.00274728774, 0.0154928854, -0.9344623  , 2.14        , 3           , 12          , 0.0443056077, 0
0.1488758   , -0.02549539 , -9.761202   , -0.00257525267, -0.00193967938, -0.00192100625, 0.109275989 , 0.163340971 , 0.7127545   , 0.00272123562, 0.01547354  , -0.9344814  , 2.15        , 3           , 50          , 0           , 0
0.137713253 , -0.03771792 , -9.789902   , -0.00461241556, 8.988386E-05, -0.0021903778, 0.109275989 , 0.163610622 , 0.7129567   , 0.00267477427, 0.0154744983, -0.934503555, 2.16        , 3           , 11          , 0.007962637 , 0.007962633
0.12926425  , -0.0272435639, -9.79257    , -0.00510524772, 0.00151247915, -0.0004555244, 0.109141164 , 0.163206145 , 0.7126871   , 0.00262364978, 0.0154896341, -0.9345081  , 2.17        , 3           , 12          , 0.0443056077, 0
0.135170847 , -0.0343348235, -9.808859   , -0.00121392554, -0.000528828, -0.000961967045, 0.109208576 , 0.163138732 , 0.7127545   , 0.002611362 , 0.01548437  , -0.9345176  , 2.18        , 3           , 50          , 0           , 0
0.179922789 , -0.0333635472, -9.767331   , -0.00228621718, -0.000596035447, -0.000254025566, 0.109208576 , 0.163138732 , 0.7127545   , 0.00258846045, 0.0154784173, -0.934520245, 2.19        , 3           , 11          , 0.007962637 , 0.007962633
0.173362672 , -0.0116419122, -9.768948   , -0.00242073834, -0.0009902408, -0.0009765202, 0.109073751 , 0.163543209 , 0.7128219   , 0.00257531414, 0.0155083826, -0.9345298  , 2.2         , 3           , 12          , 0.04515651  , 0
0.167577893 , -0.0146021228, -9.782586   , 0.0009959798, -0.000808702258, -0.00109591126, 0.109141164 , 0.163408384 , 0.713024139 , 0.00258510374, 0.0155003248, -0.934540749, 2.21        , 3           , 50          , 0           , 0
0.160778031 , -0.0252973139, -9.789096   , 0.00165095809, 0.000404037331, -0.00121740066, 0.109141164 , 0.163408384 , 0.7128893   , 0.00260142377, 0.0155043965, -0.9345529  , 2.22        , 3           , 11          , 0.008559031 , 0.008559024
0.143186659 , -0.032315366, -9.793403   , -0.00251662033, 0.002952947 , -0.0010630727, 0.1093434   , 0.163206145 , 0.7128893   , 0.00257609552, 0.0155339548, -0.9345634  , 2.23        , 3           , 12          , 0.04515651  , 0
0.1513139   , -0.0341314971, -9.79877    , -0.003456587, 0.00153072237, -0.001232591, 0.1093434   , 0.163206145 , 0.7128893   , 0.002541338 , 0.0155492974, -0.9345758  , 2.24        , 3           , 50          , 0           , 0
0.163820952 , -0.0357294567, -9.786026   , 0.000127456369, 0.002943495 , -0.0029788306, 0.109073751 , 0.163273558 , 0.7126871   , 0.00254214928, 0.0155788073, -0.9346056  , 2.25        , 3           , 11          , 0.008559031 , 0.008559024
0.157376975 , -0.0120493751, -9.802073   , -0.00195585145, 0.00216035475, -0.001214205, 0.108938925 , 0.1634758   , 0.712619662 , 0.00252240268, 0.01560044  , -0.934617758, 2.26        , 3           , 12          , 0.04515651  , 0
0.140720487 , -0.0239190813, -9.817269   , -0.00218726578, 0.0007980718, -0.0008776095, 0.109208576 , 0.163340971 , 0.7127545   , 0.002500394 , 0.0156084429, -0.934626341, 2.27        , 3           , 50          , 0           , 0
0.150400549 , -0.0296920165, -9.7915     , -0.0006041358, 0.0015830691, -0.00228752848, 0.109141164 , 0.163408384 , 0.7126871   , 0.002493996 , 0.01562433  , -0.9346492  , 2.28        , 3           , 11          , 0.008559031 , 0.008559024
0.1555051   , 0.00299226679, -9.773459   , 0.00111322314, 0.00299094873, -0.00139788841, 0.109141164 , 0.163408384 , 0.7126871   , 0.00250491058, 0.0156542752, -0.934663057, 2.29        , 3           , 12          , 0.04515651  , 0
0.140650108 , 0.00535196066, -9.771311   , -0.0034388334, 0.000379138335, -0.0003908921, 0.109208576 , 0.163408384 , 0.712552249 , 0.002417698 , 0.01566287  , -0.9346678  , 2.3         , 3           , 50          , 0           , 0
0.14517051  , -0.04342767 , -9.768219   , -0.00335204857, 0.00173966691, -0.000370639464, 0.109006338 , 0.1634758   , 0.7128219   , 0.00238412  , 0.015680274 , -0.93467164 , 2.31        , 3           , 11          , 0.009140407 , 0.009140398
0.159430727 , -0.0181581657, -9.780895   , -0.00110821577, -0.00157079194, -0.00133496081, 0.1093434   , 0.163340971 , 0.7127545   , 0.002372827 , 0.0156646   , -0.934685   , 2.32        , 3           , 12          , 0.0460287742, 0
0.164315686 , -0.0285430867, -9.78368    , -0.00225766422, -0.00249189581, -0.00121229654, 0.109141164 , 0.163543209 , 0.7126871   , 0.00235006073, 0.0156397074, -0.934697151, 2.33        , 3           , 50          , 0           , 0
0.159159929 , -0.03637827 , -9.763943   , 0.00128681166, 0.002773141 , -0.000971015, 0.109275989 , 0.163138732 , 0.712552249 , 0.002362778 , 0.0156674664, -0.9347069  , 2.34        , 3           , 11          , 0.009140407 , 0.009140398
0.155059189 , -0.007680394, -9.787138   , 0.00244457019, 0.0051162634, 0.0001433852, 0.109275989 , 0.163138732 , 0.712552249 , 0.00238724728, 0.015718624 , -0.934705257, 2.35        , 3           , 12          , 0.0460287742, 0
0.1333692   , -0.0209661536, -9.79245949 , 1.16493084E-05, 0.0027925435, -0.00169413525, 0.1093434   , 0.163273558 , 0.7126871   , 0.00238709757, 0.0157465879, -0.9347222  , 2.36        , 3           , 50          , 0           , 0
0.153058991 , -0.0288911518, -9.78424    , 0.000471529871, 0.000197396192, -0.0005125017, 0.109006338 , 0.163408384 , 0.7127545   , 0.00239173276, 0.0157485753, -0.93472743 , 2.37        , 3           , 11          , 0.009140407 , 0.009140398
0.144528791 , -0.024773024, -9.782915   , -0.00190149993, -0.00207139761, -0.000560025452, 0.109208576 , 0.163408384 , 0.7128219   , 0.00237262947, 0.0157278776, -0.9347329  , 2.38        , 3           , 12          , 0.0460287742, 0
0.16254656  , -0.02135645 , -9.779548   , -0.0006804596, -0.00115037663, -0.000753802538, 0.109141164 , 0.163408384 , 0.712552249 , 0.00236570579, 0.015716387 , -0.9347403  , 2.39        , 3           , 50          , 0           , 0
0.179653555 , -0.0139416419, -9.76982    , -0.00191614206, -0.002565233, 0.000291082426, 0.109141164 , 0.163408384 , 0.712552249 , 0.00234152563, 0.01571587  , -0.934737444, 2.4         , 3           , 11          , 0.009686858 , 0.009686848
0.1483807   , 0.0058475174, -9.781623   , 0.0002133037, -0.00259202463, 0.0008762608, 0.109073751 , 0.163138732 , 0.712619662 , 0.00234379619, 0.0156899281, -0.934728861, 2.41        , 3           , 12          , 0.04692093  , 0
0.1500394   , -0.0175329968, -9.789556   , 0.001003753 , 0.00322061637, -0.0008950076, 0.109006338 , 0.163206145 , 0.7127545   , 0.00235369476, 0.0157221574, -0.9347377  , 2.42        , 3           , 50          , 0           , 0
0.151332289 , -0.0229749829, -9.7878     , -0.00485387072, 0.0008458502, -0.00118023029, 0.1093434   , 0.163273558 , 0.7128893   , 0.00230497029, 0.0157306418, -0.9347496  , 2.43        , 3           , 11          , 0.009686858 , 0.009686848
0.140152544 , -0.00851574 , -9.781412   , -0.0038030406, 3.79629128E-05, -0.000183708224, 0.109275989 , 0.163408384 , 0.7128893   , 0.002266911 , 0.0157310255, -0.9347513  , 2.44        , 3           , 12          , 0.04692093  , 0
0.144339487 , -0.0114605837, -9.804444   , 0.00170103309, 0.00213680044, -0.0006917519, 0.109141164 , 0.1634758   , 0.712552249 , 0.00228381343, 0.01575241  , -0.9347582  , 2.45        , 3           , 50          , 0           , 0
0.1514424   , -0.0139036439, -9.792664   , 0.00296539837, 0.00146811607, 0.0005227648, 0.109141164 , 0.1634758   , 0.712552249 , 0.00231355079, 0.0157670788, -0.934752941, 2.46        , 3           , 11          , 0.009686858 , 0.009686848
0.16939041  , -0.0177160837, -9.788025   , -0.0005442228, -0.0006464696, 0.000542015361, 0.109275989 , 0.163408384 , 0.7128219   , 0.002308193 , 0.0157606043, -0.9347477  , 2.47        , 3           , 12          , 0.04692093  , 0
0.1409112   , -0.0154178152, -9.769289   , 0.00109968975, 0.000476832851, 0.00128397148, 0.109275989 , 0.163340971 , 0.7128219   , 0.00231939345, 0.0157653429, -0.9347348  , 2.48        , 3           , 50          , 0           , 0
0.1205116   , -0.0475033745, -9.788818   , 0.0005546683, 0.002348576 , 0.0009499677, 0.109275989 , 0.163273558 , 0.7128893   , 0.00232508942, 0.0157888066, -0.9347253  , 2.49        , 3           , 11          , 0.009686858 , 0.009686848
0.137396231 , -0.0232656486, -9.791546   , -0.0009142434, 0.00396012142, 0.00204027514, 0.109073751 , 0.1634758   , 0.712619662 , 0.00246070349, 0.0156296063, -0.934702635, 2.5         , 3           , 12          , 0.04783159  , 0
0.172627389 , -0.03566665 , -9.757035   , -0.00171685044, 0.000342978252, -0.00123699452, 0.109073751 , 0.1634758   , 0.712619662 , 0.00244334177, 0.0156330653, -0.934715033, 2.51        , 3           , 50          , 0           , 0
0.177203059 , -0.0467220247, -9.781061   , -0.003578976, -0.0009962908, -0.00162566092, 0.108938925 , 0.163340971 , 0.712552249 , 0.00240729726, 0.0156231429, -0.934731245, 2.52        , 3           , 11          , 0.0101738516, 0.0101738414
0.142182529 , -0.0320211425, -9.778051   , -0.000924468739, 0.00154787418, -0.0006422172, 0.109275989 , 0.163340971 , 0.7129567   , 0.0023979533, 0.0156386364, -0.934737444, 2.53        , 3           , 12          , 0.04783159  , 0
0.135173321 , -0.0209770072, -9.792894   , 0.00161094  , 7.728704E-06, 0.000424407423, 0.109275989 , 0.163340971 , 0.7128893   , 0.00241412874, 0.0156387016, -0.934733152, 2.54        , 3           , 50          , 0           , 0
0.145043939 , -0.02111647 , -9.787837   , -0.00106759206, 0.002253609 , 0.00072663906, 0.109141164 , 0.1634758   , 0.7127545   , 0.00240356615, 0.0156612247, -0.934726   , 2.55        , 3           , 11          , 0.0101738516, 0.0101738414
0.135466829 , -0.02033073 , -9.769397   , -0.004061631, 0.0011453121, -0.00016653772, 0.109141164 , 0.1634758   , 0.7127545   , 0.0023629244, 0.0156726763, -0.934727669, 2.56        , 3           , 12          , 0.04783159  , 0
0.163070485 , -0.0159059614, -9.783546   , -0.008609144, -0.004472314, 8.17540349E-05, 0.109208576 , 0.163206145 , 0.712484837 , 0.00227684272, 0.0156279579, -0.934726954, 2.57        , 3           , 50          , 0           , 0
0.139794379 , -0.0172734763, -9.805456   , -0.005379699, -0.00206697988, -7.811826E-05, 0.109073751 , 0.163408384 , 0.7127545   , 0.002223033 , 0.0156072881, -0.9347279  , 2.58        , 3           , 11          , 0.0101738516, 0.0101738414
0.141901776 , -0.0348735526, -9.806092   , 0.0008431099, 0.0003169716, -0.0012215738, 0.109073751 , 0.163340971 , 0.7128219   , 0.0022312738, 0.0156104835, -0.9347398  , 2.59        , 3           , 12          , 0.04783159  , 0
0.154818177 , -0.0271903016, -9.7760725  , 0.000941989769, -0.00173152843, -0.0013925524, 0.109073751 , 0.163273558 , 0.7127545   , 0.00233254116, 0.0155139361, -0.934752464, 2.6         , 3           , 50          , 0           , 0
0.144999936 , -0.0256352127, -9.786985   , -0.0002311238, -0.0033895555, 0.00100899045, 0.109275989 , 0.1634758   , 0.7126871   , 0.00233038585, 0.0154800173, -0.934742451, 2.61        , 3           , 11          , 0.010482694 , 0.0104826866
0.130675271 , -0.0200408157, -9.792473   , -0.0002089756, -0.00237245113, -0.000550304248, 0.109275989 , 0.1634758   , 0.7126871   , 0.002328209 , 0.0154563049, -0.934747934, 2.62        , 3           , 12          , 0.04875945  , 0
0.124981649 , -0.0320125  , -9.765111   , 0.00116184773, -0.0008784372, -0.000877959537, 0.109141164 , 0.163273558 , 0.7127545   , 0.00233969255, 0.01544754  , -0.934757   , 2.63        , 3           , 50          , 0           , 0
0.132737264 , -0.0270272531, -9.773563   , -0.0007625845, -0.00178199611, -0.00183312176, 0.109141164 , 0.163543209 , 0.712552249 , 0.0023317826, 0.0154297622, -0.9347751  , 2.64        , 3           , 11          , 0.010482694 , 0.0104826866
0.137295961 , -0.02742542 , -9.782109   , -0.00325151859, -0.000486941979, 0.0003884379, 0.109073751 , 0.1634758   , 0.7127545   , 0.0022993274, 0.0154248858, -0.9347713  , 2.65        , 3           , 12          , 0.04875945  , 0
0.135775313 , -0.04102792 , -9.774149   , -0.0016633725, 0.000939659134, -0.0006543859, 0.1093434   , 0.163273558 , 0.7126871   , 0.00228259224, 0.0154342968, -0.934778   , 2.66        , 3           , 50          , 0           , 0
0.14402768  , -0.0435426272, -9.798494   , -0.000363449624, -0.00203453866, 0.00188645034, 0.1093434   , 0.163273558 , 0.7126871   , 0.00227924716, 0.0154139074, -0.93475914 , 2.67        , 3           , 11          , 0.010482694 , 0.0104826866
0.145433232 , -0.0403545164, -9.802509   , -0.005047839, -0.0013401371, 0.00165294658, 0.109410815 , 0.163340971 , 0.712552249 , 0.00222902372, 0.0154004693, -0.9347427  , 2.68        , 3           , 12          , 0.04875945  , 0
0.153589591 , -0.01853391 , -9.783212   , -0.002573368, 0.0024497516, -0.000208797341, 0.109073751 , 0.163543209 , 0.7128219   , 0.00220325869, 0.0154249715, -0.9347446  , 2.69        , 3           , 50          , 0           , 0
0.154802144 , -0.0227635037, -9.768344   , -0.0008543906, -0.001653394, 0.0005292816, 0.109275989 , 0.163408384 , 0.7126871   , 0.002182228 , 0.0154195391, -0.9347396  , 2.7         , 3           , 11          , 0.0106939757, 0.0106939655
0.165295154 , -0.028429959, -9.794962   , 0.0012129657, -0.002090775, -0.0009669175, 0.109410815 , 0.1634758   , 0.712619662 , 0.00219420879, 0.01539865  , -0.934749365, 2.71        , 3           , 12          , 0.0497032851, 0
0.150064752 , -0.0312933326, -9.81004    , 0.00150179118, 0.00372180366, -0.00216885633, 0.109275989 , 0.163408384 , 0.712484837 , 0.002208894 , 0.0154359154, -0.934771061, 2.72        , 3           , 50          , 0           , 0
0.144661143 , -0.0178933125, -9.793674   , -0.0020867202, 0.00187980221, -0.000500417664, 0.109275989 , 0.163408384 , 0.712484837 , 0.00218795054, 0.0154547263, -0.934776068, 2.73        , 3           , 11          , 0.0106939757, 0.0106939655
0.144167945 , -0.00549145229, -9.772306   , 0.001865319 , -3.493484E-05, 0.0007841797, 0.109141164 , 0.1634758   , 0.712619662 , 0.00220672414, 0.01545436  , -0.9347682  , 2.74        , 3           , 12          , 0.0497032851, 0
0.138532847 , -0.0253858827, -9.763103   , -0.00307261432, -0.00320142577, -0.000150820561, 0.1093434   , 0.163408384 , 0.7128219   , 0.00217597443, 0.0154223479, -0.934769869, 2.75        , 3           , 50          , 0           , 0
0.125032663 , -0.0408370644, -9.783279   , -0.00143860211, -0.00293786079, 0.0005786149, 0.109275989 , 0.163543209 , 0.7127545   , 0.002161676 , 0.0153929573, -0.934764147, 2.76        , 3           , 11          , 0.0106939757, 0.0106939655
0.15125291  , -0.0279930085, -9.782438   , 0.000301109365, -0.000371506962, 0.000125670165, 0.109545641 , 0.1634758   , 0.7126871   , 0.00216470659, 0.0153892394, -0.9347627  , 2.77        , 3           , 12          , 0.0497032851, 0
0.149422288 , -0.0289130062, -9.7793045  , -0.0006298541, -0.0007235391, 0.000472589745, 0.109545641 , 0.1634758   , 0.7126871   , 0.002158481 , 0.0153819937, -0.934757948, 2.78        , 3           , 50          , 0           , 0
0.120103039 , -0.04699049 , -9.794236   , -0.00140072487, 0.000639899459, 0.00113157136, 0.109208576 , 0.1634758   , 0.7127545   , 0.00214464846, 0.0153883686, -0.934746742, 2.79        , 3           , 11          , 0.0106939757, 0.0106939655
0.118383527 , -0.0334960334, -9.78958    , 0.000944664062, -0.00289883278, 0.00167245709, 0.109073751 , 0.163273558 , 0.7129567   , 0.00252955384, 0.0149172023, -0.934725046, 2.8         , 3           , 12          , 0.0506619364, 0
0.143607914 , -0.021235358, -9.775656   , 0.001971632 , -0.000962379563, 0.0003473462, 0.109208576 , 0.1634758   , 0.7128219   , 0.00254932023, 0.0149075678, -0.9347217  , 2.81        , 3           , 50          , 0           , 0
0.149922073 , -0.0341826528, -9.792911   , -0.0004876507, 0.00121864723, -0.000351754541, 0.109275989 , 0.163340971 , 0.7127545   , 0.00254439213, 0.0149197672, -0.934725046, 2.82        , 3           , 11          , 0.0110423891, 0.0110423826
0.143309578 , -0.01387663 , -9.788672   , -0.0002800293, 0.000926701468, 3.06198444E-06, 0.109275989 , 0.163340971 , 0.7127545   , 0.00254159165, 0.0149290329, -0.934725046, 2.83        , 3           , 12          , 0.0506619364, 0
0.153155863 , -0.02028522 , -9.787752   , 0.000283551635, 0.0009138835, 0.0007934396, 0.109208576 , 0.163340971 , 0.7126871   , 0.002544547 , 0.01493815  , -0.93471694 , 2.84        , 3           , 50          , 0           , 0
0.167422682 , -0.03130984 , -9.780521   , -8.374718E-05, -0.0007207364, -0.000305814872, 0.109275989 , 0.163340971 , 0.7127545   , 0.00254366174, 0.0149309523, -0.934720039, 2.85        , 3           , 11          , 0.0110423891, 0.0110423826
0.168511152 , -0.025243   , -9.800316   , 0.00150232727, 0.00126750511, -5.25533833E-05, 0.109275989 , 0.163543209 , 0.7128219   , 0.00255867955, 0.0149436286, -0.934720755, 2.86        , 3           , 12          , 0.0506619364, 0
0.159929082 , -0.01986893 , -9.789944   , 0.00127873174, 0.00643073954, -0.000193766173, 0.109275989 , 0.1634758   , 0.7128893   , 0.0025714403, 0.0150079383, -0.9347222  , 2.87        , 3           , 50          , 0           , 0
0.154950976 , -0.0292125661, -9.797775   , 0.000102540638, 0.00314599788, -0.0001770744, 0.109275989 , 0.163340971 , 0.712552249 , 0.00257243984, 0.0150394021, -0.9347241  , 2.88        , 3           , 11          , 0.0110423891, 0.0110423826
0.14103359  , -0.0112241711, -9.781887   , -1.27815611E-05, -0.0001572589, 0.0007045346, 0.109275989 , 0.163340971 , 0.712552249 , 0.00257241726, 0.0150378114, -0.93471694 , 2.89        , 3           , 12          , 0.0506619364, 0
0.132060573 , -0.003974827, -9.777822   , 0.000659330457, -0.00139374845, 0.0007622357, 0.109141164 , 0.163408384 , 0.712619662 , 0.00252634054, 0.0150008537, -0.934710264, 2.9         , 3           , 50          , 0           , 0
0.155943    , -0.0152810421, -9.793993   , -0.00123477611, -0.000281655, -0.001236827, 0.109073751 , 0.1634758   , 0.7128219   , 0.002513807 , 0.0149980681, -0.934722662, 2.91        , 3           , 11          , 0.0107578207, 0.0107578235
0.15948078  , -0.0207523033, -9.791313   , -0.000866652, 0.00142460957, -0.000136528979, 0.1093434   , 0.163610622 , 0.7128219   , 0.00250512222, 0.0150123155, -0.9347241  , 2.92        , 3           , 12          , 0.05163433  , 0
0.126129091 , -0.01739781 , -9.782999   , -0.0026453652, 0.00144139  , -4.15568047E-06, 0.109006338 , 0.163408384 , 0.7126871   , 0.00247866916, 0.0150267305, -0.9347241  , 2.93        , 3           , 50          , 0           , 0
0.139173716 , -0.03355538 , -9.800682   , -0.0018242423, 0.004730384 , -9.45302E-05, 0.109006338 , 0.163408384 , 0.7126871   , 0.002460415 , 0.0150740379, -0.934725046, 2.94        , 3           , 11          , 0.0107578207, 0.0107578235
0.148156613 , -0.02431961 , -9.786038   , -0.000913837168, 0.00350303086, -0.00010669919, 0.109208576 , 0.163273558 , 0.712619662 , 0.002451261 , 0.0151090743, -0.934726   , 2.95        , 3           , 12          , 0.05163433  , 0
0.129918322 , -0.009575056, -9.800489   , -0.0005851023, 0.00141788076, 0.000294430443, 0.109073751 , 0.163543209 , 0.7126871   , 0.00244545471, 0.0151232425, -0.9347229  , 2.96        , 3           , 50          , 0           , 0
0.159878075 , -0.0110443663, -9.771774   , 0.00266147265, 8.22463E-05 , 0.00172617368, 0.1093434   , 0.163408384 , 0.7126871   , 0.00247233058, 0.015124023 , -0.934705734, 2.97        , 3           , 11          , 0.0107578207, 0.0107578235
0.15051204  , -0.0103804953, -9.784048   , 0.00139553519, -0.000168293875, -0.0008611862, 0.109141164 , 0.163543209 , 0.7128219   , 0.00248615514, 0.0151223652, -0.934714556, 2.98        , 3           , 12          , 0.05163433  , 0
0.141906708 , -0.0197314769, -9.78830051 , -0.00152334617, -0.000143154408, -0.000377961464, 0.1093434   , 0.163340971 , 0.712619662 , 0.002470866 , 0.0151209394, -0.934718132, 2.99        , 3           , 50          , 0           , 0
0.126007065 , -0.0282679275, -9.778608   , -0.004165147, 8.041501E-05, -0.000319327, 0.1093434   , 0.163340971 , 0.712619662 , 0.00240041083, 0.0150822941, -0.9347217  , 3           , 3           , 11          , 0.0110714054, 0.0110714072
0.145503283 , -0.02600293 , -9.795115   , -0.00179981859, 0.00184513594, 7.057105E-06, 0.109275989 , 0.1634758   , 0.712619662 , 0.002382414 , 0.0151007455, -0.9347217  , 3.01        , 3           , 12          , 0.05261947  , 0
0.161816254 , -0.0121853482, -9.792999   , 0.0004487475, -0.0001891543, 0.0005638775, 0.109208576 , 0.163543209 , 0.7129567   , 0.002386988 , 0.0150988409, -0.934716   , 3.02        , 3           , 50          , 0           , 0
0.127912715 , -0.0116533227, -9.773431   , -0.00105356541, -0.00124417641, 3.84444429E-05, 0.109275989 , 0.163340971 , 0.7128219   , 0.00237645768, 0.0150863975, -0.934715748, 3.03        , 3           , 11          , 0.0110714054, 0.0110714072
0.141356409 , -0.0283383131, -9.784341   , -0.0006101886, -0.000661915052, -0.00145299931, 0.109141164 , 0.163408384 , 0.713024139 , 0.00237013586, 0.0150798168, -0.9347303  , 3.04        , 3           , 12          , 0.05261947  , 0
0.170555651 , -0.0358173139, -9.783255   , 0.000586505339, -0.001113663, -0.000378862722, 0.109141164 , 0.163408384 , 0.713024139 , 0.002375944 , 0.0150686866, -0.9347341  , 3.05        , 3           , 50          , 0           , 0
0.158762753 , -0.048311688, -9.786217   , -0.00146893982, -0.0010837547, -0.00139285892, 0.109073751 , 0.1634758   , 0.7128219   , 0.00236104429, 0.0150578823, -0.934747934, 3.06        , 3           , 11          , 0.0110714054, 0.0110714072
0.153774589 , -0.04654237 , -9.77901649 , -0.00227851281, -0.00336972135, -0.00128787686, 0.109141164 , 0.163543209 , 0.712619662 , 0.00233806414, 0.0150242159, -0.9347608  , 3.07        , 3           , 12          , 0.05261947  , 0
0.149882466 , -0.0378044024, -9.791598   , -0.005947835, -0.00543553242, 0.00145011826, 0.109208576 , 0.1634758   , 0.7126871   , 0.00227880036, 0.0149698276, -0.9347465  , 3.08        , 3           , 50          , 0           , 0
0.163093269 , -0.02922506 , -9.803122   , -0.00244921027, -0.00460543437, 0.000839758839, 0.109478228 , 0.163543209 , 0.712619662 , 0.002254433 , 0.0149237551, -0.934738159, 3.09        , 3           , 11          , 0.0110714054, 0.0110714072
0.155766934 , -0.0195569415, -9.773718   , -0.002091542, -0.002148101, -0.00091210386, 0.109478228 , 0.163543209 , 0.712619662 , 0.00231367559, 0.0150913978, -0.9347453  , 3.1         , 3           , 12          , 0.0536163971, 0
0.145645976 , -0.0115400925, -9.798109   , -0.000137753392, 0.001263665 , 8.035954E-06, 0.1093434   , 0.163273558 , 0.712552249 , 0.0023122998, 0.015104034 , -0.9347453  , 3.11        , 3           , 50          , 0           , 0
0.139528334 , -0.02969955 , -9.782114   , -0.001315733, -0.00209400128, 0.000166766418, 0.109006338 , 0.163543209 , 0.7127545   , 0.00229916652, 0.0150830932, -0.934743643, 3.12        , 3           , 11          , 0.0112131424, 0.0112131406
0.133973718 , -0.04145831 , -9.774622   , 0.0016771435, -0.00162218884, 0.000120519726, 0.108938925 , 0.1634758   , 0.7128893   , 0.0023159557, 0.0150668677, -0.9347427  , 3.13        , 3           , 12          , 0.0536163971, 0
0.135836944 , -0.0351467878, -9.77588749 , 0.00164460333, 0.00160446879, -4.7579375E-05, 0.109141164 , 0.163678035 , 0.7128893   , 0.00233239448, 0.0150829125, -0.934743166, 3.14        , 3           , 50          , 0           , 0
0.156823143 , -0.0436118655, -9.760433   , 0.000578019943, 0.00182703987, 0.000306830538, 0.109141164 , 0.163340971 , 0.712552249 , 0.00233822176, 0.0151011767, -0.9347398  , 3.15        , 3           , 11          , 0.0112131424, 0.0112131406
0.145533353 , -0.008596651, -9.778202   , -0.0007078735, 0.00140889466, 0.000435941969, 0.109141164 , 0.163340971 , 0.712552249 , 0.002331209 , 0.0151152583, -0.934735537, 3.16        , 3           , 12          , 0.0536163971, 0
0.135070741 , -0.0291465353, -9.788021   , -0.002355158, 0.000281112938, 0.000194772816, 0.109073751 , 0.163408384 , 0.712619662 , 0.002307686 , 0.0151180625, -0.9347336  , 3.17        , 3           , 50          , 0           , 0
0.139604539 , -0.02468636 , -9.7870245  , -9.497762E-06, 0.00074982876, 0.00121778611, 0.109006338 , 0.163543209 , 0.712619662 , 0.0023077745, 0.0151255317, -0.93472147 , 3.18        , 3           , 11          , 0.0112131424, 0.0112131406
0.1529499   , -0.0210458264, -9.758855   , -0.000355069642, 0.0008372434, -0.00014259138, 0.108871512 , 0.163543209 , 0.7128893   , 0.00230420241, 0.0151339062, -0.934722662, 3.19        , 3           , 12          , 0.0536163971, 0
0.139178634 , -0.0184133016, -9.782891   , -0.00313744764, 0.0005759791, 0.0005519252, 0.109006338 , 0.163408384 , 0.7126871   , 0.002270512 , 0.0151483975, -0.9347172  , 3.2         , 3           , 50          , 0           , 0
0.137253016 , 0.00302628055, -9.80389    , -0.00502158375, -0.00185075949, 0.00157842808, 0.109006338 , 0.163408384 , 0.7126871   , 0.00222053425, 0.015129853 , -0.934701443, 3.21        , 3           , 11          , 0.01104443  , 0.0110444315
0.143173918 , -0.0301092323, -9.788861   , -0.004485647, 0.000593544042, 0.000114540671, 0.109073751 , 0.1634758   , 0.712552249 , 0.00217569526, 0.0151357865, -0.934700251, 3.22        , 3           , 12          , 0.05462424  , 0
0.143595725 , -0.0301566944, -9.784793   , -0.00268012425, 0.003152137 , 0.000448975246, 0.109073751 , 0.1634758   , 0.7127545   , 0.00214896281, 0.0151672959, -0.9346957  , 3.23        , 3           , 50          , 0           , 0
0.151273757 , -0.0404248238, -9.80065    , 0.001423769 , 0.00124875247, 0.000303609471, 0.108871512 , 0.1634758   , 0.7128219   , 0.00216324627, 0.0151797812, -0.9346926  , 3.24        , 3           , 11          , 0.01104443  , 0.0110444315
0.131957248 , -0.0473110527, -9.815812   , -0.00056985853, 0.00133614545, 0.00079344603, 0.109208576 , 0.1634758   , 0.7126871   , 0.00215766882, 0.0151931262, -0.934684753, 3.25        , 3           , 12          , 0.05462424  , 0
0.139265642 , -0.0147189647, -9.79097748 , -0.00161422219, 0.00229372084, -0.000916399062, 0.109073751 , 0.163340971 , 0.7126871   , 0.0021413865, 0.0152160805, -0.934694052, 3.26        , 3           , 50          , 0           , 0
0.163037822 , -0.00749844359, -9.768543   , 0.00116690842, 0.002699255 , -0.00132267945, 0.109073751 , 0.163340971 , 0.7126871   , 0.002152856 , 0.0152431019, -0.9347069  , 3.27        , 3           , 11          , 0.01104443  , 0.0110444315
0.13905184  , -0.03507746 , -9.78489    , 0.005061591 , 0.00165009685, -0.000598317536, 0.109073751 , 0.163610622 , 0.7127545   , 0.00220338069, 0.0152596142, -0.9347131  , 3.28        , 3           , 12          , 0.05462424  , 0
0.14098677  , -0.0224242248, -9.788793   , 0.00287265726, 0.0023985377, -0.00167427736, 0.109006338 , 0.163543209 , 0.7127545   , 0.002231852 , 0.0152836377, -0.9347298  , 3.29        , 3           , 50          , 0           , 0
0.1441704   , -0.02907978 , -9.801488   , 0.00328336679, 0.0012183428, -0.00104450074, 0.109141164 , 0.163543209 , 0.7128893   , 0.00226862216, 0.0152345886, -0.9347403  , 3.3         , 3           , 11          , 0.0114173982, 0.0114174
0.158023819 , -0.0315864831, -9.789193   , 0.00375087745, -0.000590631447, 0.00036323315, 0.109006338 , 0.163543209 , 0.712619662 , 0.00230618566, 0.015228672 , -0.9347365  , 3.31        , 3           , 12          , 0.0556421839, 0
0.138514146 , -0.05523847 , -9.796872   , 0.00224628858, -0.001225383, 0.0009171753, 0.109006338 , 0.163543209 , 0.712619662 , 0.00232878863, 0.0152163971, -0.93472743 , 3.32        , 3           , 50          , 0           , 0
0.1287516   , -0.0429148823, -9.802692   , -0.000569917262, 0.000675236 , -7.440464E-05, 0.109275989 , 0.163543209 , 0.7126871   , 0.00232307729, 0.01522315  , -0.934728146, 3.33        , 3           , 11          , 0.0114173982, 0.0114174
0.136918217 , -0.0366582572, -9.8039     , -0.00243100151, -0.00143868849, -0.00197690935, 0.109006338 , 0.163678035 , 0.7127545   , 0.0022984657, 0.0152088106, -0.934747934, 3.34        , 3           , 12          , 0.0556421839, 0
0.145453945 , -0.0251882225, -9.786976   , -0.00322428532, -0.00193929416, -0.00120197365, 0.1088041   , 0.163610622 , 0.7128893   , 0.00226603914, 0.0151894437, -0.9347601  , 3.35        , 3           , 50          , 0           , 0
0.157855526 , -0.0278380178, -9.760242   , 0.0005169424, 0.002666615 , 0.000390481378, 0.109141164 , 0.1634758   , 0.712619662 , 0.00227126852, 0.0152160982, -0.934756041, 3.36        , 3           , 11          , 0.0114173982, 0.0114174
0.1487403   , -0.0323799551, -9.74999    , -0.0009622649, 0.00312381168, -0.0009715326, 0.109141164 , 0.1634758   , 0.712619662 , 0.00226149755, 0.015247358 , -0.9347658  , 3.37        , 3           , 12          , 0.0556421839, 0
0.128739059 , -0.0197871532, -9.772614   , -0.00232910784, 0.0025522213, 0.0003712606, 0.108938925 , 0.1634758   , 0.7126871   , 0.00223826431, 0.0152728725, -0.934762   , 3.38        , 3           , 50          , 0           , 0
0.140334845 , -0.00200466253, -9.799855   , 0.00072223274, 0.00159553462, -0.000267753348, 0.1088041   , 0.163543209 , 0.7127545   , 0.00224544667, 0.0152888335, -0.9347646  , 3.39        , 3           , 11          , 0.0114173982, 0.0114174
0.138448909 , -0.008796118, -9.795886   , -0.00165821775, -0.000502668, 0.0009742848, 0.109006338 , 0.1634758   , 0.7128893   , 0.00165147707, 0.0150093865, -0.934766054, 3.4         , 3           , 12          , 0.056669455 , 0
0.125089183 , -0.03407348 , -9.783201   , -0.00445000036, -0.00212168437, 0.0008620404, 0.109006338 , 0.163678035 , 0.7127545   , 0.0016071056, 0.0149881542, -0.9347575  , 3.41        , 3           , 50          , 0           , 0
0.1609259   , -0.04356973 , -9.767624   , -0.000742586, -0.001440882, 0.0006801253, 0.108871512 , 0.1634758   , 0.712619662 , 0.0015997818, 0.0149737345, -0.9347508  , 3.42        , 3           , 11          , 0.0114596952, 0.0114596905
0.178642124 , -0.0190002359, -9.75995    , 0.00471402565, 0.00287710712, 0.0004901621, 0.108871512 , 0.1634758   , 0.712619662 , 0.00164699624, 0.0150024965, -0.9347458  , 3.43        , 3           , 12          , 0.056669455 , 0
0.149967015 , -0.0105217267, -9.770504   , 0.000959940662, -0.00280411355, -0.00104640273, 0.109073751 , 0.163408384 , 0.712619662 , 0.001656439 , 0.0149744721, -0.9347563  , 3.44        , 3           , 50          , 0           , 0
0.126651    , -0.0226335619, -9.799767   , 0.0015642778, 0.00175233791, 0.00159927667, 0.109006338 , 0.163408384 , 0.7128219   , 0.00167232007, 0.0149919726, -0.9347403  , 3.45        , 3           , 11          , 0.0114596952, 0.0114596905
0.126296133 , -0.0400921777, -9.769709   , 0.0004215795, 0.000346357876, -0.000145428639, 0.109006338 , 0.163408384 , 0.713091552 , 0.00167651463, 0.0149954343, -0.934741735, 3.46        , 3           , 12          , 0.056669455 , 0
0.162916958 , -0.02904998 , -9.777375   , -0.000682361249, 0.00378918741, 0.000756292255, 0.109141164 , 0.163543209 , 0.7127545   , 0.001669805 , 0.015033314 , -0.9347341  , 3.47        , 3           , 50          , 0           , 0
0.159056455 , -0.008690061, -9.780337   , 0.001895206 , 0.004633157 , -0.000360422651, 0.109141164 , 0.163543209 , 0.7127545   , 0.00168870355, 0.015079652 , -0.9347377  , 3.48        , 3           , 11          , 0.0114596952, 0.0114596905
0.1379458   , -0.012879381, -9.793227   , 0.002697919 , 0.000888720562, 0.000735117646, 0.109141164 , 0.163678035 , 0.712552249 , 0.00171579339, 0.0150885275, -0.9347303  , 3.49        , 3           , 12          , 0.056669455 , 0
0.135214522 , -0.0231396  , -9.8015     , -0.000155733549, 0.000324218272, -0.00100761536, 0.109006338 , 0.1634758   , 0.7128219   , 0.00167448248, 0.0149925854, -0.934741735, 3.5         , 3           , 50          , 0           , 0
0.16112414  , -0.0276864171, -9.776924   , 0.0004736534, 0.004913944 , -0.002082068, 0.109410815 , 0.163678035 , 0.7128219   , 0.00167890789, 0.01504176  , -0.934762239, 3.51        , 3           , 11          , 0.0100820577, 0.0100820251
0.144835234 , -0.0423574224, -9.783566   , 0.000116325682, -0.0002595082, -0.000155757036, 0.109141164 , 0.163543209 , 0.7128893   , 0.00168004748, 0.0150391674, -0.9347639  , 3.52        , 3           , 12          , 0.0577053279, 0
0.147222951 , -0.0301493481, -9.788372   , -0.0007295753, 0.0008877986, 0.000714288966, 0.109208576 , 0.163610622 , 0.712619662 , 0.00167286093, 0.0150480336, -0.934756756, 3.53        , 3           , 50          , 0           , 0
0.1463577   , -0.0274167284, -9.790155   , -0.00155182241, 0.00375969941, 0.00103704806, 0.109208576 , 0.163610622 , 0.712619662 , 0.00165750028, 0.0150856124, -0.934746265, 3.54        , 3           , 11          , 0.0100820577, 0.0100820251
0.147727281 , -0.02517395 , -9.790117   , -0.00241860724, 0.001775112 , -0.000428126863, 0.109410815 , 0.163678035 , 0.7128219   , 0.00163325039, 0.0151033718, -0.934750557, 3.55        , 3           , 12          , 0.0577053279, 0
0.146238416 , -0.0178064853, -9.761138   , -0.00212812144, 0.00262684072, 0.000158435156, 0.109208576 , 0.163745448 , 0.7129567   , 0.00161199411, 0.0151296351, -0.9347489  , 3.56        , 3           , 50          , 0           , 0
0.14040938  , -0.0324079841, -9.782589   , -0.00242356886, 0.00233291322, 0.00129720429, 0.109275989 , 0.163543209 , 0.7128893   , 0.00158795575, 0.0151529452, -0.9347358  , 3.57        , 3           , 11          , 0.0100820577, 0.0100820251
0.148625717 , -0.0220690053, -9.786008   , -0.00324909319, 0.002942895 , -0.001847393, 0.109141164 , 0.163610622 , 0.7128893   , 0.00155518507, 0.0151824   , -0.934754133, 3.58        , 3           , 12          , 0.0577053279, 0
0.1552988   , -0.0280379616, -9.781498   , 0.00218908559, 0.006319264 , -0.000906264, 0.109141164 , 0.163610622 , 0.7128893   , 0.00157693913, 0.015245609 , -0.9347632  , 3.59        , 3           , 50          , 0           , 0
0.13149479  , -0.0308558866, -9.793946   , -0.000707065337, 0.00034180365, -0.00158312859, 0.109141164 , 0.163745448 , 0.7128219   , 0.00160923868, 0.0152683994, -0.934778452, 3.6         , 3           , 11          , 0.009928145 , 0.009928116
0.132737756 , -0.024355676, -9.770371   , 0.00270729885, 0.00171954778, 0.000747611746, 0.109141164 , 0.163610622 , 0.713024139 , 0.00163642655, 0.0152855823, -0.9347708  , 3.61        , 3           , 12          , 0.0587491542, 0
0.134611517 , -0.0264855754, -9.783478   , 0.000141292985, 0.000890935829, 0.000147342551, 0.108871512 , 0.163543209 , 0.713024139 , 0.001637863 , 0.0152944895, -0.9347694  , 3.62        , 3           , 50          , 0           , 0
0.120783947 , -0.035067644, -9.813064   , 0.00272546033, 0.00230806321, -0.000961025245, 0.109141164 , 0.163543209 , 0.7128893   , 0.001664971 , 0.0153175863, -0.9347789  , 3.63        , 3           , 11          , 0.009928145 , 0.009928116
0.139321029 , -0.02264654 , -9.808685   , -0.00672843168, -0.00361218164, -0.00139137555, 0.109141164 , 0.163543209 , 0.7128893   , 0.001597473 , 0.0152814863, -0.934792757, 3.64        , 3           , 12          , 0.0587491542, 0
0.1372462   , -0.0430813059, -9.794034   , -0.00242415862, -0.000219135982, -0.00102942821, 0.109006338 , 0.163543209 , 0.713024139 , 0.00157307368, 0.0152793108, -0.934803247, 3.65        , 3           , 50          , 0           , 0
0.136682123 , -0.0410260856, -9.775044   , -0.00015360082, 0.000315548241, 0.0007096101, 0.109275989 , 0.163678035 , 0.7129567   , 0.00157164666, 0.0152824549, -0.9347961  , 3.66        , 3           , 11          , 0.009928145 , 0.009928116
0.153319135 , -0.0434305072, -9.774467   , 0.00272546033, 0.00230806321, -0.000961025245, 0.109208576 , 0.163745448 , 0.713091552 , 0.00159875513, 0.0153055526, -0.934805632, 3.67        , 3           , 12          , 0.0587491542, 0
0.1448023   , -0.04107245 , -9.777228   , -0.0001409548, 0.00174332492, 0.00130280585, 0.109141164 , 0.163610622 , 0.713024139 , 0.00159754569, 0.0153229646, -0.9347925  , 3.68        , 3           , 50          , 0           , 0
0.153170332 , -0.0189276673, -9.788188   , 0.00383653142, 0.00113227149, 0.00103228213, 0.109073751 , 0.163678035 , 0.7128219   , 0.00163606962, 0.0153342709, -0.934782267, 3.69        , 3           , 11          , 0.009928145 , 0.009928116
0.154638156 , 0.00216119  , -9.779348   , -0.00359822717, -0.003643601, -0.0008000994, 0.109073751 , 0.163678035 , 0.7128219   , 0.00161561067, 0.015314295 , -0.9347899  , 3.7         , 3           , 12          , 0.0598003   , 0
0.1365715   , -0.009342637, -9.785521   , 0.000445812562, 0.00119546778, -0.0015636537, 0.109275989 , 0.1634758   , 0.713024139 , 0.001619828 , 0.0153262736, -0.9348054  , 3.71        , 3           , 50          , 0           , 0
0.135143816 , -0.0125646386, -9.778343   , 0.0027056518, 0.0003049348, -0.0007039753, 0.109208576 , 0.163812861 , 0.7129567   , 0.00164677715, 0.015329334 , -0.934812546, 3.72        , 3           , 11          , 0.0101253632, 0.0101253232
0.157618463 , -0.0194952115, -9.780927   , -0.0010190215, -0.00166867313, -0.000183136159, 0.109073751 , 0.163678035 , 0.7129567   , 0.0016365581, 0.01531265  , -0.9348142  , 3.73        , 3           , 12          , 0.0598003   , 0
0.162940636 , -0.0348004624, -9.78783    , -0.004176188, -0.00393208 , 5.079225E-05, 0.1093434   , 0.163543209 , 0.713024139 , 0.00159480341, 0.0152733326, -0.934814   , 3.74        , 3           , 50          , 0           , 0
0.139645547 , -0.0108244158, -9.776023   , -0.005796475, 0.00325485575, -0.0004274778, 0.1093434   , 0.163543209 , 0.713024139 , 0.00153677363, 0.0153058851, -0.934818268, 3.75        , 3           , 11          , 0.0101253632, 0.0101253232
0.159030318 , -0.0162973944, -9.785846   , 0.000160819152, 0.00147981755, -0.0009888657, 0.109208576 , 0.163543209 , 0.7129567   , 0.00153823057, 0.0153207   , -0.934828043, 3.76        , 3           , 12          , 0.0598003   , 0
0.1626474   , -0.0283241775, -9.802664   , 0.00379335764, -0.003723851, -0.0001832232, 0.109208576 , 0.163543209 , 0.713024139 , 0.00157613528, 0.0152834635, -0.93482995 , 3.77        , 3           , 50          , 0           , 0
0.145988435 , -0.0166055784, -9.788679   , 0.00102541177, 0.00261490582, -0.0006808674, 0.109275989 , 0.163812861 , 0.713158965 , 0.00158628635, 0.0153096206, -0.9348366  , 3.78        , 3           , 11          , 0.0101253632, 0.0101253232
0.1327396   , -0.0230174735, -9.769001   , -0.00184702664, -0.000779790746, -0.002465068, 0.109073751 , 0.163678035 , 0.713024139 , 0.00156743906, 0.0153018627, -0.9348612  , 3.79        , 3           , 12          , 0.0598003   , 0
0.139260322 , -0.009385509, -9.7836895  , -0.0021309806, 0.0003363086, 0.000125441744, 0.108938925 , 0.163543209 , 0.713158965 , 0.00156052515, 0.0152739631, -0.93486    , 3.8         , 3           , 50          , 0           , 0
0.122590788 , -0.0261716582, -9.803007   , 0.002967766 , -0.00171919912, -0.0001590959, 0.108938925 , 0.163543209 , 0.713158965 , 0.00159017835, 0.0152567746, -0.93486166 , 3.81        , 3           , 11          , 0.0101965712, 0.010196534
0.147659555 , -0.0355157666, -9.792948   , 0.00244949362, 0.002022347 , -0.00125292281, 0.109275989 , 0.163745448 , 0.713024139 , 0.00161448168, 0.0152770188, -0.934874058, 3.82        , 3           , 12          , 0.06085819  , 0
0.157502    , -0.02857622 , -9.775161   , -0.0012724339, 0.0006167784, -0.000151408545, 0.109208576 , 0.163812861 , 0.713158965 , 0.00160173432, 0.0152831888, -0.9348757  , 3.83        , 3           , 50          , 0           , 0
0.156853348 , -0.01037731 , -9.789411   , -0.00360901468, -0.00367414881, 0.00148926536, 0.109073751 , 0.163678035 , 0.713091552 , 0.0015658706, 0.015246423 , -0.934860945, 3.84        , 3           , 11          , 0.0101965712, 0.010196534
0.143793136 , -0.010268461, -9.789078   , -0.00388767454, -0.00366358086, 0.00062905997, 0.109141164 , 0.163543209 , 0.7129567   , 0.00152708858, 0.0152097773, -0.934854746, 3.85        , 3           , 12          , 0.06085819  , 0
0.138212472 , -0.03186006 , -9.78983    , 0.008144604 , 0.003666113 , 0.000809534453, 0.109141164 , 0.163543209 , 0.7129567   , 0.001608659 , 0.0152464267, -0.93484664 , 3.86        , 3           , 50          , 0           , 0
0.155968338 , -0.00366879068, -9.78347    , 0.00189297064, 0.004584304 , 0.00135668833, 0.109208576 , 0.163610622 , 0.713024139 , 0.001627797 , 0.0152922487, -0.9348328  , 3.87        , 3           , 11          , 0.0101965712, 0.010196534
0.15540126  , -0.0176429357, -9.783636   , -0.00522790477, 0.00182146637, -0.00216185 , 0.109073751 , 0.163543209 , 0.7132264   , 0.00157518685, 0.015310497 , -0.9348545  , 3.88        , 3           , 12          , 0.06085819  , 0
0.137737    , -0.02032129 , -9.772085   , -0.000248534634, -0.008294092, 0.00144304952, 0.109478228 , 0.163678035 , 0.713158965 , 0.00157292048, 0.0152275339, -0.934839964, 3.89        , 3           , 50          , 0           , 0
0.121948615 , -0.0420413539, -9.794615   , -0.00181677972, 0.00261852378, 0.000160578784, 0.109208576 , 0.163610622 , 0.713091552 , 0.00156557909, 0.0152295455, -0.934838533, 3.9         , 3           , 11          , 0.0104402294, 0.0104401913
0.147131935 , -0.0298436042, -9.774819   , 0.00360574177, 0.00315213669, -0.00151550351, 0.109208576 , 0.163610622 , 0.713091552 , 0.00160140579, 0.01526109  , -0.934853554, 3.91        , 3           , 12          , 0.0619222745, 0
0.140691414 , -0.04246247 , -9.770507   , -0.000135985028, 2.70927285E-05, -0.000439030642, 0.1093434   , 0.163543209 , 0.7128893   , 0.00159997947, 0.0152613688, -0.934857845, 3.92        , 3           , 50          , 0           , 0
0.151801527 , -0.011376325, -9.776369   , 0.00299174665, 0.000558227068, 0.0007328198, 0.109073751 , 0.163745448 , 0.713091552 , 0.00163000985, 0.01526694  , -0.934850454, 3.93        , 3           , 11          , 0.0104402294, 0.0104401913
0.160616726 , -0.009519562, -9.746455   , 0.00407285336, -0.004043717, 0.00124522485, 0.109208576 , 0.163678035 , 0.7132264   , 0.00167092762, 0.0152264833, -0.934838057, 3.94        , 3           , 12          , 0.0619222745, 0
0.132360637 , -0.03314246 , -9.791705   , 0.000167700869, 0.00202513812, 0.0001642255, 0.109141164 , 0.163610622 , 0.713091552 , 0.00167262938, 0.01524673  , -0.9348366  , 3.95        , 3           , 50          , 0           , 0
0.146344185 , -0.0350047052, -9.79747    , 0.00215548044, 0.00171833171, 0.000172045722, 0.109208576 , 0.163543209 , 0.713024139 , 0.00169421057, 0.0152639113, -0.9348347  , 3.96        , 3           , 11          , 0.0104402294, 0.0104401913
0.15568231  , -0.03304056 , -9.777939   , 0.00101772055, 0.00172989024, 0.000165192148, 0.109208576 , 0.163543209 , 0.713024139 , 0.001704413 , 0.0152812069, -0.93483305 , 3.97        , 3           , 12          , 0.0619222745, 0
0.156628028 , -0.02763753 , -9.777869   , -0.000681765261, 0.00203892612, -0.0004132427, 0.109275989 , 0.163543209 , 0.7133612   , 0.00169753225, 0.015301601 , -0.9348371  , 3.98        , 3           , 50          , 0           , 0
0.145317718 , -0.03029335 , -9.773486   , -0.00157275808, -0.00138879544, -0.0007546294, 0.109208576 , 0.163678035 , 0.7132938   , 0.00168168987, 0.0152877262, -0.934844732, 3.99        , 3           , 11          , 0.0104402294, 0.0104401913
0.120119482 , -0.034946695, -9.781901   , 0.00101924839, 0.00115118816, 0.000443175144, 0.109073751 , 0.163610622 , 0.7132264   , 0.00172532059, 0.0152893392, -0.9348397  , 4           , 3           , 12          , 0.0629920438, 0
0.130521983 , -0.03763582 , -9.791775   , 0.000447622384, 0.0005889281, -0.0001409267, 0.109275989 , 0.163678035 , 0.713024139 , 0.00172977569, 0.01529523  , -0.934841156, 4.01        , 3           , 50          , 0           , 0
0.150145754 , -0.00891256 , -9.794424   , 0.000460268231, 0.002016705 , 0.000452268985, 0.109275989 , 0.163678035 , 0.713024139 , 0.00173444813, 0.0153153865, -0.9348364  , 4.02        , 3           , 11          , 0.0106610544, 0.010661019
0.142392457 , -0.00988806 , -9.781408   , -0.002334054, 0.00408748863, -0.00354194618, 0.109410815 , 0.163543209 , 0.7132264   , 0.0017105653, 0.0153563228, -0.9348719  , 4.03        , 3           , 12          , 0.0629920438, 0
0.130564421 , -0.0273327325, -9.785331   , -0.0001179573, 0.000881286571, -0.000140179938, 0.109208576 , 0.163543209 , 0.7132264   , 0.00170936435, 0.0153651386, -0.9348731  , 4.04        , 3           , 50          , 0           , 0
0.1287129   , -0.0273944847, -9.778122   , -0.000696183357, -0.000254131766, -0.0007326289, 0.109073751 , 0.163678035 , 0.7132264   , 0.0017022898, 0.0153626092, -0.9348805  , 4.05        , 3           , 11          , 0.0106610544, 0.010661019
0.1387541   , -0.027272664, -9.797451   , -0.006671084, 0.0006509306, 0.000960894336, 0.109208576 , 0.163678035 , 0.7132938   , 0.00163572631, 0.0153691024, -0.934870958, 4.06        , 3           , 12          , 0.0629920438, 0
0.154482424 , -0.0172180757, -9.780477   , 0.00382238626, -0.00147227757, 0.00213973131, 0.109208576 , 0.163610622 , 0.7129567   , 0.00167427852, 0.0153543456, -0.9348495  , 4.07        , 3           , 50          , 0           , 0
0.161769927 , -0.0207138415, -9.796712   , 0.000138155941, -0.00141679577, 0.000114309209, 0.109208576 , 0.163610622 , 0.7129567   , 0.00167567725, 0.0153401755, -0.9348483  , 4.08        , 3           , 11          , 0.0106610544, 0.010661019
0.122955576 , -0.03565426 , -9.80221    , 0.00299850153, 0.000268663862, 0.00072881236, 0.109141164 , 0.1634758   , 0.713091552 , 0.00170577422, 0.0153428474, -0.9348409  , 4.09        , 3           , 12          , 0.0629920438, 0
0.132851    , -0.0268530343, -9.789822   , 0.00169329112, 0.00389581919, 0.00106154766, 0.109073751 , 0.163610622 , 0.713158965 , 0.00198333361, 0.0150042409, -0.934829   , 4.1         , 3           , 50          , 0           , 0
0.16208446  , -0.0115777813, -9.765888   , -0.0003456266, -0.00122702122, -0.0007425536, 0.109208576 , 0.163543209 , 0.7132264   , 0.001979766 , 0.0149919866, -0.9348364  , 4.11        , 3           , 11          , 0.0108629735, 0.0108629391
0.149574235 , -0.009984644, -9.778181   , -0.00229847943, 0.00194813637, -0.0009948025, 0.109208576 , 0.163408384 , 0.7132264   , 0.00195663166, 0.0150114857, -0.934846163, 4.12        , 3           , 12          , 0.06406702  , 0
0.128867447 , -0.0342799425, -9.808915   , 0.00192767731, -0.000124297716, 0.00157715974, 0.109208576 , 0.163408384 , 0.7132264   , 0.001976145 , 0.0150102135, -0.9348304  , 4.13        , 3           , 50          , 0           , 0
0.139560163 , -0.0341021568, -9.792102   , -0.0005981747, 0.00220458023, 0.000450471474, 0.109275989 , 0.163610622 , 0.713158965 , 0.001970231 , 0.01503225  , -0.9348259  , 4.14        , 3           , 11          , 0.0108629735, 0.0108629391
0.144107819 , -0.0287304819, -9.791998   , -0.000356080418, -0.0018052985, -0.000178572649, 0.1093434   , 0.163745448 , 0.7132264   , 0.001966643 , 0.0150142051, -0.9348278  , 4.15        , 3           , 12          , 0.06406702  , 0
0.145528466 , -0.0121651832, -9.781857   , -0.004317887, -0.000326828973, -0.0007540205, 0.109275989 , 0.163745448 , 0.7132264   , 0.00192334992, 0.0150109474, -0.934835434, 4.16        , 3           , 50          , 0           , 0
0.144230574 , -0.0196397882, -9.798668   , -0.002076209, -0.00180587731, 0.001814295 , 0.109208576 , 0.163678035 , 0.713091552 , 0.00190286  , 0.0149928546, -0.9348171  , 4.17        , 3           , 11          , 0.0108629735, 0.0108629391
0.1356606   , -0.0284914784, -9.80743    , 0.0033622582, 0.000442091026, 0.000735581852, 0.109208576 , 0.163678035 , 0.713091552 , 0.00193659321, 0.01499726  , -0.9348099  , 4.18        , 3           , 12          , 0.06406702  , 0
0.132850066 , -0.0206226278, -9.782071   , -0.000344807457, -0.0006615414, 0.000124285492, 0.109006338 , 0.163543209 , 0.7129567   , 0.00193316361, 0.0149906417, -0.9348085  , 4.19        , 3           , 50          , 0           , 0
0.146847367 , -0.0193478912, -9.785993   , -0.00118930545, -0.000374634837, -0.000449042243, 0.109073751 , 0.163610622 , 0.713158965 , 0.00192710187, 0.0149393678, -0.9348135  , 4.2         , 3           , 11          , 0.01040949  , 0.0104094585
0.167910218 , -0.0317017548, -9.786393   , -0.00232183817, -7.393773E-05, -0.0007378863, 0.109208576 , 0.163745448 , 0.7132264   , 0.00190377259, 0.0149386432, -0.9348209  , 4.21        , 3           , 12          , 0.0651467741, 0
0.145817637 , -0.0377884656, -9.789828   , 0.000834773935, 0.00247092941, -0.000395313167, 0.109208576 , 0.163543209 , 0.7133612   , 0.001912063 , 0.0149633605, -0.9348247  , 4.22        , 3           , 50          , 0           , 0
0.139167741 , -0.04024154 , -9.807986   , -0.00172492117, 0.003343876 , 0.00103260681, 0.109410815 , 0.1634758   , 0.713158965 , 0.00189497042, 0.01499678  , -0.9348142  , 4.23        , 3           , 11          , 0.01040949  , 0.0104094585
0.1694006   , -0.0194809977, -9.791658   , -0.00174168625, 0.00106404012, -0.000431601366, 0.109410815 , 0.1634758   , 0.713158965 , 0.00187748927, 0.015007427 , -0.9348185  , 4.24        , 3           , 12          , 0.0651467741, 0
0.151026145 , -0.0236406028, -9.809492   , -0.00148887234, -0.00152062136, -0.000181285766, 0.109073751 , 0.1634758   , 0.7132264   , 0.00186257274, 0.0149922231, -0.9348204  , 4.25        , 3           , 50          , 0           , 0
0.150885418 , -0.0274172053, -9.793727   , -1.33187859E-05, 0.002768737 , -0.0006824438, 0.109275989 , 0.163543209 , 0.7133612   , 0.00186233863, 0.0150199216, -0.9348271  , 4.26        , 3           , 11          , 0.01040949  , 0.0104094585
0.155580759 , -0.006239655, -9.795698   , 0.003103694 , 0.001874654 , -0.0003899531, 0.1093434   , 0.163610622 , 0.7132264   , 0.001893318 , 0.0150386756, -0.9348309  , 4.27        , 3           , 12          , 0.0651467741, 0
0.145039722 , -0.0126653966, -9.776898   , -0.00409751246, -0.00522782234, 0.0006075298, 0.109410815 , 0.163610622 , 0.7132264   , 0.00185243285, 0.0149863865, -0.9348252  , 4.28        , 3           , 50          , 0           , 0
0.136396587 , -0.024299955, -9.778467   , -0.002661559, -0.004377414, 5.628933E-05, 0.109410815 , 0.163610622 , 0.7132264   , 0.001825824 , 0.0149426116, -0.9348247  , 4.29        , 3           , 11          , 0.01040949  , 0.0104094585
0.139932364 , -0.04045746 , -9.788558   , -0.00177945243, -0.00266924128, -0.0004858045, 0.109208576 , 0.1634758   , 0.713091552 , 0.00182664592, 0.0148877213, -0.9348295  , 4.3         , 3           , 12          , 0.06623088  , 0
0.132228285 , -0.0400221571, -9.780945   , 0.000218228321, -0.00211631018, -0.000465463672, 0.109275989 , 0.163745448 , 0.7132264   , 0.001828758 , 0.0148665654, -0.934834   , 4.31        , 3           , 50          , 0           , 0
0.150777772 , -0.0231307354, -9.772902   , 0.00255396659, 0.00358447735, 0.0004902062, 0.109141164 , 0.163745448 , 0.7133612   , 0.00185437244, 0.0149024017, -0.934829   , 4.32        , 3           , 11          , 0.0105314162, 0.0105313836
0.154513508 , -0.0198412444, -9.788186   , -0.003987864, 0.00252253865, -0.001569044, 0.109208576 , 0.163610622 , 0.713158965 , 0.00181426108, 0.0149276555, -0.934844732, 4.33        , 3           , 12          , 0.06623088  , 0
0.153554171 , -0.0306067523, -9.792836   , -0.00345253758, -6.757199E-05, -0.001030851, 0.109141164 , 0.1634758   , 0.7132264   , 0.00177958142, 0.0149269989, -0.934855   , 4.34        , 3           , 50          , 0           , 0
0.137550652 , -0.0279256143, -9.819603   , 0.00108363992, -0.000415742223, 0.000709373737, 0.109141164 , 0.1634758   , 0.7132264   , 0.00179052469, 0.0149228284, -0.934847832, 4.35        , 3           , 11          , 0.0105314162, 0.0105313836
0.135975346 , -0.03537997 , -9.796215   , 0.000200355367, -0.00383322523, -0.000776668952, 0.109141164 , 0.1634758   , 0.713091552 , 0.00179241144, 0.014884511 , -0.9348557  , 4.36        , 3           , 12          , 0.06623088  , 0
0.1611279   , -0.0272354987, -9.776918   , 0.004829775 , 0.00243296032, -0.00151592866, 0.109141164 , 0.163812861 , 0.7132264   , 0.00184048375, 0.0149088651, -0.934870958, 4.37        , 3           , 50          , 0           , 0
0.147848636 , -0.000950858, -9.778092   , 0.001380726 , 0.00100914482, 0.00130428292, 0.109478228 , 0.1634758   , 0.7132264   , 0.00185448572, 0.0149189327, -0.934857845, 4.38        , 3           , 11          , 0.0105314162, 0.0105313836
0.145934388 , -0.0100113507, -9.772795   , -0.00141745061, 0.00307480968, -0.00211760448, 0.108938925 , 0.163678035 , 0.713091552 , 0.00183999457, 0.0149497222, -0.934879065, 4.39        , 3           , 12          , 0.06623088  , 0
0.159081087 , -0.020670969, -9.798543   , -0.00345585449, 0.00106327853, 0.000702735735, 0.108938925 , 0.163678035 , 0.713091552 , 0.00178697007, 0.0149599267, -0.9348724  , 4.4         , 3           , 50          , 0           , 0
0.173086569 , -0.00647481 , -9.787861   , -0.000627954956, -0.000398513424, 0.000699002063, 0.108871512 , 0.163543209 , 0.713091552 , 0.0017807947, 0.0149559332, -0.934865236, 4.41        , 3           , 11          , 0.0106749907, 0.0106749553
0.158553079 , -0.0198958833, -9.786343   , 0.000236638065, 0.000736574759, 0.00100700022, 0.109208576 , 0.163880274 , 0.7132264   , 0.00178331218, 0.0149632785, -0.9348552  , 4.42        , 3           , 12          , 0.06731895  , 0
0.152824879 , -0.004518967, -9.785767   , -0.00175114255, 0.00104338129, 0.00099918  , 0.109073751 , 0.163610622 , 0.7132938   , 0.00176595012, 0.0149736935, -0.9348452  , 4.43        , 3           , 50          , 0           , 0
0.1414627   , -0.005918838, -9.772337   , -0.00116354646, 0.00134465739, -0.00128253177, 0.109275989 , 0.163678035 , 0.7132938   , 0.00175412325, 0.0149871623, -0.9348581  , 4.44        , 3           , 11          , 0.0106749907, 0.0106749553
0.163260847 , -0.0376743227, -9.772504   , -0.00146118645, 0.000201230388, -0.00130093924, 0.109275989 , 0.163678035 , 0.7132938   , 0.00173931767, 0.0149891982, -0.934870958, 4.45        , 3           , 12          , 0.06731895  , 0
0.132154673 , -0.0339030474, -9.762808   , 0.00222745258, -0.000130592438, -0.000424346537, 0.1093434   , 0.1634758   , 0.713158965 , 0.00176152808, 0.014987899 , -0.93487525 , 4.46        , 3           , 50          , 0           , 0
0.138247222 , -0.0318068266, -9.794798   , 0.000816814 , -0.000100787183, -0.00214989763, 0.109141164 , 0.163543209 , 0.7132938   , 0.00176937354, 0.0149869267, -0.9348967  , 4.47        , 3           , 11          , 0.0106749907, 0.0106749553
0.131496564 , -0.0157186482, -9.775702   , 0.00474121235, -0.00416870741, -0.00046735545, 0.108871512 , 0.163543209 , 0.7132264   , 0.00181671348, 0.0149452519, -0.9349015  , 4.48        , 3           , 12          , 0.06731895  , 0
0.145078748 , -0.009489706, -9.778668   , 0.00136339  , 0.00042819904, 0.00215433631, 0.108871512 , 0.163678035 , 0.7132264   , 0.00183066935, 0.0149494922, -0.93488    , 4.49        , 3           , 50          , 0           , 0
0.15014869  , -0.004456736, -9.789404   , 0.00256644469, 0.005026604 , -0.000633797667, 0.109208576 , 0.163610622 , 0.7129567   , 0.00183012069, 0.0149962977, -0.9348867  , 4.5         , 3           , 11          , 0.0108427163, 0.0108426809
0.13342838  , -0.0168693028, -9.796024   , 0.005399018 , 0.0041354103, -0.0003430203, 0.109208576 , 0.163610622 , 0.7129567   , 0.001884061 , 0.0150376586, -0.934890032, 4.51        , 3           , 12          , 0.06841062  , 0
0.1350066   , -0.0230128784, -9.771238   , -0.00177523587, -0.0009558933, 0.000111349254, 0.108938925 , 0.163745448 , 0.7132264   , 0.00186632562, 0.0150280958, -0.93488884 , 4.52        , 3           , 50          , 0           , 0
0.122353077 , -0.036328692, -9.780993   , 0.00161357166, -0.00328064244, -0.00018764229, 0.109006338 , 0.163678035 , 0.7132264   , 0.00188243168, 0.0149952937, -0.934890747, 4.53        , 3           , 11          , 0.0108427163, 0.0108426809
0.13871482  , -0.0375709124, -9.804346   , 0.0005365842, 0.00217336044, 0.000170965286, 0.109141164 , 0.1634758   , 0.7132938   , 0.0018878238, 0.0150170233, -0.9348891  , 4.54        , 3           , 12          , 0.06841062  , 0
0.14823778  , -0.029536929, -9.804165   , -0.00227014231, 0.00563864736, 0.0004900778, 0.109141164 , 0.163745448 , 0.7132264   , 0.00186519756, 0.0150734009, -0.9348841  , 4.55        , 3           , 50          , 0           , 0
0.146794364 , -0.02120958 , -9.780594   , 0.0005646456, 0.00362161314, -0.001525151, 0.109141164 , 0.163745448 , 0.7132264   , 0.00187061483, 0.0151096443, -0.9348991  , 4.56        , 3           , 11          , 0.0108427163, 0.0108426809
0.147368476 , -0.009005178, -9.783609   , 0.000550337951, 0.00303821685, -0.000388842134, 0.109006338 , 0.163610622 , 0.7132264   , 0.0018760605, 0.0151400343, -0.934903145, 4.57        , 3           , 12          , 0.06841062  , 0
0.147435546 , -0.0106829926, -9.795373   , -0.00232238788, 0.00077192043, -0.000153200337, 0.109073751 , 0.163678035 , 0.7132264   , 0.00185281318, 0.0151477568, -0.934904337, 4.58        , 3           , 50          , 0           , 0
0.120207824 , -0.032585714, -9.79181    , -0.00263626315, -0.0009574626, 0.00125086517, 0.109073751 , 0.163678035 , 0.7132938   , 0.00182663964, 0.0151381595, -0.934891939, 4.59        , 3           , 11          , 0.0108427163, 0.0108426809
0.1417233   , -0.0293601714, -9.773508   , -0.000297193648, 0.00012579262, -0.00129402115, 0.1093434   , 0.163543209 , 0.7132938   , 0.00195435225, 0.0148898941, -0.9349053  , 4.6         , 3           , 12          , 0.06950556  , 0
0.151301682 , -0.0176802464, -9.776898   , 0.00138083054, -0.001058338, 0.0009888771, 0.109208576 , 0.163678035 , 0.7132264   , 0.00196830765, 0.0148792919, -0.9348955  , 4.61        , 3           , 50          , 0           , 0
0.138874128 , -0.001716204, -9.783605   , 0.0002994592, 0.00269666617, -0.0009668685, 0.109208576 , 0.163678035 , 0.7132264   , 0.00197115866, 0.0149062769, -0.9349053  , 4.62        , 3           , 11          , 0.0109617775, 0.0109617431
0.151063591 , -0.0146805635, -9.803967   , 0.003683858 , 0.000648258138, -0.000117030417, 0.109208576 , 0.163678035 , 0.7132264   , 0.00200798013, 0.01491276  , -0.934906244, 4.63        , 3           , 12          , 0.06950556  , 0
0.149206877 , -0.011634348, -9.792206   , 0.0028553   , 0.00181860069, -0.00182246068, 0.109141164 , 0.163610622 , 0.713563442 , 0.002036262 , 0.014930984 , -0.934924364, 4.64        , 3           , 50          , 0           , 0
0.154221565 , -0.0008992925, -9.787971   , -0.00317707472, -0.00243220222, -0.0004902248, 0.109073751 , 0.163610622 , 0.7134286   , 0.002004417 , 0.0149066746, -0.9349294  , 4.65        , 3           , 11          , 0.0109617775, 0.0109617431
0.14564243  , -0.0164419878, -9.803586   , -0.00289759552, -0.00187729055, 0.00123681978, 0.109006338 , 0.163610622 , 0.713158965 , 0.00197562436, 0.0148878749, -0.9349172  , 4.66        , 3           , 12          , 0.06950556  , 0
0.155056953 , -0.0254891962, -9.808573   , 0.000820742745, 0.000370099035, 0.00215097424, 0.109006338 , 0.163610622 , 0.713158965 , 0.00198415224, 0.0148915332, -0.9348955  , 4.67        , 3           , 50          , 0           , 0
0.155615374 , -0.0155344708, -9.812066   , -0.00399161363, 0.0004499368, -0.00131212175, 0.109275989 , 0.163543209 , 0.713024139 , 0.00194404169, 0.0148960575, -0.9349086  , 4.68        , 3           , 11          , 0.0109617775, 0.0109617431
0.146394059 , -0.0215742979, -9.788281   , -0.000796509034, 0.00699667446, 0.000233537037, 0.109006338 , 0.163610622 , 0.713158965 , 0.00193611358, 0.01496602  , -0.934906244, 4.69        , 3           , 12          , 0.06950556  , 0
0.136818737 , -0.031023901, -9.782606   , -0.00112031121, 0.00242693583, -0.00126570778, 0.109073751 , 0.163678035 , 0.7132938   , 0.00194020849, 0.0149896713, -0.934918642, 4.7         , 3           , 50          , 0           , 0
0.135088742 , -0.0228870772, -9.78298    , 0.0005882554, 0.0024121576, -0.00154159113, 0.109208576 , 0.163745448 , 0.713158965 , 0.00194586057, 0.0150138224, -0.9349339  , 4.71        , 3           , 11          , 0.01074488  , 0.0107448436
0.156303078 , -0.0189841464, -9.78545    , -0.0003189716, -0.00160151965, -0.0004605049, 0.109208576 , 0.163745448 , 0.713158965 , 0.00194260164, 0.0149978139, -0.934938431, 4.72        , 3           , 12          , 0.07060343  , 0
0.141917661 , -0.011702273, -9.780078   , -0.0005827926, 0.0006863246, 0.000429662 , 0.109275989 , 0.163543209 , 0.713158965 , 0.001936838 , 0.0150046693, -0.9349344  , 4.73        , 3           , 50          , 0           , 0
0.146531254 , -0.02269959 , -9.809523   , -0.00315265241, -0.000147406245, 0.00040172087, 0.109073751 , 0.163543209 , 0.7132264   , 0.00190537062, 0.0150031913, -0.9349301  , 4.74        , 3           , 11          , 0.01074488  , 0.0107448436
0.13795191  , 0.00315482728, -9.774523   , 0.000830903533, -0.00187918113, -0.002747137, 0.109141164 , 0.163745448 , 0.7133612   , 0.00191326777, 0.0149844484, -0.934957743, 4.75        , 3           , 12          , 0.07060343  , 0
0.128538087 , -0.001150934, -9.785951   , -0.00231693988, -0.00102605065, 0.00153899635, 0.108938925 , 0.1634758   , 0.7133612   , 0.00189032767, 0.0149741592, -0.9349425  , 4.76        , 3           , 50          , 0           , 0
0.1405067   , -0.0327040479, -9.797046   , -0.00171725336, 0.0009844622, 0.000426981947, 0.109208576 , 0.1634758   , 0.7132264   , 0.001873219 , 0.0149839958, -0.9349382  , 4.77        , 3           , 11          , 0.01074488  , 0.0107448436
0.157029256 , -0.0335032269, -9.777932   , 0.001972494 , 8.971926E-05, 0.000150571475, 0.109208576 , 0.1634758   , 0.7132264   , 0.00189296668, 0.014984889 , -0.934936762, 4.78        , 3           , 12          , 0.07060343  , 0
0.154116258 , -0.017975634, -9.793589   , -0.0011183843, 0.002429495 , -0.00155187154, 0.109141164 , 0.163678035 , 0.713158965 , 0.00188155146, 0.0150092132, -0.934952   , 4.79        , 3           , 50          , 0           , 0
0.148826674 , -0.04070521 , -9.77267    , -0.00320100132, -0.00470398925, -0.0005234232, 0.109006338 , 0.163678035 , 0.7133612   , 0.001843885 , 0.0150499735, -0.934956551, 4.8         , 3           , 11          , 0.0106930388, 0.0106930016
0.149334878 , -0.03750442 , -9.777145   , 0.00105622911, -0.003913191, 0.00237643858, 0.109006338 , 0.163610622 , 0.7134286   , 0.00185480446, 0.0150107965, -0.934932947, 4.81        , 3           , 12          , 0.07170395  , 0
0.13703011  , -0.0124496687, -9.790521   , 0.00223277  , -0.00105128 , 0.00156653533, 0.1093434   , 0.163745448 , 0.7132938   , 0.00187736622, 0.0150002558, -0.9349172  , 4.82        , 3           , 50          , 0           , 0
0.14868696  , -0.0210849289, -9.793674   , 0.00338813732, -0.000192862863, 0.00044125336, 0.1093434   , 0.163745448 , 0.7132938   , 0.00191131432, 0.0149983186, -0.9349127  , 4.83        , 3           , 11          , 0.0106930388, 0.0106930016
0.144459248 , -0.0364530161, -9.787115   , 0.0002859863, 0.00100315618, -0.00156404765, 0.109073751 , 0.163610622 , 0.713024139 , 0.00191393972, 0.0150083806, -0.9349284  , 4.84        , 3           , 12          , 0.07170395  , 0
0.160634369 , -0.03352975 , -9.778351   , -0.00485484162, -0.000101385231, -0.0004669271, 0.109073751 , 0.163610622 , 0.7132938   , 0.00186532165, 0.0150073757, -0.934932947, 4.85        , 3           , 50          , 0           , 0
0.153226435 , -0.0286346916, -9.808174   , -0.00232072687, -0.0027014853, -0.00106139632, 0.108938925 , 0.163610622 , 0.713158965 , 0.00184195465, 0.01498038  , -0.9349437  , 4.86        , 3           , 11          , 0.0106930388, 0.0106930016
0.140133172 , -0.02501537 , -9.798767   , 0.00228559272, 0.00155864679, -0.001829871, 0.108938925 , 0.163678035 , 0.713158965 , 0.0018645376, 0.0149960006, -0.934962034, 4.87        , 3           , 12          , 0.07170395  , 0
0.123307772 , -0.0335826948, -9.78547    , -0.000922734849, -0.004159067, 7.095904E-05, 0.108938925 , 0.163610622 , 0.713091552 , 0.00185532053, 0.0149544086, -0.9349613  , 4.88        , 3           , 50          , 0           , 0
0.14883244  , -0.0115142986, -9.803048   , 0.000833404367, 0.000122282436, 0.0001438424, 0.108938925 , 0.163610622 , 0.713091552 , 0.00186367624, 0.0149556333, -0.9349599  , 4.89        , 3           , 11          , 0.0106930388, 0.0106930016
0.14326641  , -0.0224002823, -9.792836   , 0.00135102659, -0.00331224618, -0.000475377834, 0.109006338 , 0.163610622 , 0.7132938   , 0.00181057549, 0.0149442852, -0.9349656  , 4.9         , 3           , 12          , 0.07280683  , 0
0.1701641   , -0.034388084, -9.790017   , 0.00334485271, -0.00276443455, 0.000117291042, 0.109006338 , 0.163610622 , 0.7133612   , 0.0018440407, 0.0149166379, -0.9349644  , 4.91        , 3           , 50          , 0           , 0
0.142954618 , -0.0110559855, -9.799032   , -0.00176817912, -0.00326766283, -0.001925045, 0.109073751 , 0.163678035 , 0.7133612   , 0.00182607118, 0.0148839979, -0.93498373 , 4.92        , 3           , 11          , 0.0102720717, 0.0102720391
0.153664932 , -0.0210893434, -9.797243   , 0.002542959 , 0.00154548127, -0.000111410161, 0.109141164 , 0.163408384 , 0.7132938   , 0.00185148511, 0.014899455 , -0.9349849  , 4.93        , 3           , 12          , 0.07280683  , 0
0.161256433 , -0.03238025 , -9.80182    , 0.00255972426, 0.003825317 , 0.00135279819, 0.109141164 , 0.163408384 , 0.7132938   , 0.00187728519, 0.0149376858, -0.9349711  , 4.94        , 3           , 50          , 0           , 0
0.1513274   , -0.0265435111, -9.791454   , -0.00229305052, -9.927484E-05, -0.003027219, 0.109006338 , 0.163745448 , 0.713091552 , 0.00185390352, 0.0149367461, -0.9350016  , 4.95        , 3           , 11          , 0.0102720717, 0.0102720391
0.153369442 , -0.03890209 , -9.776221   , 0.000831381069, 0.0001452804, -0.00185954222, 0.109073751 , 0.163745448 , 0.7133612   , 0.00186193991, 0.0149382344, -0.93501997 , 4.96        , 3           , 12          , 0.07280683  , 0
0.149011508 , -0.03463538 , -9.792022   , -0.00117207947, -0.000415329123, -0.001021391, 0.108938925 , 0.163678035 , 0.7132938   , 0.00185006612, 0.0149340983, -0.9350302  , 4.97        , 3           , 50          , 0           , 0
0.129911855 , -0.0189327821, -9.810987   , -0.00176075974, -0.00212902483, -0.001049859, 0.109208576 , 0.163610622 , 0.7132264   , 0.00183230184, 0.0149128288, -0.935040951, 4.98        , 3           , 11          , 0.0102720717, 0.0102720391
0.141548678 , -0.01914117 , -9.800944   , 0.0022043467, -0.00332091516, -0.000470237661, 0.109208576 , 0.163610622 , 0.7132264   , 0.00185427279, 0.0148796272, -0.9350457  , 4.99        , 3           , 12          , 0.07280683  , 0
0.169614628 , -0.0216272529, -9.760063   , -0.000846022565, 0.002721636 , -0.00125999376, 0.109073751 , 0.163408384 , 0.713158965 , 0.00186055142, 0.0148405954, -0.935058832, 5           , 3           , 50          , 0           , 0
0.140232414 , -0.0442524925, -9.771436   , 0.00114862225, 0.00383492769, 0.000199514339, 0.109208576 , 0.163745448 , 0.7133612   , 0.0018720685, 0.014878937 , -0.9350567  , 5.01        , 3           , 11          , 0.009997811 , 0.009997788
0.15228337  , -0.0113318525, -9.780882   , 0.0042615165, 0.00208878587, -0.000379007543, 0.109073751 , 0.163678035 , 0.7132264   , 0.00191462878, 0.0148998331, -0.9350605  , 5.02        , 3           , 12          , 0.07391181  , 0
0.145916551 , -0.0322953463, -9.797442   , -0.0005648825, 0.002432167 , -0.00126245385, 0.109275989 , 0.163812861 , 0.713091552 , 0.001908793 , 0.01492418  , -0.935073137, 5.03        , 3           , 50          , 0           , 0
0.151901245 , -0.0214616675, -9.803135   , 0.000567915442, 0.00297840987, 0.000469730934, 0.108938925 , 0.163340971 , 0.7132938   , 0.00191454263, 0.0149539541, -0.935068369, 5.04        , 3           , 11          , 0.009997811 , 0.009997788
0.148215711 , -0.0179972518, -9.786868   , -0.000357738376, -0.00247072265, 0.0018161136, 0.108938925 , 0.163340971 , 0.7132938   , 0.00191123632, 0.0149292117, -0.935050249, 5.05        , 3           , 12          , 0.07391181  , 0
0.157048509 , -0.0263516326, -9.771977   , 0.00167652965, 0.00010617893, -0.000137478841, 0.1093434   , 0.163678035 , 0.713158965 , 0.001927981 , 0.0149302771, -0.9350517  , 5.06        , 3           , 50          , 0           , 0
0.148573756 , -0.0439601429, -9.805233   , -0.00716035534, -0.00180517789, -0.0007921368, 0.109141164 , 0.163745448 , 0.7133612   , 0.0018562593, 0.0149122393, -0.9350593  , 5.07        , 3           , 11          , 0.009997811 , 0.009997788
0.131983519 , -0.0419292226, -9.81304    , -0.006297136, -0.000954109244, -0.000774476037, 0.109006338 , 0.163408384 , 0.7132938   , 0.00179317244, 0.0149027128, -0.9350672  , 5.08        , 3           , 12          , 0.07391181  , 0
